"trial_type","trial_index","time_elapsed","internal_node_id","task_version","subject_id","interactions","blur_events","focus_events","fullscreenenter_events","fullscreenexit_events","success","view_history","rt","responses","num_errors","age","subject","participantId","rune","rune_set","hex","correct","choice","accuracy","outcome","keys","total_keys","block","practice","value","sub","trial","stimulus","robot","valence","action","sham"
"pavlovia","0","42","0.0-0.0","battery-v0.2","","""event"",""trial"",""time""
""fullscreenenter"",""1"",""2569""
","
","
","""event"",""trial"",""time""
""fullscreenenter"",""1"",""2569""
","
","","","","","","","","","","","","","","","","","","","","","","","","","","",""
"fullscreen","1","3562","0.0-1.0","battery-v0.2","","""event"",""trial"",""time""
""fullscreenenter"",""1"",""2569""
","
","
","""event"",""trial"",""time""
""fullscreenenter"",""1"",""2569""
","
","true","","","","","","","","","","","","","","","","","","","","","","","","","",""
"pit-instructions","2","9847","0.0-2.0-0.0","battery-v0.2","","""event"",""trial"",""time""
""fullscreenenter"",""1"",""2569""
","
","
","""event"",""trial"",""time""
""fullscreenenter"",""1"",""2569""
","
","","[{""page_index"":0,""viewing_time"":6281.89999999851}]","6282.39999999851","","","","","","","","","","","","","","","","","","","","","","","",""
"pit-comprehension","3","12367","0.0-2.0-1.0-0.0","battery-v0.2","","""event"",""trial"",""time""
""fullscreenenter"",""1"",""2569""
","
","
","""event"",""trial"",""time""
""fullscreenenter"",""1"",""2569""
","
","","","2516.89999999851","[""shark""]","0","13","3002","2509","","","","","","","","","","","","","","","","","","",""
"pit-instructions","4","16169","0.0-2.0-1.0-1.0","battery-v0.2","","""event"",""trial"",""time""
""fullscreenenter"",""1"",""2569""
","
","
","""event"",""trial"",""time""
""fullscreenenter"",""1"",""2569""
","
","","[{""page_index"":0,""viewing_time"":3789.60000000149}]","3789.800000000745","","","","","","","","","","","","","","","","","","","","","","","",""
"pit-comprehension","5","18712","0.0-2.0-2.0-0.0","battery-v0.2","","""event"",""trial"",""time""
""fullscreenenter"",""1"",""2569""
","
","
","""event"",""trial"",""time""
""fullscreenenter"",""1"",""2569""
","
","","","2540.300000000745","[""tiger""]","0","13","3002","2509","","","","","","","","","","","","","","","","","","",""
"pit-instructions","6","19330","0.0-2.0-2.0-1.0","battery-v0.2","","""event"",""trial"",""time""
""fullscreenenter"",""1"",""2569""
","
","
","""event"",""trial"",""time""
""fullscreenenter"",""1"",""2569""
","
","","[{""page_index"":0,""viewing_time"":616.3000000007451}]","616.6000000014901","","","","","","","","","","","","","","","","","","","","","","","",""
"pit-instructions","7","108942","0.0-2.0-3.0","battery-v0.2","","""event"",""trial"",""time""
""fullscreenenter"",""1"",""2569""
","
","
","""event"",""trial"",""time""
""fullscreenenter"",""1"",""2569""
","
","","[{""page_index"":0,""viewing_time"":7907.29999999702},{""page_index"":1,""viewing_time"":6007.300000000745},{""page_index"":2,""viewing_time"":7008.900000002235},{""page_index"":3,""viewing_time"":5107.5},{""page_index"":4,""viewing_time"":5231.79999999702},{""page_index"":5,""viewing_time"":5006.20000000298},{""page_index"":6,""viewing_time"":6626.39999999851},{""page_index"":7,""viewing_time"":6199.199999999255},{""page_index"":8,""viewing_time"":6367.699999999255},{""page_index"":9,""viewing_time"":8572.60000000149},{""page_index"":10,""viewing_time"":7594},{""page_index"":11,""viewing_time"":6716.60000000149},{""page_index"":12,""viewing_time"":6108.79999999702},{""page_index"":13,""viewing_time"":5152.800000000745}]","89607.29999999702","","","","","","","","","","","","","","","","","","","","","","","",""
"pit-trial","8","112123","0.0-2.0-4.0-0.0","battery-v0.2","","""event"",""trial"",""time""
""fullscreenenter"",""1"",""2569""
","
","
","""event"",""trial"",""time""
""fullscreenenter"",""1"",""2569""
","
","","","323.29999999701977","","","13","3002","2509","&#9784;","elianto","#FFFFF080"," "," ","1","&#10004","[1174.699999999255]","1","0","0","","","","","","","",""
"pit-trial","9","115190","0.0-2.0-4.1-0.1","battery-v0.2","","""event"",""trial"",""time""
""fullscreenenter"",""1"",""2569""
","
","
","""event"",""trial"",""time""
""fullscreenenter"",""1"",""2569""
","
","","","215.19999999925494","","","13","3002","2509","&#9784;","elianto","#FFFFF080"," "," ","1","&#10004","[1065.4000000022352]","1","0","0","","","","","","","",""
"pit-trial","10","118323","0.0-2.0-4.2-0.2","battery-v0.2","","""event"",""trial"",""time""
""fullscreenenter"",""1"",""2569""
","
","
","""event"",""trial"",""time""
""fullscreenenter"",""1"",""2569""
","
","","","276","","","13","3002","2509","&#9784;","elianto","#FFFFF080"," "," ","1","&#10004","[1126.6000000014901]","1","0","0","","","","","","","",""
"pit-trial","11","121440","0.0-2.0-4.3-0.3","battery-v0.2","","""event"",""trial"",""time""
""fullscreenenter"",""1"",""2569""
","
","
","""event"",""trial"",""time""
""fullscreenenter"",""1"",""2569""
","
","","","264","","","13","3002","2509","&#9784;","elianto","#FFFFF080"," "," ","1","&#10004","[1114.1000000014901]","1","0","0","","","","","","","",""
"pit-trial","12","124546","0.0-2.0-4.4-0.4","battery-v0.2","","""event"",""trial"",""time""
""fullscreenenter"",""1"",""2569""
","
","
","""event"",""trial"",""time""
""fullscreenenter"",""1"",""2569""
","
","","","250","","","13","3002","2509","&#9784;","elianto","#FFFFF080"," "," ","1","&#10004","[1100.800000000745]","1","0","0","","","","","","","",""
"pit-instructions","13","145417","0.0-2.0-5.0","battery-v0.2","","""event"",""trial"",""time""
""fullscreenenter"",""1"",""2569""
","
","
","""event"",""trial"",""time""
""fullscreenenter"",""1"",""2569""
","
","","[{""page_index"":0,""viewing_time"":4746.599999997765},{""page_index"":1,""viewing_time"":5794.10000000149},{""page_index"":2,""viewing_time"":4781.10000000149},{""page_index"":3,""viewing_time"":5546.29999999702}]","20868.39999999851","","","","","","","","","","","","","","","","","","","","","","","",""
"pit-trial","14","150274","0.0-2.0-6.0-0.0","battery-v0.2","","""event"",""trial"",""time""
""fullscreenenter"",""1"",""2569""
","
","
","""event"",""trial"",""time""
""fullscreenenter"",""1"",""2569""
","
","","","-1","","","13","3002","2509","&#9854;","elianto","#FFFFF080","-1","-1","1","&#10004","[]","0","0","1","","","","","","","",""
"pit-trial","15","155133","0.0-2.0-6.1-0.1","battery-v0.2","","""event"",""trial"",""time""
""fullscreenenter"",""1"",""2569""
","
","
","""event"",""trial"",""time""
""fullscreenenter"",""1"",""2569""
","
","","","-1","","","13","3002","2509","&#9854;","elianto","#FFFFF080","-1","-1","1","&#10004","[]","0","0","1","","","","","","","",""
"pit-trial","16","159992","0.0-2.0-6.2-0.2","battery-v0.2","","""event"",""trial"",""time""
""fullscreenenter"",""1"",""2569""
","
","
","""event"",""trial"",""time""
""fullscreenenter"",""1"",""2569""
","
","","","-1","","","13","3002","2509","&#9854;","elianto","#FFFFF080","-1","-1","1","&#10004","[]","0","0","1","","","","","","","",""
"pit-trial","17","164851","0.0-2.0-6.3-0.3","battery-v0.2","","""event"",""trial"",""time""
""fullscreenenter"",""1"",""2569""
","
","
","""event"",""trial"",""time""
""fullscreenenter"",""1"",""2569""
","
","","","-1","","","13","3002","2509","&#9854;","elianto","#FFFFF080","-1","-1","1","&#10004","[]","0","0","1","","","","","","","",""
"pit-trial","18","169710","0.0-2.0-6.4-0.4","battery-v0.2","","""event"",""trial"",""time""
""fullscreenenter"",""1"",""2569""
","
","
","""event"",""trial"",""time""
""fullscreenenter"",""1"",""2569""
","
","","","-1","","","13","3002","2509","&#9854;","elianto","#FFFFF080","-1","-1","1","&#10004","[]","0","0","1","","","","","","","",""
"pit-instructions","19","284149","0.0-2.0-7.0","battery-v0.2","","""event"",""trial"",""time""
""fullscreenenter"",""1"",""2569""
","
","
","""event"",""trial"",""time""
""fullscreenenter"",""1"",""2569""
","
","","[{""page_index"":0,""viewing_time"":7454},{""page_index"":1,""viewing_time"":6795},{""page_index"":2,""viewing_time"":5389},{""page_index"":3,""viewing_time"":5827.699999999255},{""page_index"":4,""viewing_time"":5152.5},{""page_index"":5,""viewing_time"":5298.699999999255},{""page_index"":6,""viewing_time"":5040.10000000149},{""page_index"":7,""viewing_time"":7920.39999999851},{""page_index"":8,""viewing_time"":6750.199999999255},{""page_index"":9,""viewing_time"":6064.10000000149},{""page_index"":10,""viewing_time"":6300.199999999255},{""page_index"":11,""viewing_time"":4376.199999999255},{""page_index"":12,""viewing_time"":6952.70000000298},{""page_index"":13,""viewing_time"":6975.099999997765},{""page_index"":14,""viewing_time"":7189.199999999255},{""page_index"":15,""viewing_time"":6919.20000000298},{""page_index"":16,""viewing_time"":7402.599999997765},{""page_index"":17,""viewing_time"":6626.400000002235}]","114433.59999999776","","","","","","","","","","","","","","","","","","","","","","","",""
"pit-trial","20","287284","0.0-2.0-8.0-0.0","battery-v0.2","","""event"",""trial"",""time""
""fullscreenenter"",""1"",""2569""
","
","
","""event"",""trial"",""time""
""fullscreenenter"",""1"",""2569""
","
","","","282.1000000014901","","","13","3002","2509","&#9776;","elianto","#3366ff99"," "," ","1","+10","[1132.5999999977648]","1","0","1","","","","","","","",""
"pit-trial","21","290533","0.0-2.0-8.0-1.0","battery-v0.2","","""event"",""trial"",""time""
""fullscreenenter"",""1"",""2569""
","
","
","""event"",""trial"",""time""
""fullscreenenter"",""1"",""2569""
","
","","","395.19999999925494","","","13","3002","2509","&#9776;","elianto","#3366ff99"," "," ","1","+10","[1245.699999999255]","1","0","1","","","","","","","",""
"pit-trial","22","293692","0.0-2.0-8.0-2.0","battery-v0.2","","""event"",""trial"",""time""
""fullscreenenter"",""1"",""2569""
","
","
","""event"",""trial"",""time""
""fullscreenenter"",""1"",""2569""
","
","","","307.30000000074506","","","13","3002","2509","&#9776;","elianto","#3366ff99"," "," ","1","+10","[1157.5]","1","0","1","","","","","","","",""
"pit-trial","23","296745","0.0-2.0-8.0-3.0","battery-v0.2","","""event"",""trial"",""time""
""fullscreenenter"",""1"",""2569""
","
","
","""event"",""trial"",""time""
""fullscreenenter"",""1"",""2569""
","
","","","194.89999999850988","","","13","3002","2509","&#9776;","elianto","#3366ff99"," "," ","1","0","[1046.300000000745]","1","0","1","","","","","","","",""
"pit-trial","24","299833","0.0-2.0-8.0-4.0","battery-v0.2","","""event"",""trial"",""time""
""fullscreenenter"",""1"",""2569""
","
","
","""event"",""trial"",""time""
""fullscreenenter"",""1"",""2569""
","
","","","229.5","","","13","3002","2509","&#9776;","elianto","#3366ff99"," "," ","1","+10","[1081.800000000745]","1","0","1","","","","","","","",""
"call-function","25","299834","0.0-2.0-9.0","battery-v0.2","","""event"",""trial"",""time""
""fullscreenenter"",""1"",""2569""
","
","
","""event"",""trial"",""time""
""fullscreenenter"",""1"",""2569""
","
","","","","","","","","","","","","","","","","","","","","","","","","","","",""
"pit-instructions","26","340492","0.0-2.0-10.0","battery-v0.2","","""event"",""trial"",""time""
""fullscreenenter"",""1"",""2569""
","
","
","""event"",""trial"",""time""
""fullscreenenter"",""1"",""2569""
","
","","[{""page_index"":0,""viewing_time"":5386.699999999255},{""page_index"":1,""viewing_time"":6424.099999997765},{""page_index"":2,""viewing_time"":10766.5},{""page_index"":3,""viewing_time"":10102.900000002235},{""page_index"":4,""viewing_time"":7976.5}]","40657","","","","","","","","","","","","","","","","","","","","","","","",""
"pit-trial","27","344010","0.0-2.0-11.0-0.0","battery-v0.2","","""event"",""trial"",""time""
""fullscreenenter"",""1"",""2569""
","
","
","""event"",""trial"",""time""
""fullscreenenter"",""1"",""2569""
","
","","","660.9000000022352","","","13","3002","2509","&#9761;","elianto","#3366ff99","-1"," ","0","0","[1511.300000000745]","1","0","2","","","","","","","",""
"pit-trial","28","347359","0.0-2.0-11.0-1.0","battery-v0.2","","""event"",""trial"",""time""
""fullscreenenter"",""1"",""2569""
","
","
","""event"",""trial"",""time""
""fullscreenenter"",""1"",""2569""
","
","","","495.5999999977648","","","13","3002","2509","&#9761;","elianto","#3366ff99","-1"," ","0","0","[1345.7000000029802]","1","0","2","","","","","","","",""
"pit-trial","29","352219","0.0-2.0-11.0-2.0","battery-v0.2","","""event"",""trial"",""time""
""fullscreenenter"",""1"",""2569""
","
","
","""event"",""trial"",""time""
""fullscreenenter"",""1"",""2569""
","
","","","-1","","","13","3002","2509","&#9761;","elianto","#3366ff99","-1","-1","1","+10","[]","0","0","2","","","","","","","",""
"pit-trial","30","357072","0.0-2.0-11.0-3.0","battery-v0.2","","""event"",""trial"",""time""
""fullscreenenter"",""1"",""2569""
","
","
","""event"",""trial"",""time""
""fullscreenenter"",""1"",""2569""
","
","","","-1","","","13","3002","2509","&#9761;","elianto","#3366ff99","-1","-1","1","0","[]","0","0","2","","","","","","","",""
"pit-trial","31","361931","0.0-2.0-11.0-4.0","battery-v0.2","","""event"",""trial"",""time""
""fullscreenenter"",""1"",""2569""
","
","
","""event"",""trial"",""time""
""fullscreenenter"",""1"",""2569""
","
","","","-1","","","13","3002","2509","&#9761;","elianto","#3366ff99","-1","-1","1","+10","[]","0","0","2","","","","","","","",""
"pit-trial","32","366790","0.0-2.0-11.1-0.1","battery-v0.2","","""event"",""trial"",""time""
""fullscreenenter"",""1"",""2569""
","
","
","""event"",""trial"",""time""
""fullscreenenter"",""1"",""2569""
","
","","","-1","","","13","3002","2509","&#9761;","elianto","#3366ff99","-1","-1","1","+10","[]","0","0","2","","","","","","","",""
"pit-trial","33","369931","0.0-2.0-11.1-1.1","battery-v0.2","","""event"",""trial"",""time""
""fullscreenenter"",""1"",""2569""
","
","
","""event"",""trial"",""time""
""fullscreenenter"",""1"",""2569""
","
","","","283.30000000074506","","","13","3002","2509","&#9761;","elianto","#3366ff99","-1"," ","0","0","[1134.5]","1","0","2","","","","","","","",""
"pit-trial","34","373199","0.0-2.0-11.1-2.1","battery-v0.2","","""event"",""trial"",""time""
""fullscreenenter"",""1"",""2569""
","
","
","""event"",""trial"",""time""
""fullscreenenter"",""1"",""2569""
","
","","","415.1000000014901","","","13","3002","2509","&#9761;","elianto","#3366ff99","-1"," ","0","0","[1265.199999999255]","1","0","2","","","","","","","",""
"pit-trial","35","376537","0.0-2.0-11.1-3.1","battery-v0.2","","""event"",""trial"",""time""
""fullscreenenter"",""1"",""2569""
","
","
","""event"",""trial"",""time""
""fullscreenenter"",""1"",""2569""
","
","","","481.8999999985099","","","13","3002","2509","&#9761;","elianto","#3366ff99","-1"," ","0","+10","[1332.8999999985099]","1","0","2","","","","","","","",""
"pit-trial","36","379753","0.0-2.0-11.1-4.1","battery-v0.2","","""event"",""trial"",""time""
""fullscreenenter"",""1"",""2569""
","
","
","""event"",""trial"",""time""
""fullscreenenter"",""1"",""2569""
","
","","","361.8999999985099","","","13","3002","2509","&#9761;","elianto","#3366ff99","-1"," ","0","0","[1212]","1","0","2","","","","","","","",""
"pit-trial","37","382923","0.0-2.0-11.2-0.2","battery-v0.2","","""event"",""trial"",""time""
""fullscreenenter"",""1"",""2569""
","
","
","""event"",""trial"",""time""
""fullscreenenter"",""1"",""2569""
","
","","","313.80000000074506","","","13","3002","2509","&#9761;","elianto","#3366ff99","-1"," ","0","0","[1163.8999999985099]","1","0","2","","","","","","","",""
"pit-trial","38","385970","0.0-2.0-11.2-1.2","battery-v0.2","","""event"",""trial"",""time""
""fullscreenenter"",""1"",""2569""
","
","
","""event"",""trial"",""time""
""fullscreenenter"",""1"",""2569""
","
","","","189.79999999701977","","","13","3002","2509","&#9761;","elianto","#3366ff99","-1"," ","0","0","[1041.8999999985099]","1","0","2","","","","","","","",""
"pit-trial","39","389355","0.0-2.0-11.2-2.2","battery-v0.2","","""event"",""trial"",""time""
""fullscreenenter"",""1"",""2569""
","
","
","""event"",""trial"",""time""
""fullscreenenter"",""1"",""2569""
","
","","","527.6999999992549","","","13","3002","2509","&#9761;","elianto","#3366ff99","-1"," ","0","0","[1378.3999999985099]","1","0","2","","","","","","","",""
"pit-trial","40","392478","0.0-2.0-11.2-3.2","battery-v0.2","","""event"",""trial"",""time""
""fullscreenenter"",""1"",""2569""
","
","
","""event"",""trial"",""time""
""fullscreenenter"",""1"",""2569""
","
","","","270.69999999925494","","","13","3002","2509","&#9761;","elianto","#3366ff99","-1"," ","0","+10","[1122]","1","0","2","","","","","","","",""
"pit-trial","41","395759","0.0-2.0-11.2-4.2","battery-v0.2","","""event"",""trial"",""time""
""fullscreenenter"",""1"",""2569""
","
","
","""event"",""trial"",""time""
""fullscreenenter"",""1"",""2569""
","
","","","426.69999999925494","","","13","3002","2509","&#9761;","elianto","#3366ff99","-1"," ","0","0","[1279.0999999977648]","1","0","2","","","","","","","",""
"pit-trial","42","399363","0.0-2.0-11.3-0.3","battery-v0.2","","""event"",""trial"",""time""
""fullscreenenter"",""1"",""2569""
","
","
","""event"",""trial"",""time""
""fullscreenenter"",""1"",""2569""
","
","","","746.7000000029802","","","13","3002","2509","&#9761;","elianto","#3366ff99","-1"," ","0","0","[1597.699999999255]","1","0","2","","","","","","","",""
"pit-trial","43","402602","0.0-2.0-11.3-1.3","battery-v0.2","","""event"",""trial"",""time""
""fullscreenenter"",""1"",""2569""
","
","
","""event"",""trial"",""time""
""fullscreenenter"",""1"",""2569""
","
","","","381.80000000074506","","","13","3002","2509","&#9761;","elianto","#3366ff99","-1"," ","0","0","[1234.1000000014901]","1","0","2","","","","","","","",""
"pit-trial","44","406076","0.0-2.0-11.3-2.3","battery-v0.2","","""event"",""trial"",""time""
""fullscreenenter"",""1"",""2569""
","
","
","""event"",""trial"",""time""
""fullscreenenter"",""1"",""2569""
","
","","","615.4000000022352","","","13","3002","2509","&#9761;","elianto","#3366ff99","-1"," ","0","0","[1467.2000000029802]","1","0","2","","","","","","","",""
"pit-trial","45","409452","0.0-2.0-11.3-3.3","battery-v0.2","","""event"",""trial"",""time""
""fullscreenenter"",""1"",""2569""
","
","
","""event"",""trial"",""time""
""fullscreenenter"",""1"",""2569""
","
","","","519.4000000022352","","","13","3002","2509","&#9761;","elianto","#3366ff99","-1"," ","0","+10","[1370.199999999255]","1","0","2","","","","","","","",""
"pit-trial","46","412785","0.0-2.0-11.3-4.3","battery-v0.2","","""event"",""trial"",""time""
""fullscreenenter"",""1"",""2569""
","
","
","""event"",""trial"",""time""
""fullscreenenter"",""1"",""2569""
","
","","","476.70000000298023","","","13","3002","2509","&#9761;","elianto","#3366ff99","-1"," ","0","0","[1329.5]","1","0","2","","","","","","","",""
"pit-trial","47","415931","0.0-2.0-11.4-0.4","battery-v0.2","","""event"",""trial"",""time""
""fullscreenenter"",""1"",""2569""
","
","
","""event"",""trial"",""time""
""fullscreenenter"",""1"",""2569""
","
","","","289.1000000014901","","","13","3002","2509","&#9761;","elianto","#3366ff99","-1"," ","0","0","[1140.699999999255]","1","0","2","","","","","","","",""
"pit-trial","48","419356","0.0-2.0-11.4-1.4","battery-v0.2","","""event"",""trial"",""time""
""fullscreenenter"",""1"",""2569""
","
","
","""event"",""trial"",""time""
""fullscreenenter"",""1"",""2569""
","
","","","568.6999999992549","","","13","3002","2509","&#9761;","elianto","#3366ff99","-1"," ","0","0","[1419]","1","0","2","","","","","","","",""
"pit-trial","49","422608","0.0-2.0-11.4-2.4","battery-v0.2","","""event"",""trial"",""time""
""fullscreenenter"",""1"",""2569""
","
","
","""event"",""trial"",""time""
""fullscreenenter"",""1"",""2569""
","
","","","397.3999999985099","","","13","3002","2509","&#9761;","elianto","#3366ff99","-1"," ","0","0","[1250.199999999255]","1","0","2","","","","","","","",""
"pit-trial","50","425828","0.0-2.0-11.4-3.4","battery-v0.2","","""event"",""trial"",""time""
""fullscreenenter"",""1"",""2569""
","
","
","""event"",""trial"",""time""
""fullscreenenter"",""1"",""2569""
","
","","","362.80000000074506","","","13","3002","2509","&#9761;","elianto","#3366ff99","-1"," ","0","+10","[1214]","1","0","2","","","","","","","",""
"pit-trial","51","429347","0.0-2.0-11.4-4.4","battery-v0.2","","""event"",""trial"",""time""
""fullscreenenter"",""1"",""2569""
","
","
","""event"",""trial"",""time""
""fullscreenenter"",""1"",""2569""
","
","","","663.3999999985099","","","13","3002","2509","&#9761;","elianto","#3366ff99","-1"," ","0","0","[1513.699999999255]","1","0","2","","","","","","","",""
"pit-instructions","52","456149","0.0-2.0-11.4-5.4-0.4","battery-v0.2","","""event"",""trial"",""time""
""fullscreenenter"",""1"",""2569""
","
","
","""event"",""trial"",""time""
""fullscreenenter"",""1"",""2569""
","
","","[{""page_index"":0,""viewing_time"":6032.599999997765},{""page_index"":1,""viewing_time"":5714.900000002235},{""page_index"":2,""viewing_time"":15052.699999999255}]","26800.5","","","","","","","","","","","","","","","","","","","","","","","",""
"pit-trial","53","459421","0.0-2.0-11.5-0.5","battery-v0.2","","""event"",""trial"",""time""
""fullscreenenter"",""1"",""2569""
","
","
","""event"",""trial"",""time""
""fullscreenenter"",""1"",""2569""
","
","","","413.20000000298023","","","13","3002","2509","&#9761;","elianto","#3366ff99","-1"," ","0","0","[1265.7000000029802]","1","0","2","","","","","","","",""
"pit-trial","54","462573","0.0-2.0-11.5-1.5","battery-v0.2","","""event"",""trial"",""time""
""fullscreenenter"",""1"",""2569""
","
","
","""event"",""trial"",""time""
""fullscreenenter"",""1"",""2569""
","
","","","294.30000000074506","","","13","3002","2509","&#9761;","elianto","#3366ff99","-1"," ","0","0","[1146.199999999255]","1","0","2","","","","","","","",""
"pit-trial","55","465714","0.0-2.0-11.5-2.5","battery-v0.2","","""event"",""trial"",""time""
""fullscreenenter"",""1"",""2569""
","
","
","""event"",""trial"",""time""
""fullscreenenter"",""1"",""2569""
","
","","","287.3999999985099","","","13","3002","2509","&#9761;","elianto","#3366ff99","-1"," ","0","0","[1138.1000000014901]","1","0","2","","","","","","","",""
"pit-trial","56","468820","0.0-2.0-11.5-3.5","battery-v0.2","","""event"",""trial"",""time""
""fullscreenenter"",""1"",""2569""
","
","
","""event"",""trial"",""time""
""fullscreenenter"",""1"",""2569""
","
","","","251.60000000149012","","","13","3002","2509","&#9761;","elianto","#3366ff99","-1"," ","0","+10","[1101.7000000029802]","1","0","2","","","","","","","",""
"pit-trial","57","471931","0.0-2.0-11.5-4.5","battery-v0.2","","""event"",""trial"",""time""
""fullscreenenter"",""1"",""2569""
","
","
","""event"",""trial"",""time""
""fullscreenenter"",""1"",""2569""
","
","","","255.39999999850988","","","13","3002","2509","&#9761;","elianto","#3366ff99","-1"," ","0","0","[1108]","1","0","2","","","","","","","",""
"pit-trial","58","474996","0.0-2.0-11.6-0.6","battery-v0.2","","""event"",""trial"",""time""
""fullscreenenter"",""1"",""2569""
","
","
","""event"",""trial"",""time""
""fullscreenenter"",""1"",""2569""
","
","","","209.30000000074506","","","13","3002","2509","&#9761;","elianto","#3366ff99","-1"," ","0","0","[1060.199999999255]","1","0","2","","","","","","","",""
"pit-trial","59","479855","0.0-2.0-11.6-1.6","battery-v0.2","","""event"",""trial"",""time""
""fullscreenenter"",""1"",""2569""
","
","
","""event"",""trial"",""time""
""fullscreenenter"",""1"",""2569""
","
","","","-1","","","13","3002","2509","&#9761;","elianto","#3366ff99","-1","-1","1","+10","[]","0","0","2","","","","","","","",""
"pit-trial","60","484709","0.0-2.0-11.6-2.6","battery-v0.2","","""event"",""trial"",""time""
""fullscreenenter"",""1"",""2569""
","
","
","""event"",""trial"",""time""
""fullscreenenter"",""1"",""2569""
","
","","","-1","","","13","3002","2509","&#9761;","elianto","#3366ff99","-1","-1","1","+10","[]","0","0","2","","","","","","","",""
"pit-trial","61","489568","0.0-2.0-11.6-3.6","battery-v0.2","","""event"",""trial"",""time""
""fullscreenenter"",""1"",""2569""
","
","
","""event"",""trial"",""time""
""fullscreenenter"",""1"",""2569""
","
","","","-1","","","13","3002","2509","&#9761;","elianto","#3366ff99","-1","-1","1","0","[]","0","0","2","","","","","","","",""
"pit-trial","62","494427","0.0-2.0-11.6-4.6","battery-v0.2","","""event"",""trial"",""time""
""fullscreenenter"",""1"",""2569""
","
","
","""event"",""trial"",""time""
""fullscreenenter"",""1"",""2569""
","
","","","-1","","","13","3002","2509","&#9761;","elianto","#3366ff99","-1","-1","1","+10","[]","0","0","2","","","","","","","",""
"call-function","63","494428","0.0-2.0-12.0","battery-v0.2","","""event"",""trial"",""time""
""fullscreenenter"",""1"",""2569""
","
","
","""event"",""trial"",""time""
""fullscreenenter"",""1"",""2569""
","
","","","","","","","","","","","","","","","","","","","","","","","","","","",""
"pit-instructions","64","528119","0.0-2.0-13.0","battery-v0.2","","""event"",""trial"",""time""
""fullscreenenter"",""1"",""2569""
","
","
","""event"",""trial"",""time""
""fullscreenenter"",""1"",""2569""
","
","","[{""page_index"":0,""viewing_time"":6475.5},{""page_index"":1,""viewing_time"":6975.400000002235},{""page_index"":2,""viewing_time"":3206.199999999255},{""page_index"":3,""viewing_time"":10755.199999999255},{""page_index"":4,""viewing_time"":6277.5}]","33690.10000000149","","","","","","","","","","","","","","","","","","","","","","","",""
"pit-trial","65","531543","0.0-2.0-14.0-0.0","battery-v0.2","","""event"",""trial"",""time""
""fullscreenenter"",""1"",""2569""
","
","
","""event"",""trial"",""time""
""fullscreenenter"",""1"",""2569""
","
","","","566.1000000014901","","","13","3002","2509","&#9826;","elianto","#f73b6a7A","-1"," ","0","-10","[1417.699999999255]","1","0","3","","","","","","","",""
"pit-trial","66","536400","0.0-2.0-14.0-1.0","battery-v0.2","","""event"",""trial"",""time""
""fullscreenenter"",""1"",""2569""
","
","
","""event"",""trial"",""time""
""fullscreenenter"",""1"",""2569""
","
","","","-1","","","13","3002","2509","&#9826;","elianto","#f73b6a7A","-1","-1","1","0","[]","0","0","3","","","","","","","",""
"pit-trial","67","541256","0.0-2.0-14.0-2.0","battery-v0.2","","""event"",""trial"",""time""
""fullscreenenter"",""1"",""2569""
","
","
","""event"",""trial"",""time""
""fullscreenenter"",""1"",""2569""
","
","","","-1","","","13","3002","2509","&#9826;","elianto","#f73b6a7A","-1","-1","1","0","[]","0","0","3","","","","","","","",""
"pit-trial","68","546115","0.0-2.0-14.0-3.0","battery-v0.2","","""event"",""trial"",""time""
""fullscreenenter"",""1"",""2569""
","
","
","""event"",""trial"",""time""
""fullscreenenter"",""1"",""2569""
","
","","","-1","","","13","3002","2509","&#9826;","elianto","#f73b6a7A","-1","-1","1","-10","[]","0","0","3","","","","","","","",""
"pit-trial","69","550974","0.0-2.0-14.0-4.0","battery-v0.2","","""event"",""trial"",""time""
""fullscreenenter"",""1"",""2569""
","
","
","""event"",""trial"",""time""
""fullscreenenter"",""1"",""2569""
","
","","","-1","","","13","3002","2509","&#9826;","elianto","#f73b6a7A","-1","-1","1","0","[]","0","0","3","","","","","","","",""
"call-function","70","550975","0.0-2.0-15.0","battery-v0.2","","""event"",""trial"",""time""
""fullscreenenter"",""1"",""2569""
","
","
","""event"",""trial"",""time""
""fullscreenenter"",""1"",""2569""
","
","","","","","","","","","","","","","","","","","","","","","","","","","","",""
"pit-instructions","71","576070","0.0-2.0-16.0","battery-v0.2","","""event"",""trial"",""time""
""fullscreenenter"",""1"",""2569""
","
","
","""event"",""trial"",""time""
""fullscreenenter"",""1"",""2569""
","
","","[{""page_index"":0,""viewing_time"":6609.89999999851},{""page_index"":1,""viewing_time"":8617.699999999255},{""page_index"":2,""viewing_time"":4849.10000000149},{""page_index"":3,""viewing_time"":5017.39999999851}]","25094.39999999851","","","","","","","","","","","","","","","","","","","","","","","",""
"pit-trial","72","579599","0.0-2.0-17.0-0.0","battery-v0.2","","""event"",""trial"",""time""
""fullscreenenter"",""1"",""2569""
","
","
","""event"",""trial"",""time""
""fullscreenenter"",""1"",""2569""
","
","","","673","","","13","3002","2509","&#9789;","elianto","#f73b6a7A"," "," ","1","0","[1524.6000000014901]","1","0","4","","","","","","","",""
"pit-trial","73","582848","0.0-2.0-17.0-1.0","battery-v0.2","","""event"",""trial"",""time""
""fullscreenenter"",""1"",""2569""
","
","
","""event"",""trial"",""time""
""fullscreenenter"",""1"",""2569""
","
","","","392.8999999985099","","","13","3002","2509","&#9789;","elianto","#f73b6a7A"," "," ","1","0","[1243.6000000014901]","1","0","4","","","","","","","",""
"pit-trial","74","586013","0.0-2.0-17.0-2.0","battery-v0.2","","""event"",""trial"",""time""
""fullscreenenter"",""1"",""2569""
","
","
","""event"",""trial"",""time""
""fullscreenenter"",""1"",""2569""
","
","","","313.19999999925494","","","13","3002","2509","&#9789;","elianto","#f73b6a7A"," "," ","1","0","[1163.5]","1","0","4","","","","","","","",""
"pit-trial","75","589189","0.0-2.0-17.0-3.0","battery-v0.2","","""event"",""trial"",""time""
""fullscreenenter"",""1"",""2569""
","
","
","""event"",""trial"",""time""
""fullscreenenter"",""1"",""2569""
","
","","","321.20000000298023","","","13","3002","2509","&#9789;","elianto","#f73b6a7A"," "," ","1","-10","[1173.6000000014901]","1","0","4","","","","","","","",""
"pit-trial","76","592288","0.0-2.0-17.0-4.0","battery-v0.2","","""event"",""trial"",""time""
""fullscreenenter"",""1"",""2569""
","
","
","""event"",""trial"",""time""
""fullscreenenter"",""1"",""2569""
","
","","","242.79999999701977","","","13","3002","2509","&#9789;","elianto","#f73b6a7A"," "," ","1","0","[1094]","1","0","4","","","","","","","",""
"call-function","77","592289","0.0-2.0-18.0","battery-v0.2","","""event"",""trial"",""time""
""fullscreenenter"",""1"",""2569""
","
","
","""event"",""trial"",""time""
""fullscreenenter"",""1"",""2569""
","
","","","","","","","","","","","","","","","","","","","","","","","","","","",""
"pit-instructions","78","666503","0.0-2.0-19.0","battery-v0.2","","""event"",""trial"",""time""
""fullscreenenter"",""1"",""2569""
","
","
","""event"",""trial"",""time""
""fullscreenenter"",""1"",""2569""
","
","","[{""page_index"":0,""viewing_time"":6304.199999999255},{""page_index"":1,""viewing_time"":9045.10000000149},{""page_index"":2,""viewing_time"":13804.099999997765},{""page_index"":3,""viewing_time"":7369},{""page_index"":4,""viewing_time"":10372.900000002235},{""page_index"":5,""viewing_time"":8651.300000000745},{""page_index"":6,""viewing_time"":8336.79999999702},{""page_index"":7,""viewing_time"":5895},{""page_index"":8,""viewing_time"":4432.800000000745}]","74211.5","","","","","","","","","","","","","","","","","","","","","","","",""
"pit-comprehension","79","672174","0.0-2.0-20.0-0.0","battery-v0.2","","""event"",""trial"",""time""
""fullscreenenter"",""1"",""2569""
","
","
","""event"",""trial"",""time""
""fullscreenenter"",""1"",""2569""
","
","","","5668.60000000149","[""SPACE""]","0","13","3002","2509","","","","","","","","","","","","","","","","","","",""
"pit-instructions","80","675323","0.0-2.0-20.0-1.0","battery-v0.2","","""event"",""trial"",""time""
""fullscreenenter"",""1"",""2569""
","
","
","""event"",""trial"",""time""
""fullscreenenter"",""1"",""2569""
","
","","[{""page_index"":0,""viewing_time"":3130.800000000745}]","3131","","","","","","","","","","","","","","","","","","","","","","","",""
"pit-comprehension","81","685292","0.0-2.0-21.0-0.0","battery-v0.2","","""event"",""trial"",""time""
""fullscreenenter"",""1"",""2569""
","
","
","""event"",""trial"",""time""
""fullscreenenter"",""1"",""2569""
","
","","","9966","[""10""]","0","13","3002","2509","","","","","","","","","","","","","","","","","","",""
"pit-instructions","82","686867","0.0-2.0-21.0-1.0","battery-v0.2","","""event"",""trial"",""time""
""fullscreenenter"",""1"",""2569""
","
","
","""event"",""trial"",""time""
""fullscreenenter"",""1"",""2569""
","
","","[{""page_index"":0,""viewing_time"":1555.199999999255}]","1555.5","","","","","","","","","","","","","","","","","","","","","","","",""
"pit-comprehension","83","693336","0.0-2.0-22.0-0.0","battery-v0.2","","""event"",""trial"",""time""
""fullscreenenter"",""1"",""2569""
","
","
","""event"",""trial"",""time""
""fullscreenenter"",""1"",""2569""
","
","","","6467.099999997765","[""-10""]","1","13","3002","2509","","","","","","","","","","","","","","","","","","",""
"pit-instructions","84","698219","0.0-2.0-22.0-1.0","battery-v0.2","","""event"",""trial"",""time""
""fullscreenenter"",""1"",""2569""
","
","
","""event"",""trial"",""time""
""fullscreenenter"",""1"",""2569""
","
","","[{""page_index"":0,""viewing_time"":4863.79999999702}]","4864","","","","","","","","","","","","","","","","","","","","","","","",""
"pit-instructions","85","699602","0.0-2.0-22.0-2.0-0.0","battery-v0.2","","""event"",""trial"",""time""
""fullscreenenter"",""1"",""2569""
","
","
","""event"",""trial"",""time""
""fullscreenenter"",""1"",""2569""
","
","","[{""page_index"":0,""viewing_time"":1382.6000000014901}]","1382.800000000745","","","","","","","","","","","","","","","","","","","","","","","",""
"pit-comprehension","86","706140","0.0-2.0-22.1-0.1","battery-v0.2","","""event"",""trial"",""time""
""fullscreenenter"",""1"",""2569""
","
","
","""event"",""trial"",""time""
""fullscreenenter"",""1"",""2569""
","
","","","6535","[""0""]","0","13","3002","2509","","","","","","","","","","","","","","","","","","",""
"pit-instructions","87","708625","0.0-2.0-22.1-1.1","battery-v0.2","","""event"",""trial"",""time""
""fullscreenenter"",""1"",""2569""
","
","
","""event"",""trial"",""time""
""fullscreenenter"",""1"",""2569""
","
","","[{""page_index"":0,""viewing_time"":2466.5}]","2466.800000000745","","","","","","","","","","","","","","","","","","","","","","","",""
"pit-comprehension","88","727538","0.0-2.0-23.0-0.0","battery-v0.2","","""event"",""trial"",""time""
""fullscreenenter"",""1"",""2569""
","
","
","""event"",""trial"",""time""
""fullscreenenter"",""1"",""2569""
","
","","","18909.900000002235","[""True""]","0","13","3002","2509","","","","","","","","","","","","","","","","","","",""
"pit-instructions","89","729586","0.0-2.0-23.0-1.0","battery-v0.2","","""event"",""trial"",""time""
""fullscreenenter"",""1"",""2569""
","
","
","""event"",""trial"",""time""
""fullscreenenter"",""1"",""2569""
","
","","[{""page_index"":0,""viewing_time"":2027.5}]","2027.7000000029802","","","","","","","","","","","","","","","","","","","","","","","",""
"pit-comprehension","90","737022","0.0-2.0-24.0-0.0","battery-v0.2","","""event"",""trial"",""time""
""fullscreenenter"",""1"",""2569""
","
","
","""event"",""trial"",""time""
""fullscreenenter"",""1"",""2569""
","
","","","7434.599999997765","[""True""]","0","13","3002","2509","","","","","","","","","","","","","","","","","","",""
"pit-instructions","91","739149","0.0-2.0-24.0-1.0","battery-v0.2","","""event"",""trial"",""time""
""fullscreenenter"",""1"",""2569""
","
","
","""event"",""trial"",""time""
""fullscreenenter"",""1"",""2569""
","
","","[{""page_index"":0,""viewing_time"":2104.300000000745}]","2104.39999999851","","","","","","","","","","","","","","","","","","","","","","","",""
"pit-comprehension","92","751086","0.0-2.0-25.0-0.0","battery-v0.2","","""event"",""trial"",""time""
""fullscreenenter"",""1"",""2569""
","
","
","""event"",""trial"",""time""
""fullscreenenter"",""1"",""2569""
","
","","","11935","[""True""]","0","13","3002","2509","","","","","","","","","","","","","","","","","","",""
"pit-instructions","93","752582","0.0-2.0-25.0-1.0","battery-v0.2","","""event"",""trial"",""time""
""fullscreenenter"",""1"",""2569""
","
","
","""event"",""trial"",""time""
""fullscreenenter"",""1"",""2569""
","
","","[{""page_index"":0,""viewing_time"":1476.199999999255}]","1476.5","","","","","","","","","","","","","","","","","","","","","","","",""
"pit-comprehension","94","757994","0.0-2.0-26.0-0.0","battery-v0.2","","""event"",""trial"",""time""
""fullscreenenter"",""1"",""2569""
","
","
","""event"",""trial"",""time""
""fullscreenenter"",""1"",""2569""
","
","","","5409.800000000745","[""False""]","0","13","3002","2509","","","","","","","","","","","","","","","","","","",""
"pit-instructions","95","759861","0.0-2.0-26.0-1.0","battery-v0.2","","""event"",""trial"",""time""
""fullscreenenter"",""1"",""2569""
","
","
","""event"",""trial"",""time""
""fullscreenenter"",""1"",""2569""
","
","","[{""page_index"":0,""viewing_time"":1847.5}]","1847.5999999977648","","","","","","","","","","","","","","","","","","","","","","","",""
"pit-instructions","96","777030","0.0-3.0","battery-v0.2","","""event"",""trial"",""time""
""fullscreenenter"",""1"",""2569""
","
","
","""event"",""trial"",""time""
""fullscreenenter"",""1"",""2569""
","
","","[{""page_index"":0,""viewing_time"":3475.199999999255},{""page_index"":1,""viewing_time"":5096.199999999255},{""page_index"":2,""viewing_time"":8595.199999999255}]","17166.89999999851","","","","","","","","","","","","","","","","","","","","","","","",""
"pit-trial","97","781322","0.0-4.0","battery-v0.2","","""event"",""trial"",""time""
""fullscreenenter"",""1"",""2569""
","
","
","""event"",""trial"",""time""
""fullscreenenter"",""1"",""2569""
","
","","","1437.800000000745","","","13","3002","2509","&#9752;","elianto","#f73b6a7A"," "," ","1","0","[2289.699999999255,3945.5]","2","1","","","3002","1","3","3","lose","go","0"
"pit-trial","98","785020","0.0-5.0","battery-v0.2","","""event"",""trial"",""time""
""fullscreenenter"",""1"",""2569""
","
","
","""event"",""trial"",""time""
""fullscreenenter"",""1"",""2569""
","
","","","842.8000000007451","","","13","3002","2509","&#9733;","elianto","#3366ff99","-1"," ","0","0","[1694.4000000022352]","1","1","","","3002","2","2","2","win","no-go","0"
"pit-trial","99","788294","0.0-6.0","battery-v0.2","","""event"",""trial"",""time""
""fullscreenenter"",""1"",""2569""
","
","
","""event"",""trial"",""time""
""fullscreenenter"",""1"",""2569""
","
","","","418.5","","","13","3002","2509","&#9730;","elianto","#3366ff99"," "," ","1","+10","[1268.6000000014901]","1","1","","","3002","3","1","1","win","go","0"
"pit-trial","100","793148","0.0-7.0","battery-v0.2","","""event"",""trial"",""time""
""fullscreenenter"",""1"",""2569""
","
","
","""event"",""trial"",""time""
""fullscreenenter"",""1"",""2569""
","
","","","-1","","","13","3002","2509","&#9728;","elianto","#f73b6a7A","-1","-1","1","-10","[]","0","1","","","3002","4","0","4","lose","no-go","1"
"pit-trial","101","798006","0.0-8.0","battery-v0.2","","""event"",""trial"",""time""
""fullscreenenter"",""1"",""2569""
","
","
","""event"",""trial"",""time""
""fullscreenenter"",""1"",""2569""
","
","","","-1","","","13","3002","2509","&#9752;","elianto","#f73b6a7A"," ","-1","0","-10","[]","0","1","","","3002","5","3","3","lose","go","0"
"pit-trial","102","801379","0.0-9.0","battery-v0.2","","""event"",""trial"",""time""
""fullscreenenter"",""1"",""2569""
","
","
","""event"",""trial"",""time""
""fullscreenenter"",""1"",""2569""
","
","","","521.9000000022352","","","13","3002","2509","&#9733;","elianto","#3366ff99","-1"," ","0","+10","[1372.300000000745]","1","1","","","3002","6","2","2","win","no-go","1"
"pit-trial","103","805344","0.0-10.0","battery-v0.2","","""event"",""trial"",""time""
""fullscreenenter"",""1"",""2569""
","
","
","""event"",""trial"",""time""
""fullscreenenter"",""1"",""2569""
","
","","","1106.5","","","13","3002","2509","&#9730;","elianto","#3366ff99"," "," ","1","+10","[1958.1000000014901]","1","1","","","3002","7","1","1","win","go","0"
"pit-trial","104","809118","0.0-11.0","battery-v0.2","","""event"",""trial"",""time""
""fullscreenenter"",""1"",""2569""
","
","
","""event"",""trial"",""time""
""fullscreenenter"",""1"",""2569""
","
","","","918.8999999985099","","","13","3002","2509","&#9728;","elianto","#f73b6a7A","-1"," ","0","-10","[1769.3999999985099]","1","1","","","3002","8","0","4","lose","no-go","0"
"pit-trial","105","812301","0.0-12.0","battery-v0.2","","""event"",""trial"",""time""
""fullscreenenter"",""1"",""2569""
","
","
","""event"",""trial"",""time""
""fullscreenenter"",""1"",""2569""
","
","","","327.19999999925494","","","13","3002","2509","&#9728;","elianto","#f73b6a7A","-1"," ","0","-10","[1179.5]","1","1","","","3002","9","0","4","lose","no-go","0"
"pit-trial","106","816166","0.0-13.0","battery-v0.2","","""event"",""trial"",""time""
""fullscreenenter"",""1"",""2569""
","
","
","""event"",""trial"",""time""
""fullscreenenter"",""1"",""2569""
","
","","","1009.5","","","13","3002","2509","&#9730;","elianto","#3366ff99"," "," ","1","+10","[1860.1000000014901]","1","1","","","3002","10","1","1","win","go","0"
"pit-trial","107","819783","0.0-14.0","battery-v0.2","","""event"",""trial"",""time""
""fullscreenenter"",""1"",""2569""
","
","
","""event"",""trial"",""time""
""fullscreenenter"",""1"",""2569""
","
","","","760.5","","","13","3002","2509","&#9733;","elianto","#3366ff99","-1"," ","0","0","[1611.800000000745]","1","1","","","3002","11","2","2","win","no-go","0"
"pit-trial","108","823695","0.0-15.0","battery-v0.2","","""event"",""trial"",""time""
""fullscreenenter"",""1"",""2569""
","
","
","""event"",""trial"",""time""
""fullscreenenter"",""1"",""2569""
","
","","","1057.5","","","13","3002","2509","&#9752;","elianto","#f73b6a7A"," "," ","1","0","[1907.699999999255]","1","1","","","3002","12","3","3","lose","go","0"
"pit-trial","109","828554","0.0-16.0","battery-v0.2","","""event"",""trial"",""time""
""fullscreenenter"",""1"",""2569""
","
","
","""event"",""trial"",""time""
""fullscreenenter"",""1"",""2569""
","
","","","-1","","","13","3002","2509","&#9728;","elianto","#f73b6a7A","-1","-1","1","0","[]","0","1","","","3002","13","0","4","lose","no-go","0"
"pit-trial","110","831894","0.0-17.0","battery-v0.2","","""event"",""trial"",""time""
""fullscreenenter"",""1"",""2569""
","
","
","""event"",""trial"",""time""
""fullscreenenter"",""1"",""2569""
","
","","","484.5999999977648","","","13","3002","2509","&#9733;","elianto","#3366ff99","-1"," ","0","0","[1336.0999999977648]","1","1","","","3002","14","2","2","win","no-go","0"
"pit-trial","111","835358","0.0-18.0","battery-v0.2","","""event"",""trial"",""time""
""fullscreenenter"",""1"",""2569""
","
","
","""event"",""trial"",""time""
""fullscreenenter"",""1"",""2569""
","
","","","609.8000000007451","","","13","3002","2509","&#9752;","elianto","#f73b6a7A"," "," ","1","0","[1460.800000000745]","1","1","","","3002","15","3","3","lose","go","0"
"pit-trial","112","838893","0.0-19.0","battery-v0.2","","""event"",""trial"",""time""
""fullscreenenter"",""1"",""2569""
","
","
","""event"",""trial"",""time""
""fullscreenenter"",""1"",""2569""
","
","","","681","","","13","3002","2509","&#9730;","elianto","#3366ff99"," "," ","1","0","[1532.7000000029802]","1","1","","","3002","16","1","1","win","go","1"
"pit-trial","113","842365","0.0-20.0","battery-v0.2","","""event"",""trial"",""time""
""fullscreenenter"",""1"",""2569""
","
","
","""event"",""trial"",""time""
""fullscreenenter"",""1"",""2569""
","
","","","617.1000000014901","","","13","3002","2509","&#9730;","elianto","#3366ff99"," "," ","1","+10","[1469.300000000745]","1","1","","","3002","17","1","1","win","go","0"
"pit-trial","114","847223","0.0-21.0","battery-v0.2","","""event"",""trial"",""time""
""fullscreenenter"",""1"",""2569""
","
","
","""event"",""trial"",""time""
""fullscreenenter"",""1"",""2569""
","
","","","-1","","","13","3002","2509","&#9728;","elianto","#f73b6a7A","-1","-1","1","0","[]","0","1","","","3002","18","0","4","lose","no-go","0"
"pit-trial","115","850631","0.0-22.0","battery-v0.2","","""event"",""trial"",""time""
""fullscreenenter"",""1"",""2569""
","
","
","""event"",""trial"",""time""
""fullscreenenter"",""1"",""2569""
","
","","","553.9000000022352","","","13","3002","2509","&#9733;","elianto","#3366ff99","-1"," ","0","0","[1403.8999999985099]","1","1","","","3002","19","2","2","win","no-go","0"
"pit-trial","116","854305","0.0-23.0","battery-v0.2","","""event"",""trial"",""time""
""fullscreenenter"",""1"",""2569""
","
","
","""event"",""trial"",""time""
""fullscreenenter"",""1"",""2569""
","
","","","815.8000000007451","","","13","3002","2509","&#9752;","elianto","#f73b6a7A"," "," ","1","0","[1667.9000000022352]","1","1","","","3002","20","3","3","lose","go","0"
"pit-instructions","117","867069","0.0-24.0","battery-v0.2","","""event"",""trial"",""time""
""fullscreenenter"",""1"",""2569""
","
","
","""event"",""trial"",""time""
""fullscreenenter"",""1"",""2569""
","
","","[{""page_index"":0,""viewing_time"":5910.300000000745},{""page_index"":1,""viewing_time"":6851.599999997765}]","12762.199999999255","","","","","","","","","","","","","","","","","","","","","","","",""
"pit-trial","118","870362","0.0-25.0","battery-v0.2","","""event"",""trial"",""time""
""fullscreenenter"",""1"",""2569""
","
","
","""event"",""trial"",""time""
""fullscreenenter"",""1"",""2569""
","
","","","434.6000000014901","","","13","3002","2509","a","elianto","#f73b6a7A"," "," ","1","0","[1286.199999999255]","1","2","","","3002","21","2","3","lose","go","0"
"pit-trial","119","874223","0.0-26.0","battery-v0.2","","""event"",""trial"",""time""
""fullscreenenter"",""1"",""2569""
","
","
","""event"",""trial"",""time""
""fullscreenenter"",""1"",""2569""
","
","","","1007.1999999992549","","","13","3002","2509","u","elianto","#f73b6a7A"," "," ","1","0","[1857.4000000022352]","1","2","","","3002","22","0","3","lose","go","0"
"pit-trial","120","877457","0.0-27.0","battery-v0.2","","""event"",""trial"",""time""
""fullscreenenter"",""1"",""2569""
","
","
","""event"",""trial"",""time""
""fullscreenenter"",""1"",""2569""
","
","","","376.19999999925494","","","13","3002","2509","g","elianto","#f73b6a7A","-1"," ","0","-10","[1228.5]","1","2","","","3002","23","3","4","lose","no-go","0"
"pit-trial","121","881085","0.0-28.0","battery-v0.2","","""event"",""trial"",""time""
""fullscreenenter"",""1"",""2569""
","
","
","""event"",""trial"",""time""
""fullscreenenter"",""1"",""2569""
","
","","","775.4000000022352","","","13","3002","2509","l","elianto","#3366ff99","-1"," ","0","0","[1626.8999999985099]","1","2","","","3002","24","1","2","win","no-go","0"
"pit-trial","122","885942","0.0-29.0","battery-v0.2","","""event"",""trial"",""time""
""fullscreenenter"",""1"",""2569""
","
","
","""event"",""trial"",""time""
""fullscreenenter"",""1"",""2569""
","
","","","-1","","","13","3002","2509","u","elianto","#f73b6a7A"," ","-1","0","-10","[]","0","2","","","3002","25","0","3","lose","go","0"
"pit-trial","123","890799","0.0-30.0","battery-v0.2","","""event"",""trial"",""time""
""fullscreenenter"",""1"",""2569""
","
","
","""event"",""trial"",""time""
""fullscreenenter"",""1"",""2569""
","
","","","-1","","","13","3002","2509","g","elianto","#f73b6a7A","-1","-1","1","0","[]","0","2","","","3002","26","3","4","lose","no-go","0"
"pit-trial","124","894895","0.0-31.0","battery-v0.2","","""event"",""trial"",""time""
""fullscreenenter"",""1"",""2569""
","
","
","""event"",""trial"",""time""
""fullscreenenter"",""1"",""2569""
","
","","","1239.8999999985099","","","13","3002","2509","l","elianto","#3366ff99","-1"," ","0","0","[2093]","1","2","","","3002","27","1","2","win","no-go","0"
"pit-trial","125","899755","0.0-32.0","battery-v0.2","","""event"",""trial"",""time""
""fullscreenenter"",""1"",""2569""
","
","
","""event"",""trial"",""time""
""fullscreenenter"",""1"",""2569""
","
","","","-1","","","13","3002","2509","a","elianto","#f73b6a7A"," ","-1","0","-10","[]","0","2","","","3002","28","2","3","lose","go","0"
"pit-trial","126","904616","0.0-33.0","battery-v0.2","","""event"",""trial"",""time""
""fullscreenenter"",""1"",""2569""
","
","
","""event"",""trial"",""time""
""fullscreenenter"",""1"",""2569""
","
","","","-1","","","13","3002","2509","a","elianto","#f73b6a7A"," ","-1","0","0","[]","0","2","","","3002","29","2","3","lose","go","1"
"pit-trial","127","908103","0.0-34.0","battery-v0.2","","""event"",""trial"",""time""
""fullscreenenter"",""1"",""2569""
","
","
","""event"",""trial"",""time""
""fullscreenenter"",""1"",""2569""
","
","","","634.1999999992549","","","13","3002","2509","l","elianto","#3366ff99","-1"," ","0","0","[1484.800000000745]","1","2","","","3002","30","1","2","win","no-go","0"
"pit-trial","128","912547","0.0-35.0","battery-v0.2","","""event"",""trial"",""time""
""fullscreenenter"",""1"",""2569""
","
","
","""event"",""trial"",""time""
""fullscreenenter"",""1"",""2569""
","
","","","1585.1000000014901","","","13","3002","2509","u","elianto","#f73b6a7A"," "," ","1","0","[2437.5]","1","2","","","3002","31","0","3","lose","go","0"
"pit-trial","129","917403","0.0-36.0","battery-v0.2","","""event"",""trial"",""time""
""fullscreenenter"",""1"",""2569""
","
","
","""event"",""trial"",""time""
""fullscreenenter"",""1"",""2569""
","
","","","-1","","","13","3002","2509","g","elianto","#f73b6a7A","-1","-1","1","0","[]","0","2","","","3002","32","3","4","lose","no-go","0"
"pit-trial","130","922262","0.0-37.0","battery-v0.2","","""event"",""trial"",""time""
""fullscreenenter"",""1"",""2569""
","
","
","""event"",""trial"",""time""
""fullscreenenter"",""1"",""2569""
","
","","","-1","","","13","3002","2509","a","elianto","#f73b6a7A"," ","-1","0","-10","[]","0","2","","","3002","33","2","3","lose","go","0"
"pit-trial","131","926426","0.0-38.0","battery-v0.2","","""event"",""trial"",""time""
""fullscreenenter"",""1"",""2569""
","
","
","""event"",""trial"",""time""
""fullscreenenter"",""1"",""2569""
","
","","","1308","","","13","3002","2509","l","elianto","#3366ff99","-1"," ","0","0","[2159.599999997765]","1","2","","","3002","34","1","2","win","no-go","0"
"pit-trial","132","931283","0.0-39.0","battery-v0.2","","""event"",""trial"",""time""
""fullscreenenter"",""1"",""2569""
","
","
","""event"",""trial"",""time""
""fullscreenenter"",""1"",""2569""
","
","","","-1","","","13","3002","2509","u","elianto","#f73b6a7A"," ","-1","0","0","[]","0","2","","","3002","35","0","3","lose","go","1"
"pit-trial","133","936142","0.0-40.0","battery-v0.2","","""event"",""trial"",""time""
""fullscreenenter"",""1"",""2569""
","
","
","""event"",""trial"",""time""
""fullscreenenter"",""1"",""2569""
","
","","","-1","","","13","3002","2509","g","elianto","#f73b6a7A","-1","-1","1","0","[]","0","2","","","3002","36","3","4","lose","no-go","0"
"pit-trial","134","939793","0.0-41.0","battery-v0.2","","""event"",""trial"",""time""
""fullscreenenter"",""1"",""2569""
","
","
","""event"",""trial"",""time""
""fullscreenenter"",""1"",""2569""
","
","","","795.6999999992549","","","13","3002","2509","l","elianto","#3366ff99","-1"," ","0","0","[1647.800000000745]","1","2","","","3002","37","1","2","win","no-go","0"
"pit-trial","135","944652","0.0-42.0","battery-v0.2","","""event"",""trial"",""time""
""fullscreenenter"",""1"",""2569""
","
","
","""event"",""trial"",""time""
""fullscreenenter"",""1"",""2569""
","
","","","-1","","","13","3002","2509","a","elianto","#f73b6a7A"," ","-1","0","-10","[]","0","2","","","3002","38","2","3","lose","go","0"
"pit-trial","136","949511","0.0-43.0","battery-v0.2","","""event"",""trial"",""time""
""fullscreenenter"",""1"",""2569""
","
","
","""event"",""trial"",""time""
""fullscreenenter"",""1"",""2569""
","
","","","-1","","","13","3002","2509","u","elianto","#f73b6a7A"," ","-1","0","-10","[]","0","2","","","3002","39","0","3","lose","go","0"
"pit-trial","137","954370","0.0-44.0","battery-v0.2","","""event"",""trial"",""time""
""fullscreenenter"",""1"",""2569""
","
","
","""event"",""trial"",""time""
""fullscreenenter"",""1"",""2569""
","
","","","-1","","","13","3002","2509","g","elianto","#f73b6a7A","-1","-1","1","0","[]","0","2","","","3002","40","3","4","lose","no-go","0"
"pit-trial","138","959229","0.0-45.0","battery-v0.2","","""event"",""trial"",""time""
""fullscreenenter"",""1"",""2569""
","
","
","""event"",""trial"",""time""
""fullscreenenter"",""1"",""2569""
","
","","","-1","","","13","3002","2509","a","elianto","#f73b6a7A"," ","-1","0","0","[]","0","2","","","3002","41","2","3","lose","go","1"
"pit-trial","139","964089","0.0-46.0","battery-v0.2","","""event"",""trial"",""time""
""fullscreenenter"",""1"",""2569""
","
","
","""event"",""trial"",""time""
""fullscreenenter"",""1"",""2569""
","
","","","-1","","","13","3002","2509","g","elianto","#f73b6a7A","-1","-1","1","0","[]","0","2","","","3002","42","3","4","lose","no-go","0"
"pit-trial","140","967780","0.0-47.0","battery-v0.2","","""event"",""trial"",""time""
""fullscreenenter"",""1"",""2569""
","
","
","""event"",""trial"",""time""
""fullscreenenter"",""1"",""2569""
","
","","","834.3000000007451","","","13","3002","2509","l","elianto","#3366ff99","-1"," ","0","0","[1685.699999999255]","1","2","","","3002","43","1","2","win","no-go","0"
"pit-trial","141","972639","0.0-48.0","battery-v0.2","","""event"",""trial"",""time""
""fullscreenenter"",""1"",""2569""
","
","
","""event"",""trial"",""time""
""fullscreenenter"",""1"",""2569""
","
","","","-1","","","13","3002","2509","u","elianto","#f73b6a7A"," ","-1","0","-10","[]","0","2","","","3002","44","0","3","lose","go","0"
"pit-trial","142","977498","0.0-49.0","battery-v0.2","","""event"",""trial"",""time""
""fullscreenenter"",""1"",""2569""
","
","
","""event"",""trial"",""time""
""fullscreenenter"",""1"",""2569""
","
","","","-1","","","13","3002","2509","u","elianto","#f73b6a7A"," ","-1","0","-10","[]","0","2","","","3002","45","0","3","lose","go","0"
"pit-trial","143","982358","0.0-50.0","battery-v0.2","","""event"",""trial"",""time""
""fullscreenenter"",""1"",""2569""
","
","
","""event"",""trial"",""time""
""fullscreenenter"",""1"",""2569""
","
","","","-1","","","13","3002","2509","a","elianto","#f73b6a7A"," ","-1","0","-10","[]","0","2","","","3002","46","2","3","lose","go","0"
"pit-trial","144","986513","0.0-51.0","battery-v0.2","","""event"",""trial"",""time""
""fullscreenenter"",""1"",""2569""
","
","
","""event"",""trial"",""time""
""fullscreenenter"",""1"",""2569""
","
","","","1302","","","13","3002","2509","l","elianto","#3366ff99","-1"," ","0","0","[2152.89999999851]","1","2","","","3002","47","1","2","win","no-go","0"
"pit-trial","145","991373","0.0-52.0","battery-v0.2","","""event"",""trial"",""time""
""fullscreenenter"",""1"",""2569""
","
","
","""event"",""trial"",""time""
""fullscreenenter"",""1"",""2569""
","
","","","-1","","","13","3002","2509","g","elianto","#f73b6a7A","-1","-1","1","0","[]","0","2","","","3002","48","3","4","lose","no-go","0"
"pit-trial","146","996231","0.0-53.0","battery-v0.2","","""event"",""trial"",""time""
""fullscreenenter"",""1"",""2569""
","
","
","""event"",""trial"",""time""
""fullscreenenter"",""1"",""2569""
","
","","","-1","","","13","3002","2509","g","elianto","#f73b6a7A","-1","-1","1","0","[]","0","2","","","3002","49","3","4","lose","no-go","0"
"pit-trial","147","1000701","0.0-54.0","battery-v0.2","","""event"",""trial"",""time""
""fullscreenenter"",""1"",""2569""
","
","
","""event"",""trial"",""time""
""fullscreenenter"",""1"",""2569""
","
","","","1612","","","13","3002","2509","l","elianto","#3366ff99","-1"," ","0","0","[2464.5]","1","2","","","3002","50","1","2","win","no-go","0"
"pit-trial","148","1005560","0.0-55.0","battery-v0.2","","""event"",""trial"",""time""
""fullscreenenter"",""1"",""2569""
","
","
","""event"",""trial"",""time""
""fullscreenenter"",""1"",""2569""
","
","","","-1","","","13","3002","2509","a","elianto","#f73b6a7A"," ","-1","0","-10","[]","0","2","","","3002","51","2","3","lose","go","0"
"pit-trial","149","1010419","0.0-56.0","battery-v0.2","","""event"",""trial"",""time""
""fullscreenenter"",""1"",""2569""
","
","
","""event"",""trial"",""time""
""fullscreenenter"",""1"",""2569""
","
","","","-1","","","13","3002","2509","u","elianto","#f73b6a7A"," ","-1","0","-10","[]","0","2","","","3002","52","0","3","lose","go","0"
"pit-trial","150","1015280","0.0-57.0","battery-v0.2","","""event"",""trial"",""time""
""fullscreenenter"",""1"",""2569""
","
","
","""event"",""trial"",""time""
""fullscreenenter"",""1"",""2569""
","
","","","-1","","","13","3002","2509","u","elianto","#f73b6a7A"," ","-1","0","-10","[]","0","2","","","3002","53","0","3","lose","go","0"
"pit-trial","151","1018924","0.0-58.0","battery-v0.2","","""event"",""trial"",""time""
""fullscreenenter"",""1"",""2569""
","
","
","""event"",""trial"",""time""
""fullscreenenter"",""1"",""2569""
","
","","","789","","","13","3002","2509","l","elianto","#3366ff99","-1"," ","0","0","[1639.699999999255]","1","2","","","3002","54","1","2","win","no-go","0"
"pit-trial","152","1023782","0.0-59.0","battery-v0.2","","""event"",""trial"",""time""
""fullscreenenter"",""1"",""2569""
","
","
","""event"",""trial"",""time""
""fullscreenenter"",""1"",""2569""
","
","","","-1","","","13","3002","2509","a","elianto","#f73b6a7A"," ","-1","0","0","[]","0","2","","","3002","55","2","3","lose","go","1"
"pit-trial","153","1028641","0.0-60.0","battery-v0.2","","""event"",""trial"",""time""
""fullscreenenter"",""1"",""2569""
","
","
","""event"",""trial"",""time""
""fullscreenenter"",""1"",""2569""
","
","","","-1","","","13","3002","2509","g","elianto","#f73b6a7A","-1","-1","1","-10","[]","0","2","","","3002","56","3","4","lose","no-go","1"
"pit-trial","154","1033500","0.0-61.0","battery-v0.2","","""event"",""trial"",""time""
""fullscreenenter"",""1"",""2569""
","
","
","""event"",""trial"",""time""
""fullscreenenter"",""1"",""2569""
","
","","","-1","","","13","3002","2509","u","elianto","#f73b6a7A"," ","-1","0","0","[]","0","2","","","3002","57","0","3","lose","go","1"
"pit-trial","155","1038359","0.0-62.0","battery-v0.2","","""event"",""trial"",""time""
""fullscreenenter"",""1"",""2569""
","
","
","""event"",""trial"",""time""
""fullscreenenter"",""1"",""2569""
","
","","","-1","","","13","3002","2509","g","elianto","#f73b6a7A","-1","-1","1","0","[]","0","2","","","3002","58","3","4","lose","no-go","0"
"pit-trial","156","1043218","0.0-63.0","battery-v0.2","","""event"",""trial"",""time""
""fullscreenenter"",""1"",""2569""
","
","
","""event"",""trial"",""time""
""fullscreenenter"",""1"",""2569""
","
","","","-1","","","13","3002","2509","a","elianto","#f73b6a7A"," ","-1","0","-10","[]","0","2","","","3002","59","2","3","lose","go","0"
"pit-trial","157","1046893","0.0-64.0","battery-v0.2","","""event"",""trial"",""time""
""fullscreenenter"",""1"",""2569""
","
","
","""event"",""trial"",""time""
""fullscreenenter"",""1"",""2569""
","
","","","819.6999999992549","","","13","3002","2509","p","elianto","#3366ff99"," "," ","1","+10","[1670.6000000014901]","1","2","","","3002","60","4","1","win","go","0"
"pit-trial","158","1051235","0.0-65.0","battery-v0.2","","""event"",""trial"",""time""
""fullscreenenter"",""1"",""2569""
","
","
","""event"",""trial"",""time""
""fullscreenenter"",""1"",""2569""
","
","","","1488.699999999255","","","13","3002","2509","a","elianto","#f73b6a7A"," "," ","1","0","[2339.599999997765]","1","2","","","3002","61","2","3","lose","go","0"
"pit-trial","159","1056093","0.0-66.0","battery-v0.2","","""event"",""trial"",""time""
""fullscreenenter"",""1"",""2569""
","
","
","""event"",""trial"",""time""
""fullscreenenter"",""1"",""2569""
","
","","","-1","","","13","3002","2509","l","elianto","#3366ff99","-1","-1","1","+10","[3541.800000000745]","1","2","","","3002","62","1","2","win","no-go","0"
"pit-trial","160","1060953","0.0-67.0","battery-v0.2","","""event"",""trial"",""time""
""fullscreenenter"",""1"",""2569""
","
","
","""event"",""trial"",""time""
""fullscreenenter"",""1"",""2569""
","
","","","-1","","","13","3002","2509","p","elianto","#3366ff99"," ","-1","0","0","[]","0","2","","","3002","63","4","1","win","go","0"
"pit-trial","161","1065278","0.0-68.0","battery-v0.2","","""event"",""trial"",""time""
""fullscreenenter"",""1"",""2569""
","
","
","""event"",""trial"",""time""
""fullscreenenter"",""1"",""2569""
","
","","","1468.2999999970198","","","13","3002","2509","g","elianto","#f73b6a7A","-1"," ","0","-10","[2320.5]","1","2","","","3002","64","3","4","lose","no-go","0"
"pit-trial","162","1068958","0.0-69.0","battery-v0.2","","""event"",""trial"",""time""
""fullscreenenter"",""1"",""2569""
","
","
","""event"",""trial"",""time""
""fullscreenenter"",""1"",""2569""
","
","","","825.1000000014901","","","13","3002","2509","l","elianto","#3366ff99","-1"," ","0","+10","[1675.300000000745]","1","2","","","3002","65","1","2","win","no-go","1"
"pit-trial","163","1073103","0.0-70.0","battery-v0.2","","""event"",""trial"",""time""
""fullscreenenter"",""1"",""2569""
","
","
","""event"",""trial"",""time""
""fullscreenenter"",""1"",""2569""
","
","","","1288.1000000014901","","","13","3002","2509","s","elianto","#3366ff99","-1"," ","0","0","[2139.599999997765]","1","2","","","3002","66","5","2","win","no-go","0"
"pit-trial","164","1077962","0.0-71.0","battery-v0.2","","""event"",""trial"",""time""
""fullscreenenter"",""1"",""2569""
","
","
","""event"",""trial"",""time""
""fullscreenenter"",""1"",""2569""
","
","","","-1","","","13","3002","2509","g","elianto","#f73b6a7A","-1","-1","1","0","[]","0","2","","","3002","67","3","4","lose","no-go","0"
"pit-trial","165","1081915","0.0-72.0","battery-v0.2","","""event"",""trial"",""time""
""fullscreenenter"",""1"",""2569""
","
","
","""event"",""trial"",""time""
""fullscreenenter"",""1"",""2569""
","
","","","1099.5","","","13","3002","2509","p","elianto","#3366ff99"," "," ","1","0","[1952.0999999977648]","1","2","","","3002","68","4","1","win","go","1"
"pit-trial","166","1085884","0.0-73.0","battery-v0.2","","""event"",""trial"",""time""
""fullscreenenter"",""1"",""2569""
","
","
","""event"",""trial"",""time""
""fullscreenenter"",""1"",""2569""
","
","","","1113.8999999985099","","","13","3002","2509","p","elianto","#3366ff99"," "," ","1","+10","[1966.2999999970198]","1","2","","","3002","69","4","1","win","go","0"
"pit-trial","167","1090732","0.0-74.0","battery-v0.2","","""event"",""trial"",""time""
""fullscreenenter"",""1"",""2569""
","
","
","""event"",""trial"",""time""
""fullscreenenter"",""1"",""2569""
","
","","","-1","","","13","3002","2509","s","elianto","#3366ff99","-1","-1","1","+10","[]","0","2","","","3002","70","5","2","win","no-go","0"
"pit-trial","168","1094452","0.0-75.0","battery-v0.2","","""event"",""trial"",""time""
""fullscreenenter"",""1"",""2569""
","
","
","""event"",""trial"",""time""
""fullscreenenter"",""1"",""2569""
","
","","","869.2999999970198","","","13","3002","2509","l","elianto","#3366ff99","-1"," ","0","0","[1721.300000000745]","1","2","","","3002","71","1","2","win","no-go","0"
"pit-trial","169","1099300","0.0-76.0","battery-v0.2","","""event"",""trial"",""time""
""fullscreenenter"",""1"",""2569""
","
","
","""event"",""trial"",""time""
""fullscreenenter"",""1"",""2569""
","
","","","-1","","","13","3002","2509","a","elianto","#f73b6a7A"," ","-1","0","-10","[]","0","2","","","3002","72","2","3","lose","go","0"
"pit-trial","170","1104155","0.0-77.0","battery-v0.2","","""event"",""trial"",""time""
""fullscreenenter"",""1"",""2569""
","
","
","""event"",""trial"",""time""
""fullscreenenter"",""1"",""2569""
","
","","","-1","","","13","3002","2509","g","elianto","#f73b6a7A","-1","-1","1","0","[]","0","2","","","3002","73","3","4","lose","no-go","0"
"pit-trial","171","1107578","0.0-78.0","battery-v0.2","","""event"",""trial"",""time""
""fullscreenenter"",""1"",""2569""
","
","
","""event"",""trial"",""time""
""fullscreenenter"",""1"",""2569""
","
","","","567","","","13","3002","2509","l","elianto","#3366ff99","-1"," ","0","+10","[1418.8999999985099]","1","2","","","3002","74","1","2","win","no-go","1"
"pit-trial","172","1111349","0.0-79.0","battery-v0.2","","""event"",""trial"",""time""
""fullscreenenter"",""1"",""2569""
","
","
","""event"",""trial"",""time""
""fullscreenenter"",""1"",""2569""
","
","","","918.9000000022352","","","13","3002","2509","p","elianto","#3366ff99"," "," ","1","+10","[1769.5]","1","2","","","3002","75","4","1","win","go","0"
"pit-trial","173","1115138","0.0-80.0","battery-v0.2","","""event"",""trial"",""time""
""fullscreenenter"",""1"",""2569""
","
","
","""event"",""trial"",""time""
""fullscreenenter"",""1"",""2569""
","
","","","938","","","13","3002","2509","s","elianto","#3366ff99","-1"," ","0","0","[1788.199999999255]","1","2","","","3002","76","5","2","win","no-go","0"
"pit-trial","174","1118434","0.0-81.0","battery-v0.2","","""event"",""trial"",""time""
""fullscreenenter"",""1"",""2569""
","
","
","""event"",""trial"",""time""
""fullscreenenter"",""1"",""2569""
","
","","","441.3999999985099","","","13","3002","2509","p","elianto","#3366ff99"," "," ","1","+10","[1293.699999999255]","1","2","","","3002","77","4","1","win","go","0"
"pit-trial","175","1122050","0.0-82.0","battery-v0.2","","""event"",""trial"",""time""
""fullscreenenter"",""1"",""2569""
","
","
","""event"",""trial"",""time""
""fullscreenenter"",""1"",""2569""
","
","","","760.5","","","13","3002","2509","s","elianto","#3366ff99","-1"," ","0","0","[1612.0999999977648]","1","2","","","3002","78","5","2","win","no-go","0"
"pit-trial","176","1126907","0.0-83.0","battery-v0.2","","""event"",""trial"",""time""
""fullscreenenter"",""1"",""2569""
","
","
","""event"",""trial"",""time""
""fullscreenenter"",""1"",""2569""
","
","","","-1","","","13","3002","2509","g","elianto","#f73b6a7A","-1","-1","1","0","[]","0","2","","","3002","79","3","4","lose","no-go","0"
"pit-trial","177","1130384","0.0-84.0","battery-v0.2","","""event"",""trial"",""time""
""fullscreenenter"",""1"",""2569""
","
","
","""event"",""trial"",""time""
""fullscreenenter"",""1"",""2569""
","
","","","621","","","13","3002","2509","p","elianto","#3366ff99"," "," ","1","+10","[1473.300000000745]","1","2","","","3002","80","4","1","win","go","0"
"pit-trial","178","1133750","0.0-85.0","battery-v0.2","","""event"",""trial"",""time""
""fullscreenenter"",""1"",""2569""
","
","
","""event"",""trial"",""time""
""fullscreenenter"",""1"",""2569""
","
","","","512.6000000014901","","","13","3002","2509","p","elianto","#3366ff99"," "," ","1","+10","[1363.800000000745]","1","2","","","3002","81","4","1","win","go","0"
"pit-trial","179","1137111","0.0-86.0","battery-v0.2","","""event"",""trial"",""time""
""fullscreenenter"",""1"",""2569""
","
","
","""event"",""trial"",""time""
""fullscreenenter"",""1"",""2569""
","
","","","505.6000000014901","","","13","3002","2509","s","elianto","#3366ff99","-1"," ","0","0","[1356.8999999985099]","1","2","","","3002","82","5","2","win","no-go","0"
"pit-trial","180","1141969","0.0-87.0","battery-v0.2","","""event"",""trial"",""time""
""fullscreenenter"",""1"",""2569""
","
","
","""event"",""trial"",""time""
""fullscreenenter"",""1"",""2569""
","
","","","-1","","","13","3002","2509","e","elianto","#f73b6a7A","-1","-1","1","-10","[]","0","2","","","3002","83","7","4","lose","no-go","1"
"pit-trial","181","1146828","0.0-88.0","battery-v0.2","","""event"",""trial"",""time""
""fullscreenenter"",""1"",""2569""
","
","
","""event"",""trial"",""time""
""fullscreenenter"",""1"",""2569""
","
","","","-1","","","13","3002","2509","g","elianto","#f73b6a7A","-1","-1","1","-10","[]","0","2","","","3002","84","3","4","lose","no-go","1"
"pit-trial","182","1150224","0.0-89.0","battery-v0.2","","""event"",""trial"",""time""
""fullscreenenter"",""1"",""2569""
","
","
","""event"",""trial"",""time""
""fullscreenenter"",""1"",""2569""
","
","","","538.3999999985099","","","13","3002","2509","p","elianto","#3366ff99"," "," ","1","+10","[1391]","1","2","","","3002","85","4","1","win","go","0"
"pit-trial","183","1153876","0.0-90.0","battery-v0.2","","""event"",""trial"",""time""
""fullscreenenter"",""1"",""2569""
","
","
","""event"",""trial"",""time""
""fullscreenenter"",""1"",""2569""
","
","","","798.3000000007451","","","13","3002","2509","s","elianto","#3366ff99","-1"," ","0","+10","[1650.3999999985099]","1","2","","","3002","86","5","2","win","no-go","1"
"pit-trial","184","1158734","0.0-91.0","battery-v0.2","","""event"",""trial"",""time""
""fullscreenenter"",""1"",""2569""
","
","
","""event"",""trial"",""time""
""fullscreenenter"",""1"",""2569""
","
","","","-1","","","13","3002","2509","w","elianto","#f73b6a7A"," ","-1","0","-10","[]","0","2","","","3002","87","6","3","lose","go","0"
"pit-trial","185","1163592","0.0-92.0","battery-v0.2","","""event"",""trial"",""time""
""fullscreenenter"",""1"",""2569""
","
","
","""event"",""trial"",""time""
""fullscreenenter"",""1"",""2569""
","
","","","-1","","","13","3002","2509","e","elianto","#f73b6a7A","-1","-1","1","-10","[]","0","2","","","3002","88","7","4","lose","no-go","1"
"pit-trial","186","1168451","0.0-93.0","battery-v0.2","","""event"",""trial"",""time""
""fullscreenenter"",""1"",""2569""
","
","
","""event"",""trial"",""time""
""fullscreenenter"",""1"",""2569""
","
","","","-1","","","13","3002","2509","e","elianto","#f73b6a7A","-1","-1","1","0","[]","0","2","","","3002","89","7","4","lose","no-go","0"
"pit-trial","187","1172038","0.0-94.0","battery-v0.2","","""event"",""trial"",""time""
""fullscreenenter"",""1"",""2569""
","
","
","""event"",""trial"",""time""
""fullscreenenter"",""1"",""2569""
","
","","","731.3000000007451","","","13","3002","2509","s","elianto","#3366ff99","-1"," ","0","0","[1583.3999999985099]","1","2","","","3002","90","5","2","win","no-go","0"
"pit-trial","188","1175765","0.0-95.0","battery-v0.2","","""event"",""trial"",""time""
""fullscreenenter"",""1"",""2569""
","
","
","""event"",""trial"",""time""
""fullscreenenter"",""1"",""2569""
","
","","","873.3000000007451","","","13","3002","2509","p","elianto","#3366ff99"," "," ","1","+10","[1723.3999999985099]","1","2","","","3002","91","4","1","win","go","0"
"pit-trial","189","1180624","0.0-96.0","battery-v0.2","","""event"",""trial"",""time""
""fullscreenenter"",""1"",""2569""
","
","
","""event"",""trial"",""time""
""fullscreenenter"",""1"",""2569""
","
","","","-1","","","13","3002","2509","w","elianto","#f73b6a7A"," ","-1","0","-10","[]","0","2","","","3002","92","6","3","lose","go","0"
"pit-trial","190","1185482","0.0-97.0","battery-v0.2","","""event"",""trial"",""time""
""fullscreenenter"",""1"",""2569""
","
","
","""event"",""trial"",""time""
""fullscreenenter"",""1"",""2569""
","
","","","-1","","","13","3002","2509","w","elianto","#f73b6a7A"," ","-1","0","-10","[]","0","2","","","3002","93","6","3","lose","go","0"
"pit-trial","191","1188960","0.0-98.0","battery-v0.2","","""event"",""trial"",""time""
""fullscreenenter"",""1"",""2569""
","
","
","""event"",""trial"",""time""
""fullscreenenter"",""1"",""2569""
","
","","","620.8000000007451","","","13","3002","2509","s","elianto","#3366ff99","-1"," ","0","+10","[1471.8999999985099]","1","2","","","3002","94","5","2","win","no-go","1"
"pit-trial","192","1193818","0.0-99.0","battery-v0.2","","""event"",""trial"",""time""
""fullscreenenter"",""1"",""2569""
","
","
","""event"",""trial"",""time""
""fullscreenenter"",""1"",""2569""
","
","","","-1","","","13","3002","2509","e","elianto","#f73b6a7A","-1","-1","1","0","[]","0","2","","","3002","95","7","4","lose","no-go","0"
"pit-trial","193","1197238","0.0-100.0","battery-v0.2","","""event"",""trial"",""time""
""fullscreenenter"",""1"",""2569""
","
","
","""event"",""trial"",""time""
""fullscreenenter"",""1"",""2569""
","
","","","563.5","","","13","3002","2509","d","elianto","#3366ff99"," "," ","1","+10","[1415]","1","2","","","3002","96","8","1","win","go","0"
"pit-trial","194","1202096","0.0-101.0","battery-v0.2","","""event"",""trial"",""time""
""fullscreenenter"",""1"",""2569""
","
","
","""event"",""trial"",""time""
""fullscreenenter"",""1"",""2569""
","
","","","-1","","","13","3002","2509","w","elianto","#f73b6a7A"," ","-1","0","-10","[]","0","2","","","3002","97","6","3","lose","go","0"
"pit-trial","195","1205573","0.0-102.0","battery-v0.2","","""event"",""trial"",""time""
""fullscreenenter"",""1"",""2569""
","
","
","""event"",""trial"",""time""
""fullscreenenter"",""1"",""2569""
","
","","","621.3000000007451","","","13","3002","2509","d","elianto","#3366ff99"," "," ","1","0","[1473.3999999985099]","1","2","","","3002","98","8","1","win","go","1"
"pit-trial","196","1208952","0.0-103.0","battery-v0.2","","""event"",""trial"",""time""
""fullscreenenter"",""1"",""2569""
","
","
","""event"",""trial"",""time""
""fullscreenenter"",""1"",""2569""
","
","","","520.1000000014901","","","13","3002","2509","s","elianto","#3366ff99","-1"," ","0","0","[1371.8999999985099]","1","2","","","3002","99","5","2","win","no-go","0"
"pit-trial","197","1213811","0.0-104.0","battery-v0.2","","""event"",""trial"",""time""
""fullscreenenter"",""1"",""2569""
","
","
","""event"",""trial"",""time""
""fullscreenenter"",""1"",""2569""
","
","","","-1","","","13","3002","2509","e","elianto","#f73b6a7A","-1","-1","1","0","[]","0","2","","","3002","100","7","4","lose","no-go","0"
"pit-trial","198","1217468","0.0-105.0","battery-v0.2","","""event"",""trial"",""time""
""fullscreenenter"",""1"",""2569""
","
","
","""event"",""trial"",""time""
""fullscreenenter"",""1"",""2569""
","
","","","802.3999999985099","","","13","3002","2509","d","elianto","#3366ff99"," "," ","1","0","[1654.5999999977648]","1","2","","","3002","101","8","1","win","go","1"
"pit-trial","199","1220933","0.0-106.0","battery-v0.2","","""event"",""trial"",""time""
""fullscreenenter"",""1"",""2569""
","
","
","""event"",""trial"",""time""
""fullscreenenter"",""1"",""2569""
","
","","","609.6000000014901","","","13","3002","2509","j","elianto","#3366ff99"," "," ","1","+10","[1461.5]","1","2","","","3002","102","9","1","win","go","0"
"pit-trial","200","1225792","0.0-107.0","battery-v0.2","","""event"",""trial"",""time""
""fullscreenenter"",""1"",""2569""
","
","
","""event"",""trial"",""time""
""fullscreenenter"",""1"",""2569""
","
","","","-1","","","13","3002","2509","e","elianto","#f73b6a7A","-1","-1","1","0","[]","0","2","","","3002","103","7","4","lose","no-go","0"
"pit-trial","201","1229188","0.0-108.0","battery-v0.2","","""event"",""trial"",""time""
""fullscreenenter"",""1"",""2569""
","
","
","""event"",""trial"",""time""
""fullscreenenter"",""1"",""2569""
","
","","","543.2999999970198","","","13","3002","2509","s","elianto","#3366ff99","-1"," ","0","0","[1393.5]","1","2","","","3002","104","5","2","win","no-go","0"
"pit-trial","202","1232549","0.0-109.0","battery-v0.2","","""event"",""trial"",""time""
""fullscreenenter"",""1"",""2569""
","
","
","""event"",""trial"",""time""
""fullscreenenter"",""1"",""2569""
","
","","","506.3999999985099","","","13","3002","2509","p","elianto","#3366ff99"," "," ","1","+10","[1357.5999999977648]","1","2","","","3002","105","4","1","win","go","0"
"pit-trial","203","1236026","0.0-110.0","battery-v0.2","","""event"",""trial"",""time""
""fullscreenenter"",""1"",""2569""
","
","
","""event"",""trial"",""time""
""fullscreenenter"",""1"",""2569""
","
","","","623.8999999985099","","","13","3002","2509","j","elianto","#3366ff99"," "," ","1","+10","[1476.199999999255]","1","2","","","3002","106","9","1","win","go","0"
"pit-trial","204","1240885","0.0-111.0","battery-v0.2","","""event"",""trial"",""time""
""fullscreenenter"",""1"",""2569""
","
","
","""event"",""trial"",""time""
""fullscreenenter"",""1"",""2569""
","
","","","-1","","","13","3002","2509","w","elianto","#f73b6a7A"," ","-1","0","-10","[]","0","2","","","3002","107","6","3","lose","go","0"
"pit-trial","205","1244264","0.0-112.0","battery-v0.2","","""event"",""trial"",""time""
""fullscreenenter"",""1"",""2569""
","
","
","""event"",""trial"",""time""
""fullscreenenter"",""1"",""2569""
","
","","","520.3000000007451","","","13","3002","2509","d","elianto","#3366ff99"," "," ","1","+10","[1372.4000000022352]","1","2","","","3002","108","8","1","win","go","0"
"pit-trial","206","1247741","0.0-113.0","battery-v0.2","","""event"",""trial"",""time""
""fullscreenenter"",""1"",""2569""
","
","
","""event"",""trial"",""time""
""fullscreenenter"",""1"",""2569""
","
","","","623.1000000014901","","","13","3002","2509","j","elianto","#3366ff99"," "," ","1","+10","[1473.699999999255]","1","2","","","3002","109","9","1","win","go","0"
"pit-trial","207","1251397","0.0-114.0","battery-v0.2","","""event"",""trial"",""time""
""fullscreenenter"",""1"",""2569""
","
","
","""event"",""trial"",""time""
""fullscreenenter"",""1"",""2569""
","
","","","800.1000000014901","","","13","3002","2509","d","elianto","#3366ff99"," "," ","1","+10","[1652.5]","1","2","","","3002","110","8","1","win","go","0"
"pit-trial","208","1254805","0.0-115.0","battery-v0.2","","""event"",""trial"",""time""
""fullscreenenter"",""1"",""2569""
","
","
","""event"",""trial"",""time""
""fullscreenenter"",""1"",""2569""
","
","","","553.3000000007451","","","13","3002","2509","s","elianto","#3366ff99","-1"," ","0","0","[1404.199999999255]","1","2","","","3002","111","5","2","win","no-go","0"
"pit-trial","209","1259664","0.0-116.0","battery-v0.2","","""event"",""trial"",""time""
""fullscreenenter"",""1"",""2569""
","
","
","""event"",""trial"",""time""
""fullscreenenter"",""1"",""2569""
","
","","","-1","","","13","3002","2509","w","elianto","#f73b6a7A"," ","-1","0","-10","[]","0","2","","","3002","112","6","3","lose","go","0"
"pit-trial","210","1263102","0.0-117.0","battery-v0.2","","""event"",""trial"",""time""
""fullscreenenter"",""1"",""2569""
","
","
","""event"",""trial"",""time""
""fullscreenenter"",""1"",""2569""
","
","","","581.2000000029802","","","13","3002","2509","d","elianto","#3366ff99"," "," ","1","+10","[1433.7000000029802]","1","2","","","3002","113","8","1","win","go","0"
"pit-trial","211","1266919","0.0-118.0","battery-v0.2","","""event"",""trial"",""time""
""fullscreenenter"",""1"",""2569""
","
","
","""event"",""trial"",""time""
""fullscreenenter"",""1"",""2569""
","
","","","961.6999999992549","","","13","3002","2509","j","elianto","#3366ff99"," "," ","1","+10","[1811.800000000745]","1","2","","","3002","114","9","1","win","go","0"
"pit-trial","212","1271773","0.0-119.0","battery-v0.2","","""event"",""trial"",""time""
""fullscreenenter"",""1"",""2569""
","
","
","""event"",""trial"",""time""
""fullscreenenter"",""1"",""2569""
","
","","","-1","","","13","3002","2509","w","elianto","#f73b6a7A"," ","-1","0","-10","[]","0","2","","","3002","115","6","3","lose","go","0"
"pit-trial","213","1275251","0.0-120.0","battery-v0.2","","""event"",""trial"",""time""
""fullscreenenter"",""1"",""2569""
","
","
","""event"",""trial"",""time""
""fullscreenenter"",""1"",""2569""
","
","","","624.9000000022352","","","13","3002","2509","s","elianto","#3366ff99","-1"," ","0","0","[1475.699999999255]","1","2","","","3002","116","5","2","win","no-go","0"
"pit-trial","214","1280109","0.0-121.0","battery-v0.2","","""event"",""trial"",""time""
""fullscreenenter"",""1"",""2569""
","
","
","""event"",""trial"",""time""
""fullscreenenter"",""1"",""2569""
","
","","","-1","","","13","3002","2509","w","elianto","#f73b6a7A"," ","-1","0","-10","[]","0","2","","","3002","117","6","3","lose","go","0"
"pit-trial","215","1283389","0.0-122.0","battery-v0.2","","""event"",""trial"",""time""
""fullscreenenter"",""1"",""2569""
","
","
","""event"",""trial"",""time""
""fullscreenenter"",""1"",""2569""
","
","","","425.80000000074506","","","13","3002","2509","d","elianto","#3366ff99"," "," ","1","+10","[1276.5]","1","2","","","3002","118","8","1","win","go","0"
"pit-trial","216","1286855","0.0-123.0","battery-v0.2","","""event"",""trial"",""time""
""fullscreenenter"",""1"",""2569""
","
","
","""event"",""trial"",""time""
""fullscreenenter"",""1"",""2569""
","
","","","609.5","","","13","3002","2509","j","elianto","#3366ff99"," "," ","1","+10","[1459.800000000745]","1","2","","","3002","119","9","1","win","go","0"
"pit-trial","217","1290251","0.0-124.0","battery-v0.2","","""event"",""trial"",""time""
""fullscreenenter"",""1"",""2569""
","
","
","""event"",""trial"",""time""
""fullscreenenter"",""1"",""2569""
","
","","","542.6999999992549","","","13","3002","2509","s","elianto","#3366ff99","-1"," ","0","0","[1394.3999999985099]","1","2","","","3002","120","5","2","win","no-go","0"
"pit-trial","218","1295109","0.0-125.0","battery-v0.2","","""event"",""trial"",""time""
""fullscreenenter"",""1"",""2569""
","
","
","""event"",""trial"",""time""
""fullscreenenter"",""1"",""2569""
","
","","","-1","","","13","3002","2509","w","elianto","#f73b6a7A"," ","-1","0","-10","[]","0","2","","","3002","121","6","3","lose","go","0"
"pit-trial","219","1298917","0.0-126.0","battery-v0.2","","""event"",""trial"",""time""
""fullscreenenter"",""1"",""2569""
","
","
","""event"",""trial"",""time""
""fullscreenenter"",""1"",""2569""
","
","","","953.4000000022352","","","13","3002","2509","j","elianto","#3366ff99"," "," ","1","+10","[1804]","1","2","","","3002","122","9","1","win","go","0"
"pit-trial","220","1303776","0.0-127.0","battery-v0.2","","""event"",""trial"",""time""
""fullscreenenter"",""1"",""2569""
","
","
","""event"",""trial"",""time""
""fullscreenenter"",""1"",""2569""
","
","","","-1","","","13","3002","2509","e","elianto","#f73b6a7A","-1","-1","1","0","[]","0","2","","","3002","123","7","4","lose","no-go","0"
"pit-trial","221","1307526","0.0-128.0","battery-v0.2","","""event"",""trial"",""time""
""fullscreenenter"",""1"",""2569""
","
","
","""event"",""trial"",""time""
""fullscreenenter"",""1"",""2569""
","
","","","892.5","","","13","3002","2509","d","elianto","#3366ff99"," "," ","1","+10","[1745]","1","2","","","3002","124","8","1","win","go","0"
"pit-trial","222","1311102","0.0-129.0","battery-v0.2","","""event"",""trial"",""time""
""fullscreenenter"",""1"",""2569""
","
","
","""event"",""trial"",""time""
""fullscreenenter"",""1"",""2569""
","
","","","718.6000000014901","","","13","3002","2509","d","elianto","#3366ff99"," "," ","1","+10","[1571.1000000014901]","1","2","","","3002","125","8","1","win","go","0"
"pit-trial","223","1315961","0.0-130.0","battery-v0.2","","""event"",""trial"",""time""
""fullscreenenter"",""1"",""2569""
","
","
","""event"",""trial"",""time""
""fullscreenenter"",""1"",""2569""
","
","","","-1","","","13","3002","2509","e","elianto","#f73b6a7A","-1","-1","1","0","[]","0","2","","","3002","126","7","4","lose","no-go","0"
"pit-trial","224","1319429","0.0-131.0","battery-v0.2","","""event"",""trial"",""time""
""fullscreenenter"",""1"",""2569""
","
","
","""event"",""trial"",""time""
""fullscreenenter"",""1"",""2569""
","
","","","611.5999999977648","","","13","3002","2509","j","elianto","#3366ff99"," "," ","1","+10","[1464.0999999977648]","1","2","","","3002","127","9","1","win","go","0"
"pit-trial","225","1324285","0.0-132.0","battery-v0.2","","""event"",""trial"",""time""
""fullscreenenter"",""1"",""2569""
","
","
","""event"",""trial"",""time""
""fullscreenenter"",""1"",""2569""
","
","","","-1","","","13","3002","2509","w","elianto","#f73b6a7A"," ","-1","0","-10","[]","0","2","","","3002","128","6","3","lose","go","0"
"pit-trial","226","1329144","0.0-133.0","battery-v0.2","","""event"",""trial"",""time""
""fullscreenenter"",""1"",""2569""
","
","
","""event"",""trial"",""time""
""fullscreenenter"",""1"",""2569""
","
","","","-1","","","13","3002","2509","w","elianto","#f73b6a7A"," ","-1","0","-10","[]","0","2","","","3002","129","6","3","lose","go","0"
"pit-trial","227","1334003","0.0-134.0","battery-v0.2","","""event"",""trial"",""time""
""fullscreenenter"",""1"",""2569""
","
","
","""event"",""trial"",""time""
""fullscreenenter"",""1"",""2569""
","
","","","-1","","","13","3002","2509","e","elianto","#f73b6a7A","-1","-1","1","0","[]","0","2","","","3002","130","7","4","lose","no-go","0"
"pit-trial","228","1337555","0.0-135.0","battery-v0.2","","""event"",""trial"",""time""
""fullscreenenter"",""1"",""2569""
","
","
","""event"",""trial"",""time""
""fullscreenenter"",""1"",""2569""
","
","","","698.0999999977648","","","13","3002","2509","d","elianto","#3366ff99"," "," ","1","0","[1550.3999999985099]","1","2","","","3002","131","8","1","win","go","1"
"pit-trial","229","1341131","0.0-136.0","battery-v0.2","","""event"",""trial"",""time""
""fullscreenenter"",""1"",""2569""
","
","
","""event"",""trial"",""time""
""fullscreenenter"",""1"",""2569""
","
","","","722.6000000014901","","","13","3002","2509","j","elianto","#3366ff99"," "," ","1","+10","[1573.5]","1","2","","","3002","132","9","1","win","go","0"
"pit-trial","230","1344788","0.0-137.0","battery-v0.2","","""event"",""trial"",""time""
""fullscreenenter"",""1"",""2569""
","
","
","""event"",""trial"",""time""
""fullscreenenter"",""1"",""2569""
","
","","","801.6000000014901","","","13","3002","2509","j","elianto","#3366ff99"," "," ","1","+10","[1653.5999999977648]","1","2","","","3002","133","9","1","win","go","0"
"pit-trial","231","1349647","0.0-138.0","battery-v0.2","","""event"",""trial"",""time""
""fullscreenenter"",""1"",""2569""
","
","
","""event"",""trial"",""time""
""fullscreenenter"",""1"",""2569""
","
","","","-1","","","13","3002","2509","e","elianto","#f73b6a7A","-1","-1","1","0","[]","0","2","","","3002","134","7","4","lose","no-go","0"
"pit-trial","232","1354506","0.0-139.0","battery-v0.2","","""event"",""trial"",""time""
""fullscreenenter"",""1"",""2569""
","
","
","""event"",""trial"",""time""
""fullscreenenter"",""1"",""2569""
","
","","","-1","","","13","3002","2509","w","elianto","#f73b6a7A"," ","-1","0","-10","[]","0","2","","","3002","135","6","3","lose","go","0"
"pit-trial","233","1357989","0.0-140.0","battery-v0.2","","""event"",""trial"",""time""
""fullscreenenter"",""1"",""2569""
","
","
","""event"",""trial"",""time""
""fullscreenenter"",""1"",""2569""
","
","","","627.0999999977648","","","13","3002","2509","d","elianto","#3366ff99"," "," ","1","0","[1479.2999999970198]","1","2","","","3002","136","8","1","win","go","1"
"pit-trial","234","1362847","0.0-141.0","battery-v0.2","","""event"",""trial"",""time""
""fullscreenenter"",""1"",""2569""
","
","
","""event"",""trial"",""time""
""fullscreenenter"",""1"",""2569""
","
","","","-1","","","13","3002","2509","e","elianto","#f73b6a7A","-1","-1","1","-10","[]","0","2","","","3002","137","7","4","lose","no-go","1"
"pit-trial","235","1366574","0.0-142.0","battery-v0.2","","""event"",""trial"",""time""
""fullscreenenter"",""1"",""2569""
","
","
","""event"",""trial"",""time""
""fullscreenenter"",""1"",""2569""
","
","","","871","","","13","3002","2509","d","elianto","#3366ff99"," "," ","1","+10","[1721.3999999985099]","1","2","","","3002","138","8","1","win","go","0"
"pit-trial","236","1370475","0.0-143.0","battery-v0.2","","""event"",""trial"",""time""
""fullscreenenter"",""1"",""2569""
","
","
","""event"",""trial"",""time""
""fullscreenenter"",""1"",""2569""
","
","","","1048.300000000745","","","13","3002","2509","j","elianto","#3366ff99"," "," ","1","0","[1898.6000000014901]","1","2","","","3002","139","9","1","win","go","1"
"pit-trial","237","1375334","0.0-144.0","battery-v0.2","","""event"",""trial"",""time""
""fullscreenenter"",""1"",""2569""
","
","
","""event"",""trial"",""time""
""fullscreenenter"",""1"",""2569""
","
","","","-1","","","13","3002","2509","w","elianto","#f73b6a7A"," ","-1","0","-10","[]","0","2","","","3002","140","6","3","lose","go","0"
"pit-instructions","238","1391705","0.0-145.0","battery-v0.2","","""event"",""trial"",""time""
""fullscreenenter"",""1"",""2569""
","
","
","""event"",""trial"",""time""
""fullscreenenter"",""1"",""2569""
","
","","[{""page_index"":0,""viewing_time"":8348.79999999702},{""page_index"":1,""viewing_time"":8021.60000000149}]","16370.699999999255","","","","","","","","","","","","","","","","","","","","","","","",""
"pit-trial","239","1395107","0.0-146.0","battery-v0.2","","""event"",""trial"",""time""
""fullscreenenter"",""1"",""2569""
","
","
","""event"",""trial"",""time""
""fullscreenenter"",""1"",""2569""
","
","","","546.8000000007451","","","13","3002","2509","f","elianto","#3366ff99"," "," ","1","0","[1398.1000000014901,3278.199999999255]","2","3","","","3002","141","1","1","win","go","1"
"pit-trial","240","1399960","0.0-147.0","battery-v0.2","","""event"",""trial"",""time""
""fullscreenenter"",""1"",""2569""
","
","
","""event"",""trial"",""time""
""fullscreenenter"",""1"",""2569""
","
","","","-1","","","13","3002","2509","n","elianto","#f73b6a7A","-1","-1","1","0","[]","0","3","","","3002","142","0","4","lose","no-go","0"
"pit-trial","241","1404819","0.0-148.0","battery-v0.2","","""event"",""trial"",""time""
""fullscreenenter"",""1"",""2569""
","
","
","""event"",""trial"",""time""
""fullscreenenter"",""1"",""2569""
","
","","","-1","","","13","3002","2509","t","elianto","#f73b6a7A","-1","-1","1","0","[]","0","3","","","3002","143","2","4","lose","no-go","0"
"pit-trial","242","1409678","0.0-149.0","battery-v0.2","","""event"",""trial"",""time""
""fullscreenenter"",""1"",""2569""
","
","
","""event"",""trial"",""time""
""fullscreenenter"",""1"",""2569""
","
","","","-1","","","13","3002","2509","b","elianto","#f73b6a7A"," ","-1","0","-10","[]","0","3","","","3002","144","3","3","lose","go","0"
"pit-trial","243","1414537","0.0-150.0","battery-v0.2","","""event"",""trial"",""time""
""fullscreenenter"",""1"",""2569""
","
","
","""event"",""trial"",""time""
""fullscreenenter"",""1"",""2569""
","
","","","-1","","","13","3002","2509","b","elianto","#f73b6a7A"," ","-1","0","-10","[]","0","3","","","3002","145","3","3","lose","go","0"
"pit-trial","244","1419372","0.0-151.0","battery-v0.2","","""event"",""trial"",""time""
""fullscreenenter"",""1"",""2569""
","
","
","""event"",""trial"",""time""
""fullscreenenter"",""1"",""2569""
","
","","","1981.699999999255","","","13","3002","2509","t","elianto","#f73b6a7A","-1"," ","0","-10","[2832.5,3136]","2","3","","","3002","146","2","4","lose","no-go","0"
"pit-trial","245","1422862","0.0-152.0","battery-v0.2","","""event"",""trial"",""time""
""fullscreenenter"",""1"",""2569""
","
","
","""event"",""trial"",""time""
""fullscreenenter"",""1"",""2569""
","
","","","633.9000000022352","","","13","3002","2509","f","elianto","#3366ff99"," "," ","1","+10","[1484.5]","1","3","","","3002","147","1","1","win","go","0"
"pit-trial","246","1427722","0.0-153.0","battery-v0.2","","""event"",""trial"",""time""
""fullscreenenter"",""1"",""2569""
","
","
","""event"",""trial"",""time""
""fullscreenenter"",""1"",""2569""
","
","","","-1","","","13","3002","2509","n","elianto","#f73b6a7A","-1","-1","1","0","[]","0","3","","","3002","148","0","4","lose","no-go","0"
"pit-trial","247","1432579","0.0-154.0","battery-v0.2","","""event"",""trial"",""time""
""fullscreenenter"",""1"",""2569""
","
","
","""event"",""trial"",""time""
""fullscreenenter"",""1"",""2569""
","
","","","-1","","","13","3002","2509","b","elianto","#f73b6a7A"," ","-1","0","-10","[]","0","3","","","3002","149","3","3","lose","go","0"
"pit-trial","248","1437438","0.0-155.0","battery-v0.2","","""event"",""trial"",""time""
""fullscreenenter"",""1"",""2569""
","
","
","""event"",""trial"",""time""
""fullscreenenter"",""1"",""2569""
","
","","","-1","","","13","3002","2509","n","elianto","#f73b6a7A","-1","-1","1","0","[]","0","3","","","3002","150","0","4","lose","no-go","0"
"pit-trial","249","1440956","0.0-156.0","battery-v0.2","","""event"",""trial"",""time""
""fullscreenenter"",""1"",""2569""
","
","
","""event"",""trial"",""time""
""fullscreenenter"",""1"",""2569""
","
","","","664.2999999970198","","","13","3002","2509","f","elianto","#3366ff99"," "," ","1","+10","[1514.8999999985099]","1","3","","","3002","151","1","1","win","go","0"
"pit-trial","250","1445814","0.0-157.0","battery-v0.2","","""event"",""trial"",""time""
""fullscreenenter"",""1"",""2569""
","
","
","""event"",""trial"",""time""
""fullscreenenter"",""1"",""2569""
","
","","","-1","","","13","3002","2509","t","elianto","#f73b6a7A","-1","-1","1","0","[]","0","3","","","3002","152","2","4","lose","no-go","0"
"pit-trial","251","1450673","0.0-158.0","battery-v0.2","","""event"",""trial"",""time""
""fullscreenenter"",""1"",""2569""
","
","
","""event"",""trial"",""time""
""fullscreenenter"",""1"",""2569""
","
","","","-1","","","13","3002","2509","t","elianto","#f73b6a7A","-1","-1","1","0","[]","0","3","","","3002","153","2","4","lose","no-go","0"
"pit-trial","252","1455532","0.0-159.0","battery-v0.2","","""event"",""trial"",""time""
""fullscreenenter"",""1"",""2569""
","
","
","""event"",""trial"",""time""
""fullscreenenter"",""1"",""2569""
","
","","","-1","","","13","3002","2509","b","elianto","#f73b6a7A"," ","-1","0","-10","[]","0","3","","","3002","154","3","3","lose","go","0"
"pit-trial","253","1458614","0.0-160.0","battery-v0.2","","""event"",""trial"",""time""
""fullscreenenter"",""1"",""2569""
","
","
","""event"",""trial"",""time""
""fullscreenenter"",""1"",""2569""
","
","","","225.59999999776483","","","13","3002","2509","f","elianto","#3366ff99"," "," ","1","+10","[1076.8999999985099]","1","3","","","3002","155","1","1","win","go","0"
"pit-trial","254","1463473","0.0-161.0","battery-v0.2","","""event"",""trial"",""time""
""fullscreenenter"",""1"",""2569""
","
","
","""event"",""trial"",""time""
""fullscreenenter"",""1"",""2569""
","
","","","-1","","","13","3002","2509","n","elianto","#f73b6a7A","-1","-1","1","0","[]","0","3","","","3002","156","0","4","lose","no-go","0"
"pit-trial","255","1468332","0.0-162.0","battery-v0.2","","""event"",""trial"",""time""
""fullscreenenter"",""1"",""2569""
","
","
","""event"",""trial"",""time""
""fullscreenenter"",""1"",""2569""
","
","","","-1","","","13","3002","2509","t","elianto","#f73b6a7A","-1","-1","1","0","[]","0","3","","","3002","157","2","4","lose","no-go","0"
"pit-trial","256","1472094","0.0-163.0","battery-v0.2","","""event"",""trial"",""time""
""fullscreenenter"",""1"",""2569""
","
","
","""event"",""trial"",""time""
""fullscreenenter"",""1"",""2569""
","
","","","906.5999999977648","","","13","3002","2509","f","elianto","#3366ff99"," "," ","1","0","[1756.699999999255]","1","3","","","3002","158","1","1","win","go","1"
"pit-trial","257","1476952","0.0-164.0","battery-v0.2","","""event"",""trial"",""time""
""fullscreenenter"",""1"",""2569""
","
","
","""event"",""trial"",""time""
""fullscreenenter"",""1"",""2569""
","
","","","-1","","","13","3002","2509","b","elianto","#f73b6a7A"," ","-1","0","0","[]","0","3","","","3002","159","3","3","lose","go","1"
"pit-trial","258","1481805","0.0-165.0","battery-v0.2","","""event"",""trial"",""time""
""fullscreenenter"",""1"",""2569""
","
","
","""event"",""trial"",""time""
""fullscreenenter"",""1"",""2569""
","
","","","-1","","","13","3002","2509","n","elianto","#f73b6a7A","-1","-1","1","-10","[]","0","3","","","3002","160","0","4","lose","no-go","1"
"pit-trial","259","1485364","0.0-166.0","battery-v0.2","","""event"",""trial"",""time""
""fullscreenenter"",""1"",""2569""
","
","
","""event"",""trial"",""time""
""fullscreenenter"",""1"",""2569""
","
","","","704.6999999992549","","","13","3002","2509","f","elianto","#3366ff99"," "," ","1","+10","[1555.4000000022352]","1","3","","","3002","161","1","1","win","go","0"
"pit-trial","260","1490223","0.0-167.0","battery-v0.2","","""event"",""trial"",""time""
""fullscreenenter"",""1"",""2569""
","
","
","""event"",""trial"",""time""
""fullscreenenter"",""1"",""2569""
","
","","","-1","","","13","3002","2509","t","elianto","#f73b6a7A","-1","-1","1","0","[]","0","3","","","3002","162","2","4","lose","no-go","0"
"pit-trial","261","1495081","0.0-168.0","battery-v0.2","","""event"",""trial"",""time""
""fullscreenenter"",""1"",""2569""
","
","
","""event"",""trial"",""time""
""fullscreenenter"",""1"",""2569""
","
","","","-1","","","13","3002","2509","b","elianto","#f73b6a7A"," ","-1","0","0","[]","0","3","","","3002","163","3","3","lose","go","1"
"pit-trial","262","1499940","0.0-169.0","battery-v0.2","","""event"",""trial"",""time""
""fullscreenenter"",""1"",""2569""
","
","
","""event"",""trial"",""time""
""fullscreenenter"",""1"",""2569""
","
","","","-1","","","13","3002","2509","n","elianto","#f73b6a7A","-1","-1","1","0","[]","0","3","","","3002","164","0","4","lose","no-go","0"
"pit-trial","263","1503278","0.0-170.0","battery-v0.2","","""event"",""trial"",""time""
""fullscreenenter"",""1"",""2569""
","
","
","""event"",""trial"",""time""
""fullscreenenter"",""1"",""2569""
","
","","","482.5","","","13","3002","2509","c","elianto","#3366ff99","-1"," ","0","0","[1332.699999999255]","1","3","","","3002","165","4","2","win","no-go","0"
"pit-trial","264","1508137","0.0-171.0","battery-v0.2","","""event"",""trial"",""time""
""fullscreenenter"",""1"",""2569""
","
","
","""event"",""trial"",""time""
""fullscreenenter"",""1"",""2569""
","
","","","-1","","","13","3002","2509","t","elianto","#f73b6a7A","-1","-1","1","0","[]","0","3","","","3002","166","2","4","lose","no-go","0"
"pit-trial","265","1512995","0.0-172.0","battery-v0.2","","""event"",""trial"",""time""
""fullscreenenter"",""1"",""2569""
","
","
","""event"",""trial"",""time""
""fullscreenenter"",""1"",""2569""
","
","","","-1","","","13","3002","2509","b","elianto","#f73b6a7A"," ","-1","0","-10","[]","0","3","","","3002","167","3","3","lose","go","0"
"pit-trial","266","1517854","0.0-173.0","battery-v0.2","","""event"",""trial"",""time""
""fullscreenenter"",""1"",""2569""
","
","
","""event"",""trial"",""time""
""fullscreenenter"",""1"",""2569""
","
","","","-1","","","13","3002","2509","n","elianto","#f73b6a7A","-1","-1","1","0","[]","0","3","","","3002","168","0","4","lose","no-go","0"
"pit-trial","267","1521343","0.0-174.0","battery-v0.2","","""event"",""trial"",""time""
""fullscreenenter"",""1"",""2569""
","
","
","""event"",""trial"",""time""
