"trial_type","trial_index","time_elapsed","internal_node_id","task_version","subject_id","interactions","blur_events","focus_events","fullscreenenter_events","fullscreenexit_events","success","view_history","rt","responses","num_errors","age","subject","participantId","rune","rune_set","hex","correct","choice","accuracy","outcome","keys","total_keys","block","practice","value","sub","trial","stimulus","robot","valence","action","sham"
"pavlovia","0","4","0.0-0.0","battery-v0.2","","""event"",""trial"",""time""
""fullscreenenter"",""1"",""5056""
","
","
","""event"",""trial"",""time""
""fullscreenenter"",""1"",""5056""
","
","","","","","","","","","","","","","","","","","","","","","","","","","","",""
"fullscreen","1","6043","0.0-1.0","battery-v0.2","","""event"",""trial"",""time""
""fullscreenenter"",""1"",""5056""
","
","
","""event"",""trial"",""time""
""fullscreenenter"",""1"",""5056""
","
","true","","","","","","","","","","","","","","","","","","","","","","","","","",""
"pit-instructions","2","36758","0.0-2.0-0.0","battery-v0.2","","""event"",""trial"",""time""
""fullscreenenter"",""1"",""5056""
","
","
","""event"",""trial"",""time""
""fullscreenenter"",""1"",""5056""
","
","","[{""page_index"":0,""viewing_time"":30711.5}]","30712.599999904633","","","","","","","","","","","","","","","","","","","","","","","",""
"pit-comprehension","3","39605","0.0-2.0-1.0-0.0","battery-v0.2","","""event"",""trial"",""time""
""fullscreenenter"",""1"",""5056""
","
","
","""event"",""trial"",""time""
""fullscreenenter"",""1"",""5056""
","
","","","2839.899999976158","[""shark""]","0","18","3339","2606","","","","","","","","","","","","","","","","","","",""
"pit-instructions","4","42786","0.0-2.0-1.0-1.0","battery-v0.2","","""event"",""trial"",""time""
""fullscreenenter"",""1"",""5056""
","
","
","""event"",""trial"",""time""
""fullscreenenter"",""1"",""5056""
","
","","[{""page_index"":0,""viewing_time"":3169}]","3169.5","","","","","","","","","","","","","","","","","","","","","","","",""
"pit-comprehension","5","46620","0.0-2.0-2.0-0.0","battery-v0.2","","""event"",""trial"",""time""
""fullscreenenter"",""1"",""5056""
","
","
","""event"",""trial"",""time""
""fullscreenenter"",""1"",""5056""
","
","","","3827.399999976158","[""tiger""]","0","18","3339","2606","","","","","","","","","","","","","","","","","","",""
"pit-instructions","6","50027","0.0-2.0-2.0-1.0","battery-v0.2","","""event"",""trial"",""time""
""fullscreenenter"",""1"",""5056""
","
","
","""event"",""trial"",""time""
""fullscreenenter"",""1"",""5056""
","
","","[{""page_index"":0,""viewing_time"":3400.600000023842}]","3401.399999976158","","","","","","","","","","","","","","","","","","","","","","","",""
"pit-instructions","7","167811","0.0-2.0-3.0","battery-v0.2","","""event"",""trial"",""time""
""fullscreenenter"",""1"",""5056""
","
","
","""event"",""trial"",""time""
""fullscreenenter"",""1"",""5056""
","
","","[{""page_index"":0,""viewing_time"":10332.400000095367},{""page_index"":1,""viewing_time"":12060.599999904633},{""page_index"":2,""viewing_time"":7473.700000047684},{""page_index"":3,""viewing_time"":7040.200000047684},{""page_index"":4,""viewing_time"":6238.899999976158},{""page_index"":5,""viewing_time"":5773},{""page_index"":6,""viewing_time"":7652.699999928474},{""page_index"":7,""viewing_time"":7422.800000071526},{""page_index"":8,""viewing_time"":6837.799999952316},{""page_index"":9,""viewing_time"":13575.399999976158},{""page_index"":10,""viewing_time"":10799.200000047684},{""page_index"":11,""viewing_time"":9182.899999976158},{""page_index"":12,""viewing_time"":7737.100000023842},{""page_index"":13,""viewing_time"":5651}]","117778.90000009537","","","","","","","","","","","","","","","","","","","","","","","",""
"pit-trial","8","171297","0.0-2.0-4.0-0.0","battery-v0.2","","""event"",""trial"",""time""
""fullscreenenter"",""1"",""5056""
","
","
","""event"",""trial"",""time""
""fullscreenenter"",""1"",""5056""
","
","","","626.7000000476837","","","18","3339","2606","&#9784;","elianto","#FFFFF080"," "," ","1","&#10004","[1477]","1","0","0","","","","","","","",""
"pit-trial","9","174675","0.0-2.0-4.1-0.1","battery-v0.2","","""event"",""trial"",""time""
""fullscreenenter"",""1"",""5056""
","
","
","""event"",""trial"",""time""
""fullscreenenter"",""1"",""5056""
","
","","","515.6000000238419","","","18","3339","2606","&#9784;","elianto","#FFFFF080"," "," ","1","&#10004","[1366.7000000476837]","1","0","0","","","","","","","",""
"pit-trial","10","177969","0.0-2.0-4.2-0.2","battery-v0.2","","""event"",""trial"",""time""
""fullscreenenter"",""1"",""5056""
","
","
","""event"",""trial"",""time""
""fullscreenenter"",""1"",""5056""
","
","","","432.8000000715256","","","18","3339","2606","&#9784;","elianto","#FFFFF080"," "," ","1","&#10004","[1282.7999999523163]","1","0","0","","","","","","","",""
"pit-trial","11","181372","0.0-2.0-4.3-0.3","battery-v0.2","","""event"",""trial"",""time""
""fullscreenenter"",""1"",""5056""
","
","
","""event"",""trial"",""time""
""fullscreenenter"",""1"",""5056""
","
","","","545","","","18","3339","2606","&#9784;","elianto","#FFFFF080"," "," ","1","&#10004","[1397.1999999284744]","1","0","0","","","","","","","",""
"pit-trial","12","184812","0.0-2.0-4.4-0.4","battery-v0.2","","""event"",""trial"",""time""
""fullscreenenter"",""1"",""5056""
","
","
","""event"",""trial"",""time""
""fullscreenenter"",""1"",""5056""
","
","","","578.6000000238419","","","18","3339","2606","&#9784;","elianto","#FFFFF080"," "," ","1","&#10004","[1431]","1","0","0","","","","","","","",""
"pit-instructions","13","209673","0.0-2.0-5.0","battery-v0.2","","""event"",""trial"",""time""
""fullscreenenter"",""1"",""5056""
","
","
","""event"",""trial"",""time""
""fullscreenenter"",""1"",""5056""
","
","","[{""page_index"":0,""viewing_time"":5312.200000047684},{""page_index"":1,""viewing_time"":8074.799999952316},{""page_index"":2,""viewing_time"":5180.600000023842},{""page_index"":3,""viewing_time"":6286.899999976158}]","24855.300000071526","","","","","","","","","","","","","","","","","","","","","","","",""
"pit-trial","14","214537","0.0-2.0-6.0-0.0","battery-v0.2","","""event"",""trial"",""time""
""fullscreenenter"",""1"",""5056""
","
","
","""event"",""trial"",""time""
""fullscreenenter"",""1"",""5056""
","
","","","-1","","","18","3339","2606","&#9854;","elianto","#FFFFF080","-1","-1","1","&#10004","[]","0","0","1","","","","","","","",""
"pit-trial","15","219400","0.0-2.0-6.1-0.1","battery-v0.2","","""event"",""trial"",""time""
""fullscreenenter"",""1"",""5056""
","
","
","""event"",""trial"",""time""
""fullscreenenter"",""1"",""5056""
","
","","","-1","","","18","3339","2606","&#9854;","elianto","#FFFFF080","-1","-1","1","&#10004","[]","0","0","1","","","","","","","",""
"pit-trial","16","224261","0.0-2.0-6.2-0.2","battery-v0.2","","""event"",""trial"",""time""
""fullscreenenter"",""1"",""5056""
","
","
","""event"",""trial"",""time""
""fullscreenenter"",""1"",""5056""
","
","","","-1","","","18","3339","2606","&#9854;","elianto","#FFFFF080","-1","-1","1","&#10004","[]","0","0","1","","","","","","","",""
"pit-trial","17","229127","0.0-2.0-6.3-0.3","battery-v0.2","","""event"",""trial"",""time""
""fullscreenenter"",""1"",""5056""
","
","
","""event"",""trial"",""time""
""fullscreenenter"",""1"",""5056""
","
","","","-1","","","18","3339","2606","&#9854;","elianto","#FFFFF080","-1","-1","1","&#10004","[]","0","0","1","","","","","","","",""
"pit-trial","18","233990","0.0-2.0-6.4-0.4","battery-v0.2","","""event"",""trial"",""time""
""fullscreenenter"",""1"",""5056""
","
","
","""event"",""trial"",""time""
""fullscreenenter"",""1"",""5056""
","
","","","-1","","","18","3339","2606","&#9854;","elianto","#FFFFF080","-1","-1","1","&#10004","[]","0","0","1","","","","","","","",""
"pit-instructions","19","353044","0.0-2.0-7.0","battery-v0.2","","""event"",""trial"",""time""
""fullscreenenter"",""1"",""5056""
","
","
","""event"",""trial"",""time""
""fullscreenenter"",""1"",""5056""
","
","","[{""page_index"":0,""viewing_time"":5869.600000023842},{""page_index"":1,""viewing_time"":7719.799999952316},{""page_index"":2,""viewing_time"":5861},{""page_index"":3,""viewing_time"":6164},{""page_index"":4,""viewing_time"":6458.200000047684},{""page_index"":5,""viewing_time"":6014.799999952316},{""page_index"":6,""viewing_time"":4859.200000047684},{""page_index"":7,""viewing_time"":8099.299999952316},{""page_index"":8,""viewing_time"":6871.100000023842},{""page_index"":9,""viewing_time"":6295.600000023842},{""page_index"":10,""viewing_time"":6935.5},{""page_index"":11,""viewing_time"":4219.200000047684},{""page_index"":12,""viewing_time"":6751.399999976158},{""page_index"":13,""viewing_time"":7128.399999976158},{""page_index"":14,""viewing_time"":7616},{""page_index"":15,""viewing_time"":6969.700000047684},{""page_index"":16,""viewing_time"":7793.799999952316},{""page_index"":17,""viewing_time"":7420.600000023842}]","119048.5","","","","","","","","","","","","","","","","","","","","","","","",""
"pit-trial","20","356387","0.0-2.0-8.0-0.0","battery-v0.2","","""event"",""trial"",""time""
""fullscreenenter"",""1"",""5056""
","
","
","""event"",""trial"",""time""
""fullscreenenter"",""1"",""5056""
","
","","","480.89999997615814","","","18","3339","2606","&#9776;","elianto","#3366ff99"," "," ","1","+10","[1332]","1","0","1","","","","","","","",""
"pit-trial","21","359679","0.0-2.0-8.0-1.0","battery-v0.2","","""event"",""trial"",""time""
""fullscreenenter"",""1"",""5056""
","
","
","""event"",""trial"",""time""
""fullscreenenter"",""1"",""5056""
","
","","","428.60000002384186","","","18","3339","2606","&#9776;","elianto","#3366ff99"," "," ","1","+10","[1280.7000000476837]","1","0","1","","","","","","","",""
"pit-trial","22","362860","0.0-2.0-8.0-2.0","battery-v0.2","","""event"",""trial"",""time""
""fullscreenenter"",""1"",""5056""
","
","
","""event"",""trial"",""time""
""fullscreenenter"",""1"",""5056""
","
","","","325.7999999523163","","","18","3339","2606","&#9776;","elianto","#3366ff99"," "," ","1","+10","[1176.2000000476837]","1","0","1","","","","","","","",""
"pit-trial","23","365927","0.0-2.0-8.0-3.0","battery-v0.2","","""event"",""trial"",""time""
""fullscreenenter"",""1"",""5056""
","
","
","""event"",""trial"",""time""
""fullscreenenter"",""1"",""5056""
","
","","","211.10000002384186","","","18","3339","2606","&#9776;","elianto","#3366ff99"," "," ","1","0","[1061.3999999761581]","1","0","1","","","","","","","",""
"pit-trial","24","369225","0.0-2.0-8.0-4.0","battery-v0.2","","""event"",""trial"",""time""
""fullscreenenter"",""1"",""5056""
","
","
","""event"",""trial"",""time""
""fullscreenenter"",""1"",""5056""
","
","","","440.7999999523163","","","18","3339","2606","&#9776;","elianto","#3366ff99"," "," ","1","+10","[1291.7999999523163]","1","0","1","","","","","","","",""
"call-function","25","369229","0.0-2.0-9.0","battery-v0.2","","""event"",""trial"",""time""
""fullscreenenter"",""1"",""5056""
","
","
","""event"",""trial"",""time""
""fullscreenenter"",""1"",""5056""
","
","","","","","","","","","","","","","","","","","","","","","","","","","","",""
"pit-instructions","26","411610","0.0-2.0-10.0","battery-v0.2","","""event"",""trial"",""time""
""fullscreenenter"",""1"",""5056""
","
","
","""event"",""trial"",""time""
""fullscreenenter"",""1"",""5056""
","
","","[{""page_index"":0,""viewing_time"":6619},{""page_index"":1,""viewing_time"":7080.599999904633},{""page_index"":2,""viewing_time"":9405},{""page_index"":3,""viewing_time"":10127},{""page_index"":4,""viewing_time"":9147.5}]","42379.699999928474","","","","","","","","","","","","","","","","","","","","","","","",""
"pit-trial","27","414960","0.0-2.0-11.0-0.0","battery-v0.2","","""event"",""trial"",""time""
""fullscreenenter"",""1"",""5056""
","
","
","""event"",""trial"",""time""
""fullscreenenter"",""1"",""5056""
","
","","","490","","","18","3339","2606","&#9761;","elianto","#3366ff99","-1"," ","0","0","[1340.6000000238419]","1","0","2","","","","","","","",""
"pit-trial","28","418057","0.0-2.0-11.0-1.0","battery-v0.2","","""event"",""trial"",""time""
""fullscreenenter"",""1"",""5056""
","
","
","""event"",""trial"",""time""
""fullscreenenter"",""1"",""5056""
","
","","","236.60000002384186","","","18","3339","2606","&#9761;","elianto","#3366ff99","-1"," ","0","0","[1087.1000000238419]","1","0","2","","","","","","","",""
"pit-trial","29","422923","0.0-2.0-11.0-2.0","battery-v0.2","","""event"",""trial"",""time""
""fullscreenenter"",""1"",""5056""
","
","
","""event"",""trial"",""time""
""fullscreenenter"",""1"",""5056""
","
","","","-1","","","18","3339","2606","&#9761;","elianto","#3366ff99","-1","-1","1","+10","[]","0","0","2","","","","","","","",""
"pit-trial","30","426239","0.0-2.0-11.0-3.0","battery-v0.2","","""event"",""trial"",""time""
""fullscreenenter"",""1"",""5056""
","
","
","""event"",""trial"",""time""
""fullscreenenter"",""1"",""5056""
","
","","","454.10000002384186","","","18","3339","2606","&#9761;","elianto","#3366ff99","-1"," ","0","+10","[1306.6000000238419]","1","0","2","","","","","","","",""
"pit-trial","31","429469","0.0-2.0-11.0-4.0","battery-v0.2","","""event"",""trial"",""time""
""fullscreenenter"",""1"",""5056""
","
","
","""event"",""trial"",""time""
""fullscreenenter"",""1"",""5056""
","
","","","366.39999997615814","","","18","3339","2606","&#9761;","elianto","#3366ff99","-1"," ","0","0","[1219.2000000476837]","1","0","2","","","","","","","",""
"pit-trial","32","434332","0.0-2.0-11.1-0.1","battery-v0.2","","""event"",""trial"",""time""
""fullscreenenter"",""1"",""5056""
","
","
","""event"",""trial"",""time""
""fullscreenenter"",""1"",""5056""
","
","","","-1","","","18","3339","2606","&#9761;","elianto","#3366ff99","-1","-1","1","+10","[]","0","0","2","","","","","","","",""
"pit-trial","33","439196","0.0-2.0-11.1-1.1","battery-v0.2","","""event"",""trial"",""time""
""fullscreenenter"",""1"",""5056""
","
","
","""event"",""trial"",""time""
""fullscreenenter"",""1"",""5056""
","
","","","-1","","","18","3339","2606","&#9761;","elianto","#3366ff99","-1","-1","1","+10","[]","0","0","2","","","","","","","",""
"pit-trial","34","442270","0.0-2.0-11.1-2.1","battery-v0.2","","""event"",""trial"",""time""
""fullscreenenter"",""1"",""5056""
","
","
","""event"",""trial"",""time""
""fullscreenenter"",""1"",""5056""
","
","","","218.10000002384186","","","18","3339","2606","&#9761;","elianto","#3366ff99","-1"," ","0","0","[1068.6999999284744]","1","0","2","","","","","","","",""
"pit-trial","35","447134","0.0-2.0-11.1-3.1","battery-v0.2","","""event"",""trial"",""time""
""fullscreenenter"",""1"",""5056""
","
","
","""event"",""trial"",""time""
""fullscreenenter"",""1"",""5056""
","
","","","-1","","","18","3339","2606","&#9761;","elianto","#3366ff99","-1","-1","1","0","[]","0","0","2","","","","","","","",""
"pit-trial","36","450211","0.0-2.0-11.1-4.1","battery-v0.2","","""event"",""trial"",""time""
""fullscreenenter"",""1"",""5056""
","
","
","""event"",""trial"",""time""
""fullscreenenter"",""1"",""5056""
","
","","","217.5","","","18","3339","2606","&#9761;","elianto","#3366ff99","-1"," ","0","0","[1068.3000000715256]","1","0","2","","","","","","","",""
"pit-trial","37","455075","0.0-2.0-11.2-0.2","battery-v0.2","","""event"",""trial"",""time""
""fullscreenenter"",""1"",""5056""
","
","
","""event"",""trial"",""time""
""fullscreenenter"",""1"",""5056""
","
","","","-1","","","18","3339","2606","&#9761;","elianto","#3366ff99","-1","-1","1","+10","[]","0","0","2","","","","","","","",""
"pit-trial","38","459939","0.0-2.0-11.2-1.2","battery-v0.2","","""event"",""trial"",""time""
""fullscreenenter"",""1"",""5056""
","
","
","""event"",""trial"",""time""
""fullscreenenter"",""1"",""5056""
","
","","","-1","","","18","3339","2606","&#9761;","elianto","#3366ff99","-1","-1","1","+10","[]","0","0","2","","","","","","","",""
"pit-trial","39","464803","0.0-2.0-11.2-2.2","battery-v0.2","","""event"",""trial"",""time""
""fullscreenenter"",""1"",""5056""
","
","
","""event"",""trial"",""time""
""fullscreenenter"",""1"",""5056""
","
","","","-1","","","18","3339","2606","&#9761;","elianto","#3366ff99","-1","-1","1","+10","[]","0","0","2","","","","","","","",""
"pit-trial","40","469667","0.0-2.0-11.2-3.2","battery-v0.2","","""event"",""trial"",""time""
""fullscreenenter"",""1"",""5056""
","
","
","""event"",""trial"",""time""
""fullscreenenter"",""1"",""5056""
","
","","","-1","","","18","3339","2606","&#9761;","elianto","#3366ff99","-1","-1","1","0","[]","0","0","2","","","","","","","",""
"pit-trial","41","474531","0.0-2.0-11.2-4.2","battery-v0.2","","""event"",""trial"",""time""
""fullscreenenter"",""1"",""5056""
","
","
","""event"",""trial"",""time""
""fullscreenenter"",""1"",""5056""
","
","","","-1","","","18","3339","2606","&#9761;","elianto","#3366ff99","-1","-1","1","+10","[]","0","0","2","","","","","","","",""
"call-function","42","474535","0.0-2.0-12.0","battery-v0.2","","""event"",""trial"",""time""
""fullscreenenter"",""1"",""5056""
","
","
","""event"",""trial"",""time""
""fullscreenenter"",""1"",""5056""
","
","","","","","","","","","","","","","","","","","","","","","","","","","","",""
"pit-instructions","43","508079","0.0-2.0-13.0","battery-v0.2","","""event"",""trial"",""time""
""fullscreenenter"",""1"",""5056""
","
","
","""event"",""trial"",""time""
""fullscreenenter"",""1"",""5056""
","
","","[{""page_index"":0,""viewing_time"":6301.700000047684},{""page_index"":1,""viewing_time"":7882.100000023842},{""page_index"":2,""viewing_time"":3327.7999999523163},{""page_index"":3,""viewing_time"":11106.5},{""page_index"":4,""viewing_time"":4923.300000071526}]","33542.300000071526","","","","","","","","","","","","","","","","","","","","","","","",""
"pit-trial","44","512940","0.0-2.0-14.0-0.0","battery-v0.2","","""event"",""trial"",""time""
""fullscreenenter"",""1"",""5056""
","
","
","""event"",""trial"",""time""
""fullscreenenter"",""1"",""5056""
","
","","","-1","","","18","3339","2606","&#9826;","elianto","#f73b6a7A","-1","-1","1","0","[]","0","0","3","","","","","","","",""
"pit-trial","45","517805","0.0-2.0-14.0-1.0","battery-v0.2","","""event"",""trial"",""time""
""fullscreenenter"",""1"",""5056""
","
","
","""event"",""trial"",""time""
""fullscreenenter"",""1"",""5056""
","
","","","-1","","","18","3339","2606","&#9826;","elianto","#f73b6a7A","-1","-1","1","0","[]","0","0","3","","","","","","","",""
"pit-trial","46","522666","0.0-2.0-14.0-2.0","battery-v0.2","","""event"",""trial"",""time""
""fullscreenenter"",""1"",""5056""
","
","
","""event"",""trial"",""time""
""fullscreenenter"",""1"",""5056""
","
","","","-1","","","18","3339","2606","&#9826;","elianto","#f73b6a7A","-1","-1","1","0","[]","0","0","3","","","","","","","",""
"pit-trial","47","525940","0.0-2.0-14.0-3.0","battery-v0.2","","""event"",""trial"",""time""
""fullscreenenter"",""1"",""5056""
","
","
","""event"",""trial"",""time""
""fullscreenenter"",""1"",""5056""
","
","","","415.60000002384186","","","18","3339","2606","&#9826;","elianto","#f73b6a7A","-1"," ","0","0","[1266.2999999523163]","1","0","3","","","","","","","",""
"pit-trial","48","529151","0.0-2.0-14.0-4.0","battery-v0.2","","""event"",""trial"",""time""
""fullscreenenter"",""1"",""5056""
","
","
","""event"",""trial"",""time""
""fullscreenenter"",""1"",""5056""
","
","","","347.3000000715256","","","18","3339","2606","&#9826;","elianto","#f73b6a7A","-1"," ","0","-10","[1200]","1","0","3","","","","","","","",""
"pit-trial","49","532433","0.0-2.0-14.1-0.1","battery-v0.2","","""event"",""trial"",""time""
""fullscreenenter"",""1"",""5056""
","
","
","""event"",""trial"",""time""
""fullscreenenter"",""1"",""5056""
","
","","","421.39999997615814","","","18","3339","2606","&#9826;","elianto","#f73b6a7A","-1"," ","0","-10","[1271.2999999523163]","1","0","3","","","","","","","",""
"pit-trial","50","537295","0.0-2.0-14.1-1.1","battery-v0.2","","""event"",""trial"",""time""
""fullscreenenter"",""1"",""5056""
","
","
","""event"",""trial"",""time""
""fullscreenenter"",""1"",""5056""
","
","","","-1","","","18","3339","2606","&#9826;","elianto","#f73b6a7A","-1","-1","1","0","[]","0","0","3","","","","","","","",""
"pit-trial","51","542158","0.0-2.0-14.1-2.1","battery-v0.2","","""event"",""trial"",""time""
""fullscreenenter"",""1"",""5056""
","
","
","""event"",""trial"",""time""
""fullscreenenter"",""1"",""5056""
","
","","","-1","","","18","3339","2606","&#9826;","elianto","#f73b6a7A","-1","-1","1","0","[]","0","0","3","","","","","","","",""
"pit-trial","52","547022","0.0-2.0-14.1-3.1","battery-v0.2","","""event"",""trial"",""time""
""fullscreenenter"",""1"",""5056""
","
","
","""event"",""trial"",""time""
""fullscreenenter"",""1"",""5056""
","
","","","-1","","","18","3339","2606","&#9826;","elianto","#f73b6a7A","-1","-1","1","-10","[]","0","0","3","","","","","","","",""
"pit-trial","53","551886","0.0-2.0-14.1-4.1","battery-v0.2","","""event"",""trial"",""time""
""fullscreenenter"",""1"",""5056""
","
","
","""event"",""trial"",""time""
""fullscreenenter"",""1"",""5056""
","
","","","-1","","","18","3339","2606","&#9826;","elianto","#f73b6a7A","-1","-1","1","0","[]","0","0","3","","","","","","","",""
"call-function","54","551890","0.0-2.0-15.0","battery-v0.2","","""event"",""trial"",""time""
""fullscreenenter"",""1"",""5056""
","
","
","""event"",""trial"",""time""
""fullscreenenter"",""1"",""5056""
","
","","","","","","","","","","","","","","","","","","","","","","","","","","",""
"pit-instructions","55","584314","0.0-2.0-16.0","battery-v0.2","","""event"",""trial"",""time""
""fullscreenenter"",""1"",""5056""
","
","
","""event"",""trial"",""time""
""fullscreenenter"",""1"",""5056""
","
","","[{""page_index"":0,""viewing_time"":13425.699999928474},{""page_index"":1,""viewing_time"":8712.5},{""page_index"":2,""viewing_time"":4582.899999976158},{""page_index"":3,""viewing_time"":5701.300000071526}]","32423.199999928474","","","","","","","","","","","","","","","","","","","","","","","",""
"pit-trial","56","589178","0.0-2.0-17.0-0.0","battery-v0.2","","""event"",""trial"",""time""
""fullscreenenter"",""1"",""5056""
","
","
","""event"",""trial"",""time""
""fullscreenenter"",""1"",""5056""
","
","","","-1","","","18","3339","2606","&#9789;","elianto","#f73b6a7A"," ","-1","0","-10","[2856.2000000476837]","1","0","4","","","","","","","",""
"pit-trial","57","592440","0.0-2.0-17.0-1.0","battery-v0.2","","""event"",""trial"",""time""
""fullscreenenter"",""1"",""5056""
","
","
","""event"",""trial"",""time""
""fullscreenenter"",""1"",""5056""
","
","","","402.3000000715256","","","18","3339","2606","&#9789;","elianto","#f73b6a7A"," "," ","1","0","[1253]","1","0","4","","","","","","","",""
"pit-trial","58","595508","0.0-2.0-17.0-2.0","battery-v0.2","","""event"",""trial"",""time""
""fullscreenenter"",""1"",""5056""
","
","
","""event"",""trial"",""time""
""fullscreenenter"",""1"",""5056""
","
","","","208.60000002384186","","","18","3339","2606","&#9789;","elianto","#f73b6a7A"," "," ","1","0","[1061.5]","1","0","4","","","","","","","",""
"pit-trial","59","598696","0.0-2.0-17.0-3.0","battery-v0.2","","""event"",""trial"",""time""
""fullscreenenter"",""1"",""5056""
","
","
","""event"",""trial"",""time""
""fullscreenenter"",""1"",""5056""
","
","","","327.2999999523163","","","18","3339","2606","&#9789;","elianto","#f73b6a7A"," "," ","1","-10","[1179.6000000238419]","1","0","4","","","","","","","",""
"pit-trial","60","603557","0.0-2.0-17.0-4.0","battery-v0.2","","""event"",""trial"",""time""
""fullscreenenter"",""1"",""5056""
","
","
","""event"",""trial"",""time""
""fullscreenenter"",""1"",""5056""
","
","","","-1","","","18","3339","2606","&#9789;","elianto","#f73b6a7A"," ","-1","0","-10","[]","0","0","4","","","","","","","",""
"pit-trial","61","608423","0.0-2.0-17.1-0.1","battery-v0.2","","""event"",""trial"",""time""
""fullscreenenter"",""1"",""5056""
","
","
","""event"",""trial"",""time""
""fullscreenenter"",""1"",""5056""
","
","","","-1","","","18","3339","2606","&#9789;","elianto","#f73b6a7A"," ","-1","0","-10","[]","0","0","4","","","","","","","",""
"pit-trial","62","613287","0.0-2.0-17.1-1.1","battery-v0.2","","""event"",""trial"",""time""
""fullscreenenter"",""1"",""5056""
","
","
","""event"",""trial"",""time""
""fullscreenenter"",""1"",""5056""
","
","","","-1","","","18","3339","2606","&#9789;","elianto","#f73b6a7A"," ","-1","0","-10","[]","0","0","4","","","","","","","",""
"pit-trial","63","618147","0.0-2.0-17.1-2.1","battery-v0.2","","""event"",""trial"",""time""
""fullscreenenter"",""1"",""5056""
","
","
","""event"",""trial"",""time""
""fullscreenenter"",""1"",""5056""
","
","","","-1","","","18","3339","2606","&#9789;","elianto","#f73b6a7A"," ","-1","0","-10","[]","0","0","4","","","","","","","",""
"pit-trial","64","623011","0.0-2.0-17.1-3.1","battery-v0.2","","""event"",""trial"",""time""
""fullscreenenter"",""1"",""5056""
","
","
","""event"",""trial"",""time""
""fullscreenenter"",""1"",""5056""
","
","","","-1","","","18","3339","2606","&#9789;","elianto","#f73b6a7A"," ","-1","0","0","[]","0","0","4","","","","","","","",""
"pit-trial","65","627875","0.0-2.0-17.1-4.1","battery-v0.2","","""event"",""trial"",""time""
""fullscreenenter"",""1"",""5056""
","
","
","""event"",""trial"",""time""
""fullscreenenter"",""1"",""5056""
","
","","","-1","","","18","3339","2606","&#9789;","elianto","#f73b6a7A"," ","-1","0","-10","[]","0","0","4","","","","","","","",""
"pit-trial","66","632739","0.0-2.0-17.2-0.2","battery-v0.2","","""event"",""trial"",""time""
""fullscreenenter"",""1"",""5056""
","
","
","""event"",""trial"",""time""
""fullscreenenter"",""1"",""5056""
","
","","","-1","","","18","3339","2606","&#9789;","elianto","#f73b6a7A"," ","-1","0","-10","[]","0","0","4","","","","","","","",""
"pit-trial","67","637598","0.0-2.0-17.2-1.2","battery-v0.2","","""event"",""trial"",""time""
""fullscreenenter"",""1"",""5056""
","
","
","""event"",""trial"",""time""
""fullscreenenter"",""1"",""5056""
","
","","","-1","","","18","3339","2606","&#9789;","elianto","#f73b6a7A"," ","-1","0","-10","[]","0","0","4","","","","","","","",""
"pit-trial","68","642462","0.0-2.0-17.2-2.2","battery-v0.2","","""event"",""trial"",""time""
""fullscreenenter"",""1"",""5056""
","
","
","""event"",""trial"",""time""
""fullscreenenter"",""1"",""5056""
","
","","","-1","","","18","3339","2606","&#9789;","elianto","#f73b6a7A"," ","-1","0","-10","[]","0","0","4","","","","","","","",""
"pit-trial","69","647326","0.0-2.0-17.2-3.2","battery-v0.2","","""event"",""trial"",""time""
""fullscreenenter"",""1"",""5056""
","
","
","""event"",""trial"",""time""
""fullscreenenter"",""1"",""5056""
","
","","","-1","","","18","3339","2606","&#9789;","elianto","#f73b6a7A"," ","-1","0","0","[]","0","0","4","","","","","","","",""
"pit-trial","70","652190","0.0-2.0-17.2-4.2","battery-v0.2","","""event"",""trial"",""time""
""fullscreenenter"",""1"",""5056""
","
","
","""event"",""trial"",""time""
""fullscreenenter"",""1"",""5056""
","
","","","-1","","","18","3339","2606","&#9789;","elianto","#f73b6a7A"," ","-1","0","-10","[]","0","0","4","","","","","","","",""
"pit-trial","71","657054","0.0-2.0-17.3-0.3","battery-v0.2","","""event"",""trial"",""time""
""fullscreenenter"",""1"",""5056""
","
","
","""event"",""trial"",""time""
""fullscreenenter"",""1"",""5056""
","
","","","-1","","","18","3339","2606","&#9789;","elianto","#f73b6a7A"," ","-1","0","-10","[]","0","0","4","","","","","","","",""
"pit-trial","72","661918","0.0-2.0-17.3-1.3","battery-v0.2","","""event"",""trial"",""time""
""fullscreenenter"",""1"",""5056""
","
","
","""event"",""trial"",""time""
""fullscreenenter"",""1"",""5056""
","
","","","-1","","","18","3339","2606","&#9789;","elianto","#f73b6a7A"," ","-1","0","-10","[]","0","0","4","","","","","","","",""
"pit-trial","73","666782","0.0-2.0-17.3-2.3","battery-v0.2","","""event"",""trial"",""time""
""fullscreenenter"",""1"",""5056""
","
","
","""event"",""trial"",""time""
""fullscreenenter"",""1"",""5056""
","
","","","-1","","","18","3339","2606","&#9789;","elianto","#f73b6a7A"," ","-1","0","-10","[]","0","0","4","","","","","","","",""
"pit-trial","74","671646","0.0-2.0-17.3-3.3","battery-v0.2","","""event"",""trial"",""time""
""fullscreenenter"",""1"",""5056""
","
","
","""event"",""trial"",""time""
""fullscreenenter"",""1"",""5056""
","
","","","-1","","","18","3339","2606","&#9789;","elianto","#f73b6a7A"," ","-1","0","0","[]","0","0","4","","","","","","","",""
"pit-trial","75","676510","0.0-2.0-17.3-4.3","battery-v0.2","","""event"",""trial"",""time""
""fullscreenenter"",""1"",""5056""
","
","
","""event"",""trial"",""time""
""fullscreenenter"",""1"",""5056""
","
","","","-1","","","18","3339","2606","&#9789;","elianto","#f73b6a7A"," ","-1","0","-10","[]","0","0","4","","","","","","","",""
"pit-trial","76","681374","0.0-2.0-17.4-0.4","battery-v0.2","","""event"",""trial"",""time""
""fullscreenenter"",""1"",""5056""
","
","
","""event"",""trial"",""time""
""fullscreenenter"",""1"",""5056""
","
","","","-1","","","18","3339","2606","&#9789;","elianto","#f73b6a7A"," ","-1","0","-10","[]","0","0","4","","","","","","","",""
"pit-trial","77","686233","0.0-2.0-17.4-1.4","battery-v0.2","","""event"",""trial"",""time""
""fullscreenenter"",""1"",""5056""
","
","
","""event"",""trial"",""time""
""fullscreenenter"",""1"",""5056""
","
","","","-1","","","18","3339","2606","&#9789;","elianto","#f73b6a7A"," ","-1","0","-10","[]","0","0","4","","","","","","","",""
"pit-trial","78","689854","0.0-2.0-17.4-2.4","battery-v0.2","","""event"",""trial"",""time""
""fullscreenenter"",""1"",""5056""
","
","
","""event"",""trial"",""time""
""fullscreenenter"",""1"",""5056""
","
","","","764.5999999046326","","","18","3339","2606","&#9789;","elianto","#f73b6a7A"," "," ","1","0","[1615.4000000953674]","1","0","4","","","","","","","",""
"pit-trial","79","693145","0.0-2.0-17.4-3.4","battery-v0.2","","""event"",""trial"",""time""
""fullscreenenter"",""1"",""5056""
","
","
","""event"",""trial"",""time""
""fullscreenenter"",""1"",""5056""
","
","","","430.8000000715256","","","18","3339","2606","&#9789;","elianto","#f73b6a7A"," "," ","1","-10","[1282.8999999761581]","1","0","4","","","","","","","",""
"pit-trial","80","698009","0.0-2.0-17.4-4.4","battery-v0.2","","""event"",""trial"",""time""
""fullscreenenter"",""1"",""5056""
","
","
","""event"",""trial"",""time""
""fullscreenenter"",""1"",""5056""
","
","","","-1","","","18","3339","2606","&#9789;","elianto","#f73b6a7A"," ","-1","0","-10","[2986.7000000476837]","1","0","4","","","","","","","",""
"pit-instructions","81","720919","0.0-2.0-17.4-5.4-0.4","battery-v0.2","","""event"",""trial"",""time""
""fullscreenenter"",""1"",""5056""
","
","
","""event"",""trial"",""time""
""fullscreenenter"",""1"",""5056""
","
","","[{""page_index"":0,""viewing_time"":6896.800000071526},{""page_index"":1,""viewing_time"":6858.899999976158},{""page_index"":2,""viewing_time"":9149.199999928474}]","22906.100000023842","","","","","","","","","","","","","","","","","","","","","","","",""
"pit-trial","82","724220","0.0-2.0-17.5-0.5","battery-v0.2","","""event"",""trial"",""time""
""fullscreenenter"",""1"",""5056""
","
","
","""event"",""trial"",""time""
""fullscreenenter"",""1"",""5056""
","
","","","438.59999990463257","","","18","3339","2606","&#9789;","elianto","#f73b6a7A"," "," ","1","0","[1289.8000000715256]","1","0","4","","","","","","","",""
"pit-trial","83","727284","0.0-2.0-17.5-1.5","battery-v0.2","","""event"",""trial"",""time""
""fullscreenenter"",""1"",""5056""
","
","
","""event"",""trial"",""time""
""fullscreenenter"",""1"",""5056""
","
","","","204","","","18","3339","2606","&#9789;","elianto","#f73b6a7A"," "," ","1","0","[1055.3999999761581]","1","0","4","","","","","","","",""
"pit-trial","84","730508","0.0-2.0-17.5-2.5","battery-v0.2","","""event"",""trial"",""time""
""fullscreenenter"",""1"",""5056""
","
","
","""event"",""trial"",""time""
""fullscreenenter"",""1"",""5056""
","
","","","365.90000009536743","","","18","3339","2606","&#9789;","elianto","#f73b6a7A"," "," ","1","0","[1216.6000000238419]","1","0","4","","","","","","","",""
"pit-trial","85","733591","0.0-2.0-17.5-3.5","battery-v0.2","","""event"",""trial"",""time""
""fullscreenenter"",""1"",""5056""
","
","
","""event"",""trial"",""time""
""fullscreenenter"",""1"",""5056""
","
","","","220.79999995231628","","","18","3339","2606","&#9789;","elianto","#f73b6a7A"," "," ","1","-10","[1073]","1","0","4","","","","","","","",""
"pit-trial","86","736659","0.0-2.0-17.5-4.5","battery-v0.2","","""event"",""trial"",""time""
""fullscreenenter"",""1"",""5056""
","
","
","""event"",""trial"",""time""
""fullscreenenter"",""1"",""5056""
","
","","","206","","","18","3339","2606","&#9789;","elianto","#f73b6a7A"," "," ","1","0","[1058.3999999761581]","1","0","4","","","","","","","",""
"call-function","87","736663","0.0-2.0-18.0","battery-v0.2","","""event"",""trial"",""time""
""fullscreenenter"",""1"",""5056""
","
","
","""event"",""trial"",""time""
""fullscreenenter"",""1"",""5056""
","
","","","","","","","","","","","","","","","","","","","","","","","","","","",""
"pit-instructions","88","806909","0.0-2.0-19.0","battery-v0.2","","""event"",""trial"",""time""
""fullscreenenter"",""1"",""5056""
","
","
","""event"",""trial"",""time""
""fullscreenenter"",""1"",""5056""
","
","","[{""page_index"":0,""viewing_time"":6667.200000047684},{""page_index"":1,""viewing_time"":6923},{""page_index"":2,""viewing_time"":13293.199999928474},{""page_index"":3,""viewing_time"":7311.100000023842},{""page_index"":4,""viewing_time"":8106.700000047684},{""page_index"":5,""viewing_time"":8715.699999928474},{""page_index"":6,""viewing_time"":8923.200000047684},{""page_index"":7,""viewing_time"":6133.699999928474},{""page_index"":8,""viewing_time"":4170.600000023842}]","70245.29999995232","","","","","","","","","","","","","","","","","","","","","","","",""
"pit-comprehension","89","811353","0.0-2.0-20.0-0.0","battery-v0.2","","""event"",""trial"",""time""
""fullscreenenter"",""1"",""5056""
","
","
","""event"",""trial"",""time""
""fullscreenenter"",""1"",""5056""
","
","","","4436.5","[""SPACE""]","0","18","3339","2606","","","","","","","","","","","","","","","","","","",""
"pit-instructions","90","813941","0.0-2.0-20.0-1.0","battery-v0.2","","""event"",""trial"",""time""
""fullscreenenter"",""1"",""5056""
","
","
","""event"",""trial"",""time""
""fullscreenenter"",""1"",""5056""
","
","","[{""page_index"":0,""viewing_time"":2560.5}]","2561.5","","","","","","","","","","","","","","","","","","","","","","","",""
"pit-comprehension","91","820348","0.0-2.0-21.0-0.0","battery-v0.2","","""event"",""trial"",""time""
""fullscreenenter"",""1"",""5056""
","
","
","""event"",""trial"",""time""
""fullscreenenter"",""1"",""5056""
","
","","","6400.600000023842","[""10""]","0","18","3339","2606","","","","","","","","","","","","","","","","","","",""
"pit-instructions","92","821990","0.0-2.0-21.0-1.0","battery-v0.2","","""event"",""trial"",""time""
""fullscreenenter"",""1"",""5056""
","
","
","""event"",""trial"",""time""
""fullscreenenter"",""1"",""5056""
","
","","[{""page_index"":0,""viewing_time"":1610.9000000953674}]","1611.4000000953674","","","","","","","","","","","","","","","","","","","","","","","",""
"pit-comprehension","93","829697","0.0-2.0-22.0-0.0","battery-v0.2","","""event"",""trial"",""time""
""fullscreenenter"",""1"",""5056""
","
","
","""event"",""trial"",""time""
""fullscreenenter"",""1"",""5056""
","
","","","7701.799999952316","[""-10""]","1","18","3339","2606","","","","","","","","","","","","","","","","","","",""
"pit-instructions","94","832037","0.0-2.0-22.0-1.0","battery-v0.2","","""event"",""trial"",""time""
""fullscreenenter"",""1"",""5056""
","
","
","""event"",""trial"",""time""
""fullscreenenter"",""1"",""5056""
","
","","[{""page_index"":0,""viewing_time"":2312.100000023842}]","2312.7000000476837","","","","","","","","","","","","","","","","","","","","","","","",""
"pit-instructions","95","833296","0.0-2.0-22.0-2.0-0.0","battery-v0.2","","""event"",""trial"",""time""
""fullscreenenter"",""1"",""5056""
","
","
","""event"",""trial"",""time""
""fullscreenenter"",""1"",""5056""
","
","","[{""page_index"":0,""viewing_time"":1254.7999999523163}]","1255.6000000238419","","","","","","","","","","","","","","","","","","","","","","","",""
"pit-comprehension","96","839720","0.0-2.0-22.1-0.1","battery-v0.2","","""event"",""trial"",""time""
""fullscreenenter"",""1"",""5056""
","
","
","""event"",""trial"",""time""
""fullscreenenter"",""1"",""5056""
","
","","","6417.699999928474","[""0""]","0","18","3339","2606","","","","","","","","","","","","","","","","","","",""
"pit-instructions","97","841242","0.0-2.0-22.1-1.1","battery-v0.2","","""event"",""trial"",""time""
""fullscreenenter"",""1"",""5056""
","
","
","""event"",""trial"",""time""
""fullscreenenter"",""1"",""5056""
","
","","[{""page_index"":0,""viewing_time"":1494.7000000476837}]","1495.3999999761581","","","","","","","","","","","","","","","","","","","","","","","",""
"pit-comprehension","98","851232","0.0-2.0-23.0-0.0","battery-v0.2","","""event"",""trial"",""time""
""fullscreenenter"",""1"",""5056""
","
","
","""event"",""trial"",""time""
""fullscreenenter"",""1"",""5056""
","
","","","9984.300000071526","[""True""]","0","18","3339","2606","","","","","","","","","","","","","","","","","","",""
"pit-instructions","99","852657","0.0-2.0-23.0-1.0","battery-v0.2","","""event"",""trial"",""time""
""fullscreenenter"",""1"",""5056""
","
","
","""event"",""trial"",""time""
""fullscreenenter"",""1"",""5056""
","
","","[{""page_index"":0,""viewing_time"":1394.2999999523163}]","1394.8999999761581","","","","","","","","","","","","","","","","","","","","","","","",""
"pit-comprehension","100","860061","0.0-2.0-24.0-0.0","battery-v0.2","","""event"",""trial"",""time""
""fullscreenenter"",""1"",""5056""
","
","
","""event"",""trial"",""time""
""fullscreenenter"",""1"",""5056""
","
","","","7398.100000023842","[""True""]","0","18","3339","2606","","","","","","","","","","","","","","","","","","",""
"pit-instructions","101","861495","0.0-2.0-24.0-1.0","battery-v0.2","","""event"",""trial"",""time""
""fullscreenenter"",""1"",""5056""
","
","
","""event"",""trial"",""time""
""fullscreenenter"",""1"",""5056""
","
","","[{""page_index"":0,""viewing_time"":1403.2000000476837}]","1403.7000000476837","","","","","","","","","","","","","","","","","","","","","","","",""
"pit-comprehension","102","867903","0.0-2.0-25.0-0.0","battery-v0.2","","""event"",""trial"",""time""
""fullscreenenter"",""1"",""5056""
","
","
","""event"",""trial"",""time""
""fullscreenenter"",""1"",""5056""
","
","","","6402.600000023842","[""True""]","0","18","3339","2606","","","","","","","","","","","","","","","","","","",""
"pit-instructions","103","870628","0.0-2.0-25.0-1.0","battery-v0.2","","""event"",""trial"",""time""
""fullscreenenter"",""1"",""5056""
","
","
","""event"",""trial"",""time""
""fullscreenenter"",""1"",""5056""
","
","","[{""page_index"":0,""viewing_time"":2696.5}]","2697.2000000476837","","","","","","","","","","","","","","","","","","","","","","","",""
"pit-comprehension","104","876033","0.0-2.0-26.0-0.0","battery-v0.2","","""event"",""trial"",""time""
""fullscreenenter"",""1"",""5056""
","
","
","""event"",""trial"",""time""
""fullscreenenter"",""1"",""5056""
","
","","","5399.099999904633","[""False""]","0","18","3339","2606","","","","","","","","","","","","","","","","","","",""
"pit-instructions","105","877669","0.0-2.0-26.0-1.0","battery-v0.2","","""event"",""trial"",""time""
""fullscreenenter"",""1"",""5056""
","
","
","""event"",""trial"",""time""
""fullscreenenter"",""1"",""5056""
","
","","[{""page_index"":0,""viewing_time"":1603.9000000953674}]","1604.3000000715256","","","","","","","","","","","","","","","","","","","","","","","",""
"pit-instructions","106","894478","0.0-3.0","battery-v0.2","","""event"",""trial"",""time""
""fullscreenenter"",""1"",""5056""
","
","
","""event"",""trial"",""time""
""fullscreenenter"",""1"",""5056""
","
","","[{""page_index"":0,""viewing_time"":3674.1999999284744},{""page_index"":1,""viewing_time"":5427.100000023842},{""page_index"":2,""viewing_time"":7703.200000047684}]","16805.100000023842","","","","","","","","","","","","","","","","","","","","","","","",""
"pit-trial","107","898305","0.0-4.0","battery-v0.2","","""event"",""trial"",""time""
""fullscreenenter"",""1"",""5056""
","
","
","""event"",""trial"",""time""
""fullscreenenter"",""1"",""5056""
","
","","","966.0999999046326","","","18","3339","2606","&#9728;","elianto","#f73b6a7A","-1"," ","0","-10","[1817]","1","1","","","3339","1","0","4","lose","no-go","0"
"pit-trial","108","901737","0.0-5.0","battery-v0.2","","""event"",""trial"",""time""
""fullscreenenter"",""1"",""5056""
","
","
","""event"",""trial"",""time""
""fullscreenenter"",""1"",""5056""
","
","","","570.8999999761581","","","18","3339","2606","&#9733;","elianto","#3366ff99","-1"," ","0","0","[1422.7999999523163]","1","1","","","3339","2","2","2","win","no-go","0"
"pit-trial","109","904996","0.0-6.0","battery-v0.2","","""event"",""trial"",""time""
""fullscreenenter"",""1"",""5056""
","
","
","""event"",""trial"",""time""
""fullscreenenter"",""1"",""5056""
","
","","","399.2999999523163","","","18","3339","2606","&#9752;","elianto","#f73b6a7A"," "," ","1","0","[1249.3999999761581]","1","1","","","3339","3","3","3","lose","go","0"
"pit-trial","110","908292","0.0-7.0","battery-v0.2","","""event"",""trial"",""time""
""fullscreenenter"",""1"",""5056""
","
","
","""event"",""trial"",""time""
""fullscreenenter"",""1"",""5056""
","
","","","439.2999999523163","","","18","3339","2606","&#9730;","elianto","#3366ff99"," "," ","1","+10","[1289.5]","1","1","","","3339","4","1","1","win","go","0"
"pit-trial","111","911612","0.0-8.0","battery-v0.2","","""event"",""trial"",""time""
""fullscreenenter"",""1"",""5056""
","
","
","""event"",""trial"",""time""
""fullscreenenter"",""1"",""5056""
","
","","","457.7000000476837","","","18","3339","2606","&#9733;","elianto","#3366ff99","-1"," ","0","+10","[1310.3000000715256]","1","1","","","3339","5","2","2","win","no-go","1"
"pit-trial","112","914838","0.0-9.0","battery-v0.2","","""event"",""trial"",""time""
""fullscreenenter"",""1"",""5056""
","
","
","""event"",""trial"",""time""
""fullscreenenter"",""1"",""5056""
","
","","","369.59999990463257","","","18","3339","2606","&#9730;","elianto","#3366ff99"," "," ","1","0","[1220]","1","1","","","3339","6","1","1","win","go","1"
"pit-trial","113","917975","0.0-10.0","battery-v0.2","","""event"",""trial"",""time""
""fullscreenenter"",""1"",""5056""
","
","
","""event"",""trial"",""time""
""fullscreenenter"",""1"",""5056""
","
","","","276.2000000476837","","","18","3339","2606","&#9752;","elianto","#f73b6a7A"," "," ","1","0","[1127.6000000238419]","1","1","","","3339","7","3","3","lose","go","0"
"pit-trial","114","921300","0.0-11.0","battery-v0.2","","""event"",""trial"",""time""
""fullscreenenter"",""1"",""5056""
","
","
","""event"",""trial"",""time""
""fullscreenenter"",""1"",""5056""
","
","","","467.5","","","18","3339","2606","&#9728;","elianto","#f73b6a7A","-1"," ","0","-10","[1320.1000000238419]","1","1","","","3339","8","0","4","lose","no-go","0"
"pit-trial","115","924494","0.0-12.0","battery-v0.2","","""event"",""trial"",""time""
""fullscreenenter"",""1"",""5056""
","
","
","""event"",""trial"",""time""
""fullscreenenter"",""1"",""5056""
","
","","","333.7999999523163","","","18","3339","2606","&#9730;","elianto","#3366ff99"," "," ","1","+10","[1184.5]","1","1","","","3339","9","1","1","win","go","0"
"pit-trial","116","927790","0.0-13.0","battery-v0.2","","""event"",""trial"",""time""
""fullscreenenter"",""1"",""5056""
","
","
","""event"",""trial"",""time""
""fullscreenenter"",""1"",""5056""
","
","","","434.2999999523163","","","18","3339","2606","&#9728;","elianto","#f73b6a7A","-1"," ","0","-10","[1286.5]","1","1","","","3339","10","0","4","lose","no-go","0"
"pit-trial","117","931198","0.0-14.0","battery-v0.2","","""event"",""trial"",""time""
""fullscreenenter"",""1"",""5056""
","
","
","""event"",""trial"",""time""
""fullscreenenter"",""1"",""5056""
","
","","","547.8000000715256","","","18","3339","2606","&#9733;","elianto","#3366ff99","-1"," ","0","+10","[1400]","1","1","","","3339","11","2","2","win","no-go","1"
"pit-trial","118","934803","0.0-15.0","battery-v0.2","","""event"",""trial"",""time""
""fullscreenenter"",""1"",""5056""
","
","
","""event"",""trial"",""time""
""fullscreenenter"",""1"",""5056""
","
","","","747.9000000953674","","","18","3339","2606","&#9752;","elianto","#f73b6a7A"," "," ","1","-10","[1598.2000000476837]","1","1","","","3339","12","3","3","lose","go","1"
"pit-trial","119","938078","0.0-16.0","battery-v0.2","","""event"",""trial"",""time""
""fullscreenenter"",""1"",""5056""
","
","
","""event"",""trial"",""time""
""fullscreenenter"",""1"",""5056""
","
","","","412.09999990463257","","","18","3339","2606","&#9730;","elianto","#3366ff99"," "," ","1","+10","[1263.8000000715256]","1","1","","","3339","13","1","1","win","go","0"
"pit-trial","120","942147","0.0-17.0","battery-v0.2","","""event"",""trial"",""time""
""fullscreenenter"",""1"",""5056""
","
","
","""event"",""trial"",""time""
""fullscreenenter"",""1"",""5056""
","
","","","1210.9000000953674","","","18","3339","2606","&#9728;","elianto","#f73b6a7A","-1"," ","0","0","[2061.899999976158]","1","1","","","3339","14","0","4","lose","no-go","1"
"pit-trial","121","946195","0.0-18.0","battery-v0.2","","""event"",""trial"",""time""
""fullscreenenter"",""1"",""5056""
","
","
","""event"",""trial"",""time""
""fullscreenenter"",""1"",""5056""
","
","","","1190.3000000715256","","","18","3339","2606","&#9752;","elianto","#f73b6a7A"," "," ","1","0","[2041]","1","1","","","3339","15","3","3","lose","go","0"
"pit-trial","122","949507","0.0-19.0","battery-v0.2","","""event"",""trial"",""time""
""fullscreenenter"",""1"",""5056""
","
","
","""event"",""trial"",""time""
""fullscreenenter"",""1"",""5056""
","
","","","454.39999997615814","","","18","3339","2606","&#9733;","elianto","#3366ff99","-1"," ","0","0","[1305.1000000238419]","1","1","","","3339","16","2","2","win","no-go","0"
"pit-trial","123","952894","0.0-20.0","battery-v0.2","","""event"",""trial"",""time""
""fullscreenenter"",""1"",""5056""
","
","
","""event"",""trial"",""time""
""fullscreenenter"",""1"",""5056""
","
","","","526.5","","","18","3339","2606","&#9730;","elianto","#3366ff99"," "," ","1","+10","[1378.7000000476837]","1","1","","","3339","17","1","1","win","go","0"
"pit-trial","124","957757","0.0-21.0","battery-v0.2","","""event"",""trial"",""time""
""fullscreenenter"",""1"",""5056""
","
","
","""event"",""trial"",""time""
""fullscreenenter"",""1"",""5056""
","
","","","-1","","","18","3339","2606","&#9728;","elianto","#f73b6a7A","-1","-1","1","0","[]","0","1","","","3339","18","0","4","lose","no-go","0"
"pit-trial","125","962617","0.0-22.0","battery-v0.2","","""event"",""trial"",""time""
""fullscreenenter"",""1"",""5056""
","
","
","""event"",""trial"",""time""
""fullscreenenter"",""1"",""5056""
","
","","","-1","","","18","3339","2606","&#9752;","elianto","#f73b6a7A"," ","-1","0","-10","[]","0","1","","","3339","19","3","3","lose","go","0"
"pit-trial","126","965977","0.0-23.0","battery-v0.2","","""event"",""trial"",""time""
""fullscreenenter"",""1"",""5056""
","
","
","""event"",""trial"",""time""
""fullscreenenter"",""1"",""5056""
","
","","","500.7000000476837","","","18","3339","2606","&#9733;","elianto","#3366ff99","-1"," ","0","+10","[1351.2999999523163]","1","1","","","3339","20","2","2","win","no-go","1"
"pit-instructions","127","978712","0.0-24.0","battery-v0.2","","""event"",""trial"",""time""
""fullscreenenter"",""1"",""5056""
","
","
","""event"",""trial"",""time""
""fullscreenenter"",""1"",""5056""
","
","","[{""page_index"":0,""viewing_time"":5696.800000071526},{""page_index"":1,""viewing_time"":7033.399999976158}]","12731","","","","","","","","","","","","","","","","","","","","","","","",""
"pit-trial","128","983572","0.0-25.0","battery-v0.2","","""event"",""trial"",""time""
""fullscreenenter"",""1"",""5056""
","
","
","""event"",""trial"",""time""
""fullscreenenter"",""1"",""5056""
","
","","","-1","","","18","3339","2606","j","elianto","#f73b6a7A","-1","-1","1","-10","[]","0","2","","","3339","21","0","4","lose","no-go","1"
"pit-trial","129","987000","0.0-26.0","battery-v0.2","","""event"",""trial"",""time""
""fullscreenenter"",""1"",""5056""
","
","
","""event"",""trial"",""time""
""fullscreenenter"",""1"",""5056""
","
","","","566.6000000238419","","","18","3339","2606","d","elianto","#3366ff99"," "," ","1","+10","[1418.2000000476837]","1","2","","","3339","22","1","1","win","go","0"
"pit-trial","130","991861","0.0-27.0","battery-v0.2","","""event"",""trial"",""time""
""fullscreenenter"",""1"",""5056""
","
","
","""event"",""trial"",""time""
""fullscreenenter"",""1"",""5056""
","
","","","-1","","","18","3339","2606","w","elianto","#f73b6a7A"," ","-1","0","-10","[]","0","2","","","3339","23","3","3","lose","go","0"
"pit-trial","131","996723","0.0-28.0","battery-v0.2","","""event"",""trial"",""time""
""fullscreenenter"",""1"",""5056""
","
","
","""event"",""trial"",""time""
""fullscreenenter"",""1"",""5056""
","
","","","-1","","","18","3339","2606","e","elianto","#f73b6a7A","-1","-1","1","0","[]","0","2","","","3339","24","2","4","lose","no-go","0"
"pit-trial","132","1001588","0.0-29.0","battery-v0.2","","""event"",""trial"",""time""
""fullscreenenter"",""1"",""5056""
","
","
","""event"",""trial"",""time""
""fullscreenenter"",""1"",""5056""
","
","","","-1","","","18","3339","2606","e","elianto","#f73b6a7A","-1","-1","1","0","[]","0","2","","","3339","25","2","4","lose","no-go","0"
"pit-trial","133","1006449","0.0-30.0","battery-v0.2","","""event"",""trial"",""time""
""fullscreenenter"",""1"",""5056""
","
","
","""event"",""trial"",""time""
""fullscreenenter"",""1"",""5056""
","
","","","-1","","","18","3339","2606","w","elianto","#f73b6a7A"," ","-1","0","-10","[]","0","2","","","3339","26","3","3","lose","go","0"
"pit-trial","134","1009992","0.0-31.0","battery-v0.2","","""event"",""trial"",""time""
""fullscreenenter"",""1"",""5056""
","
","
","""event"",""trial"",""time""
""fullscreenenter"",""1"",""5056""
","
","","","687.2999999523163","","","18","3339","2606","d","elianto","#3366ff99"," "," ","1","0","[1537.5]","1","2","","","3339","27","1","1","win","go","1"
"pit-trial","135","1014856","0.0-32.0","battery-v0.2","","""event"",""trial"",""time""
""fullscreenenter"",""1"",""5056""
","
","
","""event"",""trial"",""time""
""fullscreenenter"",""1"",""5056""
","
","","","-1","","","18","3339","2606","j","elianto","#f73b6a7A","-1","-1","1","0","[]","0","2","","","3339","28","0","4","lose","no-go","0"
"pit-trial","136","1019064","0.0-33.0","battery-v0.2","","""event"",""trial"",""time""
""fullscreenenter"",""1"",""5056""
","
","
","""event"",""trial"",""time""
""fullscreenenter"",""1"",""5056""
","
","","","1348.2999999523163","","","18","3339","2606","j","elianto","#f73b6a7A","-1"," ","0","-10","[2200.1999999284744]","1","2","","","3339","29","0","4","lose","no-go","0"
"pit-trial","137","1023475","0.0-34.0","battery-v0.2","","""event"",""trial"",""time""
""fullscreenenter"",""1"",""5056""
","
","
","""event"",""trial"",""time""
""fullscreenenter"",""1"",""5056""
","
","","","1552.1999999284744","","","18","3339","2606","w","elianto","#f73b6a7A"," "," ","1","0","[2404.100000023842]","1","2","","","3339","30","3","3","lose","go","0"
"pit-trial","138","1027475","0.0-35.0","battery-v0.2","","""event"",""trial"",""time""
""fullscreenenter"",""1"",""5056""
","
","
","""event"",""trial"",""time""
""fullscreenenter"",""1"",""5056""
","
","","","1139.5999999046326","","","18","3339","2606","e","elianto","#f73b6a7A","-1"," ","0","-10","[1992.5]","1","2","","","3339","31","2","4","lose","no-go","0"
"pit-trial","139","1030930","0.0-36.0","battery-v0.2","","""event"",""trial"",""time""
""fullscreenenter"",""1"",""5056""
","
","
","""event"",""trial"",""time""
""fullscreenenter"",""1"",""5056""
","
","","","593.5999999046326","","","18","3339","2606","d","elianto","#3366ff99"," "," ","1","+10","[1446.2000000476837]","1","2","","","3339","32","1","1","win","go","0"
"pit-trial","140","1035789","0.0-37.0","battery-v0.2","","""event"",""trial"",""time""
""fullscreenenter"",""1"",""5056""
","
","
","""event"",""trial"",""time""
""fullscreenenter"",""1"",""5056""
","
","","","-1","","","18","3339","2606","j","elianto","#f73b6a7A","-1","-1","1","0","[]","0","2","","","3339","33","0","4","lose","no-go","0"
"pit-trial","141","1040653","0.0-38.0","battery-v0.2","","""event"",""trial"",""time""
""fullscreenenter"",""1"",""5056""
","
","
","""event"",""trial"",""time""
""fullscreenenter"",""1"",""5056""
","
","","","-1","","","18","3339","2606","e","elianto","#f73b6a7A","-1","-1","1","0","[]","0","2","","","3339","34","2","4","lose","no-go","0"
"pit-trial","142","1044024","0.0-39.0","battery-v0.2","","""event"",""trial"",""time""
""fullscreenenter"",""1"",""5056""
","
","
","""event"",""trial"",""time""
""fullscreenenter"",""1"",""5056""
","
","","","510.7000000476837","","","18","3339","2606","d","elianto","#3366ff99"," "," ","1","+10","[1361.5]","1","2","","","3339","35","1","1","win","go","0"
"pit-trial","143","1048888","0.0-40.0","battery-v0.2","","""event"",""trial"",""time""
""fullscreenenter"",""1"",""5056""
","
","
","""event"",""trial"",""time""
""fullscreenenter"",""1"",""5056""
","
","","","-1","","","18","3339","2606","w","elianto","#f73b6a7A"," ","-1","0","-10","[]","0","2","","","3339","36","3","3","lose","go","0"
"pit-trial","144","1053752","0.0-41.0","battery-v0.2","","""event"",""trial"",""time""
""fullscreenenter"",""1"",""5056""
","
","
","""event"",""trial"",""time""
""fullscreenenter"",""1"",""5056""
","
","","","-1","","","18","3339","2606","j","elianto","#f73b6a7A","-1","-1","1","0","[]","0","2","","","3339","37","0","4","lose","no-go","0"
"pit-trial","145","1058616","0.0-42.0","battery-v0.2","","""event"",""trial"",""time""
""fullscreenenter"",""1"",""5056""
","
","
","""event"",""trial"",""time""
""fullscreenenter"",""1"",""5056""
","
","","","-1","","","18","3339","2606","w","elianto","#f73b6a7A"," ","-1","0","-10","[]","0","2","","","3339","38","3","3","lose","go","0"
"pit-trial","146","1062077","0.0-43.0","battery-v0.2","","""event"",""trial"",""time""
""fullscreenenter"",""1"",""5056""
","
","
","""event"",""trial"",""time""
""fullscreenenter"",""1"",""5056""
","
","","","600.6000000238419","","","18","3339","2606","d","elianto","#3366ff99"," "," ","1","+10","[1451]","1","2","","","3339","39","1","1","win","go","0"
"pit-trial","147","1066941","0.0-44.0","battery-v0.2","","""event"",""trial"",""time""
""fullscreenenter"",""1"",""5056""
","
","
","""event"",""trial"",""time""
""fullscreenenter"",""1"",""5056""
","
","","","-1","","","18","3339","2606","e","elianto","#f73b6a7A","-1","-1","1","0","[]","0","2","","","3339","40","2","4","lose","no-go","0"
"pit-trial","148","1070419","0.0-45.0","battery-v0.2","","""event"",""trial"",""time""
""fullscreenenter"",""1"",""5056""
","
","
","""event"",""trial"",""time""
""fullscreenenter"",""1"",""5056""
","
","","","619.2999999523163","","","18","3339","2606","d","elianto","#3366ff99"," "," ","1","0","[1471.5]","1","2","","","3339","41","1","1","win","go","1"
"pit-trial","149","1074686","0.0-46.0","battery-v0.2","","""event"",""trial"",""time""
""fullscreenenter"",""1"",""5056""
","
","
","""event"",""trial"",""time""
""fullscreenenter"",""1"",""5056""
","
","","","1407.5999999046326","","","18","3339","2606","e","elianto","#f73b6a7A","-1"," ","0","-10","[2258.7999999523163]","1","2","","","3339","42","2","4","lose","no-go","0"
"pit-trial","150","1078424","0.0-47.0","battery-v0.2","","""event"",""trial"",""time""
""fullscreenenter"",""1"",""5056""
","
","
","""event"",""trial"",""time""
""fullscreenenter"",""1"",""5056""
","
","","","881.3999999761581","","","18","3339","2606","j","elianto","#f73b6a7A","-1"," ","0","-10","[1732.1000000238419]","1","2","","","3339","43","0","4","lose","no-go","0"
"pit-trial","151","1083288","0.0-48.0","battery-v0.2","","""event"",""trial"",""time""
""fullscreenenter"",""1"",""5056""
","
","
","""event"",""trial"",""time""
""fullscreenenter"",""1"",""5056""
","
","","","-1","","","18","3339","2606","w","elianto","#f73b6a7A"," ","-1","0","-10","[]","0","2","","","3339","44","3","3","lose","go","0"
"pit-trial","152","1086760","0.0-49.0","battery-v0.2","","""event"",""trial"",""time""
""fullscreenenter"",""1"",""5056""
","
","
","""event"",""trial"",""time""
""fullscreenenter"",""1"",""5056""
","
","","","608.7000000476837","","","18","3339","2606","s","elianto","#3366ff99","-1"," ","0","0","[1460.6000000238419]","1","2","","","3339","45","4","2","win","no-go","0"
"pit-trial","153","1091624","0.0-50.0","battery-v0.2","","""event"",""trial"",""time""
""fullscreenenter"",""1"",""5056""
","
","
","""event"",""trial"",""time""
""fullscreenenter"",""1"",""5056""
","
","","","-1","","","18","3339","2606","j","elianto","#f73b6a7A","-1","-1","1","0","[]","0","2","","","3339","46","0","4","lose","no-go","0"
"pit-trial","154","1095401","0.0-51.0","battery-v0.2","","""event"",""trial"",""time""
""fullscreenenter"",""1"",""5056""
","
","
","""event"",""trial"",""time""
""fullscreenenter"",""1"",""5056""
","
","","","912.7000000476837","","","18","3339","2606","e","elianto","#f73b6a7A","-1"," ","0","-10","[1764.7999999523163]","1","2","","","3339","47","2","4","lose","no-go","0"
"pit-trial","155","1100265","0.0-52.0","battery-v0.2","","""event"",""trial"",""time""
""fullscreenenter"",""1"",""5056""
","
","
","""event"",""trial"",""time""
""fullscreenenter"",""1"",""5056""
","
","","","-1","","","18","3339","2606","w","elianto","#f73b6a7A"," ","-1","0","-10","[]","0","2","","","3339","48","3","3","lose","go","0"
"pit-trial","156","1103752","0.0-53.0","battery-v0.2","","""event"",""trial"",""time""
""fullscreenenter"",""1"",""5056""
","
","
","""event"",""trial"",""time""
""fullscreenenter"",""1"",""5056""
","
","","","630.7000000476837","","","18","3339","2606","s","elianto","#3366ff99","-1"," ","0","0","[1482.2000000476837]","1","2","","","3339","49","4","2","win","no-go","0"
"pit-trial","157","1107064","0.0-54.0","battery-v0.2","","""event"",""trial"",""time""
""fullscreenenter"",""1"",""5056""
","
","
","""event"",""trial"",""time""
""fullscreenenter"",""1"",""5056""
","
","","","454.2999999523163","","","18","3339","2606","d","elianto","#3366ff99"," "," ","1","+10","[1305.5999999046326]","1","2","","","3339","50","1","1","win","go","0"
"pit-trial","158","1111928","0.0-55.0","battery-v0.2","","""event"",""trial"",""time""
""fullscreenenter"",""1"",""5056""
","
","
","""event"",""trial"",""time""
""fullscreenenter"",""1"",""5056""
","
","","","-1","","","18","3339","2606","w","elianto","#f73b6a7A"," ","-1","0","-10","[]","0","2","","","3339","51","3","3","lose","go","0"
"pit-trial","159","1116792","0.0-56.0","battery-v0.2","","""event"",""trial"",""time""
""fullscreenenter"",""1"",""5056""
","
","
","""event"",""trial"",""time""
""fullscreenenter"",""1"",""5056""
","
","","","-1","","","18","3339","2606","j","elianto","#f73b6a7A","-1","-1","1","0","[]","0","2","","","3339","52","0","4","lose","no-go","0"
"pit-trial","160","1120264","0.0-57.0","battery-v0.2","","""event"",""trial"",""time""
""fullscreenenter"",""1"",""5056""
","
","
","""event"",""trial"",""time""
""fullscreenenter"",""1"",""5056""
","
","","","611.1999999284744","","","18","3339","2606","s","elianto","#3366ff99","-1"," ","0","0","[1463.6000000238419]","1","2","","","3339","53","4","2","win","no-go","0"
"pit-trial","161","1125128","0.0-58.0","battery-v0.2","","""event"",""trial"",""time""
""fullscreenenter"",""1"",""5056""
","
","
","""event"",""trial"",""time""
""fullscreenenter"",""1"",""5056""
","
","","","-1","","","18","3339","2606","e","elianto","#f73b6a7A","-1","-1","1","0","[]","0","2","","","3339","54","2","4","lose","no-go","0"
"pit-trial","162","1129992","0.0-59.0","battery-v0.2","","""event"",""trial"",""time""
""fullscreenenter"",""1"",""5056""
","
","
","""event"",""trial"",""time""
""fullscreenenter"",""1"",""5056""
","
","","","-1","","","18","3339","2606","j","elianto","#f73b6a7A","-1","-1","1","0","[]","0","2","","","3339","55","0","4","lose","no-go","0"
"pit-trial","163","1133390","0.0-60.0","battery-v0.2","","""event"",""trial"",""time""
""fullscreenenter"",""1"",""5056""
","
","
","""event"",""trial"",""time""
""fullscreenenter"",""1"",""5056""
","
","","","534.2000000476837","","","18","3339","2606","d","elianto","#3366ff99"," "," ","1","+10","[1386.8999999761581]","1","2","","","3339","56","1","1","win","go","0"
"pit-trial","164","1138254","0.0-61.0","battery-v0.2","","""event"",""trial"",""time""
""fullscreenenter"",""1"",""5056""
","
","
","""event"",""trial"",""time""
""fullscreenenter"",""1"",""5056""
","
","","","-1","","","18","3339","2606","j","elianto","#f73b6a7A","-1","-1","1","0","[]","0","2","","","3339","57","0","4","lose","no-go","0"
"pit-trial","165","1143118","0.0-62.0","battery-v0.2","","""event"",""trial"",""time""
""fullscreenenter"",""1"",""5056""
","
","
","""event"",""trial"",""time""
""fullscreenenter"",""1"",""5056""
","
","","","-1","","","18","3339","2606","w","elianto","#f73b6a7A"," ","-1","0","-10","[]","0","2","","","3339","58","3","3","lose","go","0"
"pit-trial","166","1146563","0.0-63.0","battery-v0.2","","""event"",""trial"",""time""
""fullscreenenter"",""1"",""5056""
","
","
","""event"",""trial"",""time""
""fullscreenenter"",""1"",""5056""
","
","","","586.7000000476837","","","18","3339","2606","s","elianto","#3366ff99","-1"," ","0","0","[1436.9000000953674]","1","2","","","3339","59","4","2","win","no-go","0"
"pit-trial","167","1150142","0.0-64.0","battery-v0.2","","""event"",""trial"",""time""
""fullscreenenter"",""1"",""5056""
","
","
","""event"",""trial"",""time""
""fullscreenenter"",""1"",""5056""
","
","","","718","","","18","3339","2606","d","elianto","#3366ff99"," "," ","1","+10","[1568.5]","1","2","","","3339","60","1","1","win","go","0"
"pit-trial","168","1155006","0.0-65.0","battery-v0.2","","""event"",""trial"",""time""
""fullscreenenter"",""1"",""5056""
","
","
","""event"",""trial"",""time""
""fullscreenenter"",""1"",""5056""
","
","","","-1","","","18","3339","2606","e","elianto","#f73b6a7A","-1","-1","1","0","[]","0","2","","","3339","61","2","4","lose","no-go","0"
"pit-trial","169","1158441","0.0-66.0","battery-v0.2","","""event"",""trial"",""time""
""fullscreenenter"",""1"",""5056""
","
","
","""event"",""trial"",""time""
""fullscreenenter"",""1"",""5056""
","
","","","575.6000000238419","","","18","3339","2606","s","elianto","#3366ff99","-1"," ","0","0","[1427.5]","1","2","","","3339","62","4","2","win","no-go","0"
"pit-trial","170","1163305","0.0-67.0","battery-v0.2","","""event"",""trial"",""time""
""fullscreenenter"",""1"",""5056""
","
","
","""event"",""trial"",""time""
""fullscreenenter"",""1"",""5056""
","
","","","-1","","","18","3339","2606","w","elianto","#f73b6a7A"," ","-1","0","-10","[]","0","2","","","3339","63","3","3","lose","go","0"
"pit-trial","171","1166800","0.0-68.0","battery-v0.2","","""event"",""trial"",""time""
""fullscreenenter"",""1"",""5056""
","
","
","""event"",""trial"",""time""
""fullscreenenter"",""1"",""5056""
","
","","","635.7000000476837","","","18","3339","2606","d","elianto","#3366ff99"," "," ","1","+10","[1486.6999999284744]","1","2","","","3339","64","1","1","win","go","0"
"pit-trial","172","1171662","0.0-69.0","battery-v0.2","","""event"",""trial"",""time""
""fullscreenenter"",""1"",""5056""
","
","
","""event"",""trial"",""time""
""fullscreenenter"",""1"",""5056""
","
","","","-1","","","18","3339","2606","w","elianto","#f73b6a7A"," ","-1","0","-10","[]","0","2","","","3339","65","3","3","lose","go","0"
"pit-trial","173","1175134","0.0-70.0","battery-v0.2","","""event"",""trial"",""time""
""fullscreenenter"",""1"",""5056""
","
","
","""event"",""trial"",""time""
""fullscreenenter"",""1"",""5056""
","
","","","611.3999999761581","","","18","3339","2606","s","elianto","#3366ff99","-1"," ","0","0","[1462.8999999761581]","1","2","","","3339","66","4","2","win","no-go","0"
"pit-trial","174","1178638","0.0-71.0","battery-v0.2","","""event"",""trial"",""time""
""fullscreenenter"",""1"",""5056""
","
","
","""event"",""trial"",""time""
""fullscreenenter"",""1"",""5056""
","
","","","647.3000000715256","","","18","3339","2606","d","elianto","#3366ff99"," "," ","1","+10","[1497.2999999523163]","1","2","","","3339","67","1","1","win","go","0"
"pit-trial","175","1182211","0.0-72.0","battery-v0.2","","""event"",""trial"",""time""
""fullscreenenter"",""1"",""5056""
","
","
","""event"",""trial"",""time""
""fullscreenenter"",""1"",""5056""
","
","","","713.8000000715256","","","18","3339","2606","e","elianto","#f73b6a7A","-1"," ","0","-10","[1565.3000000715256]","1","2","","","3339","68","2","4","lose","no-go","0"
"pit-trial","176","1187075","0.0-73.0","battery-v0.2","","""event"",""trial"",""time""
""fullscreenenter"",""1"",""5056""
","
","
","""event"",""trial"",""time""
""fullscreenenter"",""1"",""5056""
","
","","","-1","","","18","3339","2606","w","elianto","#f73b6a7A"," ","-1","0","-10","[]","0","2","","","3339","69","3","3","lose","go","0"
"pit-trial","177","1190542","0.0-74.0","battery-v0.2","","""event"",""trial"",""time""
""fullscreenenter"",""1"",""5056""
","
","
","""event"",""trial"",""time""
""fullscreenenter"",""1"",""5056""
","
","","","606.5999999046326","","","18","3339","2606","d","elianto","#3366ff99"," "," ","1","0","[1459.0999999046326]","1","2","","","3339","70","1","1","win","go","1"
"pit-trial","178","1194019","0.0-75.0","battery-v0.2","","""event"",""trial"",""time""
""fullscreenenter"",""1"",""5056""
","
","
","""event"",""trial"",""time""
""fullscreenenter"",""1"",""5056""
","
","","","616.3999999761581","","","18","3339","2606","p","elianto","#3366ff99"," "," ","1","+10","[1468.7999999523163]","1","2","","","3339","71","5","1","win","go","0"
"pit-trial","179","1197609","0.0-76.0","battery-v0.2","","""event"",""trial"",""time""
""fullscreenenter"",""1"",""5056""
","
","
","""event"",""trial"",""time""
""fullscreenenter"",""1"",""5056""
","
","","","731.8999999761581","","","18","3339","2606","s","elianto","#3366ff99","-1"," ","0","+10","[1582.6000000238419]","1","2","","","3339","72","4","2","win","no-go","1"
"pit-trial","180","1201102","0.0-77.0","battery-v0.2","","""event"",""trial"",""time""
""fullscreenenter"",""1"",""5056""
","
","
","""event"",""trial"",""time""
""fullscreenenter"",""1"",""5056""
","
","","","634.8000000715256","","","18","3339","2606","s","elianto","#3366ff99","-1"," ","0","0","[1487.3000000715256]","1","2","","","3339","73","4","2","win","no-go","0"
"pit-trial","181","1205966","0.0-78.0","battery-v0.2","","""event"",""trial"",""time""
""fullscreenenter"",""1"",""5056""
","
","
","""event"",""trial"",""time""
""fullscreenenter"",""1"",""5056""
","
","","","-1","","","18","3339","2606","w","elianto","#f73b6a7A"," ","-1","0","-10","[]","0","2","","","3339","74","3","3","lose","go","0"
"pit-trial","182","1209470","0.0-79.0","battery-v0.2","","""event"",""trial"",""time""
""fullscreenenter"",""1"",""5056""
","
","
","""event"",""trial"",""time""
""fullscreenenter"",""1"",""5056""
","
","","","646","","","18","3339","2606","d","elianto","#3366ff99"," "," ","1","+10","[1496.3000000715256]","1","2","","","3339","75","1","1","win","go","0"
"pit-trial","183","1213001","0.0-80.0","battery-v0.2","","""event"",""trial"",""time""
""fullscreenenter"",""1"",""5056""
","
","
","""event"",""trial"",""time""
""fullscreenenter"",""1"",""5056""
","
","","","674.5","","","18","3339","2606","p","elianto","#3366ff99"," "," ","1","+10","[1525.7000000476837]","1","2","","","3339","76","5","1","win","go","0"
"pit-trial","184","1216451","0.0-81.0","battery-v0.2","","""event"",""trial"",""time""
""fullscreenenter"",""1"",""5056""
","
","
","""event"",""trial"",""time""
""fullscreenenter"",""1"",""5056""
","
","","","591.3999999761581","","","18","3339","2606","p","elianto","#3366ff99"," "," ","1","+10","[1441.5999999046326]","1","2","","","3339","77","5","1","win","go","0"
"pit-trial","185","1221316","0.0-82.0","battery-v0.2","","""event"",""trial"",""time""
""fullscreenenter"",""1"",""5056""
","
","
","""event"",""trial"",""time""
""fullscreenenter"",""1"",""5056""
","
","","","-1","","","18","3339","2606","g","elianto","#f73b6a7A","-1","-1","1","0","[]","0","2","","","3339","78","6","4","lose","no-go","0"
"pit-trial","186","1224831","0.0-83.0","battery-v0.2","","""event"",""trial"",""time""
""fullscreenenter"",""1"",""5056""
","
","
","""event"",""trial"",""time""
""fullscreenenter"",""1"",""5056""
","
","","","656.5","","","18","3339","2606","s","elianto","#3366ff99","-1"," ","0","0","[1506.7000000476837]","1","2","","","3339","79","4","2","win","no-go","0"
"pit-trial","187","1229695","0.0-84.0","battery-v0.2","","""event"",""trial"",""time""
""fullscreenenter"",""1"",""5056""
","
","
","""event"",""trial"",""time""
""fullscreenenter"",""1"",""5056""
","
","","","-1","","","18","3339","2606","w","elianto","#f73b6a7A"," ","-1","0","-10","[]","0","2","","","3339","80","3","3","lose","go","0"
"pit-trial","188","1233135","0.0-85.0","battery-v0.2","","""event"",""trial"",""time""
""fullscreenenter"",""1"",""5056""
","
","
","""event"",""trial"",""time""
""fullscreenenter"",""1"",""5056""
","
","","","578.5","","","18","3339","2606","s","elianto","#3366ff99","-1"," ","0","+10","[1430.5]","1","2","","","3339","81","4","2","win","no-go","1"
"pit-trial","189","1237998","0.0-86.0","battery-v0.2","","""event"",""trial"",""time""
""fullscreenenter"",""1"",""5056""
","
","
","""event"",""trial"",""time""
""fullscreenenter"",""1"",""5056""
","
","","","-1","","","18","3339","2606","a","elianto","#f73b6a7A"," ","-1","0","-10","[]","0","2","","","3339","82","7","3","lose","go","0"
"pit-trial","190","1241411","0.0-87.0","battery-v0.2","","""event"",""trial"",""time""
""fullscreenenter"",""1"",""5056""
","
","
","""event"",""trial"",""time""
""fullscreenenter"",""1"",""5056""
","
","","","553.6999999284744","","","18","3339","2606","p","elianto","#3366ff99"," "," ","1","+10","[1404.3999999761581]","1","2","","","3339","83","5","1","win","go","0"
"pit-trial","191","1246275","0.0-88.0","battery-v0.2","","""event"",""trial"",""time""
""fullscreenenter"",""1"",""5056""
","
","
","""event"",""trial"",""time""
""fullscreenenter"",""1"",""5056""
","
","","","-1","","","18","3339","2606","g","elianto","#f73b6a7A","-1","-1","1","0","[]","0","2","","","3339","84","6","4","lose","no-go","0"
"pit-trial","192","1249833","0.0-89.0","battery-v0.2","","""event"",""trial"",""time""
""fullscreenenter"",""1"",""5056""
","
","
","""event"",""trial"",""time""
""fullscreenenter"",""1"",""5056""
","
","","","699.3000000715256","","","18","3339","2606","s","elianto","#3366ff99","-1"," ","0","0","[1551.6000000238419]","1","2","","","3339","85","4","2","win","no-go","0"
"pit-trial","193","1254697","0.0-90.0","battery-v0.2","","""event"",""trial"",""time""
""fullscreenenter"",""1"",""5056""
","
","
","""event"",""trial"",""time""
""fullscreenenter"",""1"",""5056""
","
","","","-1","","","18","3339","2606","a","elianto","#f73b6a7A"," ","-1","0","-10","[]","0","2","","","3339","86","7","3","lose","go","0"
"pit-trial","194","1258217","0.0-91.0","battery-v0.2","","""event"",""trial"",""time""
""fullscreenenter"",""1"",""5056""
","
","
","""event"",""trial"",""time""
""fullscreenenter"",""1"",""5056""
","
","","","660.8999999761581","","","18","3339","2606","p","elianto","#3366ff99"," "," ","1","+10","[1511.5]","1","2","","","3339","87","5","1","win","go","0"
"pit-trial","195","1263081","0.0-92.0","battery-v0.2","","""event"",""trial"",""time""
""fullscreenenter"",""1"",""5056""
","
","
","""event"",""trial"",""time""
""fullscreenenter"",""1"",""5056""
","
","","","-1","","","18","3339","2606","g","elianto","#f73b6a7A","-1","-1","1","0","[]","0","2","","","3339","88","6","4","lose","no-go","0"
"pit-trial","196","1267945","0.0-93.0","battery-v0.2","","""event"",""trial"",""time""
""fullscreenenter"",""1"",""5056""
","
","
","""event"",""trial"",""time""
""fullscreenenter"",""1"",""5056""
","
","","","-1","","","18","3339","2606","g","elianto","#f73b6a7A","-1","-1","1","0","[]","0","2","","","3339","89","6","4","lose","no-go","0"
"pit-trial","197","1271481","0.0-94.0","battery-v0.2","","""event"",""trial"",""time""
""fullscreenenter"",""1"",""5056""
","
","
","""event"",""trial"",""time""
""fullscreenenter"",""1"",""5056""
","
","","","674.5","","","18","3339","2606","p","elianto","#3366ff99"," "," ","1","+10","[1526.2999999523163]","1","2","","","3339","90","5","1","win","go","0"
"pit-trial","198","1276345","0.0-95.0","battery-v0.2","","""event"",""trial"",""time""
""fullscreenenter"",""1"",""5056""
","
","
","""event"",""trial"",""time""
""fullscreenenter"",""1"",""5056""
","
","","","-1","","","18","3339","2606","a","elianto","#f73b6a7A"," ","-1","0","-10","[]","0","2","","","3339","91","7","3","lose","go","0"
"pit-trial","199","1279967","0.0-96.0","battery-v0.2","","""event"",""trial"",""time""
""fullscreenenter"",""1"",""5056""
","
","
","""event"",""trial"",""time""
""fullscreenenter"",""1"",""5056""
","
","","","759.8999999761581","","","18","3339","2606","s","elianto","#3366ff99","-1"," ","0","0","[1611.8000000715256]","1","2","","","3339","92","4","2","win","no-go","0"
"pit-trial","200","1283492","0.0-97.0","battery-v0.2","","""event"",""trial"",""time""
""fullscreenenter"",""1"",""5056""
","
","
","""event"",""trial"",""time""
""fullscreenenter"",""1"",""5056""
","
","","","667.0999999046326","","","18","3339","2606","p","elianto","#3366ff99"," "," ","1","0","[1517.3999999761581]","1","2","","","3339","93","5","1","win","go","1"
"pit-trial","201","1287252","0.0-98.0","battery-v0.2","","""event"",""trial"",""time""
""fullscreenenter"",""1"",""5056""
","
","
","""event"",""trial"",""time""
""fullscreenenter"",""1"",""5056""
","
","","","901.2999999523163","","","18","3339","2606","g","elianto","#f73b6a7A","-1"," ","0","-10","[1753.3000000715256]","1","2","","","3339","94","6","4","lose","no-go","0"
"pit-trial","202","1292116","0.0-99.0","battery-v0.2","","""event"",""trial"",""time""
""fullscreenenter"",""1"",""5056""
","
","
","""event"",""trial"",""time""
""fullscreenenter"",""1"",""5056""
","
","","","-1","","","18","3339","2606","a","elianto","#f73b6a7A"," ","-1","0","0","[]","0","2","","","3339","95","7","3","lose","go","1"
"pit-trial","203","1295469","0.0-100.0","battery-v0.2","","""event"",""trial"",""time""
""fullscreenenter"",""1"",""5056""
","
","
","""event"",""trial"",""time""
""fullscreenenter"",""1"",""5056""
","
","","","493.10000002384186","","","18","3339","2606","l","elianto","#3366ff99","-1"," ","0","+10","[1343.7000000476837]","1","2","","","3339","96","8","2","win","no-go","1"
"pit-trial","204","1299028","0.0-101.0","battery-v0.2","","""event"",""trial"",""time""
""fullscreenenter"",""1"",""5056""
","
","
","""event"",""trial"",""time""
""fullscreenenter"",""1"",""5056""
","
","","","701.3999999761581","","","18","3339","2606","l","elianto","#3366ff99","-1"," ","0","0","[1551.6999999284744]","1","2","","","3339","97","8","2","win","no-go","0"
"pit-trial","205","1303892","0.0-102.0","battery-v0.2","","""event"",""trial"",""time""
""fullscreenenter"",""1"",""5056""
","
","
","""event"",""trial"",""time""
""fullscreenenter"",""1"",""5056""
","
","","","-1","","","18","3339","2606","a","elianto","#f73b6a7A"," ","-1","0","-10","[4531.399999976158]","1","2","","","3339","98","7","3","lose","go","0"
"pit-trial","206","1308756","0.0-103.0","battery-v0.2","","""event"",""trial"",""time""
""fullscreenenter"",""1"",""5056""
","
","
","""event"",""trial"",""time""
""fullscreenenter"",""1"",""5056""
","
","","","-1","","","18","3339","2606","g","elianto","#f73b6a7A","-1","-1","1","0","[]","0","2","","","3339","99","6","4","lose","no-go","0"
"pit-trial","207","1312207","0.0-104.0","battery-v0.2","","""event"",""trial"",""time""
""fullscreenenter"",""1"",""5056""
","
","
","""event"",""trial"",""time""
""fullscreenenter"",""1"",""5056""
","
","","","589.8999999761581","","","18","3339","2606","p","elianto","#3366ff99"," "," ","1","+10","[1440.8999999761581]","1","2","","","3339","100","5","1","win","go","0"
"pit-trial","208","1316061","0.0-105.0","battery-v0.2","","""event"",""trial"",""time""
""fullscreenenter"",""1"",""5056""
","
","
","""event"",""trial"",""time""
""fullscreenenter"",""1"",""5056""
","
","","","994.1000000238419","","","18","3339","2606","p","elianto","#3366ff99"," "," ","1","+10","[1846]","1","2","","","3339","101","5","1","win","go","0"
"pit-trial","209","1320927","0.0-106.0","battery-v0.2","","""event"",""trial"",""time""
""fullscreenenter"",""1"",""5056""
","
","
","""event"",""trial"",""time""
""fullscreenenter"",""1"",""5056""
","
","","","-1","","","18","3339","2606","g","elianto","#f73b6a7A","-1","-1","1","0","[]","0","2","","","3339","102","6","4","lose","no-go","0"
"pit-trial","210","1324682","0.0-107.0","battery-v0.2","","""event"",""trial"",""time""
""fullscreenenter"",""1"",""5056""
","
","
","""event"",""trial"",""time""
""fullscreenenter"",""1"",""5056""
","
","","","896.6000000238419","","","18","3339","2606","u","elianto","#3366ff99","-1"," ","0","0","[1749.3000000715256]","1","2","","","3339","103","9","2","win","no-go","0"
"pit-trial","211","1328084","0.0-108.0","battery-v0.2","","""event"",""trial"",""time""
""fullscreenenter"",""1"",""5056""
","
","
","""event"",""trial"",""time""
""fullscreenenter"",""1"",""5056""
","
","","","539.5","","","18","3339","2606","l","elianto","#3366ff99","-1"," ","0","0","[1391.5]","1","2","","","3339","104","8","2","win","no-go","0"
"pit-trial","212","1331434","0.0-109.0","battery-v0.2","","""event"",""trial"",""time""
""fullscreenenter"",""1"",""5056""
","
","
","""event"",""trial"",""time""
""fullscreenenter"",""1"",""5056""
","
","","","490.10000002384186","","","18","3339","2606","u","elianto","#3366ff99","-1"," ","0","+10","[1340.4000000953674]","1","2","","","3339","105","9","2","win","no-go","1"
"pit-trial","213","1336298","0.0-110.0","battery-v0.2","","""event"",""trial"",""time""
""fullscreenenter"",""1"",""5056""
","
","
","""event"",""trial"",""time""
""fullscreenenter"",""1"",""5056""
","
","","","-1","","","18","3339","2606","g","elianto","#f73b6a7A","-1","-1","1","0","[]","0","2","","","3339","106","6","4","lose","no-go","0"
"pit-trial","214","1339717","0.0-111.0","battery-v0.2","","""event"",""trial"",""time""
""fullscreenenter"",""1"",""5056""
","
","
","""event"",""trial"",""time""
""fullscreenenter"",""1"",""5056""
","
","","","558.1000000238419","","","18","3339","2606","p","elianto","#3366ff99"," "," ","1","+10","[1408.1999999284744]","1","2","","","3339","107","5","1","win","go","0"
"pit-trial","215","1343195","0.0-112.0","battery-v0.2","","""event"",""trial"",""time""
""fullscreenenter"",""1"",""5056""
","
","
","""event"",""trial"",""time""
""fullscreenenter"",""1"",""5056""
","
","","","618.0999999046326","","","18","3339","2606","l","elianto","#3366ff99","-1"," ","0","+10","[1468.4000000953674]","1","2","","","3339","108","8","2","win","no-go","1"
"pit-trial","216","1346577","0.0-113.0","battery-v0.2","","""event"",""trial"",""time""
""fullscreenenter"",""1"",""5056""
","
","
","""event"",""trial"",""time""
""fullscreenenter"",""1"",""5056""
","
","","","521.7999999523163","","","18","3339","2606","p","elianto","#3366ff99"," "," ","1","+10","[1374.1999999284744]","1","2","","","3339","109","5","1","win","go","0"
"pit-trial","217","1349931","0.0-114.0","battery-v0.2","","""event"",""trial"",""time""
""fullscreenenter"",""1"",""5056""
","
","
","""event"",""trial"",""time""
""fullscreenenter"",""1"",""5056""
","
","","","497","","","18","3339","2606","l","elianto","#3366ff99","-1"," ","0","0","[1348.7999999523163]","1","2","","","3339","110","8","2","win","no-go","0"
"pit-trial","218","1353334","0.0-115.0","battery-v0.2","","""event"",""trial"",""time""
""fullscreenenter"",""1"",""5056""
","
","
","""event"",""trial"",""time""
""fullscreenenter"",""1"",""5056""
","
","","","544.1000000238419","","","18","3339","2606","u","elianto","#3366ff99","-1"," ","0","0","[1395]","1","2","","","3339","111","9","2","win","no-go","0"
"pit-trial","219","1358199","0.0-116.0","battery-v0.2","","""event"",""trial"",""time""
""fullscreenenter"",""1"",""5056""
","
","
","""event"",""trial"",""time""
""fullscreenenter"",""1"",""5056""
","
","","","-1","","","18","3339","2606","g","elianto","#f73b6a7A","-1","-1","1","0","[]","0","2","","","3339","112","6","4","lose","no-go","0"
"pit-trial","220","1363062","0.0-117.0","battery-v0.2","","""event"",""trial"",""time""
""fullscreenenter"",""1"",""5056""
","
","
","""event"",""trial"",""time""
""fullscreenenter"",""1"",""5056""
","
","","","-1","","","18","3339","2606","a","elianto","#f73b6a7A"," ","-1","0","-10","[]","0","2","","","3339","113","7","3","lose","go","0"
"pit-trial","221","1366497","0.0-118.0","battery-v0.2","","""event"",""trial"",""time""
""fullscreenenter"",""1"",""5056""
","
","
","""event"",""trial"",""time""
""fullscreenenter"",""1"",""5056""
","
","","","576.1000000238419","","","18","3339","2606","l","elianto","#3366ff99","-1"," ","0","+10","[1429]","1","2","","","3339","114","8","2","win","no-go","1"
"pit-trial","222","1369926","0.0-119.0","battery-v0.2","","""event"",""trial"",""time""
""fullscreenenter"",""1"",""5056""
","
","
","""event"",""trial"",""time""
""fullscreenenter"",""1"",""5056""
","
","","","571","","","18","3339","2606","p","elianto","#3366ff99"," "," ","1","+10","[1423.8999999761581]","1","2","","","3339","115","5","1","win","go","0"
"pit-trial","223","1373212","0.0-120.0","battery-v0.2","","""event"",""trial"",""time""
""fullscreenenter"",""1"",""5056""
","
","
","""event"",""trial"",""time""
""fullscreenenter"",""1"",""5056""
","
","","","427.5","","","18","3339","2606","u","elianto","#3366ff99","-1"," ","0","0","[1279.1000000238419]","1","2","","","3339","116","9","2","win","no-go","0"
"pit-trial","224","1378076","0.0-121.0","battery-v0.2","","""event"",""trial"",""time""
""fullscreenenter"",""1"",""5056""
","
","
","""event"",""trial"",""time""
""fullscreenenter"",""1"",""5056""
","
","","","-1","","","18","3339","2606","g","elianto","#f73b6a7A","-1","-1","1","-10","[]","0","2","","","3339","117","6","4","lose","no-go","1"
"pit-trial","225","1381683","0.0-122.0","battery-v0.2","","""event"",""trial"",""time""
""fullscreenenter"",""1"",""5056""
","
","
","""event"",""trial"",""time""
""fullscreenenter"",""1"",""5056""
","
","","","746.3999999761581","","","18","3339","2606","u","elianto","#3366ff99","-1"," ","0","0","[1598.0999999046326]","1","2","","","3339","118","9","2","win","no-go","0"
"pit-trial","226","1385063","0.0-123.0","battery-v0.2","","""event"",""trial"",""time""
""fullscreenenter"",""1"",""5056""
","
","
","""event"",""trial"",""time""
""fullscreenenter"",""1"",""5056""
","
","","","519.7999999523163","","","18","3339","2606","l","elianto","#3366ff99","-1"," ","0","0","[1370.2000000476837]","1","2","","","3339","119","8","2","win","no-go","0"
"pit-trial","227","1388487","0.0-124.0","battery-v0.2","","""event"",""trial"",""time""
""fullscreenenter"",""1"",""5056""
","
","
","""event"",""trial"",""time""
""fullscreenenter"",""1"",""5056""
","
","","","565.5","","","18","3339","2606","p","elianto","#3366ff99"," "," ","1","+10","[1418.3000000715256]","1","2","","","3339","120","5","1","win","go","0"
"pit-trial","228","1393351","0.0-125.0","battery-v0.2","","""event"",""trial"",""time""
""fullscreenenter"",""1"",""5056""
","
","
","""event"",""trial"",""time""
""fullscreenenter"",""1"",""5056""
","
","","","-1","","","18","3339","2606","a","elianto","#f73b6a7A"," ","-1","0","-10","[]","0","2","","","3339","121","7","3","lose","go","0"
"pit-trial","229","1396855","0.0-126.0","battery-v0.2","","""event"",""trial"",""time""
""fullscreenenter"",""1"",""5056""
","
","
","""event"",""trial"",""time""
""fullscreenenter"",""1"",""5056""
","
","","","644.8000000715256","","","18","3339","2606","p","elianto","#3366ff99"," "," ","1","+10","[1494.8999999761581]","1","2","","","3339","122","5","1","win","go","0"
"pit-trial","230","1400327","0.0-127.0","battery-v0.2","","""event"",""trial"",""time""
""fullscreenenter"",""1"",""5056""
","
","
","""event"",""trial"",""time""
""fullscreenenter"",""1"",""5056""
","
","","","612.1999999284744","","","18","3339","2606","u","elianto","#3366ff99","-1"," ","0","0","[1462.7999999523163]","1","2","","","3339","123","9","2","win","no-go","0"
"pit-trial","231","1403688","0.0-128.0","battery-v0.2","","""event"",""trial"",""time""
""fullscreenenter"",""1"",""5056""
","
","
","""event"",""trial"",""time""
""fullscreenenter"",""1"",""5056""
","
","","","501.39999997615814","","","18","3339","2606","l","elianto","#3366ff99","-1"," ","0","+10","[1353.1000000238419]","1","2","","","3339","124","8","2","win","no-go","1"
"pit-trial","232","1407308","0.0-129.0","battery-v0.2","","""event"",""trial"",""time""
""fullscreenenter"",""1"",""5056""
","
","
","""event"",""trial"",""time""
""fullscreenenter"",""1"",""5056""
","
","","","762","","","18","3339","2606","u","elianto","#3366ff99","-1"," ","0","+10","[1612.5]","1","2","","","3339","125","9","2","win","no-go","1"
"pit-trial","233","1410631","0.0-130.0","battery-v0.2","","""event"",""trial"",""time""
""fullscreenenter"",""1"",""5056""
","
","
","""event"",""trial"",""time""
""fullscreenenter"",""1"",""5056""
","
","","","462.1999999284744","","","18","3339","2606","l","elianto","#3366ff99","-1"," ","0","0","[1313.4000000953674]","1","2","","","3339","126","8","2","win","no-go","0"
"pit-trial","234","1415495","0.0-131.0","battery-v0.2","","""event"",""trial"",""time""
""fullscreenenter"",""1"",""5056""
","
","
","""event"",""trial"",""time""
""fullscreenenter"",""1"",""5056""
","
","","","-1","","","18","3339","2606","a","elianto","#f73b6a7A"," ","-1","0","-10","[]","0","2","","","3339","127","7","3","lose","go","0"
"pit-trial","235","1420359","0.0-132.0","battery-v0.2","","""event"",""trial"",""time""
""fullscreenenter"",""1"",""5056""
","
","
","""event"",""trial"",""time""
""fullscreenenter"",""1"",""5056""
","
","","","-1","","","18","3339","2606","g","elianto","#f73b6a7A","-1","-1","1","0","[]","0","2","","","3339","128","6","4","lose","no-go","0"
"pit-trial","236","1423721","0.0-133.0","battery-v0.2","","""event"",""trial"",""time""
""fullscreenenter"",""1"",""5056""
","
","
","""event"",""trial"",""time""
""fullscreenenter"",""1"",""5056""
","
","","","503.2999999523163","","","18","3339","2606","l","elianto","#3366ff99","-1"," ","0","0","[1354.7999999523163]","1","2","","","3339","129","8","2","win","no-go","0"
"pit-trial","237","1428583","0.0-134.0","battery-v0.2","","""event"",""trial"",""time""
""fullscreenenter"",""1"",""5056""
","
","
","""event"",""trial"",""time""
""fullscreenenter"",""1"",""5056""
","
","","","-1","","","18","3339","2606","g","elianto","#f73b6a7A","-1","-1","1","0","[]","0","2","","","3339","130","6","4","lose","no-go","0"
"pit-trial","238","1431991","0.0-135.0","battery-v0.2","","""event"",""trial"",""time""
""fullscreenenter"",""1"",""5056""
","
","
","""event"",""trial"",""time""
""fullscreenenter"",""1"",""5056""
","
","","","550.8999999761581","","","18","3339","2606","u","elianto","#3366ff99","-1"," ","0","+10","[1401.7999999523163]","1","2","","","3339","131","9","2","win","no-go","1"
"pit-trial","239","1436855","0.0-136.0","battery-v0.2","","""event"",""trial"",""time""
""fullscreenenter"",""1"",""5056""
","
","
","""event"",""trial"",""time""
""fullscreenenter"",""1"",""5056""
","
","","","-1","","","18","3339","2606","a","elianto","#f73b6a7A"," ","-1","0","0","[]","0","2","","","3339","132","7","3","lose","go","1"
"pit-trial","240","1440153","0.0-137.0","battery-v0.2","","""event"",""trial"",""time""
""fullscreenenter"",""1"",""5056""
","
","
","""event"",""trial"",""time""
""fullscreenenter"",""1"",""5056""
","
","","","440.39999997615814","","","18","3339","2606","l","elianto","#3366ff99","-1"," ","0","0","[1291.2000000476837]","1","2","","","3339","133","8","2","win","no-go","0"
"pit-trial","241","1443543","0.0-138.0","battery-v0.2","","""event"",""trial"",""time""
""fullscreenenter"",""1"",""5056""
","
","
","""event"",""trial"",""time""
""fullscreenenter"",""1"",""5056""
","
","","","533.3999999761581","","","18","3339","2606","u","elianto","#3366ff99","-1"," ","0","0","[1383.6000000238419]","1","2","","","3339","134","9","2","win","no-go","0"
"pit-trial","242","1448407","0.0-139.0","battery-v0.2","","""event"",""trial"",""time""
""fullscreenenter"",""1"",""5056""
","
","
","""event"",""trial"",""time""
""fullscreenenter"",""1"",""5056""
","
","","","-1","","","18","3339","2606","g","elianto","#f73b6a7A","-1","-1","1","0","[]","0","2","","","3339","135","6","4","lose","no-go","0"
"pit-trial","243","1453271","0.0-140.0","battery-v0.2","","""event"",""trial"",""time""
""fullscreenenter"",""1"",""5056""
","
","
","""event"",""trial"",""time""
""fullscreenenter"",""1"",""5056""
","
","","","-1","","","18","3339","2606","a","elianto","#f73b6a7A"," ","-1","0","-10","[]","0","2","","","3339","136","7","3","lose","go","0"
"pit-trial","244","1458135","0.0-141.0","battery-v0.2","","""event"",""trial"",""time""
""fullscreenenter"",""1"",""5056""
","
","
","""event"",""trial"",""time""
""fullscreenenter"",""1"",""5056""
","
","","","-1","","","18","3339","2606","g","elianto","#f73b6a7A","-1","-1","1","0","[]","0","2","","","3339","137","6","4","lose","no-go","0"
"pit-trial","245","1462999","0.0-142.0","battery-v0.2","","""event"",""trial"",""time""
""fullscreenenter"",""1"",""5056""
","
","
","""event"",""trial"",""time""
""fullscreenenter"",""1"",""5056""
","
","","","-1","","","18","3339","2606","a","elianto","#f73b6a7A"," ","-1","0","-10","[]","0","2","","","3339","138","7","3","lose","go","0"
"pit-trial","246","1466669","0.0-143.0","battery-v0.2","","""event"",""trial"",""time""
""fullscreenenter"",""1"",""5056""
","
","
","""event"",""trial"",""time""
""fullscreenenter"",""1"",""5056""
","
","","","806.2999999523163","","","18","3339","2606","l","elianto","#3366ff99","-1"," ","0","0","[1658.0999999046326]","1","2","","","3339","139","8","2","win","no-go","0"
"pit-trial","247","1470424","0.0-144.0","battery-v0.2","","""event"",""trial"",""time""
""fullscreenenter"",""1"",""5056""
","
","
","""event"",""trial"",""time""
""fullscreenenter"",""1"",""5056""
","
","","","897.1000000238419","","","18","3339","2606","u","elianto","#3366ff99","-1"," ","0","+10","[1747.8999999761581]","1","2","","","3339","140","9","2","win","no-go","1"
"pit-instructions","248","1501808","0.0-145.0","battery-v0.2","","""event"",""trial"",""time""
""fullscreenenter"",""1"",""5056""
","
","
","""event"",""trial"",""time""
""fullscreenenter"",""1"",""5056""
","
","","[{""page_index"":0,""viewing_time"":21075.600000023842},{""page_index"":1,""viewing_time"":10303.799999952316}]","31380.100000023842","","","","","","","","","","","","","","","","","","","","","","","",""
"pit-trial","249","1506667","0.0-146.0","battery-v0.2","","""event"",""trial"",""time""
""fullscreenenter"",""1"",""5056""
","
","
","""event"",""trial"",""time""
""fullscreenenter"",""1"",""5056""
","
","","","-1","","","18","3339","2606","y","elianto","#f73b6a7A"," ","-1","0","-10","[]","0","3","","","3339","141","2","3","lose","go","0"
"pit-trial","250","1511527","0.0-147.0","battery-v0.2","","""event"",""trial"",""time""
""fullscreenenter"",""1"",""5056""
","
","
","""event"",""trial"",""time""
""fullscreenenter"",""1"",""5056""
","
","","","-1","","","18","3339","2606","h","elianto","#f73b6a7A","-1","-1","1","0","[]","0","3","","","3339","142","3","4","lose","no-go","0"
"pit-trial","251","1514828","0.0-148.0","battery-v0.2","","""event"",""trial"",""time""
""fullscreenenter"",""1"",""5056""
","
","
","""event"",""trial"",""time""
""fullscreenenter"",""1"",""5056""
","
","","","440.09999990463257","","","18","3339","2606","r","elianto","#3366ff99","-1"," ","0","0","[1292.0999999046326]","1","3","","","3339","143","1","2","win","no-go","0"
"pit-trial","252","1519692","0.0-149.0","battery-v0.2","","""event"",""trial"",""time""
""fullscreenenter"",""1"",""5056""
","
","
","""event"",""trial"",""time""
""fullscreenenter"",""1"",""5056""
","
","","","-1","","","18","3339","2606","m","elianto","#f73b6a7A"," ","-1","0","-10","[]","0","3","","","3339","144","0","3","lose","go","0"
"pit-trial","253","1524552","0.0-150.0","battery-v0.2","","""event"",""trial"",""time""
""fullscreenenter"",""1"",""5056""
","
","
","""event"",""trial"",""time""
""fullscreenenter"",""1"",""5056""
","
","","","-1","","","18","3339","2606","m","elianto","#f73b6a7A"," ","-1","0","-10","[]","0","3","","","3339","145","0","3","lose","go","0"
"pit-trial","254","1528049","0.0-151.0","battery-v0.2","","""event"",""trial"",""time""
""fullscreenenter"",""1"",""5056""
","
","
","""event"",""trial"",""time""
""fullscreenenter"",""1"",""5056""
","
","","","635.7000000476837","","","18","3339","2606","r","elianto","#3366ff99","-1"," ","0","+10","[1486.7999999523163]","1","3","","","3339","146","1","2","win","no-go","1"
"pit-trial","255","1532912","0.0-152.0","battery-v0.2","","""event"",""trial"",""time""
""fullscreenenter"",""1"",""5056""
","
","
","""event"",""trial"",""time""
""fullscreenenter"",""1"",""5056""
","
","","","-1","","","18","3339","2606","h","elianto","#f73b6a7A","-1","-1","1","0","[]","0","3","","","3339","147","3","4","lose","no-go","0"
"pit-trial","256","1537777","0.0-153.0","battery-v0.2","","""event"",""trial"",""time""
""fullscreenenter"",""1"",""5056""
","
","
","""event"",""trial"",""time""
""fullscreenenter"",""1"",""5056""
","
","","","-1","","","18","3339","2606","y","elianto","#f73b6a7A"," ","-1","0","-10","[]","0","3","","","3339","148","2","3","lose","go","0"
"pit-trial","257","1541176","0.0-154.0","battery-v0.2","","""event"",""trial"",""time""
""fullscreenenter"",""1"",""5056""
","
","
","""event"",""trial"",""time""
""fullscreenenter"",""1"",""5056""
","
","","","539.6000000238419","","","18","3339","2606","r","elianto","#3366ff99","-1"," ","0","+10","[1391.1000000238419]","1","3","","","3339","149","1","2","win","no-go","1"
"pit-trial","258","1546038","0.0-155.0","battery-v0.2","","""event"",""trial"",""time""
""fullscreenenter"",""1"",""5056""
","
","
","""event"",""trial"",""time""
""fullscreenenter"",""1"",""5056""
","
","","","-1","","","18","3339","2606","m","elianto","#f73b6a7A"," ","-1","0","-10","[]","0","3","","","3339","150","0","3","lose","go","0"
"pit-trial","259","1550902","0.0-156.0","battery-v0.2","","""event"",""trial"",""time""
""fullscreenenter"",""1"",""5056""
","
","
","""event"",""trial"",""time""
""fullscreenenter"",""1"",""5056""
","
","","","-1","","","18","3339","2606","h","elianto","#f73b6a7A","-1","-1","1","0","[]","0","3","","","3339","151","3","4","lose","no-go","0"
"pit-trial","260","1555766","0.0-157.0","battery-v0.2","","""event"",""trial"",""time""
""fullscreenenter"",""1"",""5056""
","
","
","""event"",""trial"",""time""
""fullscreenenter"",""1"",""5056""
","
","","","-1","","","18","3339","2606","y","elianto","#f73b6a7A"," ","-1","0","0","[]","0","3","","","3339","152","2","3","lose","go","1"
"pit-trial","261","1560630","0.0-158.0","battery-v0.2","","""event"",""trial"",""time""
""fullscreenenter"",""1"",""5056""
","
","
","""event"",""trial"",""time""
""fullscreenenter"",""1"",""5056""
","
","","","-1","","","18","3339","2606","h","elianto","#f73b6a7A","-1","-1","1","0","[]","0","3","","","3339","153","3","4","lose","no-go","0"
"pit-trial","262","1565494","0.0-159.0","battery-v0.2","","""event"",""trial"",""time""
""fullscreenenter"",""1"",""5056""
","
","
","""event"",""trial"",""time""
""fullscreenenter"",""1"",""5056""
","
","","","-1","","","18","3339","2606","m","elianto","#f73b6a7A"," ","-1","0","0","[]","0","3","","","3339","154","0","3","lose","go","1"
"pit-trial","263","1569217","0.0-160.0","battery-v0.2","","""event"",""trial"",""time""
""fullscreenenter"",""1"",""5056""
","
","
","""event"",""trial"",""time""
""fullscreenenter"",""1"",""5056""
","
","","","859.6000000238419","","","18","3339","2606","r","elianto","#3366ff99","-1"," ","0","0","[1711.3000000715256]","1","3","","","3339","155","1","2","win","no-go","0"
"pit-trial","264","1574081","0.0-161.0","battery-v0.2","","""event"",""trial"",""time""
""fullscreenenter"",""1"",""5056""
","
","
","""event"",""trial"",""time""
""fullscreenenter"",""1"",""5056""
","
","","","-1","","","18","3339","2606","y","elianto","#f73b6a7A"," ","-1","0","-10","[]","0","3","","","3339","156","2","3","lose","go","0"
"pit-trial","265","1578945","0.0-162.0","battery-v0.2","","""event"",""trial"",""time""
""fullscreenenter"",""1"",""5056""
","
","
","""event"",""trial"",""time""
""fullscreenenter"",""1"",""5056""
","
","","","-1","","","18","3339","2606","m","elianto","#f73b6a7A"," ","-1","0","-10","[]","0","3","","","3339","157","0","3","lose","go","0"
"pit-trial","266","1582417","0.0-163.0","battery-v0.2","","""event"",""trial"",""time""
""fullscreenenter"",""1"",""5056""
","
","
","""event"",""trial"",""time""
""fullscreenenter"",""1"",""5056""
","
","","","610","","","18","3339","2606","r","elianto","#3366ff99","-1"," ","0","0","[1462.1000000238419]","1","3","","","3339","158","1","2","win","no-go","0"
"pit-trial","267","1587281","0.0-164.0","battery-v0.2","","""event"",""trial"",""time""
""fullscreenenter"",""1"",""5056""
","
","
","""event"",""trial"",""time""
