"trial_type","trial_index","time_elapsed","internal_node_id","task_version","subject_id","interactions","blur_events","focus_events","fullscreenenter_events","fullscreenexit_events","success","view_history","rt","responses","num_errors","age","subject","participantId","rune","rune_set","hex","correct","choice","accuracy","outcome","keys","total_keys","block","practice","value","sub","trial","stimulus","robot","valence","action","sham"
"pavlovia","0","13","0.0-0.0","battery-v0.2","","""event"",""trial"",""time""
""fullscreenenter"",""1"",""2650""
","
","
","""event"",""trial"",""time""
""fullscreenenter"",""1"",""2650""
","
","","","","","","","","","","","","","","","","","","","","","","","","","","",""
"fullscreen","1","3593","0.0-1.0","battery-v0.2","","""event"",""trial"",""time""
""fullscreenenter"",""1"",""2650""
","
","
","""event"",""trial"",""time""
""fullscreenenter"",""1"",""2650""
","
","true","","","","","","","","","","","","","","","","","","","","","","","","","",""
"pit-instructions","2","8697","0.0-2.0-0.0","battery-v0.2","","""event"",""trial"",""time""
""fullscreenenter"",""1"",""2650""
","
","
","""event"",""trial"",""time""
""fullscreenenter"",""1"",""2650""
","
","","[{""page_index"":0,""viewing_time"":5099.5}]","5101","","","","","","","","","","","","","","","","","","","","","","","",""
"pit-comprehension","3","12693","0.0-2.0-1.0-0.0","battery-v0.2","","""event"",""trial"",""time""
""fullscreenenter"",""1"",""2650""
","
","
","""event"",""trial"",""time""
""fullscreenenter"",""1"",""2650""
","
","","","3988.7999999970198","[""shark""]","0","20","5302","293","","","","","","","","","","","","","","","","","","",""
"pit-instructions","4","17468","0.0-2.0-1.0-1.0","battery-v0.2","","""event"",""trial"",""time""
""fullscreenenter"",""1"",""2650""
","
","
","""event"",""trial"",""time""
""fullscreenenter"",""1"",""2650""
","
","","[{""page_index"":0,""viewing_time"":4751.30000000447}]","4751.89999999851","","","","","","","","","","","","","","","","","","","","","","","",""
"pit-comprehension","5","20144","0.0-2.0-2.0-0.0","battery-v0.2","","""event"",""trial"",""time""
""fullscreenenter"",""1"",""2650""
","
","
","""event"",""trial"",""time""
""fullscreenenter"",""1"",""2650""
","
","","","2666.2000000029802","[""tiger""]","0","20","5302","293","","","","","","","","","","","","","","","","","","",""
"pit-instructions","6","20967","0.0-2.0-2.0-1.0","battery-v0.2","","""event"",""trial"",""time""
""fullscreenenter"",""1"",""2650""
","
","
","""event"",""trial"",""time""
""fullscreenenter"",""1"",""2650""
","
","","[{""page_index"":0,""viewing_time"":813.6000000014901}]","814.2999999970198","","","","","","","","","","","","","","","","","","","","","","","",""
"pit-instructions","7","118627","0.0-2.0-3.0","battery-v0.2","","""event"",""trial"",""time""
""fullscreenenter"",""1"",""2650""
","
","
","""event"",""trial"",""time""
""fullscreenenter"",""1"",""2650""
","
","","[{""page_index"":0,""viewing_time"":7737.30000000447},{""page_index"":1,""viewing_time"":6594.60000000149},{""page_index"":2,""viewing_time"":6020.89999999851},{""page_index"":3,""viewing_time"":6822},{""page_index"":4,""viewing_time"":6649.5},{""page_index"":5,""viewing_time"":6029.19999999553},{""page_index"":6,""viewing_time"":7273.80000000447},{""page_index"":7,""viewing_time"":6675.5},{""page_index"":8,""viewing_time"":7675.29999999702},{""page_index"":9,""viewing_time"":8218},{""page_index"":10,""viewing_time"":8186.60000000149},{""page_index"":11,""viewing_time"":8072.29999999702},{""page_index"":12,""viewing_time"":6562.4000000059605},{""page_index"":13,""viewing_time"":5175.0999999940395}]","97693.30000000447","","","","","","","","","","","","","","","","","","","","","","","",""
"pit-trial","8","122178","0.0-2.0-4.0-0.0","battery-v0.2","","""event"",""trial"",""time""
""fullscreenenter"",""1"",""2650""
","
","
","""event"",""trial"",""time""
""fullscreenenter"",""1"",""2650""
","
","","","677.5","","","20","5302","293","&#9784;","elianto","#FFFFF080"," "," ","1","&#10004","[1531.5]","1","0","0","","","","","","","",""
"pit-trial","9","125782","0.0-2.0-4.1-0.1","battery-v0.2","","""event"",""trial"",""time""
""fullscreenenter"",""1"",""2650""
","
","
","""event"",""trial"",""time""
""fullscreenenter"",""1"",""2650""
","
","","","734.1000000014901","","","20","5302","293","&#9784;","elianto","#FFFFF080"," "," ","1","&#10004","[1587.7999999970198]","1","0","0","","","","","","","",""
"pit-trial","10","129240","0.0-2.0-4.2-0.2","battery-v0.2","","""event"",""trial"",""time""
""fullscreenenter"",""1"",""2650""
","
","
","""event"",""trial"",""time""
""fullscreenenter"",""1"",""2650""
","
","","","596","","","20","5302","293","&#9784;","elianto","#FFFFF080"," "," ","1","&#10004","[1446.2999999970198]","1","0","0","","","","","","","",""
"pit-trial","11","132623","0.0-2.0-4.3-0.3","battery-v0.2","","""event"",""trial"",""time""
""fullscreenenter"",""1"",""2650""
","
","
","""event"",""trial"",""time""
""fullscreenenter"",""1"",""2650""
","
","","","519","","","20","5302","293","&#9784;","elianto","#FFFFF080"," "," ","1","&#10004","[1369.5]","1","0","0","","","","","","","",""
"pit-trial","12","136260","0.0-2.0-4.4-0.4","battery-v0.2","","""event"",""trial"",""time""
""fullscreenenter"",""1"",""2650""
","
","
","""event"",""trial"",""time""
""fullscreenenter"",""1"",""2650""
","
","","","772.6000000014901","","","20","5302","293","&#9784;","elianto","#FFFFF080"," "," ","1","&#10004","[1622.8999999985099]","1","0","0","","","","","","","",""
"pit-instructions","13","156503","0.0-2.0-5.0","battery-v0.2","","""event"",""trial"",""time""
""fullscreenenter"",""1"",""2650""
","
","
","""event"",""trial"",""time""
""fullscreenenter"",""1"",""2650""
","
","","[{""page_index"":0,""viewing_time"":5184.69999999553},{""page_index"":1,""viewing_time"":5033.30000000447},{""page_index"":2,""viewing_time"":4949.39999999851},{""page_index"":3,""viewing_time"":5069.19999999553}]","20237.39999999851","","","","","","","","","","","","","","","","","","","","","","","",""
"pit-trial","14","161374","0.0-2.0-6.0-0.0","battery-v0.2","","""event"",""trial"",""time""
""fullscreenenter"",""1"",""2650""
","
","
","""event"",""trial"",""time""
""fullscreenenter"",""1"",""2650""
","
","","","-1","","","20","5302","293","&#9854;","elianto","#FFFFF080","-1","-1","1","&#10004","[]","0","0","1","","","","","","","",""
"pit-trial","15","166253","0.0-2.0-6.1-0.1","battery-v0.2","","""event"",""trial"",""time""
""fullscreenenter"",""1"",""2650""
","
","
","""event"",""trial"",""time""
""fullscreenenter"",""1"",""2650""
","
","","","-1","","","20","5302","293","&#9854;","elianto","#FFFFF080","-1","-1","1","&#10004","[]","0","0","1","","","","","","","",""
"pit-trial","16","171120","0.0-2.0-6.2-0.2","battery-v0.2","","""event"",""trial"",""time""
""fullscreenenter"",""1"",""2650""
","
","
","""event"",""trial"",""time""
""fullscreenenter"",""1"",""2650""
","
","","","-1","","","20","5302","293","&#9854;","elianto","#FFFFF080","-1","-1","1","&#10004","[]","0","0","1","","","","","","","",""
"pit-trial","17","175987","0.0-2.0-6.3-0.3","battery-v0.2","","""event"",""trial"",""time""
""fullscreenenter"",""1"",""2650""
","
","
","""event"",""trial"",""time""
""fullscreenenter"",""1"",""2650""
","
","","","-1","","","20","5302","293","&#9854;","elianto","#FFFFF080","-1","-1","1","&#10004","[]","0","0","1","","","","","","","",""
"pit-trial","18","180858","0.0-2.0-6.4-0.4","battery-v0.2","","""event"",""trial"",""time""
""fullscreenenter"",""1"",""2650""
","
","
","""event"",""trial"",""time""
""fullscreenenter"",""1"",""2650""
","
","","","-1","","","20","5302","293","&#9854;","elianto","#FFFFF080","-1","-1","1","&#10004","[]","0","0","1","","","","","","","",""
"pit-instructions","19","298015","0.0-2.0-7.0","battery-v0.2","","""event"",""trial"",""time""
""fullscreenenter"",""1"",""2650""
","
","
","""event"",""trial"",""time""
""fullscreenenter"",""1"",""2650""
","
","","[{""page_index"":0,""viewing_time"":5784.80000000447},{""page_index"":1,""viewing_time"":6669.19999999553},{""page_index"":2,""viewing_time"":5843.60000000149},{""page_index"":3,""viewing_time"":8485.10000000149},{""page_index"":4,""viewing_time"":5340.10000000149},{""page_index"":5,""viewing_time"":6331.60000000149},{""page_index"":6,""viewing_time"":4889},{""page_index"":7,""viewing_time"":7897.19999999553},{""page_index"":8,""viewing_time"":6489},{""page_index"":9,""viewing_time"":5566},{""page_index"":10,""viewing_time"":6230.10000000149},{""page_index"":11,""viewing_time"":5037.70000000298},{""page_index"":12,""viewing_time"":8271.09999999404},{""page_index"":13,""viewing_time"":7537.30000000447},{""page_index"":14,""viewing_time"":6844.39999999851},{""page_index"":15,""viewing_time"":6286.89999999851},{""page_index"":16,""viewing_time"":6142},{""page_index"":17,""viewing_time"":7510.60000000149}]","117156.90000000596","","","","","","","","","","","","","","","","","","","","","","","",""
"pit-trial","20","301585","0.0-2.0-8.0-0.0","battery-v0.2","","""event"",""trial"",""time""
""fullscreenenter"",""1"",""2650""
","
","
","""event"",""trial"",""time""
""fullscreenenter"",""1"",""2650""
","
","","","709.0999999940395","","","20","5302","293","&#9776;","elianto","#3366ff99"," "," ","1","+10","[1561.3000000044703]","1","0","1","","","","","","","",""
"pit-trial","21","305068","0.0-2.0-8.0-1.0","battery-v0.2","","""event"",""trial"",""time""
""fullscreenenter"",""1"",""2650""
","
","
","""event"",""trial"",""time""
""fullscreenenter"",""1"",""2650""
","
","","","617.8999999985099","","","20","5302","293","&#9776;","elianto","#3366ff99"," "," ","1","+10","[1468.0999999940395]","1","0","1","","","","","","","",""
"pit-trial","22","308385","0.0-2.0-8.0-2.0","battery-v0.2","","""event"",""trial"",""time""
""fullscreenenter"",""1"",""2650""
","
","
","""event"",""trial"",""time""
""fullscreenenter"",""1"",""2650""
","
","","","457.1000000014901","","","20","5302","293","&#9776;","elianto","#3366ff99"," "," ","1","+10","[1308.1999999955297]","1","0","1","","","","","","","",""
"pit-trial","23","311713","0.0-2.0-8.0-3.0","battery-v0.2","","""event"",""trial"",""time""
""fullscreenenter"",""1"",""2650""
","
","
","""event"",""trial"",""time""
""fullscreenenter"",""1"",""2650""
","
","","","463.80000000447035","","","20","5302","293","&#9776;","elianto","#3366ff99"," "," ","1","0","[1315.8999999985099]","1","0","1","","","","","","","",""
"pit-trial","24","315062","0.0-2.0-8.0-4.0","battery-v0.2","","""event"",""trial"",""time""
""fullscreenenter"",""1"",""2650""
","
","
","""event"",""trial"",""time""
""fullscreenenter"",""1"",""2650""
","
","","","482.20000000298023","","","20","5302","293","&#9776;","elianto","#3366ff99"," "," ","1","+10","[1332.3000000044703]","1","0","1","","","","","","","",""
"pit-trial","25","318347","0.0-2.0-8.1-0.1","battery-v0.2","","""event"",""trial"",""time""
""fullscreenenter"",""1"",""2650""
","
","
","""event"",""trial"",""time""
""fullscreenenter"",""1"",""2650""
","
","","","421.3999999985099","","","20","5302","293","&#9776;","elianto","#3366ff99"," "," ","1","+10","[1273.3000000044703]","1","0","1","","","","","","","",""
"pit-trial","26","321707","0.0-2.0-8.1-1.1","battery-v0.2","","""event"",""trial"",""time""
""fullscreenenter"",""1"",""2650""
","
","
","""event"",""trial"",""time""
""fullscreenenter"",""1"",""2650""
","
","","","492.1000000014901","","","20","5302","293","&#9776;","elianto","#3366ff99"," "," ","1","+10","[1349.1000000014901]","1","0","1","","","","","","","",""
"pit-trial","27","324952","0.0-2.0-8.1-2.1","battery-v0.2","","""event"",""trial"",""time""
""fullscreenenter"",""1"",""2650""
","
","
","""event"",""trial"",""time""
""fullscreenenter"",""1"",""2650""
","
","","","381.1000000014901","","","20","5302","293","&#9776;","elianto","#3366ff99"," "," ","1","+10","[1233.5]","1","0","1","","","","","","","",""
"pit-trial","28","327993","0.0-2.0-8.1-3.1","battery-v0.2","","""event"",""trial"",""time""
""fullscreenenter"",""1"",""2650""
","
","
","""event"",""trial"",""time""
""fullscreenenter"",""1"",""2650""
","
","","","178.30000000447035","","","20","5302","293","&#9776;","elianto","#3366ff99"," "," ","1","0","[1029.6000000014901]","1","0","1","","","","","","","",""
"pit-trial","29","330986","0.0-2.0-8.1-4.1","battery-v0.2","","""event"",""trial"",""time""
""fullscreenenter"",""1"",""2650""
","
","
","""event"",""trial"",""time""
""fullscreenenter"",""1"",""2650""
","
","","","135.20000000298023","","","20","5302","293","&#9776;","elianto","#3366ff99"," "," ","1","+10","[985.8000000044703]","1","0","1","","","","","","","",""
"pit-trial","30","333968","0.0-2.0-8.2-0.2","battery-v0.2","","""event"",""trial"",""time""
""fullscreenenter"",""1"",""2650""
","
","
","""event"",""trial"",""time""
""fullscreenenter"",""1"",""2650""
","
","","","117.80000000447035","","","20","5302","293","&#9776;","elianto","#3366ff99"," "," ","1","+10","[974.1000000014901]","1","0","1","","","","","","","",""
"pit-trial","31","337370","0.0-2.0-8.2-1.2","battery-v0.2","","""event"",""trial"",""time""
""fullscreenenter"",""1"",""2650""
","
","
","""event"",""trial"",""time""
""fullscreenenter"",""1"",""2650""
","
","","","538","","","20","5302","293","&#9776;","elianto","#3366ff99"," "," ","1","+10","[1389.1999999955297]","1","0","1","","","","","","","",""
"pit-trial","32","340431","0.0-2.0-8.2-2.2","battery-v0.2","","""event"",""trial"",""time""
""fullscreenenter"",""1"",""2650""
","
","
","""event"",""trial"",""time""
""fullscreenenter"",""1"",""2650""
","
","","","190.5","","","20","5302","293","&#9776;","elianto","#3366ff99"," "," ","1","+10","[1047.8999999985099]","1","0","1","","","","","","","",""
"pit-trial","33","343482","0.0-2.0-8.2-3.2","battery-v0.2","","""event"",""trial"",""time""
""fullscreenenter"",""1"",""2650""
","
","
","""event"",""trial"",""time""
""fullscreenenter"",""1"",""2650""
","
","","","185.89999999850988","","","20","5302","293","&#9776;","elianto","#3366ff99"," "," ","1","0","[1036.8999999985099]","1","0","1","","","","","","","",""
"pit-trial","34","346447","0.0-2.0-8.2-4.2","battery-v0.2","","""event"",""trial"",""time""
""fullscreenenter"",""1"",""2650""
","
","
","""event"",""trial"",""time""
""fullscreenenter"",""1"",""2650""
","
","","","100.10000000149012","","","20","5302","293","&#9776;","elianto","#3366ff99"," "," ","1","+10","[957.7999999970198]","1","0","1","","","","","","","",""
"call-function","35","346452","0.0-2.0-9.0","battery-v0.2","","""event"",""trial"",""time""
""fullscreenenter"",""1"",""2650""
","
","
","""event"",""trial"",""time""
""fullscreenenter"",""1"",""2650""
","
","","","","","","","","","","","","","","","","","","","","","","","","","","",""
"pit-instructions","36","384774","0.0-2.0-10.0","battery-v0.2","","""event"",""trial"",""time""
""fullscreenenter"",""1"",""2650""
","
","
","""event"",""trial"",""time""
""fullscreenenter"",""1"",""2650""
","
","","[{""page_index"":0,""viewing_time"":5572.19999999553},{""page_index"":1,""viewing_time"":6813.80000000447},{""page_index"":2,""viewing_time"":9112.69999999553},{""page_index"":3,""viewing_time"":9258.30000000447},{""page_index"":4,""viewing_time"":7565.19999999553}]","38323","","","","","","","","","","","","","","","","","","","","","","","",""
"pit-trial","37","389651","0.0-2.0-11.0-0.0","battery-v0.2","","""event"",""trial"",""time""
""fullscreenenter"",""1"",""2650""
","
","
","""event"",""trial"",""time""
""fullscreenenter"",""1"",""2650""
","
","","","-1","","","20","5302","293","&#9761;","elianto","#3366ff99","-1","-1","1","+10","[]","0","0","2","","","","","","","",""
"pit-trial","38","394516","0.0-2.0-11.0-1.0","battery-v0.2","","""event"",""trial"",""time""
""fullscreenenter"",""1"",""2650""
","
","
","""event"",""trial"",""time""
""fullscreenenter"",""1"",""2650""
","
","","","-1","","","20","5302","293","&#9761;","elianto","#3366ff99","-1","-1","1","+10","[]","0","0","2","","","","","","","",""
"pit-trial","39","399382","0.0-2.0-11.0-2.0","battery-v0.2","","""event"",""trial"",""time""
""fullscreenenter"",""1"",""2650""
","
","
","""event"",""trial"",""time""
""fullscreenenter"",""1"",""2650""
","
","","","-1","","","20","5302","293","&#9761;","elianto","#3366ff99","-1","-1","1","+10","[]","0","0","2","","","","","","","",""
"pit-trial","40","404253","0.0-2.0-11.0-3.0","battery-v0.2","","""event"",""trial"",""time""
""fullscreenenter"",""1"",""2650""
","
","
","""event"",""trial"",""time""
""fullscreenenter"",""1"",""2650""
","
","","","-1","","","20","5302","293","&#9761;","elianto","#3366ff99","-1","-1","1","0","[]","0","0","2","","","","","","","",""
"pit-trial","41","409125","0.0-2.0-11.0-4.0","battery-v0.2","","""event"",""trial"",""time""
""fullscreenenter"",""1"",""2650""
","
","
","""event"",""trial"",""time""
""fullscreenenter"",""1"",""2650""
","
","","","-1","","","20","5302","293","&#9761;","elianto","#3366ff99","-1","-1","1","+10","[]","0","0","2","","","","","","","",""
"pit-trial","42","413999","0.0-2.0-11.1-0.1","battery-v0.2","","""event"",""trial"",""time""
""fullscreenenter"",""1"",""2650""
","
","
","""event"",""trial"",""time""
""fullscreenenter"",""1"",""2650""
","
","","","-1","","","20","5302","293","&#9761;","elianto","#3366ff99","-1","-1","1","+10","[]","0","0","2","","","","","","","",""
"pit-trial","43","418870","0.0-2.0-11.1-1.1","battery-v0.2","","""event"",""trial"",""time""
""fullscreenenter"",""1"",""2650""
","
","
","""event"",""trial"",""time""
""fullscreenenter"",""1"",""2650""
","
","","","-1","","","20","5302","293","&#9761;","elianto","#3366ff99","-1","-1","1","+10","[]","0","0","2","","","","","","","",""
"pit-trial","44","423739","0.0-2.0-11.1-2.1","battery-v0.2","","""event"",""trial"",""time""
""fullscreenenter"",""1"",""2650""
","
","
","""event"",""trial"",""time""
""fullscreenenter"",""1"",""2650""
","
","","","-1","","","20","5302","293","&#9761;","elianto","#3366ff99","-1","-1","1","+10","[]","0","0","2","","","","","","","",""
"pit-trial","45","428603","0.0-2.0-11.1-3.1","battery-v0.2","","""event"",""trial"",""time""
""fullscreenenter"",""1"",""2650""
","
","
","""event"",""trial"",""time""
""fullscreenenter"",""1"",""2650""
","
","","","-1","","","20","5302","293","&#9761;","elianto","#3366ff99","-1","-1","1","0","[]","0","0","2","","","","","","","",""
"pit-trial","46","433467","0.0-2.0-11.1-4.1","battery-v0.2","","""event"",""trial"",""time""
""fullscreenenter"",""1"",""2650""
","
","
","""event"",""trial"",""time""
""fullscreenenter"",""1"",""2650""
","
","","","-1","","","20","5302","293","&#9761;","elianto","#3366ff99","-1","-1","1","+10","[]","0","0","2","","","","","","","",""
"pit-trial","47","438341","0.0-2.0-11.2-0.2","battery-v0.2","","""event"",""trial"",""time""
""fullscreenenter"",""1"",""2650""
","
","
","""event"",""trial"",""time""
""fullscreenenter"",""1"",""2650""
","
","","","-1","","","20","5302","293","&#9761;","elianto","#3366ff99","-1","-1","1","+10","[]","0","0","2","","","","","","","",""
"pit-trial","48","443210","0.0-2.0-11.2-1.2","battery-v0.2","","""event"",""trial"",""time""
""fullscreenenter"",""1"",""2650""
","
","
","""event"",""trial"",""time""
""fullscreenenter"",""1"",""2650""
","
","","","-1","","","20","5302","293","&#9761;","elianto","#3366ff99","-1","-1","1","+10","[]","0","0","2","","","","","","","",""
"pit-trial","49","447178","0.0-2.0-11.2-2.2","battery-v0.2","","""event"",""trial"",""time""
""fullscreenenter"",""1"",""2650""
","
","
","""event"",""trial"",""time""
""fullscreenenter"",""1"",""2650""
","
","","","1106.3999999985099","","","20","5302","293","&#9761;","elianto","#3366ff99","-1"," ","0","0","[1957.8999999985099]","1","0","2","","","","","","","",""
"pit-trial","50","452042","0.0-2.0-11.2-3.2","battery-v0.2","","""event"",""trial"",""time""
""fullscreenenter"",""1"",""2650""
","
","
","""event"",""trial"",""time""
""fullscreenenter"",""1"",""2650""
","
","","","-1","","","20","5302","293","&#9761;","elianto","#3366ff99","-1","-1","1","0","[]","0","0","2","","","","","","","",""
"pit-trial","51","456906","0.0-2.0-11.2-4.2","battery-v0.2","","""event"",""trial"",""time""
""fullscreenenter"",""1"",""2650""
","
","
","""event"",""trial"",""time""
""fullscreenenter"",""1"",""2650""
","
","","","-1","","","20","5302","293","&#9761;","elianto","#3366ff99","-1","-1","1","+10","[]","0","0","2","","","","","","","",""
"pit-trial","52","461789","0.0-2.0-11.3-0.3","battery-v0.2","","""event"",""trial"",""time""
""fullscreenenter"",""1"",""2650""
","
","
","""event"",""trial"",""time""
""fullscreenenter"",""1"",""2650""
","
","","","-1","","","20","5302","293","&#9761;","elianto","#3366ff99","-1","-1","1","+10","[]","0","0","2","","","","","","","",""
"pit-trial","53","466665","0.0-2.0-11.3-1.3","battery-v0.2","","""event"",""trial"",""time""
""fullscreenenter"",""1"",""2650""
","
","
","""event"",""trial"",""time""
""fullscreenenter"",""1"",""2650""
","
","","","-1","","","20","5302","293","&#9761;","elianto","#3366ff99","-1","-1","1","+10","[]","0","0","2","","","","","","","",""
"pit-trial","54","471529","0.0-2.0-11.3-2.3","battery-v0.2","","""event"",""trial"",""time""
""fullscreenenter"",""1"",""2650""
","
","
","""event"",""trial"",""time""
""fullscreenenter"",""1"",""2650""
","
","","","-1","","","20","5302","293","&#9761;","elianto","#3366ff99","-1","-1","1","+10","[]","0","0","2","","","","","","","",""
"pit-trial","55","476403","0.0-2.0-11.3-3.3","battery-v0.2","","""event"",""trial"",""time""
""fullscreenenter"",""1"",""2650""
","
","
","""event"",""trial"",""time""
""fullscreenenter"",""1"",""2650""
","
","","","-1","","","20","5302","293","&#9761;","elianto","#3366ff99","-1","-1","1","0","[]","0","0","2","","","","","","","",""
"pit-trial","56","481266","0.0-2.0-11.3-4.3","battery-v0.2","","""event"",""trial"",""time""
""fullscreenenter"",""1"",""2650""
","
","
","""event"",""trial"",""time""
""fullscreenenter"",""1"",""2650""
","
","","","-1","","","20","5302","293","&#9761;","elianto","#3366ff99","-1","-1","1","+10","[]","0","0","2","","","","","","","",""
"call-function","57","481270","0.0-2.0-12.0","battery-v0.2","","""event"",""trial"",""time""
""fullscreenenter"",""1"",""2650""
","
","
","""event"",""trial"",""time""
""fullscreenenter"",""1"",""2650""
","
","","","","","","","","","","","","","","","","","","","","","","","","","","",""
"pit-instructions","58","513233","0.0-2.0-13.0","battery-v0.2","","""event"",""trial"",""time""
""fullscreenenter"",""1"",""2650""
","
","
","""event"",""trial"",""time""
""fullscreenenter"",""1"",""2650""
","
","","[{""page_index"":0,""viewing_time"":6411.5},{""page_index"":1,""viewing_time"":6945.70000000298},{""page_index"":2,""viewing_time"":3064.10000000149},{""page_index"":3,""viewing_time"":10724.5},{""page_index"":4,""viewing_time"":4816.29999999702}]","31963.5","","","","","","","","","","","","","","","","","","","","","","","",""
"pit-trial","59","518105","0.0-2.0-14.0-0.0","battery-v0.2","","""event"",""trial"",""time""
""fullscreenenter"",""1"",""2650""
","
","
","""event"",""trial"",""time""
""fullscreenenter"",""1"",""2650""
","
","","","-1","","","20","5302","293","&#9826;","elianto","#f73b6a7A","-1","-1","1","0","[]","0","0","3","","","","","","","",""
"pit-trial","60","522974","0.0-2.0-14.0-1.0","battery-v0.2","","""event"",""trial"",""time""
""fullscreenenter"",""1"",""2650""
","
","
","""event"",""trial"",""time""
""fullscreenenter"",""1"",""2650""
","
","","","-1","","","20","5302","293","&#9826;","elianto","#f73b6a7A","-1","-1","1","0","[]","0","0","3","","","","","","","",""
"pit-trial","61","527838","0.0-2.0-14.0-2.0","battery-v0.2","","""event"",""trial"",""time""
""fullscreenenter"",""1"",""2650""
","
","
","""event"",""trial"",""time""
""fullscreenenter"",""1"",""2650""
","
","","","-1","","","20","5302","293","&#9826;","elianto","#f73b6a7A","-1","-1","1","0","[]","0","0","3","","","","","","","",""
"pit-trial","62","532701","0.0-2.0-14.0-3.0","battery-v0.2","","""event"",""trial"",""time""
""fullscreenenter"",""1"",""2650""
","
","
","""event"",""trial"",""time""
""fullscreenenter"",""1"",""2650""
","
","","","-1","","","20","5302","293","&#9826;","elianto","#f73b6a7A","-1","-1","1","-10","[]","0","0","3","","","","","","","",""
"pit-trial","63","537565","0.0-2.0-14.0-4.0","battery-v0.2","","""event"",""trial"",""time""
""fullscreenenter"",""1"",""2650""
","
","
","""event"",""trial"",""time""
""fullscreenenter"",""1"",""2650""
","
","","","-1","","","20","5302","293","&#9826;","elianto","#f73b6a7A","-1","-1","1","0","[]","0","0","3","","","","","","","",""
"pit-trial","64","542440","0.0-2.0-14.1-0.1","battery-v0.2","","""event"",""trial"",""time""
""fullscreenenter"",""1"",""2650""
","
","
","""event"",""trial"",""time""
""fullscreenenter"",""1"",""2650""
","
","","","-1","","","20","5302","293","&#9826;","elianto","#f73b6a7A","-1","-1","1","0","[]","0","0","3","","","","","","","",""
"pit-trial","65","547309","0.0-2.0-14.1-1.1","battery-v0.2","","""event"",""trial"",""time""
""fullscreenenter"",""1"",""2650""
","
","
","""event"",""trial"",""time""
""fullscreenenter"",""1"",""2650""
","
","","","-1","","","20","5302","293","&#9826;","elianto","#f73b6a7A","-1","-1","1","0","[]","0","0","3","","","","","","","",""
"pit-trial","66","552184","0.0-2.0-14.1-2.1","battery-v0.2","","""event"",""trial"",""time""
""fullscreenenter"",""1"",""2650""
","
","
","""event"",""trial"",""time""
""fullscreenenter"",""1"",""2650""
","
","","","-1","","","20","5302","293","&#9826;","elianto","#f73b6a7A","-1","-1","1","0","[]","0","0","3","","","","","","","",""
"pit-trial","67","557053","0.0-2.0-14.1-3.1","battery-v0.2","","""event"",""trial"",""time""
""fullscreenenter"",""1"",""2650""
","
","
","""event"",""trial"",""time""
""fullscreenenter"",""1"",""2650""
","
","","","-1","","","20","5302","293","&#9826;","elianto","#f73b6a7A","-1","-1","1","-10","[]","0","0","3","","","","","","","",""
"pit-trial","68","561927","0.0-2.0-14.1-4.1","battery-v0.2","","""event"",""trial"",""time""
""fullscreenenter"",""1"",""2650""
","
","
","""event"",""trial"",""time""
""fullscreenenter"",""1"",""2650""
","
","","","-1","","","20","5302","293","&#9826;","elianto","#f73b6a7A","-1","-1","1","0","[]","0","0","3","","","","","","","",""
"pit-trial","69","566796","0.0-2.0-14.2-0.2","battery-v0.2","","""event"",""trial"",""time""
""fullscreenenter"",""1"",""2650""
","
","
","""event"",""trial"",""time""
""fullscreenenter"",""1"",""2650""
","
","","","-1","","","20","5302","293","&#9826;","elianto","#f73b6a7A","-1","-1","1","0","[]","0","0","3","","","","","","","",""
"pit-trial","70","571079","0.0-2.0-14.2-1.2","battery-v0.2","","""event"",""trial"",""time""
""fullscreenenter"",""1"",""2650""
","
","
","""event"",""trial"",""time""
""fullscreenenter"",""1"",""2650""
","
","","","1408.8999999985099","","","20","5302","293","&#9826;","elianto","#f73b6a7A","-1"," ","0","-10","[2265.89999999851]","1","0","3","","","","","","","",""
"pit-trial","71","574524","0.0-2.0-14.2-2.2","battery-v0.2","","""event"",""trial"",""time""
""fullscreenenter"",""1"",""2650""
","
","
","""event"",""trial"",""time""
""fullscreenenter"",""1"",""2650""
","
","","","576.8999999985099","","","20","5302","293","&#9826;","elianto","#f73b6a7A","-1"," ","0","-10","[1433.1999999955297]","1","0","3","","","","","","","",""
"pit-trial","72","577846","0.0-2.0-14.2-3.2","battery-v0.2","","""event"",""trial"",""time""
""fullscreenenter"",""1"",""2650""
","
","
","""event"",""trial"",""time""
""fullscreenenter"",""1"",""2650""
","
","","","453.1000000014901","","","20","5302","293","&#9826;","elianto","#f73b6a7A","-1"," ","0","0","[1312.2999999970198]","1","0","3","","","","","","","",""
"pit-trial","73","582715","0.0-2.0-14.2-4.2","battery-v0.2","","""event"",""trial"",""time""
""fullscreenenter"",""1"",""2650""
","
","
","""event"",""trial"",""time""
""fullscreenenter"",""1"",""2650""
","
","","","-1","","","20","5302","293","&#9826;","elianto","#f73b6a7A","-1","-1","1","0","[]","0","0","3","","","","","","","",""
"pit-trial","74","587589","0.0-2.0-14.3-0.3","battery-v0.2","","""event"",""trial"",""time""
""fullscreenenter"",""1"",""2650""
","
","
","""event"",""trial"",""time""
""fullscreenenter"",""1"",""2650""
","
","","","-1","","","20","5302","293","&#9826;","elianto","#f73b6a7A","-1","-1","1","0","[]","0","0","3","","","","","","","",""
"pit-trial","75","592462","0.0-2.0-14.3-1.3","battery-v0.2","","""event"",""trial"",""time""
""fullscreenenter"",""1"",""2650""
","
","
","""event"",""trial"",""time""
""fullscreenenter"",""1"",""2650""
","
","","","-1","","","20","5302","293","&#9826;","elianto","#f73b6a7A","-1","-1","1","0","[]","0","0","3","","","","","","","",""
"pit-trial","76","597334","0.0-2.0-14.3-2.3","battery-v0.2","","""event"",""trial"",""time""
""fullscreenenter"",""1"",""2650""
","
","
","""event"",""trial"",""time""
""fullscreenenter"",""1"",""2650""
","
","","","-1","","","20","5302","293","&#9826;","elianto","#f73b6a7A","-1","-1","1","0","[]","0","0","3","","","","","","","",""
"pit-trial","77","602021","0.0-2.0-14.3-3.3","battery-v0.2","","""event"",""trial"",""time""
""fullscreenenter"",""1"",""2650""
","
","
","""event"",""trial"",""time""
""fullscreenenter"",""1"",""2650""
","
","","","1819.8999999985099","","","20","5302","293","&#9826;","elianto","#f73b6a7A","-1"," ","0","0","[2674.60000000149]","1","0","3","","","","","","","",""
"pit-trial","78","606890","0.0-2.0-14.3-4.3","battery-v0.2","","""event"",""trial"",""time""
""fullscreenenter"",""1"",""2650""
","
","
","""event"",""trial"",""time""
""fullscreenenter"",""1"",""2650""
","
","","","-1","","","20","5302","293","&#9826;","elianto","#f73b6a7A","-1","-1","1","0","[]","0","0","3","","","","","","","",""
"call-function","79","606894","0.0-2.0-15.0","battery-v0.2","","""event"",""trial"",""time""
""fullscreenenter"",""1"",""2650""
","
","
","""event"",""trial"",""time""
""fullscreenenter"",""1"",""2650""
","
","","","","","","","","","","","","","","","","","","","","","","","","","","",""
"pit-instructions","80","633000","0.0-2.0-16.0","battery-v0.2","","""event"",""trial"",""time""
""fullscreenenter"",""1"",""2650""
","
","
","""event"",""trial"",""time""
""fullscreenenter"",""1"",""2650""
","
","","[{""page_index"":0,""viewing_time"":6619.29999999702},{""page_index"":1,""viewing_time"":9220.70000000298},{""page_index"":2,""viewing_time"":5333.29999999702},{""page_index"":3,""viewing_time"":4931.29999999702}]","26105.59999999404","","","","","","","","","","","","","","","","","","","","","","","",""
"pit-trial","81","636263","0.0-2.0-17.0-0.0","battery-v0.2","","""event"",""trial"",""time""
""fullscreenenter"",""1"",""2650""
","
","
","""event"",""trial"",""time""
""fullscreenenter"",""1"",""2650""
","
","","","403.79999999701977","","","20","5302","293","&#9789;","elianto","#f73b6a7A"," "," ","1","0","[1256.6999999955297]","1","0","4","","","","","","","",""
"pit-trial","82","639498","0.0-2.0-17.0-1.0","battery-v0.2","","""event"",""trial"",""time""
""fullscreenenter"",""1"",""2650""
","
","
","""event"",""trial"",""time""
""fullscreenenter"",""1"",""2650""
","
","","","368.90000000596046","","","20","5302","293","&#9789;","elianto","#f73b6a7A"," "," ","1","0","[1219.5]","1","0","4","","","","","","","",""
"pit-trial","83","642593","0.0-2.0-17.0-2.0","battery-v0.2","","""event"",""trial"",""time""
""fullscreenenter"",""1"",""2650""
","
","
","""event"",""trial"",""time""
""fullscreenenter"",""1"",""2650""
","
","","","234.10000000149012","","","20","5302","293","&#9789;","elianto","#f73b6a7A"," "," ","1","0","[1086.2999999970198]","1","0","4","","","","","","","",""
"pit-trial","84","645776","0.0-2.0-17.0-3.0","battery-v0.2","","""event"",""trial"",""time""
""fullscreenenter"",""1"",""2650""
","
","
","""event"",""trial"",""time""
""fullscreenenter"",""1"",""2650""
","
","","","318.40000000596046","","","20","5302","293","&#9789;","elianto","#f73b6a7A"," "," ","1","-10","[1173.8000000044703]","1","0","4","","","","","","","",""
"pit-trial","85","649057","0.0-2.0-17.0-4.0","battery-v0.2","","""event"",""trial"",""time""
""fullscreenenter"",""1"",""2650""
","
","
","""event"",""trial"",""time""
""fullscreenenter"",""1"",""2650""
","
","","","417.3999999985099","","","20","5302","293","&#9789;","elianto","#f73b6a7A"," "," ","1","0","[1268.5]","1","0","4","","","","","","","",""
"pit-trial","86","652230","0.0-2.0-17.1-0.1","battery-v0.2","","""event"",""trial"",""time""
""fullscreenenter"",""1"",""2650""
","
","
","""event"",""trial"",""time""
""fullscreenenter"",""1"",""2650""
","
","","","309.6000000014901","","","20","5302","293","&#9789;","elianto","#f73b6a7A"," "," ","1","0","[1166.2999999970198]","1","0","4","","","","","","","",""
"pit-trial","87","655408","0.0-2.0-17.1-1.1","battery-v0.2","","""event"",""trial"",""time""
""fullscreenenter"",""1"",""2650""
","
","
","""event"",""trial"",""time""
""fullscreenenter"",""1"",""2650""
","
","","","310","","","20","5302","293","&#9789;","elianto","#f73b6a7A"," "," ","1","0","[1164]","1","0","4","","","","","","","",""
"pit-trial","88","658495","0.0-2.0-17.1-2.1","battery-v0.2","","""event"",""trial"",""time""
""fullscreenenter"",""1"",""2650""
","
","
","""event"",""trial"",""time""
""fullscreenenter"",""1"",""2650""
","
","","","222","","","20","5302","293","&#9789;","elianto","#f73b6a7A"," "," ","1","0","[1080]","1","0","4","","","","","","","",""
"pit-trial","89","661462","0.0-2.0-17.1-3.1","battery-v0.2","","""event"",""trial"",""time""
""fullscreenenter"",""1"",""2650""
","
","
","""event"",""trial"",""time""
""fullscreenenter"",""1"",""2650""
","
","","","102.79999999701977","","","20","5302","293","&#9789;","elianto","#f73b6a7A"," "," ","1","-10","[957.8999999985099]","1","0","4","","","","","","","",""
"pit-trial","90","664566","0.0-2.0-17.1-4.1","battery-v0.2","","""event"",""trial"",""time""
""fullscreenenter"",""1"",""2650""
","
","
","""event"",""trial"",""time""
""fullscreenenter"",""1"",""2650""
","
","","","246.80000000447035","","","20","5302","293","&#9789;","elianto","#f73b6a7A"," "," ","1","0","[1099.1000000014901]","1","0","4","","","","","","","",""
"pit-trial","91","667585","0.0-2.0-17.2-0.2","battery-v0.2","","""event"",""trial"",""time""
""fullscreenenter"",""1"",""2650""
","
","
","""event"",""trial"",""time""
""fullscreenenter"",""1"",""2650""
","
","","","154.80000000447035","","","20","5302","293","&#9789;","elianto","#f73b6a7A"," "," ","1","0","[1007.5]","1","0","4","","","","","","","",""
"pit-trial","92","671104","0.0-2.0-17.2-1.2","battery-v0.2","","""event"",""trial"",""time""
""fullscreenenter"",""1"",""2650""
","
","
","""event"",""trial"",""time""
""fullscreenenter"",""1"",""2650""
","
","","","651.0999999940395","","","20","5302","293","&#9789;","elianto","#f73b6a7A"," "," ","1","0","[1505]","1","0","4","","","","","","","",""
"pit-trial","93","675974","0.0-2.0-17.2-2.2","battery-v0.2","","""event"",""trial"",""time""
""fullscreenenter"",""1"",""2650""
","
","
","""event"",""trial"",""time""
""fullscreenenter"",""1"",""2650""
","
","","","-1","","","20","5302","293","&#9789;","elianto","#f73b6a7A"," ","-1","0","-10","[]","0","0","4","","","","","","","",""
"pit-trial","94","678960","0.0-2.0-17.2-3.2","battery-v0.2","","""event"",""trial"",""time""
""fullscreenenter"",""1"",""2650""
","
","
","""event"",""trial"",""time""
""fullscreenenter"",""1"",""2650""
","
","","","122.29999999701977","","","20","5302","293","&#9789;","elianto","#f73b6a7A"," "," ","1","-10","[972.6000000014901]","1","0","4","","","","","","","",""
"pit-trial","95","682005","0.0-2.0-17.2-4.2","battery-v0.2","","""event"",""trial"",""time""
""fullscreenenter"",""1"",""2650""
","
","
","""event"",""trial"",""time""
""fullscreenenter"",""1"",""2650""
","
","","","180.70000000298023","","","20","5302","293","&#9789;","elianto","#f73b6a7A"," "," ","1","0","[1038.2000000029802]","1","0","4","","","","","","","",""
"pit-trial","96","685072","0.0-2.0-17.3-0.3","battery-v0.2","","""event"",""trial"",""time""
""fullscreenenter"",""1"",""2650""
","
","
","""event"",""trial"",""time""
""fullscreenenter"",""1"",""2650""
","
","","","198","","","20","5302","293","&#9789;","elianto","#f73b6a7A"," "," ","1","0","[1056]","1","0","4","","","","","","","",""
"pit-trial","97","688223","0.0-2.0-17.3-1.3","battery-v0.2","","""event"",""trial"",""time""
""fullscreenenter"",""1"",""2650""
","
","
","""event"",""trial"",""time""
""fullscreenenter"",""1"",""2650""
","
","","","285.79999999701977","","","20","5302","293","&#9789;","elianto","#f73b6a7A"," "," ","1","0","[1136.5]","1","0","4","","","","","","","",""
"pit-trial","98","691535","0.0-2.0-17.3-2.3","battery-v0.2","","""event"",""trial"",""time""
""fullscreenenter"",""1"",""2650""
","
","
","""event"",""trial"",""time""
""fullscreenenter"",""1"",""2650""
","
","","","444.1000000014901","","","20","5302","293","&#9789;","elianto","#f73b6a7A"," "," ","1","0","[1301.1000000014901]","1","0","4","","","","","","","",""
"pit-trial","99","694735","0.0-2.0-17.3-3.3","battery-v0.2","","""event"",""trial"",""time""
""fullscreenenter"",""1"",""2650""
","
","
","""event"",""trial"",""time""
""fullscreenenter"",""1"",""2650""
","
","","","332.20000000298023","","","20","5302","293","&#9789;","elianto","#f73b6a7A"," "," ","1","-10","[1184]","1","0","4","","","","","","","",""
"pit-trial","100","697860","0.0-2.0-17.3-4.3","battery-v0.2","","""event"",""trial"",""time""
""fullscreenenter"",""1"",""2650""
","
","
","""event"",""trial"",""time""
""fullscreenenter"",""1"",""2650""
","
","","","263.5","","","20","5302","293","&#9789;","elianto","#f73b6a7A"," "," ","1","0","[1116]","1","0","4","","","","","","","",""
"call-function","101","697864","0.0-2.0-18.0","battery-v0.2","","""event"",""trial"",""time""
""fullscreenenter"",""1"",""2650""
","
","
","""event"",""trial"",""time""
""fullscreenenter"",""1"",""2650""
","
","","","","","","","","","","","","","","","","","","","","","","","","","","",""
"pit-instructions","102","775629","0.0-2.0-19.0","battery-v0.2","","""event"",""trial"",""time""
""fullscreenenter"",""1"",""2650""
","
","
","""event"",""trial"",""time""
""fullscreenenter"",""1"",""2650""
","
","","[{""page_index"":0,""viewing_time"":6614.69999999553},{""page_index"":1,""viewing_time"":6681.80000000447},{""page_index"":2,""viewing_time"":14861.60000000149},{""page_index"":3,""viewing_time"":8195.5},{""page_index"":4,""viewing_time"":9375},{""page_index"":5,""viewing_time"":11088.09999999404},{""page_index"":6,""viewing_time"":9229.80000000447},{""page_index"":7,""viewing_time"":6562.60000000149},{""page_index"":8,""viewing_time"":5157.69999999553}]","77768.10000000149","","","","","","","","","","","","","","","","","","","","","","","",""
"pit-comprehension","103","781645","0.0-2.0-20.0-0.0","battery-v0.2","","""event"",""trial"",""time""
""fullscreenenter"",""1"",""2650""
","
","
","""event"",""trial"",""time""
""fullscreenenter"",""1"",""2650""
","
","","","6002.29999999702","[""SPACE""]","0","20","5302","293","","","","","","","","","","","","","","","","","","",""
"pit-instructions","104","789851","0.0-2.0-20.0-1.0","battery-v0.2","","""event"",""trial"",""time""
""fullscreenenter"",""1"",""2650""
","
","
","""event"",""trial"",""time""
""fullscreenenter"",""1"",""2650""
","
","","[{""page_index"":0,""viewing_time"":8146.39999999851}]","8147.19999999553","","","","","","","","","","","","","","","","","","","","","","","",""
"pit-comprehension","105","797027","0.0-2.0-21.0-0.0","battery-v0.2","","""event"",""trial"",""time""
""fullscreenenter"",""1"",""2650""
","
","
","""event"",""trial"",""time""
""fullscreenenter"",""1"",""2650""
","
","","","7167.5","[""10""]","0","20","5302","293","","","","","","","","","","","","","","","","","","",""
"pit-instructions","106","798947","0.0-2.0-21.0-1.0","battery-v0.2","","""event"",""trial"",""time""
""fullscreenenter"",""1"",""2650""
","
","
","""event"",""trial"",""time""
""fullscreenenter"",""1"",""2650""
","
","","[{""page_index"":0,""viewing_time"":1853}]","1853.5","","","","","","","","","","","","","","","","","","","","","","","",""
"pit-comprehension","107","806870","0.0-2.0-22.0-0.0","battery-v0.2","","""event"",""trial"",""time""
""fullscreenenter"",""1"",""2650""
","
","
","""event"",""trial"",""time""
""fullscreenenter"",""1"",""2650""
","
","","","7916.5","[""0""]","0","20","5302","293","","","","","","","","","","","","","","","","","","",""
"pit-instructions","108","809407","0.0-2.0-22.0-1.0","battery-v0.2","","""event"",""trial"",""time""
""fullscreenenter"",""1"",""2650""
","
","
","""event"",""trial"",""time""
""fullscreenenter"",""1"",""2650""
","
","","[{""page_index"":0,""viewing_time"":2476.5999999940395}]","2477.89999999851","","","","","","","","","","","","","","","","","","","","","","","",""
"pit-comprehension","109","823754","0.0-2.0-23.0-0.0","battery-v0.2","","""event"",""trial"",""time""
""fullscreenenter"",""1"",""2650""
","
","
","""event"",""trial"",""time""
""fullscreenenter"",""1"",""2650""
","
","","","14338.70000000298","[""False""]","1","20","5302","293","","","","","","","","","","","","","","","","","","",""
"pit-instructions","110","827130","0.0-2.0-23.0-1.0","battery-v0.2","","""event"",""trial"",""time""
""fullscreenenter"",""1"",""2650""
","
","
","""event"",""trial"",""time""
""fullscreenenter"",""1"",""2650""
","
","","[{""page_index"":0,""viewing_time"":3301.7000000029802}]","3302.4000000059605","","","","","","","","","","","","","","","","","","","","","","","",""
"pit-instructions","111","833038","0.0-2.0-23.0-2.0-0.0","battery-v0.2","","""event"",""trial"",""time""
""fullscreenenter"",""1"",""2650""
","
","
","""event"",""trial"",""time""
""fullscreenenter"",""1"",""2650""
","
","","[{""page_index"":0,""viewing_time"":5901.79999999702}]","5902.5","","","","","","","","","","","","","","","","","","","","","","","",""
"pit-comprehension","112","841572","0.0-2.0-23.1-0.1","battery-v0.2","","""event"",""trial"",""time""
""fullscreenenter"",""1"",""2650""
","
","
","""event"",""trial"",""time""
""fullscreenenter"",""1"",""2650""
","
","","","8526.60000000149","[""True""]","0","20","5302","293","","","","","","","","","","","","","","","","","","",""
"pit-instructions","113","843665","0.0-2.0-23.1-1.1","battery-v0.2","","""event"",""trial"",""time""
""fullscreenenter"",""1"",""2650""
","
","
","""event"",""trial"",""time""
""fullscreenenter"",""1"",""2650""
","
","","[{""page_index"":0,""viewing_time"":2031.2000000029802}]","2032.1000000014901","","","","","","","","","","","","","","","","","","","","","","","",""
"pit-comprehension","114","852208","0.0-2.0-24.0-0.0","battery-v0.2","","""event"",""trial"",""time""
""fullscreenenter"",""1"",""2650""
","
","
","""event"",""trial"",""time""
""fullscreenenter"",""1"",""2650""
","
","","","8536.10000000149","[""True""]","0","20","5302","293","","","","","","","","","","","","","","","","","","",""
"pit-instructions","115","856174","0.0-2.0-24.0-1.0","battery-v0.2","","""event"",""trial"",""time""
""fullscreenenter"",""1"",""2650""
","
","
","""event"",""trial"",""time""
""fullscreenenter"",""1"",""2650""
","
","","[{""page_index"":0,""viewing_time"":3889.2999999970198}]","3890.0999999940395","","","","","","","","","","","","","","","","","","","","","","","",""
"pit-comprehension","116","863836","0.0-2.0-25.0-0.0","battery-v0.2","","""event"",""trial"",""time""
""fullscreenenter"",""1"",""2650""
","
","
","""event"",""trial"",""time""
""fullscreenenter"",""1"",""2650""
","
","","","7653.70000000298","[""True""]","0","20","5302","293","","","","","","","","","","","","","","","","","","",""
"pit-instructions","117","867318","0.0-2.0-25.0-1.0","battery-v0.2","","""event"",""trial"",""time""
""fullscreenenter"",""1"",""2650""
","
","
","""event"",""trial"",""time""
""fullscreenenter"",""1"",""2650""
","
","","[{""page_index"":0,""viewing_time"":3419.2000000029802}]","3419.8000000044703","","","","","","","","","","","","","","","","","","","","","","","",""
"pit-comprehension","118","874747","0.0-2.0-26.0-0.0","battery-v0.2","","""event"",""trial"",""time""
""fullscreenenter"",""1"",""2650""
","
","
","""event"",""trial"",""time""
""fullscreenenter"",""1"",""2650""
","
","","","7419.5","[""False""]","0","20","5302","293","","","","","","","","","","","","","","","","","","",""
"pit-instructions","119","876813","0.0-2.0-26.0-1.0","battery-v0.2","","""event"",""trial"",""time""
""fullscreenenter"",""1"",""2650""
","
","
","""event"",""trial"",""time""
""fullscreenenter"",""1"",""2650""
","
","","[{""page_index"":0,""viewing_time"":2002}]","2002.6000000014901","","","","","","","","","","","","","","","","","","","","","","","",""
"pit-instructions","120","893848","0.0-3.0","battery-v0.2","","""event"",""trial"",""time""
""fullscreenenter"",""1"",""2650""
","
","
","""event"",""trial"",""time""
""fullscreenenter"",""1"",""2650""
","
","","[{""page_index"":0,""viewing_time"":4302.30000000447},{""page_index"":1,""viewing_time"":5139.5999999940395},{""page_index"":2,""viewing_time"":7588.10000000149}]","17030.80000000447","","","","","","","","","","","","","","","","","","","","","","","",""
"pit-trial","121","897618","0.0-4.0","battery-v0.2","","""event"",""trial"",""time""
""fullscreenenter"",""1"",""2650""
","
","
","""event"",""trial"",""time""
""fullscreenenter"",""1"",""2650""
","
","","","901.3999999985099","","","20","5302","293","&#9730;","elianto","#3366ff99"," "," ","1","+10","[1754.0999999940395]","1","1","","","5302","1","1","1","win","go","0"
"pit-trial","122","901180","0.0-5.0","battery-v0.2","","""event"",""trial"",""time""
""fullscreenenter"",""1"",""2650""
","
","
","""event"",""trial"",""time""
""fullscreenenter"",""1"",""2650""
","
","","","698.5","","","20","5302","293","&#9728;","elianto","#f73b6a7A","-1"," ","0","-10","[1551.4000000059605]","1","1","","","5302","2","0","4","lose","no-go","0"
"pit-trial","123","904867","0.0-6.0","battery-v0.2","","""event"",""trial"",""time""
""fullscreenenter"",""1"",""2650""
","
","
","""event"",""trial"",""time""
""fullscreenenter"",""1"",""2650""
","
","","","817","","","20","5302","293","&#9752;","elianto","#f73b6a7A"," "," ","1","-10","[1673.8999999985099]","1","1","","","5302","3","3","3","lose","go","1"
"pit-trial","124","908521","0.0-7.0","battery-v0.2","","""event"",""trial"",""time""
""fullscreenenter"",""1"",""2650""
","
","
","""event"",""trial"",""time""
""fullscreenenter"",""1"",""2650""
","
","","","788.6000000014901","","","20","5302","293","&#9733;","elianto","#3366ff99","-1"," ","0","0","[1641.5]","1","1","","","5302","4","2","2","win","no-go","0"
"pit-trial","125","912365","0.0-8.0","battery-v0.2","","""event"",""trial"",""time""
""fullscreenenter"",""1"",""2650""
","
","
","""event"",""trial"",""time""
""fullscreenenter"",""1"",""2650""
","
","","","980.5","","","20","5302","293","&#9730;","elianto","#3366ff99"," "," ","1","0","[1832.1000000014901]","1","1","","","5302","5","1","1","win","go","1"
"pit-trial","126","917236","0.0-9.0","battery-v0.2","","""event"",""trial"",""time""
""fullscreenenter"",""1"",""2650""
","
","
","""event"",""trial"",""time""
""fullscreenenter"",""1"",""2650""
","
","","","-1","","","20","5302","293","&#9752;","elianto","#f73b6a7A"," ","-1","0","-10","[]","0","1","","","5302","6","3","3","lose","go","0"
"pit-trial","127","922103","0.0-10.0","battery-v0.2","","""event"",""trial"",""time""
""fullscreenenter"",""1"",""2650""
","
","
","""event"",""trial"",""time""
""fullscreenenter"",""1"",""2650""
","
","","","-1","","","20","5302","293","&#9728;","elianto","#f73b6a7A","-1","-1","1","-10","[]","0","1","","","5302","7","0","4","lose","no-go","1"
"pit-trial","128","925683","0.0-11.0","battery-v0.2","","""event"",""trial"",""time""
""fullscreenenter"",""1"",""2650""
","
","
","""event"",""trial"",""time""
""fullscreenenter"",""1"",""2650""
","
","","","715.6999999955297","","","20","5302","293","&#9733;","elianto","#3366ff99","-1"," ","0","0","[1567]","1","1","","","5302","8","2","2","win","no-go","0"
"pit-trial","129","929464","0.0-12.0","battery-v0.2","","""event"",""trial"",""time""
""fullscreenenter"",""1"",""2650""
","
","
","""event"",""trial"",""time""
""fullscreenenter"",""1"",""2650""
","
","","","918.7000000029802","","","20","5302","293","&#9728;","elianto","#f73b6a7A","-1"," ","0","-10","[1774.6000000014901]","1","1","","","5302","9","0","4","lose","no-go","0"
"pit-trial","130","933175","0.0-13.0","battery-v0.2","","""event"",""trial"",""time""
""fullscreenenter"",""1"",""2650""
","
","
","""event"",""trial"",""time""
""fullscreenenter"",""1"",""2650""
","
","","","854","","","20","5302","293","&#9752;","elianto","#f73b6a7A"," "," ","1","0","[1704.6000000014901]","1","1","","","5302","10","3","3","lose","go","0"
"pit-trial","131","936776","0.0-14.0","battery-v0.2","","""event"",""trial"",""time""
""fullscreenenter"",""1"",""2650""
","
","
","""event"",""trial"",""time""
""fullscreenenter"",""1"",""2650""
","
","","","742.8999999985099","","","20","5302","293","&#9730;","elianto","#3366ff99"," "," ","1","+10","[1593.8999999985099]","1","1","","","5302","11","1","1","win","go","0"
"pit-trial","132","940535","0.0-15.0","battery-v0.2","","""event"",""trial"",""time""
""fullscreenenter"",""1"",""2650""
","
","
","""event"",""trial"",""time""
""fullscreenenter"",""1"",""2650""
","
","","","888.7000000029802","","","20","5302","293","&#9733;","elianto","#3366ff99","-1"," ","0","+10","[1745.3999999985099]","1","1","","","5302","12","2","2","win","no-go","1"
"pit-trial","133","944103","0.0-16.0","battery-v0.2","","""event"",""trial"",""time""
""fullscreenenter"",""1"",""2650""
","
","
","""event"",""trial"",""time""
""fullscreenenter"",""1"",""2650""
","
","","","702.8999999985099","","","20","5302","293","&#9733;","elianto","#3366ff99","-1"," ","0","0","[1554.3999999985099]","1","1","","","5302","13","2","2","win","no-go","0"
"pit-trial","134","948969","0.0-17.0","battery-v0.2","","""event"",""trial"",""time""
""fullscreenenter"",""1"",""2650""
","
","
","""event"",""trial"",""time""
""fullscreenenter"",""1"",""2650""
","
","","","-1","","","20","5302","293","&#9728;","elianto","#f73b6a7A","-1","-1","1","0","[]","0","1","","","5302","14","0","4","lose","no-go","0"
"pit-trial","135","952769","0.0-18.0","battery-v0.2","","""event"",""trial"",""time""
""fullscreenenter"",""1"",""2650""
","
","
","""event"",""trial"",""time""
""fullscreenenter"",""1"",""2650""
","
","","","934.2999999970198","","","20","5302","293","&#9752;","elianto","#f73b6a7A"," "," ","1","0","[1785]","1","1","","","5302","15","3","3","lose","go","0"
"pit-trial","136","956241","0.0-19.0","battery-v0.2","","""event"",""trial"",""time""
""fullscreenenter"",""1"",""2650""
","
","
","""event"",""trial"",""time""
""fullscreenenter"",""1"",""2650""
","
","","","610.2000000029802","","","20","5302","293","&#9730;","elianto","#3366ff99"," "," ","1","+10","[1463]","1","1","","","5302","16","1","1","win","go","0"
"pit-trial","137","959750","0.0-20.0","battery-v0.2","","""event"",""trial"",""time""
""fullscreenenter"",""1"",""2650""
","
","
","""event"",""trial"",""time""
""fullscreenenter"",""1"",""2650""
","
","","","647","","","20","5302","293","&#9733;","elianto","#3366ff99","-1"," ","0","0","[1503.0999999940395]","1","1","","","5302","17","2","2","win","no-go","0"
"pit-trial","138","964613","0.0-21.0","battery-v0.2","","""event"",""trial"",""time""
""fullscreenenter"",""1"",""2650""
","
","
","""event"",""trial"",""time""
""fullscreenenter"",""1"",""2650""
","
","","","-1","","","20","5302","293","&#9728;","elianto","#f73b6a7A","-1","-1","1","0","[]","0","1","","","5302","18","0","4","lose","no-go","0"
"pit-trial","139","968463","0.0-22.0","battery-v0.2","","""event"",""trial"",""time""
""fullscreenenter"",""1"",""2650""
","
","
","""event"",""trial"",""time""
""fullscreenenter"",""1"",""2650""
","
","","","987.4000000059605","","","20","5302","293","&#9752;","elianto","#f73b6a7A"," "," ","1","-10","[1838.5]","1","1","","","5302","19","3","3","lose","go","1"
"pit-trial","140","971871","0.0-23.0","battery-v0.2","","""event"",""trial"",""time""
""fullscreenenter"",""1"",""2650""
","
","
","""event"",""trial"",""time""
""fullscreenenter"",""1"",""2650""
","
","","","543","","","20","5302","293","&#9730;","elianto","#3366ff99"," "," ","1","0","[1399.2000000029802]","1","1","","","5302","20","1","1","win","go","1"
"pit-instructions","141","984888","0.0-24.0","battery-v0.2","","""event"",""trial"",""time""
""fullscreenenter"",""1"",""2650""
","
","
","""event"",""trial"",""time""
""fullscreenenter"",""1"",""2650""
","
","","[{""page_index"":0,""viewing_time"":5689.89999999851},{""page_index"":1,""viewing_time"":7321.20000000298}]","13013.20000000298","","","","","","","","","","","","","","","","","","","","","","","",""
"pit-trial","142","988589","0.0-25.0","battery-v0.2","","""event"",""trial"",""time""
""fullscreenenter"",""1"",""2650""
","
","
","""event"",""trial"",""time""
""fullscreenenter"",""1"",""2650""
","
","","","831","","","20","5302","293","e","elianto","#f73b6a7A"," "," ","1","0","[1684.3999999985099]","1","2","","","5302","21","2","3","lose","go","0"
"pit-trial","143","992328","0.0-26.0","battery-v0.2","","""event"",""trial"",""time""
""fullscreenenter"",""1"",""2650""
","
","
","""event"",""trial"",""time""
""fullscreenenter"",""1"",""2650""
","
","","","866.7999999970198","","","20","5302","293","w","elianto","#f73b6a7A","-1"," ","0","-10","[1724.0999999940395]","1","2","","","5302","22","3","4","lose","no-go","0"
"pit-trial","144","996158","0.0-27.0","battery-v0.2","","""event"",""trial"",""time""
""fullscreenenter"",""1"",""2650""
","
","
","""event"",""trial"",""time""
""fullscreenenter"",""1"",""2650""
","
","","","963.7999999970198","","","20","5302","293","d","elianto","#3366ff99","-1"," ","0","+10","[1814.8999999985099]","1","2","","","5302","23","1","2","win","no-go","1"
"pit-trial","145","1001031","0.0-28.0","battery-v0.2","","""event"",""trial"",""time""
""fullscreenenter"",""1"",""2650""
","
","
","""event"",""trial"",""time""
""fullscreenenter"",""1"",""2650""
","
","","","-1","","","20","5302","293","j","elianto","#f73b6a7A"," ","-1","0","-10","[]","0","2","","","5302","24","0","3","lose","go","0"
"pit-trial","146","1005900","0.0-29.0","battery-v0.2","","""event"",""trial"",""time""
""fullscreenenter"",""1"",""2650""
","
","
","""event"",""trial"",""time""
""fullscreenenter"",""1"",""2650""
","
","","","-1","","","20","5302","293","w","elianto","#f73b6a7A","-1","-1","1","0","[]","0","2","","","5302","25","3","4","lose","no-go","0"
"pit-trial","147","1009403","0.0-30.0","battery-v0.2","","""event"",""trial"",""time""
""fullscreenenter"",""1"",""2650""
","
","
","""event"",""trial"",""time""
""fullscreenenter"",""1"",""2650""
","
","","","644.7999999970198","","","20","5302","293","d","elianto","#3366ff99","-1"," ","0","0","[1495.1000000014901]","1","2","","","5302","26","1","2","win","no-go","0"
"pit-trial","148","1012934","0.0-31.0","battery-v0.2","","""event"",""trial"",""time""
""fullscreenenter"",""1"",""2650""
","
","
","""event"",""trial"",""time""
""fullscreenenter"",""1"",""2650""
","
","","","663.3000000044703","","","20","5302","293","e","elianto","#f73b6a7A"," "," ","1","0","[1513.8000000044703]","1","2","","","5302","27","2","3","lose","go","0"
"pit-trial","149","1016908","0.0-32.0","battery-v0.2","","""event"",""trial"",""time""
""fullscreenenter"",""1"",""2650""
","
","
","""event"",""trial"",""time""
""fullscreenenter"",""1"",""2650""
","
","","","1104.0999999940395","","","20","5302","293","j","elianto","#f73b6a7A"," "," ","1","0","[1959.7000000029802]","1","2","","","5302","28","0","3","lose","go","0"
"pit-trial","150","1020636","0.0-33.0","battery-v0.2","","""event"",""trial"",""time""
""fullscreenenter"",""1"",""2650""
","
","
","""event"",""trial"",""time""
""fullscreenenter"",""1"",""2650""
","
","","","858.8999999985099","","","20","5302","293","d","elianto","#3366ff99","-1"," ","0","0","[1713.1000000014901]","1","2","","","5302","29","1","2","win","no-go","0"
"pit-trial","151","1024278","0.0-34.0","battery-v0.2","","""event"",""trial"",""time""
""fullscreenenter"",""1"",""2650""
","
","
","""event"",""trial"",""time""
""fullscreenenter"",""1"",""2650""
","
","","","773","","","20","5302","293","e","elianto","#f73b6a7A"," "," ","1","0","[1632]","1","2","","","5302","30","2","3","lose","go","0"
"pit-trial","152","1029147","0.0-35.0","battery-v0.2","","""event"",""trial"",""time""
""fullscreenenter"",""1"",""2650""
","
","
","""event"",""trial"",""time""
""fullscreenenter"",""1"",""2650""
","
","","","-1","","","20","5302","293","w","elianto","#f73b6a7A","-1","-1","1","-10","[]","0","2","","","5302","31","3","4","lose","no-go","1"
"pit-trial","153","1032811","0.0-36.0","battery-v0.2","","""event"",""trial"",""time""
""fullscreenenter"",""1"",""2650""
","
","
","""event"",""trial"",""time""
""fullscreenenter"",""1"",""2650""
","
","","","794.5","","","20","5302","293","j","elianto","#f73b6a7A"," "," ","1","0","[1651.3000000044703]","1","2","","","5302","32","0","3","lose","go","0"
"pit-trial","154","1036363","0.0-37.0","battery-v0.2","","""event"",""trial"",""time""
""fullscreenenter"",""1"",""2650""
","
","
","""event"",""trial"",""time""
""fullscreenenter"",""1"",""2650""
","
","","","680.8999999985099","","","20","5302","293","d","elianto","#3366ff99","-1"," ","0","0","[1540]","1","2","","","5302","33","1","2","win","no-go","0"
"pit-trial","155","1041237","0.0-38.0","battery-v0.2","","""event"",""trial"",""time""
""fullscreenenter"",""1"",""2650""
","
","
","""event"",""trial"",""time""
""fullscreenenter"",""1"",""2650""
","
","","","-1","","","20","5302","293","e","elianto","#f73b6a7A"," ","-1","0","-10","[]","0","2","","","5302","34","2","3","lose","go","0"
"pit-trial","156","1046106","0.0-39.0","battery-v0.2","","""event"",""trial"",""time""
""fullscreenenter"",""1"",""2650""
","
","
","""event"",""trial"",""time""
""fullscreenenter"",""1"",""2650""
","
","","","-1","","","20","5302","293","w","elianto","#f73b6a7A","-1","-1","1","0","[]","0","2","","","5302","35","3","4","lose","no-go","0"
"pit-trial","157","1049690","0.0-40.0","battery-v0.2","","""event"",""trial"",""time""
""fullscreenenter"",""1"",""2650""
","
","
","""event"",""trial"",""time""
""fullscreenenter"",""1"",""2650""
","
","","","715.1999999955297","","","20","5302","293","j","elianto","#f73b6a7A"," "," ","1","0","[1574.5999999940395]","1","2","","","5302","36","0","3","lose","go","0"
"pit-trial","158","1053194","0.0-41.0","battery-v0.2","","""event"",""trial"",""time""
""fullscreenenter"",""1"",""2650""
","
","
","""event"",""trial"",""time""
""fullscreenenter"",""1"",""2650""
","
","","","630.8999999985099","","","20","5302","293","d","elianto","#3366ff99","-1"," ","0","0","[1490.2999999970198]","1","2","","","5302","37","1","2","win","no-go","0"
"pit-trial","159","1057061","0.0-42.0","battery-v0.2","","""event"",""trial"",""time""
""fullscreenenter"",""1"",""2650""
","
","
","""event"",""trial"",""time""
""fullscreenenter"",""1"",""2650""
","
","","","941.7000000029802","","","20","5302","293","j","elianto","#f73b6a7A"," "," ","1","0","[1798.3999999985099]","1","2","","","5302","38","0","3","lose","go","0"
"pit-trial","160","1061936","0.0-43.0","battery-v0.2","","""event"",""trial"",""time""
""fullscreenenter"",""1"",""2650""
","
","
","""event"",""trial"",""time""
""fullscreenenter"",""1"",""2650""
","
","","","-1","","","20","5302","293","w","elianto","#f73b6a7A","-1","-1","1","0","[]","0","2","","","5302","39","3","4","lose","no-go","0"
"pit-trial","161","1065669","0.0-44.0","battery-v0.2","","""event"",""trial"",""time""
""fullscreenenter"",""1"",""2650""
","
","
","""event"",""trial"",""time""
""fullscreenenter"",""1"",""2650""
","
","","","864.5","","","20","5302","293","e","elianto","#f73b6a7A"," "," ","1","0","[1719.9000000059605]","1","2","","","5302","40","2","3","lose","go","0"
"pit-trial","162","1070543","0.0-45.0","battery-v0.2","","""event"",""trial"",""time""
""fullscreenenter"",""1"",""2650""
","
","
","""event"",""trial"",""time""
""fullscreenenter"",""1"",""2650""
","
","","","-1","","","20","5302","293","d","elianto","#3366ff99","-1","-1","1","+10","[]","0","2","","","5302","41","1","2","win","no-go","0"
"pit-trial","163","1074149","0.0-46.0","battery-v0.2","","""event"",""trial"",""time""
""fullscreenenter"",""1"",""2650""
","
","
","""event"",""trial"",""time""
""fullscreenenter"",""1"",""2650""
","
","","","738","","","20","5302","293","j","elianto","#f73b6a7A"," "," ","1","0","[1591]","1","2","","","5302","42","0","3","lose","go","0"
"pit-trial","164","1077636","0.0-47.0","battery-v0.2","","""event"",""trial"",""time""
""fullscreenenter"",""1"",""2650""
","
","
","""event"",""trial"",""time""
""fullscreenenter"",""1"",""2650""
","
","","","626.6000000014901","","","20","5302","293","e","elianto","#f73b6a7A"," "," ","1","0","[1478.3999999985099]","1","2","","","5302","43","2","3","lose","go","0"
"pit-trial","165","1082511","0.0-48.0","battery-v0.2","","""event"",""trial"",""time""
""fullscreenenter"",""1"",""2650""
","
","
","""event"",""trial"",""time""
""fullscreenenter"",""1"",""2650""
","
","","","-1","","","20","5302","293","w","elianto","#f73b6a7A","-1","-1","1","-10","[]","0","2","","","5302","44","3","4","lose","no-go","1"
"pit-trial","166","1086175","0.0-49.0","battery-v0.2","","""event"",""trial"",""time""
""fullscreenenter"",""1"",""2650""
","
","
","""event"",""trial"",""time""
""fullscreenenter"",""1"",""2650""
","
","","","798.9000000059605","","","20","5302","293","e","elianto","#f73b6a7A"," "," ","1","-10","[1653]","1","2","","","5302","45","2","3","lose","go","1"
"pit-trial","167","1091043","0.0-50.0","battery-v0.2","","""event"",""trial"",""time""
""fullscreenenter"",""1"",""2650""
","
","
","""event"",""trial"",""time""
""fullscreenenter"",""1"",""2650""
","
","","","-1","","","20","5302","293","d","elianto","#3366ff99","-1","-1","1","+10","[]","0","2","","","5302","46","1","2","win","no-go","0"
"pit-trial","168","1094899","0.0-51.0","battery-v0.2","","""event"",""trial"",""time""
""fullscreenenter"",""1"",""2650""
","
","
","""event"",""trial"",""time""
""fullscreenenter"",""1"",""2650""
","
","","","990.6000000014901","","","20","5302","293","j","elianto","#f73b6a7A"," "," ","1","0","[1842.3999999985099]","1","2","","","5302","47","0","3","lose","go","0"
"pit-trial","169","1099774","0.0-52.0","battery-v0.2","","""event"",""trial"",""time""
""fullscreenenter"",""1"",""2650""
","
","
","""event"",""trial"",""time""
""fullscreenenter"",""1"",""2650""
","
","","","-1","","","20","5302","293","w","elianto","#f73b6a7A","-1","-1","1","-10","[]","0","2","","","5302","48","3","4","lose","no-go","1"
"pit-trial","170","1104643","0.0-53.0","battery-v0.2","","""event"",""trial"",""time""
""fullscreenenter"",""1"",""2650""
","
","
","""event"",""trial"",""time""
""fullscreenenter"",""1"",""2650""
","
","","","-1","","","20","5302","293","w","elianto","#f73b6a7A","-1","-1","1","0","[]","0","2","","","5302","49","3","4","lose","no-go","0"
"pit-trial","171","1109518","0.0-54.0","battery-v0.2","","""event"",""trial"",""time""
""fullscreenenter"",""1"",""2650""
","
","
","""event"",""trial"",""time""
""fullscreenenter"",""1"",""2650""
","
","","","-1","","","20","5302","293","d","elianto","#3366ff99","-1","-1","1","0","[]","0","2","","","5302","50","1","2","win","no-go","1"
"pit-trial","172","1113186","0.0-55.0","battery-v0.2","","""event"",""trial"",""time""
""fullscreenenter"",""1"",""2650""
","
","
","""event"",""trial"",""time""
""fullscreenenter"",""1"",""2650""
","
","","","803.8000000044703","","","20","5302","293","e","elianto","#f73b6a7A"," "," ","1","0","[1660]","1","2","","","5302","51","2","3","lose","go","0"
"pit-trial","173","1116781","0.0-56.0","battery-v0.2","","""event"",""trial"",""time""
""fullscreenenter"",""1"",""2650""
","
","
","""event"",""trial"",""time""
""fullscreenenter"",""1"",""2650""
","
","","","724.2999999970198","","","20","5302","293","j","elianto","#f73b6a7A"," "," ","1","-10","[1583.1999999955297]","1","2","","","5302","52","0","3","lose","go","1"
"pit-trial","174","1121650","0.0-57.0","battery-v0.2","","""event"",""trial"",""time""
""fullscreenenter"",""1"",""2650""
","
","
","""event"",""trial"",""time""
""fullscreenenter"",""1"",""2650""
","
","","","-1","","","20","5302","293","w","elianto","#f73b6a7A","-1","-1","1","-10","[]","0","2","","","5302","53","3","4","lose","no-go","1"
"pit-trial","175","1125501","0.0-58.0","battery-v0.2","","""event"",""trial"",""time""
""fullscreenenter"",""1"",""2650""
","
","
","""event"",""trial"",""time""
""fullscreenenter"",""1"",""2650""
","
","","","981.8999999985099","","","20","5302","293","j","elianto","#f73b6a7A"," "," ","1","0","[1833.8999999985099]","1","2","","","5302","54","0","3","lose","go","0"
"pit-trial","176","1129020","0.0-59.0","battery-v0.2","","""event"",""trial"",""time""
""fullscreenenter"",""1"",""2650""
","
","
","""event"",""trial"",""time""
""fullscreenenter"",""1"",""2650""
","
","","","655","","","20","5302","293","e","elianto","#f73b6a7A"," "," ","1","0","[1506.1000000014901]","1","2","","","5302","55","2","3","lose","go","0"
"pit-trial","177","1132652","0.0-60.0","battery-v0.2","","""event"",""trial"",""time""
""fullscreenenter"",""1"",""2650""
","
","
","""event"",""trial"",""time""
""fullscreenenter"",""1"",""2650""
","
","","","767.2999999970198","","","20","5302","293","d","elianto","#3366ff99","-1"," ","0","0","[1619.2000000029802]","1","2","","","5302","56","1","2","win","no-go","0"
"pit-trial","178","1137521","0.0-61.0","battery-v0.2","","""event"",""trial"",""time""
""fullscreenenter"",""1"",""2650""
","
","
","""event"",""trial"",""time""
""fullscreenenter"",""1"",""2650""
","
","","","-1","","","20","5302","293","w","elianto","#f73b6a7A","-1","-1","1","0","[]","0","2","","","5302","57","3","4","lose","no-go","0"
"pit-trial","179","1141611","0.0-62.0","battery-v0.2","","""event"",""trial"",""time""
""fullscreenenter"",""1"",""2650""
","
","
","""event"",""trial"",""time""
""fullscreenenter"",""1"",""2650""
","
","","","1221.8999999985099","","","20","5302","293","s","elianto","#3366ff99"," "," ","1","+10","[2073.39999999851]","1","2","","","5302","58","4","1","win","go","0"
"pit-trial","180","1145240","0.0-63.0","battery-v0.2","","""event"",""trial"",""time""
""fullscreenenter"",""1"",""2650""
","
","
","""event"",""trial"",""time""
""fullscreenenter"",""1"",""2650""
","
","","","765","","","20","5302","293","j","elianto","#f73b6a7A"," "," ","1","0","[1622.6999999955297]","1","2","","","5302","59","0","3","lose","go","0"
"pit-trial","181","1148832","0.0-64.0","battery-v0.2","","""event"",""trial"",""time""
""fullscreenenter"",""1"",""2650""
","
","
","""event"",""trial"",""time""
""fullscreenenter"",""1"",""2650""
","
","","","730.1999999955297","","","20","5302","293","e","elianto","#f73b6a7A"," "," ","1","0","[1583]","1","2","","","5302","60","2","3","lose","go","0"
"pit-trial","182","1153696","0.0-65.0","battery-v0.2","","""event"",""trial"",""time""
""fullscreenenter"",""1"",""2650""
","
","
","""event"",""trial"",""time""
""fullscreenenter"",""1"",""2650""
","
","","","-1","","","20","5302","293","d","elianto","#3366ff99","-1","-1","1","+10","[]","0","2","","","5302","61","1","2","win","no-go","0"
"pit-trial","183","1157515","0.0-66.0","battery-v0.2","","""event"",""trial"",""time""
""fullscreenenter"",""1"",""2650""
","
","
","""event"",""trial"",""time""
""fullscreenenter"",""1"",""2650""
","
","","","955.6999999955297","","","20","5302","293","s","elianto","#3366ff99"," "," ","1","+10","[1806.1000000014901]","1","2","","","5302","62","4","1","win","go","0"
"pit-trial","184","1162387","0.0-67.0","battery-v0.2","","""event"",""trial"",""time""
""fullscreenenter"",""1"",""2650""
","
","
","""event"",""trial"",""time""
""fullscreenenter"",""1"",""2650""
","
","","","-1","","","20","5302","293","w","elianto","#f73b6a7A","-1","-1","1","0","[]","0","2","","","5302","63","3","4","lose","no-go","0"
"pit-trial","185","1165984","0.0-68.0","battery-v0.2","","""event"",""trial"",""time""
""fullscreenenter"",""1"",""2650""
","
","
","""event"",""trial"",""time""
""fullscreenenter"",""1"",""2650""
","
","","","731.3999999985099","","","20","5302","293","e","elianto","#f73b6a7A"," "," ","1","0","[1586.2000000029802]","1","2","","","5302","64","2","3","lose","go","0"
"pit-trial","186","1170858","0.0-69.0","battery-v0.2","","""event"",""trial"",""time""
""fullscreenenter"",""1"",""2650""
","
","
","""event"",""trial"",""time""
""fullscreenenter"",""1"",""2650""
","
","","","-1","","","20","5302","293","d","elianto","#3366ff99","-1","-1","1","+10","[]","0","2","","","5302","65","1","2","win","no-go","0"
"pit-trial","187","1175727","0.0-70.0","battery-v0.2","","""event"",""trial"",""time""
""fullscreenenter"",""1"",""2650""
","
","
","""event"",""trial"",""time""
""fullscreenenter"",""1"",""2650""
","
","","","-1","","","20","5302","293","w","elianto","#f73b6a7A","-1","-1","1","-10","[]","0","2","","","5302","66","3","4","lose","no-go","1"
"pit-trial","188","1179743","0.0-71.0","battery-v0.2","","""event"",""trial"",""time""
""fullscreenenter"",""1"",""2650""
","
","
","""event"",""trial"",""time""
""fullscreenenter"",""1"",""2650""
","
","","","1152","","","20","5302","293","p","elianto","#3366ff99","-1"," ","0","0","[2004.6000000014901]","1","2","","","5302","67","5","2","win","no-go","0"
"pit-trial","189","1183482","0.0-72.0","battery-v0.2","","""event"",""trial"",""time""
""fullscreenenter"",""1"",""2650""
","
","
","""event"",""trial"",""time""
""fullscreenenter"",""1"",""2650""
","
","","","865.4000000059605","","","20","5302","293","s","elianto","#3366ff99"," "," ","1","+10","[1721.3000000044703]","1","2","","","5302","68","4","1","win","go","0"
"pit-trial","190","1188351","0.0-73.0","battery-v0.2","","""event"",""trial"",""time""
""fullscreenenter"",""1"",""2650""
","
","
","""event"",""trial"",""time""
""fullscreenenter"",""1"",""2650""
","
","","","-1","","","20","5302","293","d","elianto","#3366ff99","-1","-1","1","+10","[]","0","2","","","5302","69","1","2","win","no-go","0"
"pit-trial","191","1192127","0.0-74.0","battery-v0.2","","""event"",""trial"",""time""
""fullscreenenter"",""1"",""2650""
","
","
","""event"",""trial"",""time""
""fullscreenenter"",""1"",""2650""
","
","","","912.7999999970198","","","20","5302","293","s","elianto","#3366ff99"," "," ","1","+10","[1766]","1","2","","","5302","70","4","1","win","go","0"
"pit-trial","192","1195711","0.0-75.0","battery-v0.2","","""event"",""trial"",""time""
""fullscreenenter"",""1"",""2650""
","
","
","""event"",""trial"",""time""
""fullscreenenter"",""1"",""2650""
","
","","","714","","","20","5302","293","p","elianto","#3366ff99","-1"," ","0","+10","[1572.2000000029802]","1","2","","","5302","71","5","2","win","no-go","1"
"pit-trial","193","1199407","0.0-76.0","battery-v0.2","","""event"",""trial"",""time""
""fullscreenenter"",""1"",""2650""
","
","
","""event"",""trial"",""time""
""fullscreenenter"",""1"",""2650""
","
","","","828.9000000059605","","","20","5302","293","e","elianto","#f73b6a7A"," "," ","1","0","[1687.6000000014901]","1","2","","","5302","72","2","3","lose","go","0"
"pit-trial","194","1204271","0.0-77.0","battery-v0.2","","""event"",""trial"",""time""
""fullscreenenter"",""1"",""2650""
","
","
","""event"",""trial"",""time""
""fullscreenenter"",""1"",""2650""
","
","","","-1","","","20","5302","293","d","elianto","#3366ff99","-1","-1","1","+10","[]","0","2","","","5302","73","1","2","win","no-go","0"
"pit-trial","195","1207881","0.0-78.0","battery-v0.2","","""event"",""trial"",""time""
""fullscreenenter"",""1"",""2650""
","
","
","""event"",""trial"",""time""
""fullscreenenter"",""1"",""2650""
","
","","","746.7999999970198","","","20","5302","293","s","elianto","#3366ff99"," "," ","1","+10","[1597.6000000014901]","1","2","","","5302","74","4","1","win","go","0"
"pit-trial","196","1211790","0.0-79.0","battery-v0.2","","""event"",""trial"",""time""
""fullscreenenter"",""1"",""2650""
","
","
","""event"",""trial"",""time""
""fullscreenenter"",""1"",""2650""
","
","","","1044.3999999985099","","","20","5302","293","p","elianto","#3366ff99","-1"," ","0","0","[1900.5]","1","2","","","5302","75","5","2","win","no-go","0"
"pit-trial","197","1216665","0.0-80.0","battery-v0.2","","""event"",""trial"",""time""
""fullscreenenter"",""1"",""2650""
","
","
","""event"",""trial"",""time""
""fullscreenenter"",""1"",""2650""
","
","","","-1","","","20","5302","293","w","elianto","#f73b6a7A","-1","-1","1","0","[]","0","2","","","5302","76","3","4","lose","no-go","0"
"pit-trial","198","1221533","0.0-81.0","battery-v0.2","","""event"",""trial"",""time""
""fullscreenenter"",""1"",""2650""
","
","
","""event"",""trial"",""time""
""fullscreenenter"",""1"",""2650""
","
","","","-1","","","20","5302","293","p","elianto","#3366ff99","-1","-1","1","+10","[]","0","2","","","5302","77","5","2","win","no-go","0"
"pit-trial","199","1225112","0.0-82.0","battery-v0.2","","""event"",""trial"",""time""
""fullscreenenter"",""1"",""2650""
","
","
","""event"",""trial"",""time""
""fullscreenenter"",""1"",""2650""
","
","","","705.7999999970198","","","20","5302","293","s","elianto","#3366ff99"," "," ","1","0","[1565]","1","2","","","5302","78","4","1","win","go","1"
"pit-trial","200","1229981","0.0-83.0","battery-v0.2","","""event"",""trial"",""time""
""fullscreenenter"",""1"",""2650""
","
","
","""event"",""trial"",""time""
""fullscreenenter"",""1"",""2650""
","
","","","-1","","","20","5302","293","w","elianto","#f73b6a7A","-1","-1","1","0","[]","0","2","","","5302","79","3","4","lose","no-go","0"
"pit-trial","201","1233671","0.0-84.0","battery-v0.2","","""event"",""trial"",""time""
""fullscreenenter"",""1"",""2650""
","
","
","""event"",""trial"",""time""
""fullscreenenter"",""1"",""2650""
","
","","","829.7999999970198","","","20","5302","293","s","elianto","#3366ff99"," "," ","1","+10","[1680.3000000044703]","1","2","","","5302","80","4","1","win","go","0"
"pit-trial","202","1237389","0.0-85.0","battery-v0.2","","""event"",""trial"",""time""
""fullscreenenter"",""1"",""2650""
","
","
","""event"",""trial"",""time""
""fullscreenenter"",""1"",""2650""
","
","","","851.2000000029802","","","20","5302","293","s","elianto","#3366ff99"," "," ","1","+10","[1708.4000000059605]","1","2","","","5302","81","4","1","win","go","0"
"pit-trial","203","1241863","0.0-86.0","battery-v0.2","","""event"",""trial"",""time""
""fullscreenenter"",""1"",""2650""
","
","
","""event"",""trial"",""time""
""fullscreenenter"",""1"",""2650""
","
","","","1608.9000000059605","","","20","5302","293","a","elianto","#f73b6a7A","-1"," ","0","-10","[2463.89999999851]","1","2","","","5302","82","7","4","lose","no-go","0"
"pit-trial","204","1246732","0.0-87.0","battery-v0.2","","""event"",""trial"",""time""
""fullscreenenter"",""1"",""2650""
","
","
","""event"",""trial"",""time""
""fullscreenenter"",""1"",""2650""
","
","","","-1","","","20","5302","293","w","elianto","#f73b6a7A","-1","-1","1","0","[]","0","2","","","5302","83","3","4","lose","no-go","0"
"pit-trial","205","1251607","0.0-88.0","battery-v0.2","","""event"",""trial"",""time""
""fullscreenenter"",""1"",""2650""
","
","
","""event"",""trial"",""time""
""fullscreenenter"",""1"",""2650""
","
","","","-1","","","20","5302","293","p","elianto","#3366ff99","-1","-1","1","+10","[]","0","2","","","5302","84","5","2","win","no-go","0"
"pit-trial","206","1256476","0.0-89.0","battery-v0.2","","""event"",""trial"",""time""
""fullscreenenter"",""1"",""2650""
","
","
","""event"",""trial"",""time""
""fullscreenenter"",""1"",""2650""
","
","","","-1","","","20","5302","293","p","elianto","#3366ff99","-1","-1","1","+10","[]","0","2","","","5302","85","5","2","win","no-go","0"
"pit-trial","207","1260732","0.0-90.0","battery-v0.2","","""event"",""trial"",""time""
""fullscreenenter"",""1"",""2650""
","
","
","""event"",""trial"",""time""
""fullscreenenter"",""1"",""2650""
","
","","","1389.5","","","20","5302","293","g","elianto","#f73b6a7A"," "," ","1","0","[2243.89999999851]","1","2","","","5302","86","6","3","lose","go","0"
"pit-trial","208","1264886","0.0-91.0","battery-v0.2","","""event"",""trial"",""time""
""fullscreenenter"",""1"",""2650""
","
","
","""event"",""trial"",""time""
""fullscreenenter"",""1"",""2650""
","
","","","1289.5","","","20","5302","293","a","elianto","#f73b6a7A","-1"," ","0","-10","[2140.5]","1","2","","","5302","87","7","4","lose","no-go","0"
"pit-trial","209","1268524","0.0-92.0","battery-v0.2","","""event"",""trial"",""time""
""fullscreenenter"",""1"",""2650""
","
","
","""event"",""trial"",""time""
""fullscreenenter"",""1"",""2650""
","
","","","775.1000000014901","","","20","5302","293","s","elianto","#3366ff99"," "," ","1","0","[1628.6000000014901]","1","2","","","5302","88","4","1","win","go","1"
"pit-trial","210","1272267","0.0-93.0","battery-v0.2","","""event"",""trial"",""time""
""fullscreenenter"",""1"",""2650""
","
","
","""event"",""trial"",""time""
""fullscreenenter"",""1"",""2650""
","
","","","881.2000000029802","","","20","5302","293","s","elianto","#3366ff99"," "," ","1","0","[1732.6999999955297]","1","2","","","5302","89","4","1","win","go","1"
"pit-trial","211","1277142","0.0-94.0","battery-v0.2","","""event"",""trial"",""time""
""fullscreenenter"",""1"",""2650""
","
","
","""event"",""trial"",""time""
""fullscreenenter"",""1"",""2650""
","
","","","-1","","","20","5302","293","p","elianto","#3366ff99","-1","-1","1","+10","[]","0","2","","","5302","90","5","2","win","no-go","0"
"pit-trial","212","1281499","0.0-95.0","battery-v0.2","","""event"",""trial"",""time""
""fullscreenenter"",""1"",""2650""
","
","
","""event"",""trial"",""time""
""fullscreenenter"",""1"",""2650""
","
","","","1488.2000000029802","","","20","5302","293","g","elianto","#f73b6a7A"," "," ","1","-10","[2343.2000000029802]","1","2","","","5302","91","6","3","lose","go","1"
"pit-trial","213","1286372","0.0-96.0","battery-v0.2","","""event"",""trial"",""time""
""fullscreenenter"",""1"",""2650""
","
","
","""event"",""trial"",""time""
""fullscreenenter"",""1"",""2650""
","
","","","-1","","","20","5302","293","a","elianto","#f73b6a7A","-1","-1","1","0","[]","0","2","","","5302","92","7","4","lose","no-go","0"
"pit-trial","214","1291242","0.0-97.0","battery-v0.2","","""event"",""trial"",""time""
""fullscreenenter"",""1"",""2650""
","
","
","""event"",""trial"",""time""
""fullscreenenter"",""1"",""2650""
","
","","","-1","","","20","5302","293","g","elianto","#f73b6a7A"," ","-1","0","-10","[]","0","2","","","5302","93","6","3","lose","go","0"
"pit-trial","215","1296116","0.0-98.0","battery-v0.2","","""event"",""trial"",""time""
""fullscreenenter"",""1"",""2650""
","
","
","""event"",""trial"",""time""
""fullscreenenter"",""1"",""2650""
","
","","","-1","","","20","5302","293","p","elianto","#3366ff99","-1","-1","1","+10","[]","0","2","","","5302","94","5","2","win","no-go","0"
"pit-trial","216","1300009","0.0-99.0","battery-v0.2","","""event"",""trial"",""time""
""fullscreenenter"",""1"",""2650""
","
","
","""event"",""trial"",""time""
""fullscreenenter"",""1"",""2650""
","
","","","1027.3999999985099","","","20","5302","293","l","elianto","#3366ff99"," "," ","1","+10","[1883.7000000029802]","1","2","","","5302","95","8","1","win","go","0"
"pit-trial","217","1304874","0.0-100.0","battery-v0.2","","""event"",""trial"",""time""
""fullscreenenter"",""1"",""2650""
","
","
","""event"",""trial"",""time""
""fullscreenenter"",""1"",""2650""
","
","","","-1","","","20","5302","293","a","elianto","#f73b6a7A","-1","-1","1","0","[]","0","2","","","5302","96","7","4","lose","no-go","0"
"pit-trial","218","1308906","0.0-101.0","battery-v0.2","","""event"",""trial"",""time""
""fullscreenenter"",""1"",""2650""
","
","
","""event"",""trial"",""time""
""fullscreenenter"",""1"",""2650""
","
","","","1166.6000000014901","","","20","5302","293","g","elianto","#f73b6a7A"," "," ","1","0","[2020.2999999970198]","1","2","","","5302","97","6","3","lose","go","0"
"pit-trial","219","1313780","0.0-102.0","battery-v0.2","","""event"",""trial"",""time""
""fullscreenenter"",""1"",""2650""
","
","
","""event"",""trial"",""time""
""fullscreenenter"",""1"",""2650""
","
","","","-1","","","20","5302","293","p","elianto","#3366ff99","-1","-1","1","+10","[]","0","2","","","5302","98","5","2","win","no-go","0"
"pit-trial","220","1318649","0.0-103.0","battery-v0.2","","""event"",""trial"",""time""
""fullscreenenter"",""1"",""2650""
","
","
","""event"",""trial"",""time""
""fullscreenenter"",""1"",""2650""
","
","","","-1","","","20","5302","293","a","elianto","#f73b6a7A","-1","-1","1","0","[]","0","2","","","5302","99","7","4","lose","no-go","0"
"pit-trial","221","1322340","0.0-104.0","battery-v0.2","","""event"",""trial"",""time""
""fullscreenenter"",""1"",""2650""
","
","
","""event"",""trial"",""time""
""fullscreenenter"",""1"",""2650""
","
","","","826.5","","","20","5302","293","l","elianto","#3366ff99"," "," ","1","+10","[1678.7000000029802]","1","2","","","5302","100","8","1","win","go","0"
"pit-trial","222","1327209","0.0-105.0","battery-v0.2","","""event"",""trial"",""time""
""fullscreenenter"",""1"",""2650""
","
","
","""event"",""trial"",""time""
""fullscreenenter"",""1"",""2650""
","
","","","-1","","","20","5302","293","a","elianto","#f73b6a7A","-1","-1","1","0","[]","0","2","","","5302","101","7","4","lose","no-go","0"
"pit-trial","223","1330931","0.0-106.0","battery-v0.2","","""event"",""trial"",""time""
""fullscreenenter"",""1"",""2650""
","
","
","""event"",""trial"",""time""
""fullscreenenter"",""1"",""2650""
","
","","","849.8999999985099","","","20","5302","293","l","elianto","#3366ff99"," "," ","1","+10","[1706.1999999955297]","1","2","","","5302","102","8","1","win","go","0"
"pit-trial","224","1335801","0.0-107.0","battery-v0.2","","""event"",""trial"",""time""
""fullscreenenter"",""1"",""2650""
","
","
","""event"",""trial"",""time""
""fullscreenenter"",""1"",""2650""
","
","","","-1","","","20","5302","293","u","elianto","#3366ff99"," ","-1","0","+10","[]","0","2","","","5302","103","9","1","win","go","1"
"pit-trial","225","1340674","0.0-108.0","battery-v0.2","","""event"",""trial"",""time""
""fullscreenenter"",""1"",""2650""
","
","
","""event"",""trial"",""time""
""fullscreenenter"",""1"",""2650""
","
","","","-1","","","20","5302","293","p","elianto","#3366ff99","-1","-1","1","+10","[]","0","2","","","5302","104","5","2","win","no-go","0"
"pit-trial","226","1344466","0.0-109.0","battery-v0.2","","""event"",""trial"",""time""
""fullscreenenter"",""1"",""2650""
","
","
","""event"",""trial"",""time""
""fullscreenenter"",""1"",""2650""
","
","","","929.7000000029802","","","20","5302","293","s","elianto","#3366ff99"," "," ","1","0","[1781.3999999985099]","1","2","","","5302","105","4","1","win","go","1"
"pit-trial","227","1349336","0.0-110.0","battery-v0.2","","""event"",""trial"",""time""
""fullscreenenter"",""1"",""2650""
","
","
","""event"",""trial"",""time""
""fullscreenenter"",""1"",""2650""
","
","","","-1","","","20","5302","293","u","elianto","#3366ff99"," ","-1","0","0","[]","0","2","","","5302","106","9","1","win","go","0"
"pit-trial","228","1353682","0.0-111.0","battery-v0.2","","""event"",""trial"",""time""
""fullscreenenter"",""1"",""2650""
","
","
","""event"",""trial"",""time""
""fullscreenenter"",""1"",""2650""
","
","","","1483.3999999985099","","","20","5302","293","g","elianto","#f73b6a7A"," "," ","1","0","[2336.10000000149]","1","2","","","5302","107","6","3","lose","go","0"
"pit-trial","229","1357240","0.0-112.0","battery-v0.2","","""event"",""trial"",""time""
""fullscreenenter"",""1"",""2650""
","
","
","""event"",""trial"",""time""
""fullscreenenter"",""1"",""2650""
","
","","","694.6000000014901","","","20","5302","293","l","elianto","#3366ff99"," "," ","1","+10","[1549.3000000044703]","1","2","","","5302","108","8","1","win","go","0"
"pit-trial","230","1360855","0.0-113.0","battery-v0.2","","""event"",""trial"",""time""
""fullscreenenter"",""1"",""2650""
","
","
","""event"",""trial"",""time""
""fullscreenenter"",""1"",""2650""
","
","","","754.6000000014901","","","20","5302","293","g","elianto","#f73b6a7A"," "," ","1","0","[1606.0999999940395]","1","2","","","5302","109","6","3","lose","go","0"
"pit-trial","231","1365719","0.0-114.0","battery-v0.2","","""event"",""trial"",""time""
""fullscreenenter"",""1"",""2650""
","
","
","""event"",""trial"",""time""
""fullscreenenter"",""1"",""2650""
","
","","","-1","","","20","5302","293","p","elianto","#3366ff99","-1","-1","1","+10","[]","0","2","","","5302","110","5","2","win","no-go","0"
"pit-trial","232","1369271","0.0-115.0","battery-v0.2","","""event"",""trial"",""time""
""fullscreenenter"",""1"",""2650""
","
","
","""event"",""trial"",""time""
""fullscreenenter"",""1"",""2650""
","
","","","684","","","20","5302","293","l","elianto","#3366ff99"," "," ","1","+10","[1538.7999999970198]","1","2","","","5302","111","8","1","win","go","0"
"pit-trial","233","1373062","0.0-116.0","battery-v0.2","","""event"",""trial"",""time""
""fullscreenenter"",""1"",""2650""
","
","
","""event"",""trial"",""time""
""fullscreenenter"",""1"",""2650""
","
","","","929.3999999985099","","","20","5302","293","u","elianto","#3366ff99"," "," ","1","0","[1782.3000000044703]","1","2","","","5302","112","9","1","win","go","1"
"pit-trial","234","1376609","0.0-117.0","battery-v0.2","","""event"",""trial"",""time""
""fullscreenenter"",""1"",""2650""
","
","
","""event"",""trial"",""time""
""fullscreenenter"",""1"",""2650""
","
","","","683.7999999970198","","","20","5302","293","l","elianto","#3366ff99"," "," ","1","+10","[1535.7999999970198]","1","2","","","5302","113","8","1","win","go","0"
"pit-trial","235","1381478","0.0-118.0","battery-v0.2","","""event"",""trial"",""time""
""fullscreenenter"",""1"",""2650""
","
","
","""event"",""trial"",""time""
""fullscreenenter"",""1"",""2650""
","
","","","-1","","","20","5302","293","p","elianto","#3366ff99","-1","-1","1","+10","[]","0","2","","","5302","114","5","2","win","no-go","0"
"pit-trial","236","1386352","0.0-119.0","battery-v0.2","","""event"",""trial"",""time""
""fullscreenenter"",""1"",""2650""
","
","
","""event"",""trial"",""time""
""fullscreenenter"",""1"",""2650""
","
","","","-1","","","20","5302","293","u","elianto","#3366ff99"," ","-1","0","0","[]","0","2","","","5302","115","9","1","win","go","0"
"pit-trial","237","1390630","0.0-120.0","battery-v0.2","","""event"",""trial"",""time""
""fullscreenenter"",""1"",""2650""
","
","
","""event"",""trial"",""time""
""fullscreenenter"",""1"",""2650""
","
","","","1414.5","","","20","5302","293","g","elianto","#f73b6a7A"," "," ","1","0","[2265.4000000059605]","1","2","","","5302","116","6","3","lose","go","0"
"pit-trial","238","1395505","0.0-121.0","battery-v0.2","","""event"",""trial"",""time""
""fullscreenenter"",""1"",""2650""
","
","
","""event"",""trial"",""time""
""fullscreenenter"",""1"",""2650""
","
","","","-1","","","20","5302","293","p","elianto","#3366ff99","-1","-1","1","0","[]","0","2","","","5302","117","5","2","win","no-go","1"
"pit-trial","239","1399168","0.0-122.0","battery-v0.2","","""event"",""trial"",""time""
""fullscreenenter"",""1"",""2650""
","
","
","""event"",""trial"",""time""
""fullscreenenter"",""1"",""2650""
","
","","","797.6000000014901","","","20","5302","293","u","elianto","#3366ff99"," "," ","1","+10","[1650]","1","2","","","5302","118","9","1","win","go","0"
"pit-trial","240","1402758","0.0-123.0","battery-v0.2","","""event"",""trial"",""time""
""fullscreenenter"",""1"",""2650""
","
","
","""event"",""trial"",""time""
""fullscreenenter"",""1"",""2650""
","
","","","719.3999999985099","","","20","5302","293","g","elianto","#f73b6a7A"," "," ","1","0","[1574.6999999955297]","1","2","","","5302","119","6","3","lose","go","0"
"pit-trial","241","1406373","0.0-124.0","battery-v0.2","","""event"",""trial"",""time""
""fullscreenenter"",""1"",""2650""
","
","
","""event"",""trial"",""time""
""fullscreenenter"",""1"",""2650""
","
","","","751.6999999955297","","","20","5302","293","l","elianto","#3366ff99"," "," ","1","0","[1604]","1","2","","","5302","120","8","1","win","go","1"
"pit-trial","242","1410117","0.0-125.0","battery-v0.2","","""event"",""trial"",""time""
""fullscreenenter"",""1"",""2650""
","
","
","""event"",""trial"",""time""
""fullscreenenter"",""1"",""2650""
","
","","","876.1999999955297","","","20","5302","293","u","elianto","#3366ff99"," "," ","1","+10","[1729.7000000029802]","1","2","","","5302","121","9","1","win","go","0"
"pit-trial","243","1414991","0.0-126.0","battery-v0.2","","""event"",""trial"",""time""
""fullscreenenter"",""1"",""2650""
","
","
","""event"",""trial"",""time""
""fullscreenenter"",""1"",""2650""
","
","","","-1","","","20","5302","293","a","elianto","#f73b6a7A","-1","-1","1","0","[]","0","2","","","5302","122","7","4","lose","no-go","0"
"pit-trial","244","1418639","0.0-127.0","battery-v0.2","","""event"",""trial"",""time""
""fullscreenenter"",""1"",""2650""
","
","
","""event"",""trial"",""time""
""fullscreenenter"",""1"",""2650""
","
","","","782.4000000059605","","","20","5302","293","g","elianto","#f73b6a7A"," "," ","1","0","[1633.2000000029802]","1","2","","","5302","123","6","3","lose","go","0"
"pit-trial","245","1422159","0.0-128.0","battery-v0.2","","""event"",""trial"",""time""
""fullscreenenter"",""1"",""2650""
","
","
","""event"",""trial"",""time""
""fullscreenenter"",""1"",""2650""
","
","","","652.1999999955297","","","20","5302","293","l","elianto","#3366ff99"," "," ","1","+10","[1507.6999999955297]","1","2","","","5302","124","8","1","win","go","0"
"pit-trial","246","1425743","0.0-129.0","battery-v0.2","","""event"",""trial"",""time""
""fullscreenenter"",""1"",""2650""
","
","
","""event"",""trial"",""time""
""fullscreenenter"",""1"",""2650""
","
","","","718.8999999985099","","","20","5302","293","u","elianto","#3366ff99"," "," ","1","+10","[1569.5999999940395]","1","2","","","5302","125","9","1","win","go","0"
"pit-trial","247","1429263","0.0-130.0","battery-v0.2","","""event"",""trial"",""time""
""fullscreenenter"",""1"",""2650""
","
","
","""event"",""trial"",""time""
""fullscreenenter"",""1"",""2650""
","
","","","655.6000000014901","","","20","5302","293","l","elianto","#3366ff99"," "," ","1","+10","[1506.3999999985099]","1","2","","","5302","126","8","1","win","go","0"
"pit-trial","248","1434132","0.0-131.0","battery-v0.2","","""event"",""trial"",""time""
""fullscreenenter"",""1"",""2650""
","
","
","""event"",""trial"",""time""
""fullscreenenter"",""1"",""2650""
","
","","","-1","","","20","5302","293","a","elianto","#f73b6a7A","-1","-1","1","0","[]","0","2","","","5302","127","7","4","lose","no-go","0"
"pit-trial","249","1437678","0.0-132.0","battery-v0.2","","""event"",""trial"",""time""
""fullscreenenter"",""1"",""2650""
","
","
","""event"",""trial"",""time""
""fullscreenenter"",""1"",""2650""
","
","","","674.7000000029802","","","20","5302","293","g","elianto","#f73b6a7A"," "," ","1","-10","[1533.9000000059605]","1","2","","","5302","128","6","3","lose","go","1"
"pit-trial","250","1441316","0.0-133.0","battery-v0.2","","""event"",""trial"",""time""
""fullscreenenter"",""1"",""2650""
","
","
","""event"",""trial"",""time""
""fullscreenenter"",""1"",""2650""
","
","","","769.1999999955297","","","20","5302","293","g","elianto","#f73b6a7A"," "," ","1","-10","[1623.2999999970198]","1","2","","","5302","129","6","3","lose","go","1"
"pit-trial","251","1446190","0.0-134.0","battery-v0.2","","""event"",""trial"",""time""
""fullscreenenter"",""1"",""2650""
","
","
","""event"",""trial"",""time""
""fullscreenenter"",""1"",""2650""
","
","","","-1","","","20","5302","293","a","elianto","#f73b6a7A","-1","-1","1","-10","[]","0","2","","","5302","130","7","4","lose","no-go","1"
"pit-trial","252","1449806","0.0-135.0","battery-v0.2","","""event"",""trial"",""time""
""fullscreenenter"",""1"",""2650""
","
","
","""event"",""trial"",""time""
""fullscreenenter"",""1"",""2650""
","
","","","748","","","20","5302","293","u","elianto","#3366ff99"," "," ","1","0","[1598.5999999940395]","1","2","","","5302","131","9","1","win","go","1"
"pit-trial","253","1453390","0.0-136.0","battery-v0.2","","""event"",""trial"",""time""
""fullscreenenter"",""1"",""2650""
","
","
","""event"",""trial"",""time""
""fullscreenenter"",""1"",""2650""
","
","","","722.1999999955297","","","20","5302","293","l","elianto","#3366ff99"," "," ","1","0","[1573.1000000014901]","1","2","","","5302","132","8","1","win","go","1"
"pit-trial","254","1458258","0.0-137.0","battery-v0.2","","""event"",""trial"",""time""
""fullscreenenter"",""1"",""2650""
","
","
","""event"",""trial"",""time""
""fullscreenenter"",""1"",""2650""
","
","","","-1","","","20","5302","293","a","elianto","#f73b6a7A","-1","-1","1","-10","[]","0","2","","","5302","133","7","4","lose","no-go","1"
"pit-trial","255","1461730","0.0-138.0","battery-v0.2","","""event"",""trial"",""time""
""fullscreenenter"",""1"",""2650""
","
","
","""event"",""trial"",""time""
""fullscreenenter"",""1"",""2650""
","
","","","606.8999999985099","","","20","5302","293","l","elianto","#3366ff99"," "," ","1","+10","[1459.2999999970198]","1","2","","","5302","134","8","1","win","go","0"
"pit-trial","256","1465330","0.0-139.0","battery-v0.2","","""event"",""trial"",""time""
""fullscreenenter"",""1"",""2650""
","
","
","""event"",""trial"",""time""
""fullscreenenter"",""1"",""2650""
","
","","","735","","","20","5302","293","g","elianto","#f73b6a7A"," "," ","1","0","[1586.1999999955297]","1","2","","","5302","135","6","3","lose","go","0"
"pit-trial","257","1469037","0.0-140.0","battery-v0.2","","""event"",""trial"",""time""
""fullscreenenter"",""1"",""2650""
","
","
","""event"",""trial"",""time""
""fullscreenenter"",""1"",""2650""
","
","","","841.2999999970198","","","20","5302","293","u","elianto","#3366ff99"," "," ","1","+10","[1691.2999999970198]","1","2","","","5302","136","9","1","win","go","0"
"pit-trial","258","1472515","0.0-141.0","battery-v0.2","","""event"",""trial"",""time""
""fullscreenenter"",""1"",""2650""
","
","
","""event"",""trial"",""time""
""fullscreenenter"",""1"",""2650""
","
","","","611.6000000014901","","","20","5302","293","l","elianto","#3366ff99"," "," ","1","+10","[1466.5]","1","2","","","5302","137","8","1","win","go","0"
"pit-trial","259","1477388","0.0-142.0","battery-v0.2","","""event"",""trial"",""time""
""fullscreenenter"",""1"",""2650""
","
","
","""event"",""trial"",""time""
""fullscreenenter"",""1"",""2650""
","
","","","-1","","","20","5302","293","a","elianto","#f73b6a7A","-1","-1","1","-10","[]","0","2","","","5302","138","7","4","lose","no-go","1"
"pit-trial","260","1480914","0.0-143.0","battery-v0.2","","""event"",""trial"",""time""
""fullscreenenter"",""1"",""2650""
","
","
","""event"",""trial"",""time""
""fullscreenenter"",""1"",""2650""
","
","","","654.6000000014901","","","20","5302","293","g","elianto","#f73b6a7A"," "," ","1","0","[1512.4000000059605]","1","2","","","5302","139","6","3","lose","go","0"
"pit-trial","261","1484428","0.0-144.0","battery-v0.2","","""event"",""trial"",""time""
""fullscreenenter"",""1"",""2650""
","
","
","""event"",""trial"",""time""
""fullscreenenter"",""1"",""2650""
","
","","","640.5","","","20","5302","293","u","elianto","#3366ff99"," "," ","1","+10","[1497.1000000014901]","1","2","","","5302","140","9","1","win","go","0"
"pit-instructions","262","1510111","0.0-145.0","battery-v0.2","","""event"",""trial"",""time""
""fullscreenenter"",""1"",""2650""
","
","
","""event"",""trial"",""time""
""fullscreenenter"",""1"",""2650""
","
","","[{""page_index"":0,""viewing_time"":16580.90000000596},{""page_index"":1,""viewing_time"":9097.29999999702}]","25679.60000000149","","","","","","","","","","","","","","","","","","","","","","","",""
"pit-trial","263","1513927","0.0-146.0","battery-v0.2","","""event"",""trial"",""time""
""fullscreenenter"",""1"",""2650""
","
","
","""event"",""trial"",""time""
""fullscreenenter"",""1"",""2650""
","
","","","934.7999999970198","","","20","5302","293","y","elianto","#f73b6a7A","-1"," ","0","-10","[1791.2999999970198]","1","3","","","5302","141","2","4","lose","no-go","0"
"pit-trial","264","1518790","0.0-147.0","battery-v0.2","","""event"",""trial"",""time""
""fullscreenenter"",""1"",""2650""
","
","
","""event"",""trial"",""time""
""fullscreenenter"",""1"",""2650""
","
","","","-1","","","20","5302","293","m","elianto","#f73b6a7A","-1","-1","1","-10","[]","0","3","","","5302","142","0","4","lose","no-go","1"
"pit-trial","265","1522402","0.0-148.0","battery-v0.2","","""event"",""trial"",""time""
""fullscreenenter"",""1"",""2650""
","
","
","""event"",""trial"",""time""
""fullscreenenter"",""1"",""2650""
","
","","","743.6000000014901","","","20","5302","293","h","elianto","#f73b6a7A"," "," ","1","0","[1594.5999999940395]","1","3","","","5302","143","3","3","lose","go","0"
"pit-trial","266","1526155","0.0-149.0","battery-v0.2","","""event"",""trial"",""time""
""fullscreenenter"",""1"",""2650""
","
","
","""event"",""trial"",""time""
""fullscreenenter"",""1"",""2650""
","
","","","886","","","20","5302","293","r","elianto","#3366ff99"," "," ","1","0","[1737.7999999970198]","1","3","","","5302","144","1","1","win","go","1"
"pit-trial","267","1529723","0.0-150.0","battery-v0.2","","""event"",""trial"",""time""
""fullscreenenter"",""1"",""2650""
","
","
","""event"",""trial"",""time""
""fullscreenenter"",""1"",""2650""
","
","","","699.6000000014901","","","20","5302","293","m","elianto","#f73b6a7A","-1"," ","0","0","[1550.7000000029802]","1","3","","","5302","145","0","4","lose","no-go","1"
"pit-trial","268","1534593","0.0-151.0","battery-v0.2","","""event"",""trial"",""time""
""fullscreenenter"",""1"",""2650""
","
","
","""event"",""trial"",""time""
""fullscreenenter"",""1"",""2650""