"trial_type","trial_index","time_elapsed","internal_node_id","task_version","subject_id","interactions","blur_events","focus_events","fullscreenenter_events","fullscreenexit_events","success","view_history","rt","responses","num_errors","age","subject","participantId","rune","rune_set","hex","correct","choice","accuracy","outcome","keys","total_keys","block","practice","value","sub","trial","stimulus","robot","valence","action","sham"
"pavlovia","0","340","0.0-0.0","battery-v0.2","","""event"",""trial"",""time""
""focus"",""1"",""2571""
""fullscreenenter"",""1"",""3300""
","
","""event"",""trial"",""time""
""focus"",""1"",""2571""
","""event"",""trial"",""time""
""fullscreenenter"",""1"",""3300""
","
","","","","","","","","","","","","","","","","","","","","","","","","","","",""
"fullscreen","1","3842","0.0-1.0","battery-v0.2","","""event"",""trial"",""time""
""focus"",""1"",""2571""
""fullscreenenter"",""1"",""3300""
","
","""event"",""trial"",""time""
""focus"",""1"",""2571""
","""event"",""trial"",""time""
""fullscreenenter"",""1"",""3300""
","
","true","","","","","","","","","","","","","","","","","","","","","","","","","",""
"pit-instructions","2","9974","0.0-2.0-0.0","battery-v0.2","","""event"",""trial"",""time""
""focus"",""1"",""2571""
""fullscreenenter"",""1"",""3300""
","
","""event"",""trial"",""time""
""focus"",""1"",""2571""
","""event"",""trial"",""time""
""fullscreenenter"",""1"",""3300""
","
","","[{""page_index"":0,""viewing_time"":6117.899999856949}]","6120.899999856949","","","","","","","","","","","","","","","","","","","","","","","",""
"pit-comprehension","3","12821","0.0-2.0-1.0-0.0","battery-v0.2","","""event"",""trial"",""time""
""focus"",""1"",""2571""
""fullscreenenter"",""1"",""3300""
","
","""event"",""trial"",""time""
""focus"",""1"",""2571""
","""event"",""trial"",""time""
""fullscreenenter"",""1"",""3300""
","
","","","2829","[""shark""]","0","21","3705","2283","","","","","","","","","","","","","","","","","","",""
"pit-instructions","4","14400","0.0-2.0-1.0-1.0","battery-v0.2","","""event"",""trial"",""time""
""focus"",""1"",""2571""
""fullscreenenter"",""1"",""3300""
","
","""event"",""trial"",""time""
""focus"",""1"",""2571""
","""event"",""trial"",""time""
""fullscreenenter"",""1"",""3300""
","
","","[{""page_index"":0,""viewing_time"":1064.2000000476837}]","1065.5","","","","","","","","","","","","","","","","","","","","","","","",""
"pit-comprehension","5","17375","0.0-2.0-2.0-0.0","battery-v0.2","","""event"",""trial"",""time""
""focus"",""1"",""2571""
""fullscreenenter"",""1"",""3300""
","
","""event"",""trial"",""time""
""focus"",""1"",""2571""
","""event"",""trial"",""time""
""fullscreenenter"",""1"",""3300""
","
","","","2954.7999999523163","[""tiger""]","0","21","3705","2283","","","","","","","","","","","","","","","","","","",""
"pit-instructions","6","18805","0.0-2.0-2.0-1.0","battery-v0.2","","""event"",""trial"",""time""
""focus"",""1"",""2571""
""fullscreenenter"",""1"",""3300""
""blur"",""7"",""56260""
""focus"",""7"",""57743""
""fullscreenexit"",""7"",""82534""
""blur"",""7"",""115949""
""focus"",""7"",""117141""
""blur"",""7"",""170342""
""focus"",""7"",""173210""
","""event"",""trial"",""time""
""blur"",""7"",""56260""
""blur"",""7"",""115949""
""blur"",""7"",""170342""
","""event"",""trial"",""time""
""focus"",""1"",""2571""
""focus"",""7"",""57743""
""focus"",""7"",""117141""
""focus"",""7"",""173210""
","""event"",""trial"",""time""
""fullscreenenter"",""1"",""3300""
","""event"",""trial"",""time""
""fullscreenexit"",""7"",""82534""
","","[{""page_index"":0,""viewing_time"":1408.9000000953674}]","1410.7999999523163","","","","","","","","","","","","","","","","","","","","","","","",""
"pit-instructions","7","194542","0.0-2.0-3.0","battery-v0.2","","""event"",""trial"",""time""
""focus"",""1"",""2571""
""fullscreenenter"",""1"",""3300""
""blur"",""7"",""56260""
""focus"",""7"",""57743""
""fullscreenexit"",""7"",""82534""
""blur"",""7"",""115949""
""focus"",""7"",""117141""
""blur"",""7"",""170342""
""focus"",""7"",""173210""
","""event"",""trial"",""time""
""blur"",""7"",""56260""
""blur"",""7"",""115949""
""blur"",""7"",""170342""
","""event"",""trial"",""time""
""focus"",""1"",""2571""
""focus"",""7"",""57743""
""focus"",""7"",""117141""
""focus"",""7"",""173210""
","""event"",""trial"",""time""
""fullscreenenter"",""1"",""3300""
","""event"",""trial"",""time""
""fullscreenexit"",""7"",""82534""
","","[{""page_index"":0,""viewing_time"":7945.5},{""page_index"":1,""viewing_time"":5471.799999952316},{""page_index"":2,""viewing_time"":27310.900000095367},{""page_index"":3,""viewing_time"":57648.59999990463},{""page_index"":4,""viewing_time"":6533},{""page_index"":5,""viewing_time"":5800.299999952316},{""page_index"":6,""viewing_time"":8106.600000143051},{""page_index"":7,""viewing_time"":6080},{""page_index"":8,""viewing_time"":8511.099999904633},{""page_index"":9,""viewing_time"":10050},{""page_index"":10,""viewing_time"":12292.099999904633},{""page_index"":11,""viewing_time"":7753},{""page_index"":12,""viewing_time"":6012.400000095367},{""page_index"":13,""viewing_time"":6203.400000095367}]","175720.59999990463","","","","","","","","","","","","","","","","","","","","","","","",""
"pit-trial","8","199085","0.0-2.0-4.0-0.0","battery-v0.2","","""event"",""trial"",""time""
""focus"",""1"",""2571""
""fullscreenenter"",""1"",""3300""
""blur"",""7"",""56260""
""focus"",""7"",""57743""
""fullscreenexit"",""7"",""82534""
""blur"",""7"",""115949""
""focus"",""7"",""117141""
""blur"",""7"",""170342""
""focus"",""7"",""173210""
","""event"",""trial"",""time""
""blur"",""7"",""56260""
""blur"",""7"",""115949""
""blur"",""7"",""170342""
","""event"",""trial"",""time""
""focus"",""1"",""2571""
""focus"",""7"",""57743""
""focus"",""7"",""117141""
""focus"",""7"",""173210""
","""event"",""trial"",""time""
""fullscreenenter"",""1"",""3300""
","""event"",""trial"",""time""
""fullscreenexit"",""7"",""82534""
","","","1656.9000000953674","","","21","3705","2283","&#9784;","elianto","#FFFFF080"," "," ","1","&#10004","[2509.399999856949]","1","0","0","","","","","","","",""
"pit-trial","9","203055","0.0-2.0-4.1-0.1","battery-v0.2","","""event"",""trial"",""time""
""focus"",""1"",""2571""
""fullscreenenter"",""1"",""3300""
""blur"",""7"",""56260""
""focus"",""7"",""57743""
""fullscreenexit"",""7"",""82534""
""blur"",""7"",""115949""
""focus"",""7"",""117141""
""blur"",""7"",""170342""
""focus"",""7"",""173210""
","""event"",""trial"",""time""
""blur"",""7"",""56260""
""blur"",""7"",""115949""
""blur"",""7"",""170342""
","""event"",""trial"",""time""
""focus"",""1"",""2571""
""focus"",""7"",""57743""
""focus"",""7"",""117141""
""focus"",""7"",""173210""
","""event"",""trial"",""time""
""fullscreenenter"",""1"",""3300""
","""event"",""trial"",""time""
""fullscreenexit"",""7"",""82534""
","","","1086.1000001430511","","","21","3705","2283","&#9784;","elianto","#FFFFF080"," "," ","1","&#10004","[1941.7999999523163]","1","0","0","","","","","","","",""
"pit-trial","10","207376","0.0-2.0-4.2-0.2","battery-v0.2","","""event"",""trial"",""time""
""focus"",""1"",""2571""
""fullscreenenter"",""1"",""3300""
""blur"",""7"",""56260""
""focus"",""7"",""57743""
""fullscreenexit"",""7"",""82534""
""blur"",""7"",""115949""
""focus"",""7"",""117141""
""blur"",""7"",""170342""
""focus"",""7"",""173210""
","""event"",""trial"",""time""
""blur"",""7"",""56260""
""blur"",""7"",""115949""
""blur"",""7"",""170342""
","""event"",""trial"",""time""
""focus"",""1"",""2571""
""focus"",""7"",""57743""
""focus"",""7"",""117141""
""focus"",""7"",""173210""
","""event"",""trial"",""time""
""fullscreenenter"",""1"",""3300""
","""event"",""trial"",""time""
""fullscreenexit"",""7"",""82534""
","","","1440","","","21","3705","2283","&#9784;","elianto","#FFFFF080"," "," ","1","&#10004","[2295.699999809265]","1","0","0","","","","","","","",""
"pit-trial","11","211285","0.0-2.0-4.3-0.3","battery-v0.2","","""event"",""trial"",""time""
""focus"",""1"",""2571""
""fullscreenenter"",""1"",""3300""
""blur"",""7"",""56260""
""focus"",""7"",""57743""
""fullscreenexit"",""7"",""82534""
""blur"",""7"",""115949""
""focus"",""7"",""117141""
""blur"",""7"",""170342""
""focus"",""7"",""173210""
","""event"",""trial"",""time""
""blur"",""7"",""56260""
""blur"",""7"",""115949""
""blur"",""7"",""170342""
","""event"",""trial"",""time""
""focus"",""1"",""2571""
""focus"",""7"",""57743""
""focus"",""7"",""117141""
""focus"",""7"",""173210""
","""event"",""trial"",""time""
""fullscreenenter"",""1"",""3300""
","""event"",""trial"",""time""
""fullscreenexit"",""7"",""82534""
","","","1026","","","21","3705","2283","&#9784;","elianto","#FFFFF080"," "," ","1","&#10004","[1880.2000000476837]","1","0","0","","","","","","","",""
"pit-trial","12","214796","0.0-2.0-4.4-0.4","battery-v0.2","","""event"",""trial"",""time""
""focus"",""1"",""2571""
""fullscreenenter"",""1"",""3300""
""blur"",""7"",""56260""
""focus"",""7"",""57743""
""fullscreenexit"",""7"",""82534""
""blur"",""7"",""115949""
""focus"",""7"",""117141""
""blur"",""7"",""170342""
""focus"",""7"",""173210""
","""event"",""trial"",""time""
""blur"",""7"",""56260""
""blur"",""7"",""115949""
""blur"",""7"",""170342""
","""event"",""trial"",""time""
""focus"",""1"",""2571""
""focus"",""7"",""57743""
""focus"",""7"",""117141""
""focus"",""7"",""173210""
","""event"",""trial"",""time""
""fullscreenenter"",""1"",""3300""
","""event"",""trial"",""time""
""fullscreenexit"",""7"",""82534""
","","","627","","","21","3705","2283","&#9784;","elianto","#FFFFF080"," "," ","1","&#10004","[1494]","1","0","0","","","","","","","",""
"pit-instructions","13","236987","0.0-2.0-5.0","battery-v0.2","","""event"",""trial"",""time""
""focus"",""1"",""2571""
""fullscreenenter"",""1"",""3300""
""blur"",""7"",""56260""
""focus"",""7"",""57743""
""fullscreenexit"",""7"",""82534""
""blur"",""7"",""115949""
""focus"",""7"",""117141""
""blur"",""7"",""170342""
""focus"",""7"",""173210""
","""event"",""trial"",""time""
""blur"",""7"",""56260""
""blur"",""7"",""115949""
""blur"",""7"",""170342""
","""event"",""trial"",""time""
""focus"",""1"",""2571""
""focus"",""7"",""57743""
""focus"",""7"",""117141""
""focus"",""7"",""173210""
","""event"",""trial"",""time""
""fullscreenenter"",""1"",""3300""
","""event"",""trial"",""time""
""fullscreenexit"",""7"",""82534""
","","[{""page_index"":0,""viewing_time"":5372.600000143051},{""page_index"":1,""viewing_time"":5702.200000047684},{""page_index"":2,""viewing_time"":5732.099999904633},{""page_index"":3,""viewing_time"":5372.099999904633}]","22180.300000190735","","","","","","","","","","","","","","","","","","","","","","","",""
"pit-trial","14","241866","0.0-2.0-6.0-0.0","battery-v0.2","","""event"",""trial"",""time""
""focus"",""1"",""2571""
""fullscreenenter"",""1"",""3300""
""blur"",""7"",""56260""
""focus"",""7"",""57743""
""fullscreenexit"",""7"",""82534""
""blur"",""7"",""115949""
""focus"",""7"",""117141""
""blur"",""7"",""170342""
""focus"",""7"",""173210""
","""event"",""trial"",""time""
""blur"",""7"",""56260""
""blur"",""7"",""115949""
""blur"",""7"",""170342""
","""event"",""trial"",""time""
""focus"",""1"",""2571""
""focus"",""7"",""57743""
""focus"",""7"",""117141""
""focus"",""7"",""173210""
","""event"",""trial"",""time""
""fullscreenenter"",""1"",""3300""
","""event"",""trial"",""time""
""fullscreenexit"",""7"",""82534""
","","","-1","","","21","3705","2283","&#9854;","elianto","#FFFFF080","-1","-1","1","&#10004","[]","0","0","1","","","","","","","",""
"pit-trial","15","246755","0.0-2.0-6.1-0.1","battery-v0.2","","""event"",""trial"",""time""
""focus"",""1"",""2571""
""fullscreenenter"",""1"",""3300""
""blur"",""7"",""56260""
""focus"",""7"",""57743""
""fullscreenexit"",""7"",""82534""
""blur"",""7"",""115949""
""focus"",""7"",""117141""
""blur"",""7"",""170342""
""focus"",""7"",""173210""
","""event"",""trial"",""time""
""blur"",""7"",""56260""
""blur"",""7"",""115949""
""blur"",""7"",""170342""
","""event"",""trial"",""time""
""focus"",""1"",""2571""
""focus"",""7"",""57743""
""focus"",""7"",""117141""
""focus"",""7"",""173210""
","""event"",""trial"",""time""
""fullscreenenter"",""1"",""3300""
","""event"",""trial"",""time""
""fullscreenexit"",""7"",""82534""
","","","-1","","","21","3705","2283","&#9854;","elianto","#FFFFF080","-1","-1","1","&#10004","[]","0","0","1","","","","","","","",""
"pit-trial","16","251640","0.0-2.0-6.2-0.2","battery-v0.2","","""event"",""trial"",""time""
""focus"",""1"",""2571""
""fullscreenenter"",""1"",""3300""
""blur"",""7"",""56260""
""focus"",""7"",""57743""
""fullscreenexit"",""7"",""82534""
""blur"",""7"",""115949""
""focus"",""7"",""117141""
""blur"",""7"",""170342""
""focus"",""7"",""173210""
","""event"",""trial"",""time""
""blur"",""7"",""56260""
""blur"",""7"",""115949""
""blur"",""7"",""170342""
","""event"",""trial"",""time""
""focus"",""1"",""2571""
""focus"",""7"",""57743""
""focus"",""7"",""117141""
""focus"",""7"",""173210""
","""event"",""trial"",""time""
""fullscreenenter"",""1"",""3300""
","""event"",""trial"",""time""
""fullscreenexit"",""7"",""82534""
","","","-1","","","21","3705","2283","&#9854;","elianto","#FFFFF080","-1","-1","1","&#10004","[]","0","0","1","","","","","","","",""
"pit-trial","17","256507","0.0-2.0-6.3-0.3","battery-v0.2","","""event"",""trial"",""time""
""focus"",""1"",""2571""
""fullscreenenter"",""1"",""3300""
""blur"",""7"",""56260""
""focus"",""7"",""57743""
""fullscreenexit"",""7"",""82534""
""blur"",""7"",""115949""
""focus"",""7"",""117141""
""blur"",""7"",""170342""
""focus"",""7"",""173210""
","""event"",""trial"",""time""
""blur"",""7"",""56260""
""blur"",""7"",""115949""
""blur"",""7"",""170342""
","""event"",""trial"",""time""
""focus"",""1"",""2571""
""focus"",""7"",""57743""
""focus"",""7"",""117141""
""focus"",""7"",""173210""
","""event"",""trial"",""time""
""fullscreenenter"",""1"",""3300""
","""event"",""trial"",""time""
""fullscreenexit"",""7"",""82534""
","","","-1","","","21","3705","2283","&#9854;","elianto","#FFFFF080","-1","-1","1","&#10004","[]","0","0","1","","","","","","","",""
"pit-trial","18","261395","0.0-2.0-6.4-0.4","battery-v0.2","","""event"",""trial"",""time""
""focus"",""1"",""2571""
""fullscreenenter"",""1"",""3300""
""blur"",""7"",""56260""
""focus"",""7"",""57743""
""fullscreenexit"",""7"",""82534""
""blur"",""7"",""115949""
""focus"",""7"",""117141""
""blur"",""7"",""170342""
""focus"",""7"",""173210""
","""event"",""trial"",""time""
""blur"",""7"",""56260""
""blur"",""7"",""115949""
""blur"",""7"",""170342""
","""event"",""trial"",""time""
""focus"",""1"",""2571""
""focus"",""7"",""57743""
""focus"",""7"",""117141""
""focus"",""7"",""173210""
","""event"",""trial"",""time""
""fullscreenenter"",""1"",""3300""
","""event"",""trial"",""time""
""fullscreenexit"",""7"",""82534""
","","","-1","","","21","3705","2283","&#9854;","elianto","#FFFFF080","-1","-1","1","&#10004","[]","0","0","1","","","","","","","",""
"pit-instructions","19","394982","0.0-2.0-7.0","battery-v0.2","","""event"",""trial"",""time""
""focus"",""1"",""2571""
""fullscreenenter"",""1"",""3300""
""blur"",""7"",""56260""
""focus"",""7"",""57743""
""fullscreenexit"",""7"",""82534""
""blur"",""7"",""115949""
""focus"",""7"",""117141""
""blur"",""7"",""170342""
""focus"",""7"",""173210""
","""event"",""trial"",""time""
""blur"",""7"",""56260""
""blur"",""7"",""115949""
""blur"",""7"",""170342""
","""event"",""trial"",""time""
""focus"",""1"",""2571""
""focus"",""7"",""57743""
""focus"",""7"",""117141""
""focus"",""7"",""173210""
","""event"",""trial"",""time""
""fullscreenenter"",""1"",""3300""
","""event"",""trial"",""time""
""fullscreenexit"",""7"",""82534""
","","[{""page_index"":0,""viewing_time"":7213},{""page_index"":1,""viewing_time"":7142},{""page_index"":2,""viewing_time"":6732.200000047684},{""page_index"":3,""viewing_time"":7521.599999904633},{""page_index"":4,""viewing_time"":6301.700000047684},{""page_index"":5,""viewing_time"":6611.5},{""page_index"":6,""viewing_time"":5103.799999952316},{""page_index"":7,""viewing_time"":8190.700000047684},{""page_index"":8,""viewing_time"":7192.099999904633},{""page_index"":9,""viewing_time"":6562.100000143051},{""page_index"":10,""viewing_time"":9645.700000047684},{""page_index"":11,""viewing_time"":5383.899999856949},{""page_index"":12,""viewing_time"":6184.600000143051},{""page_index"":13,""viewing_time"":6151.299999952316},{""page_index"":14,""viewing_time"":7402.299999952316},{""page_index"":15,""viewing_time"":10752},{""page_index"":16,""viewing_time"":8182.099999904633},{""page_index"":17,""viewing_time"":11301}]","133575.70000004768","","","","","","","","","","","","","","","","","","","","","","","",""
"pit-trial","20","399433","0.0-2.0-8.0-0.0","battery-v0.2","","""event"",""trial"",""time""
""focus"",""1"",""2571""
""fullscreenenter"",""1"",""3300""
""blur"",""7"",""56260""
""focus"",""7"",""57743""
""fullscreenexit"",""7"",""82534""
""blur"",""7"",""115949""
""focus"",""7"",""117141""
""blur"",""7"",""170342""
""focus"",""7"",""173210""
","""event"",""trial"",""time""
""blur"",""7"",""56260""
""blur"",""7"",""115949""
""blur"",""7"",""170342""
","""event"",""trial"",""time""
""focus"",""1"",""2571""
""focus"",""7"",""57743""
""focus"",""7"",""117141""
""focus"",""7"",""173210""
","""event"",""trial"",""time""
""fullscreenenter"",""1"",""3300""
","""event"",""trial"",""time""
""fullscreenexit"",""7"",""82534""
","","","1591.8000001907349","","","21","3705","2283","&#9776;","elianto","#3366ff99"," "," ","1","+10","[2442.2000000476837]","1","0","1","","","","","","","",""
"pit-trial","21","402849","0.0-2.0-8.0-1.0","battery-v0.2","","""event"",""trial"",""time""
""focus"",""1"",""2571""
""fullscreenenter"",""1"",""3300""
""blur"",""7"",""56260""
""focus"",""7"",""57743""
""fullscreenexit"",""7"",""82534""
""blur"",""7"",""115949""
""focus"",""7"",""117141""
""blur"",""7"",""170342""
""focus"",""7"",""173210""
","""event"",""trial"",""time""
""blur"",""7"",""56260""
""blur"",""7"",""115949""
""blur"",""7"",""170342""
","""event"",""trial"",""time""
""focus"",""1"",""2571""
""focus"",""7"",""57743""
""focus"",""7"",""117141""
""focus"",""7"",""173210""
","""event"",""trial"",""time""
""fullscreenenter"",""1"",""3300""
","""event"",""trial"",""time""
""fullscreenexit"",""7"",""82534""
","","","533.5","","","21","3705","2283","&#9776;","elianto","#3366ff99"," "," ","1","+10","[1388.5]","1","0","1","","","","","","","",""
"pit-trial","22","406243","0.0-2.0-8.0-2.0","battery-v0.2","","""event"",""trial"",""time""
""focus"",""1"",""2571""
""fullscreenenter"",""1"",""3300""
""blur"",""7"",""56260""
""focus"",""7"",""57743""
""fullscreenexit"",""7"",""82534""
""blur"",""7"",""115949""
""focus"",""7"",""117141""
""blur"",""7"",""170342""
""focus"",""7"",""173210""
","""event"",""trial"",""time""
""blur"",""7"",""56260""
""blur"",""7"",""115949""
""blur"",""7"",""170342""
","""event"",""trial"",""time""
""focus"",""1"",""2571""
""focus"",""7"",""57743""
""focus"",""7"",""117141""
""focus"",""7"",""173210""
","""event"",""trial"",""time""
""fullscreenenter"",""1"",""3300""
","""event"",""trial"",""time""
""fullscreenexit"",""7"",""82534""
","","","518.9000000953674","","","21","3705","2283","&#9776;","elianto","#3366ff99"," "," ","1","+10","[1374.9000000953674]","1","0","1","","","","","","","",""
"pit-trial","23","409679","0.0-2.0-8.0-3.0","battery-v0.2","","""event"",""trial"",""time""
""focus"",""1"",""2571""
""fullscreenenter"",""1"",""3300""
""blur"",""7"",""56260""
""focus"",""7"",""57743""
""fullscreenexit"",""7"",""82534""
""blur"",""7"",""115949""
""focus"",""7"",""117141""
""blur"",""7"",""170342""
""focus"",""7"",""173210""
","""event"",""trial"",""time""
""blur"",""7"",""56260""
""blur"",""7"",""115949""
""blur"",""7"",""170342""
","""event"",""trial"",""time""
""focus"",""1"",""2571""
""focus"",""7"",""57743""
""focus"",""7"",""117141""
""focus"",""7"",""173210""
","""event"",""trial"",""time""
""fullscreenenter"",""1"",""3300""
","""event"",""trial"",""time""
""fullscreenexit"",""7"",""82534""
","","","565.9000000953674","","","21","3705","2283","&#9776;","elianto","#3366ff99"," "," ","1","0","[1416.6000001430511]","1","0","1","","","","","","","",""
"pit-trial","24","412853","0.0-2.0-8.0-4.0","battery-v0.2","","""event"",""trial"",""time""
""focus"",""1"",""2571""
""fullscreenenter"",""1"",""3300""
""blur"",""7"",""56260""
""focus"",""7"",""57743""
""fullscreenexit"",""7"",""82534""
""blur"",""7"",""115949""
""focus"",""7"",""117141""
""blur"",""7"",""170342""
""focus"",""7"",""173210""
","""event"",""trial"",""time""
""blur"",""7"",""56260""
""blur"",""7"",""115949""
""blur"",""7"",""170342""
","""event"",""trial"",""time""
""focus"",""1"",""2571""
""focus"",""7"",""57743""
""focus"",""7"",""117141""
""focus"",""7"",""173210""
","""event"",""trial"",""time""
""fullscreenenter"",""1"",""3300""
","""event"",""trial"",""time""
""fullscreenexit"",""7"",""82534""
","","","295.40000009536743","","","21","3705","2283","&#9776;","elianto","#3366ff99"," "," ","1","+10","[1150.2999999523163]","1","0","1","","","","","","","",""
"pit-trial","25","416247","0.0-2.0-8.1-0.1","battery-v0.2","","""event"",""trial"",""time""
""focus"",""1"",""2571""
""fullscreenenter"",""1"",""3300""
""blur"",""7"",""56260""
""focus"",""7"",""57743""
""fullscreenexit"",""7"",""82534""
""blur"",""7"",""115949""
""focus"",""7"",""117141""
""blur"",""7"",""170342""
""focus"",""7"",""173210""
","""event"",""trial"",""time""
""blur"",""7"",""56260""
""blur"",""7"",""115949""
""blur"",""7"",""170342""
","""event"",""trial"",""time""
""focus"",""1"",""2571""
""focus"",""7"",""57743""
""focus"",""7"",""117141""
""focus"",""7"",""173210""
","""event"",""trial"",""time""
""fullscreenenter"",""1"",""3300""
","""event"",""trial"",""time""
""fullscreenexit"",""7"",""82534""
","","","514.7999999523163","","","21","3705","2283","&#9776;","elianto","#3366ff99"," "," ","1","+10","[1373.5]","1","0","1","","","","","","","",""
"pit-trial","26","419624","0.0-2.0-8.1-1.1","battery-v0.2","","""event"",""trial"",""time""
""focus"",""1"",""2571""
""fullscreenenter"",""1"",""3300""
""blur"",""7"",""56260""
""focus"",""7"",""57743""
""fullscreenexit"",""7"",""82534""
""blur"",""7"",""115949""
""focus"",""7"",""117141""
""blur"",""7"",""170342""
""focus"",""7"",""173210""
","""event"",""trial"",""time""
""blur"",""7"",""56260""
""blur"",""7"",""115949""
""blur"",""7"",""170342""
","""event"",""trial"",""time""
""focus"",""1"",""2571""
""focus"",""7"",""57743""
""focus"",""7"",""117141""
""focus"",""7"",""173210""
","""event"",""trial"",""time""
""fullscreenenter"",""1"",""3300""
","""event"",""trial"",""time""
""fullscreenexit"",""7"",""82534""
","","","507.90000009536743","","","21","3705","2283","&#9776;","elianto","#3366ff99"," "," ","1","+10","[1362.1000001430511]","1","0","1","","","","","","","",""
"pit-trial","27","422723","0.0-2.0-8.1-2.1","battery-v0.2","","""event"",""trial"",""time""
""focus"",""1"",""2571""
""fullscreenenter"",""1"",""3300""
""blur"",""7"",""56260""
""focus"",""7"",""57743""
""fullscreenexit"",""7"",""82534""
""blur"",""7"",""115949""
""focus"",""7"",""117141""
""blur"",""7"",""170342""
""focus"",""7"",""173210""
","""event"",""trial"",""time""
""blur"",""7"",""56260""
""blur"",""7"",""115949""
""blur"",""7"",""170342""
","""event"",""trial"",""time""
""focus"",""1"",""2571""
""focus"",""7"",""57743""
""focus"",""7"",""117141""
""focus"",""7"",""173210""
","""event"",""trial"",""time""
""fullscreenenter"",""1"",""3300""
","""event"",""trial"",""time""
""fullscreenexit"",""7"",""82534""
","","","210.60000014305115","","","21","3705","2283","&#9776;","elianto","#3366ff99"," "," ","1","+10","[1070]","1","0","1","","","","","","","",""
"pit-trial","28","426019","0.0-2.0-8.1-3.1","battery-v0.2","","""event"",""trial"",""time""
""focus"",""1"",""2571""
""fullscreenenter"",""1"",""3300""
""blur"",""7"",""56260""
""focus"",""7"",""57743""
""fullscreenexit"",""7"",""82534""
""blur"",""7"",""115949""
""focus"",""7"",""117141""
""blur"",""7"",""170342""
""focus"",""7"",""173210""
","""event"",""trial"",""time""
""blur"",""7"",""56260""
""blur"",""7"",""115949""
""blur"",""7"",""170342""
","""event"",""trial"",""time""
""focus"",""1"",""2571""
""focus"",""7"",""57743""
""focus"",""7"",""117141""
""focus"",""7"",""173210""
","""event"",""trial"",""time""
""fullscreenenter"",""1"",""3300""
","""event"",""trial"",""time""
""fullscreenexit"",""7"",""82534""
","","","419.10000014305115","","","21","3705","2283","&#9776;","elianto","#3366ff99"," "," ","1","0","[1284.9000000953674]","1","0","1","","","","","","","",""
"pit-trial","29","429466","0.0-2.0-8.1-4.1","battery-v0.2","","""event"",""trial"",""time""
""focus"",""1"",""2571""
""fullscreenenter"",""1"",""3300""
""blur"",""7"",""56260""
""focus"",""7"",""57743""
""fullscreenexit"",""7"",""82534""
""blur"",""7"",""115949""
""focus"",""7"",""117141""
""blur"",""7"",""170342""
""focus"",""7"",""173210""
","""event"",""trial"",""time""
""blur"",""7"",""56260""
""blur"",""7"",""115949""
""blur"",""7"",""170342""
","""event"",""trial"",""time""
""focus"",""1"",""2571""
""focus"",""7"",""57743""
""focus"",""7"",""117141""
""focus"",""7"",""173210""
","""event"",""trial"",""time""
""fullscreenenter"",""1"",""3300""
","""event"",""trial"",""time""
""fullscreenexit"",""7"",""82534""
","","","581.9000000953674","","","21","3705","2283","&#9776;","elianto","#3366ff99"," "," ","1","+10","[1436]","1","0","1","","","","","","","",""
"pit-trial","30","432644","0.0-2.0-8.2-0.2","battery-v0.2","","""event"",""trial"",""time""
""focus"",""1"",""2571""
""fullscreenenter"",""1"",""3300""
""blur"",""7"",""56260""
""focus"",""7"",""57743""
""fullscreenexit"",""7"",""82534""
""blur"",""7"",""115949""
""focus"",""7"",""117141""
""blur"",""7"",""170342""
""focus"",""7"",""173210""
","""event"",""trial"",""time""
""blur"",""7"",""56260""
""blur"",""7"",""115949""
""blur"",""7"",""170342""
","""event"",""trial"",""time""
""focus"",""1"",""2571""
""focus"",""7"",""57743""
""focus"",""7"",""117141""
""focus"",""7"",""173210""
","""event"",""trial"",""time""
""fullscreenenter"",""1"",""3300""
","""event"",""trial"",""time""
""fullscreenexit"",""7"",""82534""
","","","304.10000014305115","","","21","3705","2283","&#9776;","elianto","#3366ff99"," "," ","1","+10","[1161.8999998569489]","1","0","1","","","","","","","",""
"pit-trial","31","435922","0.0-2.0-8.2-1.2","battery-v0.2","","""event"",""trial"",""time""
""focus"",""1"",""2571""
""fullscreenenter"",""1"",""3300""
""blur"",""7"",""56260""
""focus"",""7"",""57743""
""fullscreenexit"",""7"",""82534""
""blur"",""7"",""115949""
""focus"",""7"",""117141""
""blur"",""7"",""170342""
""focus"",""7"",""173210""
","""event"",""trial"",""time""
""blur"",""7"",""56260""
""blur"",""7"",""115949""
""blur"",""7"",""170342""
","""event"",""trial"",""time""
""focus"",""1"",""2571""
""focus"",""7"",""57743""
""focus"",""7"",""117141""
""focus"",""7"",""173210""
","""event"",""trial"",""time""
""fullscreenenter"",""1"",""3300""
","""event"",""trial"",""time""
""fullscreenexit"",""7"",""82534""
","","","412.7999999523163","","","21","3705","2283","&#9776;","elianto","#3366ff99"," "," ","1","+10","[1265.5999999046326]","1","0","1","","","","","","","",""
"pit-trial","32","439412","0.0-2.0-8.2-2.2","battery-v0.2","","""event"",""trial"",""time""
""focus"",""1"",""2571""
""fullscreenenter"",""1"",""3300""
""blur"",""7"",""56260""
""focus"",""7"",""57743""
""fullscreenexit"",""7"",""82534""
""blur"",""7"",""115949""
""focus"",""7"",""117141""
""blur"",""7"",""170342""
""focus"",""7"",""173210""
","""event"",""trial"",""time""
""blur"",""7"",""56260""
""blur"",""7"",""115949""
""blur"",""7"",""170342""
","""event"",""trial"",""time""
""focus"",""1"",""2571""
""focus"",""7"",""57743""
""focus"",""7"",""117141""
""focus"",""7"",""173210""
","""event"",""trial"",""time""
""fullscreenenter"",""1"",""3300""
","""event"",""trial"",""time""
""fullscreenexit"",""7"",""82534""
","","","621.7000000476837","","","21","3705","2283","&#9776;","elianto","#3366ff99"," "," ","1","+10","[1475.5999999046326]","1","0","1","","","","","","","",""
"pit-trial","33","442618","0.0-2.0-8.2-3.2","battery-v0.2","","""event"",""trial"",""time""
""focus"",""1"",""2571""
""fullscreenenter"",""1"",""3300""
""blur"",""7"",""56260""
""focus"",""7"",""57743""
""fullscreenexit"",""7"",""82534""
""blur"",""7"",""115949""
""focus"",""7"",""117141""
""blur"",""7"",""170342""
""focus"",""7"",""173210""
","""event"",""trial"",""time""
""blur"",""7"",""56260""
""blur"",""7"",""115949""
""blur"",""7"",""170342""
","""event"",""trial"",""time""
""focus"",""1"",""2571""
""focus"",""7"",""57743""
""focus"",""7"",""117141""
""focus"",""7"",""173210""
","""event"",""trial"",""time""
""fullscreenenter"",""1"",""3300""
","""event"",""trial"",""time""
""fullscreenexit"",""7"",""82534""
","","","340.2999999523163","","","21","3705","2283","&#9776;","elianto","#3366ff99"," "," ","1","0","[1194.3000001907349]","1","0","1","","","","","","","",""
"pit-trial","34","445843","0.0-2.0-8.2-4.2","battery-v0.2","","""event"",""trial"",""time""
""focus"",""1"",""2571""
""fullscreenenter"",""1"",""3300""
""blur"",""7"",""56260""
""focus"",""7"",""57743""
""fullscreenexit"",""7"",""82534""
""blur"",""7"",""115949""
""focus"",""7"",""117141""
""blur"",""7"",""170342""
""focus"",""7"",""173210""
","""event"",""trial"",""time""
""blur"",""7"",""56260""
""blur"",""7"",""115949""
""blur"",""7"",""170342""
","""event"",""trial"",""time""
""focus"",""1"",""2571""
""focus"",""7"",""57743""
""focus"",""7"",""117141""
""focus"",""7"",""173210""
","""event"",""trial"",""time""
""fullscreenenter"",""1"",""3300""
","""event"",""trial"",""time""
""fullscreenexit"",""7"",""82534""
","","","362.2000000476837","","","21","3705","2283","&#9776;","elianto","#3366ff99"," "," ","1","+10","[1215.5999999046326]","1","0","1","","","","","","","",""
"call-function","35","445851","0.0-2.0-9.0","battery-v0.2","","""event"",""trial"",""time""
""focus"",""1"",""2571""
""fullscreenenter"",""1"",""3300""
""blur"",""7"",""56260""
""focus"",""7"",""57743""
""fullscreenexit"",""7"",""82534""
""blur"",""7"",""115949""
""focus"",""7"",""117141""
""blur"",""7"",""170342""
""focus"",""7"",""173210""
","""event"",""trial"",""time""
""blur"",""7"",""56260""
""blur"",""7"",""115949""
""blur"",""7"",""170342""
","""event"",""trial"",""time""
""focus"",""1"",""2571""
""focus"",""7"",""57743""
""focus"",""7"",""117141""
""focus"",""7"",""173210""
","""event"",""trial"",""time""
""fullscreenenter"",""1"",""3300""
","""event"",""trial"",""time""
""fullscreenexit"",""7"",""82534""
","","","","","","","","","","","","","","","","","","","","","","","","","","",""
"pit-instructions","36","486131","0.0-2.0-10.0","battery-v0.2","","""event"",""trial"",""time""
""focus"",""1"",""2571""
""fullscreenenter"",""1"",""3300""
""blur"",""7"",""56260""
""focus"",""7"",""57743""
""fullscreenexit"",""7"",""82534""
""blur"",""7"",""115949""
""focus"",""7"",""117141""
""blur"",""7"",""170342""
""focus"",""7"",""173210""
","""event"",""trial"",""time""
""blur"",""7"",""56260""
""blur"",""7"",""115949""
""blur"",""7"",""170342""
","""event"",""trial"",""time""
""focus"",""1"",""2571""
""focus"",""7"",""57743""
""focus"",""7"",""117141""
""focus"",""7"",""173210""
","""event"",""trial"",""time""
""fullscreenenter"",""1"",""3300""
","""event"",""trial"",""time""
""fullscreenexit"",""7"",""82534""
","","[{""page_index"":0,""viewing_time"":6769.399999856949},{""page_index"":1,""viewing_time"":7371.400000095367},{""page_index"":2,""viewing_time"":9662},{""page_index"":3,""viewing_time"":9063.299999952316},{""page_index"":4,""viewing_time"":7410.700000047684}]","40278.89999985695","","","","","","","","","","","","","","","","","","","","","","","",""
"pit-trial","37","491017","0.0-2.0-11.0-0.0","battery-v0.2","","""event"",""trial"",""time""
""focus"",""1"",""2571""
""fullscreenenter"",""1"",""3300""
""blur"",""7"",""56260""
""focus"",""7"",""57743""
""fullscreenexit"",""7"",""82534""
""blur"",""7"",""115949""
""focus"",""7"",""117141""
""blur"",""7"",""170342""
""focus"",""7"",""173210""
","""event"",""trial"",""time""
""blur"",""7"",""56260""
""blur"",""7"",""115949""
""blur"",""7"",""170342""
","""event"",""trial"",""time""
""focus"",""1"",""2571""
""focus"",""7"",""57743""
""focus"",""7"",""117141""
""focus"",""7"",""173210""
","""event"",""trial"",""time""
""fullscreenenter"",""1"",""3300""
","""event"",""trial"",""time""
""fullscreenexit"",""7"",""82534""
","","","-1","","","21","3705","2283","&#9761;","elianto","#3366ff99","-1","-1","1","+10","[]","0","0","2","","","","","","","",""
"pit-trial","38","495896","0.0-2.0-11.0-1.0","battery-v0.2","","""event"",""trial"",""time""
""focus"",""1"",""2571""
""fullscreenenter"",""1"",""3300""
""blur"",""7"",""56260""
""focus"",""7"",""57743""
""fullscreenexit"",""7"",""82534""
""blur"",""7"",""115949""
""focus"",""7"",""117141""
""blur"",""7"",""170342""
""focus"",""7"",""173210""
","""event"",""trial"",""time""
""blur"",""7"",""56260""
""blur"",""7"",""115949""
""blur"",""7"",""170342""
","""event"",""trial"",""time""
""focus"",""1"",""2571""
""focus"",""7"",""57743""
""focus"",""7"",""117141""
""focus"",""7"",""173210""
","""event"",""trial"",""time""
""fullscreenenter"",""1"",""3300""
","""event"",""trial"",""time""
""fullscreenexit"",""7"",""82534""
","","","-1","","","21","3705","2283","&#9761;","elianto","#3366ff99","-1","-1","1","+10","[]","0","0","2","","","","","","","",""
"pit-trial","39","500787","0.0-2.0-11.0-2.0","battery-v0.2","","""event"",""trial"",""time""
""focus"",""1"",""2571""
""fullscreenenter"",""1"",""3300""
""blur"",""7"",""56260""
""focus"",""7"",""57743""
""fullscreenexit"",""7"",""82534""
""blur"",""7"",""115949""
""focus"",""7"",""117141""
""blur"",""7"",""170342""
""focus"",""7"",""173210""
","""event"",""trial"",""time""
""blur"",""7"",""56260""
""blur"",""7"",""115949""
""blur"",""7"",""170342""
","""event"",""trial"",""time""
""focus"",""1"",""2571""
""focus"",""7"",""57743""
""focus"",""7"",""117141""
""focus"",""7"",""173210""
","""event"",""trial"",""time""
""fullscreenenter"",""1"",""3300""
","""event"",""trial"",""time""
""fullscreenexit"",""7"",""82534""
","","","-1","","","21","3705","2283","&#9761;","elianto","#3366ff99","-1","-1","1","+10","[]","0","0","2","","","","","","","",""
"pit-trial","40","505667","0.0-2.0-11.0-3.0","battery-v0.2","","""event"",""trial"",""time""
""focus"",""1"",""2571""
""fullscreenenter"",""1"",""3300""
""blur"",""7"",""56260""
""focus"",""7"",""57743""
""fullscreenexit"",""7"",""82534""
""blur"",""7"",""115949""
""focus"",""7"",""117141""
""blur"",""7"",""170342""
""focus"",""7"",""173210""
","""event"",""trial"",""time""
""blur"",""7"",""56260""
""blur"",""7"",""115949""
""blur"",""7"",""170342""
","""event"",""trial"",""time""
""focus"",""1"",""2571""
""focus"",""7"",""57743""
""focus"",""7"",""117141""
""focus"",""7"",""173210""
","""event"",""trial"",""time""
""fullscreenenter"",""1"",""3300""
","""event"",""trial"",""time""
""fullscreenexit"",""7"",""82534""
","","","-1","","","21","3705","2283","&#9761;","elianto","#3366ff99","-1","-1","1","0","[]","0","0","2","","","","","","","",""
"pit-trial","41","510557","0.0-2.0-11.0-4.0","battery-v0.2","","""event"",""trial"",""time""
""focus"",""1"",""2571""
""fullscreenenter"",""1"",""3300""
""blur"",""7"",""56260""
""focus"",""7"",""57743""
""fullscreenexit"",""7"",""82534""
""blur"",""7"",""115949""
""focus"",""7"",""117141""
""blur"",""7"",""170342""
""focus"",""7"",""173210""
","""event"",""trial"",""time""
""blur"",""7"",""56260""
""blur"",""7"",""115949""
""blur"",""7"",""170342""
","""event"",""trial"",""time""
""focus"",""1"",""2571""
""focus"",""7"",""57743""
""focus"",""7"",""117141""
""focus"",""7"",""173210""
","""event"",""trial"",""time""
""fullscreenenter"",""1"",""3300""
","""event"",""trial"",""time""
""fullscreenexit"",""7"",""82534""
","","","-1","","","21","3705","2283","&#9761;","elianto","#3366ff99","-1","-1","1","+10","[]","0","0","2","","","","","","","",""
"pit-trial","42","515436","0.0-2.0-11.1-0.1","battery-v0.2","","""event"",""trial"",""time""
""focus"",""1"",""2571""
""fullscreenenter"",""1"",""3300""
""blur"",""7"",""56260""
""focus"",""7"",""57743""
""fullscreenexit"",""7"",""82534""
""blur"",""7"",""115949""
""focus"",""7"",""117141""
""blur"",""7"",""170342""
""focus"",""7"",""173210""
","""event"",""trial"",""time""
""blur"",""7"",""56260""
""blur"",""7"",""115949""
""blur"",""7"",""170342""
","""event"",""trial"",""time""
""focus"",""1"",""2571""
""focus"",""7"",""57743""
""focus"",""7"",""117141""
""focus"",""7"",""173210""
","""event"",""trial"",""time""
""fullscreenenter"",""1"",""3300""
","""event"",""trial"",""time""
""fullscreenexit"",""7"",""82534""
","","","-1","","","21","3705","2283","&#9761;","elianto","#3366ff99","-1","-1","1","+10","[]","0","0","2","","","","","","","",""
"pit-trial","43","520307","0.0-2.0-11.1-1.1","battery-v0.2","","""event"",""trial"",""time""
""focus"",""1"",""2571""
""fullscreenenter"",""1"",""3300""
""blur"",""7"",""56260""
""focus"",""7"",""57743""
""fullscreenexit"",""7"",""82534""
""blur"",""7"",""115949""
""focus"",""7"",""117141""
""blur"",""7"",""170342""
""focus"",""7"",""173210""
","""event"",""trial"",""time""
""blur"",""7"",""56260""
""blur"",""7"",""115949""
""blur"",""7"",""170342""
","""event"",""trial"",""time""
""focus"",""1"",""2571""
""focus"",""7"",""57743""
""focus"",""7"",""117141""
""focus"",""7"",""173210""
","""event"",""trial"",""time""
""fullscreenenter"",""1"",""3300""
","""event"",""trial"",""time""
""fullscreenexit"",""7"",""82534""
","","","-1","","","21","3705","2283","&#9761;","elianto","#3366ff99","-1","-1","1","+10","[]","0","0","2","","","","","","","",""
"pit-trial","44","525179","0.0-2.0-11.1-2.1","battery-v0.2","","""event"",""trial"",""time""
""focus"",""1"",""2571""
""fullscreenenter"",""1"",""3300""
""blur"",""7"",""56260""
""focus"",""7"",""57743""
""fullscreenexit"",""7"",""82534""
""blur"",""7"",""115949""
""focus"",""7"",""117141""
""blur"",""7"",""170342""
""focus"",""7"",""173210""
","""event"",""trial"",""time""
""blur"",""7"",""56260""
""blur"",""7"",""115949""
""blur"",""7"",""170342""
","""event"",""trial"",""time""
""focus"",""1"",""2571""
""focus"",""7"",""57743""
""focus"",""7"",""117141""
""focus"",""7"",""173210""
","""event"",""trial"",""time""
""fullscreenenter"",""1"",""3300""
","""event"",""trial"",""time""
""fullscreenexit"",""7"",""82534""
","","","-1","","","21","3705","2283","&#9761;","elianto","#3366ff99","-1","-1","1","+10","[]","0","0","2","","","","","","","",""
"pit-trial","45","530052","0.0-2.0-11.1-3.1","battery-v0.2","","""event"",""trial"",""time""
""focus"",""1"",""2571""
""fullscreenenter"",""1"",""3300""
""blur"",""7"",""56260""
""focus"",""7"",""57743""
""fullscreenexit"",""7"",""82534""
""blur"",""7"",""115949""
""focus"",""7"",""117141""
""blur"",""7"",""170342""
""focus"",""7"",""173210""
","""event"",""trial"",""time""
""blur"",""7"",""56260""
""blur"",""7"",""115949""
""blur"",""7"",""170342""
","""event"",""trial"",""time""
""focus"",""1"",""2571""
""focus"",""7"",""57743""
""focus"",""7"",""117141""
""focus"",""7"",""173210""
","""event"",""trial"",""time""
""fullscreenenter"",""1"",""3300""
","""event"",""trial"",""time""
""fullscreenexit"",""7"",""82534""
","","","-1","","","21","3705","2283","&#9761;","elianto","#3366ff99","-1","-1","1","0","[]","0","0","2","","","","","","","",""
"pit-trial","46","534925","0.0-2.0-11.1-4.1","battery-v0.2","","""event"",""trial"",""time""
""focus"",""1"",""2571""
""fullscreenenter"",""1"",""3300""
""blur"",""7"",""56260""
""focus"",""7"",""57743""
""fullscreenexit"",""7"",""82534""
""blur"",""7"",""115949""
""focus"",""7"",""117141""
""blur"",""7"",""170342""
""focus"",""7"",""173210""
","""event"",""trial"",""time""
""blur"",""7"",""56260""
""blur"",""7"",""115949""
""blur"",""7"",""170342""
","""event"",""trial"",""time""
""focus"",""1"",""2571""
""focus"",""7"",""57743""
""focus"",""7"",""117141""
""focus"",""7"",""173210""
","""event"",""trial"",""time""
""fullscreenenter"",""1"",""3300""
","""event"",""trial"",""time""
""fullscreenexit"",""7"",""82534""
","","","-1","","","21","3705","2283","&#9761;","elianto","#3366ff99","-1","-1","1","+10","[]","0","0","2","","","","","","","",""
"pit-trial","47","539796","0.0-2.0-11.2-0.2","battery-v0.2","","""event"",""trial"",""time""
""focus"",""1"",""2571""
""fullscreenenter"",""1"",""3300""
""blur"",""7"",""56260""
""focus"",""7"",""57743""
""fullscreenexit"",""7"",""82534""
""blur"",""7"",""115949""
""focus"",""7"",""117141""
""blur"",""7"",""170342""
""focus"",""7"",""173210""
","""event"",""trial"",""time""
""blur"",""7"",""56260""
""blur"",""7"",""115949""
""blur"",""7"",""170342""
","""event"",""trial"",""time""
""focus"",""1"",""2571""
""focus"",""7"",""57743""
""focus"",""7"",""117141""
""focus"",""7"",""173210""
","""event"",""trial"",""time""
""fullscreenenter"",""1"",""3300""
","""event"",""trial"",""time""
""fullscreenexit"",""7"",""82534""
","","","-1","","","21","3705","2283","&#9761;","elianto","#3366ff99","-1","-1","1","+10","[]","0","0","2","","","","","","","",""
"pit-trial","48","544668","0.0-2.0-11.2-1.2","battery-v0.2","","""event"",""trial"",""time""
""focus"",""1"",""2571""
""fullscreenenter"",""1"",""3300""
""blur"",""7"",""56260""
""focus"",""7"",""57743""
""fullscreenexit"",""7"",""82534""
""blur"",""7"",""115949""
""focus"",""7"",""117141""
""blur"",""7"",""170342""
""focus"",""7"",""173210""
","""event"",""trial"",""time""
""blur"",""7"",""56260""
""blur"",""7"",""115949""
""blur"",""7"",""170342""
","""event"",""trial"",""time""
""focus"",""1"",""2571""
""focus"",""7"",""57743""
""focus"",""7"",""117141""
""focus"",""7"",""173210""
","""event"",""trial"",""time""
""fullscreenenter"",""1"",""3300""
","""event"",""trial"",""time""
""fullscreenexit"",""7"",""82534""
","","","-1","","","21","3705","2283","&#9761;","elianto","#3366ff99","-1","-1","1","+10","[]","0","0","2","","","","","","","",""
"pit-trial","49","549539","0.0-2.0-11.2-2.2","battery-v0.2","","""event"",""trial"",""time""
""focus"",""1"",""2571""
""fullscreenenter"",""1"",""3300""
""blur"",""7"",""56260""
""focus"",""7"",""57743""
""fullscreenexit"",""7"",""82534""
""blur"",""7"",""115949""
""focus"",""7"",""117141""
""blur"",""7"",""170342""
""focus"",""7"",""173210""
","""event"",""trial"",""time""
""blur"",""7"",""56260""
""blur"",""7"",""115949""
""blur"",""7"",""170342""
","""event"",""trial"",""time""
""focus"",""1"",""2571""
""focus"",""7"",""57743""
""focus"",""7"",""117141""
""focus"",""7"",""173210""
","""event"",""trial"",""time""
""fullscreenenter"",""1"",""3300""
","""event"",""trial"",""time""
""fullscreenexit"",""7"",""82534""
","","","-1","","","21","3705","2283","&#9761;","elianto","#3366ff99","-1","-1","1","+10","[]","0","0","2","","","","","","","",""
"pit-trial","50","554412","0.0-2.0-11.2-3.2","battery-v0.2","","""event"",""trial"",""time""
""focus"",""1"",""2571""
""fullscreenenter"",""1"",""3300""
""blur"",""7"",""56260""
""focus"",""7"",""57743""
""fullscreenexit"",""7"",""82534""
""blur"",""7"",""115949""
""focus"",""7"",""117141""
""blur"",""7"",""170342""
""focus"",""7"",""173210""
","""event"",""trial"",""time""
""blur"",""7"",""56260""
""blur"",""7"",""115949""
""blur"",""7"",""170342""
","""event"",""trial"",""time""
""focus"",""1"",""2571""
""focus"",""7"",""57743""
""focus"",""7"",""117141""
""focus"",""7"",""173210""
","""event"",""trial"",""time""
""fullscreenenter"",""1"",""3300""
","""event"",""trial"",""time""
""fullscreenexit"",""7"",""82534""
","","","-1","","","21","3705","2283","&#9761;","elianto","#3366ff99","-1","-1","1","0","[]","0","0","2","","","","","","","",""
"pit-trial","51","559283","0.0-2.0-11.2-4.2","battery-v0.2","","""event"",""trial"",""time""
""focus"",""1"",""2571""
""fullscreenenter"",""1"",""3300""
""blur"",""7"",""56260""
""focus"",""7"",""57743""
""fullscreenexit"",""7"",""82534""
""blur"",""7"",""115949""
""focus"",""7"",""117141""
""blur"",""7"",""170342""
""focus"",""7"",""173210""
","""event"",""trial"",""time""
""blur"",""7"",""56260""
""blur"",""7"",""115949""
""blur"",""7"",""170342""
","""event"",""trial"",""time""
""focus"",""1"",""2571""
""focus"",""7"",""57743""
""focus"",""7"",""117141""
""focus"",""7"",""173210""
","""event"",""trial"",""time""
""fullscreenenter"",""1"",""3300""
","""event"",""trial"",""time""
""fullscreenexit"",""7"",""82534""
","","","-1","","","21","3705","2283","&#9761;","elianto","#3366ff99","-1","-1","1","+10","[]","0","0","2","","","","","","","",""
"pit-trial","52","564159","0.0-2.0-11.3-0.3","battery-v0.2","","""event"",""trial"",""time""
""focus"",""1"",""2571""
""fullscreenenter"",""1"",""3300""
""blur"",""7"",""56260""
""focus"",""7"",""57743""
""fullscreenexit"",""7"",""82534""
""blur"",""7"",""115949""
""focus"",""7"",""117141""
""blur"",""7"",""170342""
""focus"",""7"",""173210""
","""event"",""trial"",""time""
""blur"",""7"",""56260""
""blur"",""7"",""115949""
""blur"",""7"",""170342""
","""event"",""trial"",""time""
""focus"",""1"",""2571""
""focus"",""7"",""57743""
""focus"",""7"",""117141""
""focus"",""7"",""173210""
","""event"",""trial"",""time""
""fullscreenenter"",""1"",""3300""
","""event"",""trial"",""time""
""fullscreenexit"",""7"",""82534""
","","","-1","","","21","3705","2283","&#9761;","elianto","#3366ff99","-1","-1","1","+10","[]","0","0","2","","","","","","","",""
"pit-trial","53","567883","0.0-2.0-11.3-1.3","battery-v0.2","","""event"",""trial"",""time""
""focus"",""1"",""2571""
""fullscreenenter"",""1"",""3300""
""blur"",""7"",""56260""
""focus"",""7"",""57743""
""fullscreenexit"",""7"",""82534""
""blur"",""7"",""115949""
""focus"",""7"",""117141""
""blur"",""7"",""170342""
""focus"",""7"",""173210""
","""event"",""trial"",""time""
""blur"",""7"",""56260""
""blur"",""7"",""115949""
""blur"",""7"",""170342""
","""event"",""trial"",""time""
""focus"",""1"",""2571""
""focus"",""7"",""57743""
""focus"",""7"",""117141""
""focus"",""7"",""173210""
","""event"",""trial"",""time""
""fullscreenenter"",""1"",""3300""
","""event"",""trial"",""time""
""fullscreenexit"",""7"",""82534""
","","","850.5","","","21","3705","2283","&#9761;","elianto","#3366ff99","-1"," ","0","0","[1711.3999998569489]","1","0","2","","","","","","","",""
"pit-trial","54","572756","0.0-2.0-11.3-2.3","battery-v0.2","","""event"",""trial"",""time""
""focus"",""1"",""2571""
""fullscreenenter"",""1"",""3300""
""blur"",""7"",""56260""
""focus"",""7"",""57743""
""fullscreenexit"",""7"",""82534""
""blur"",""7"",""115949""
""focus"",""7"",""117141""
""blur"",""7"",""170342""
""focus"",""7"",""173210""
","""event"",""trial"",""time""
""blur"",""7"",""56260""
""blur"",""7"",""115949""
""blur"",""7"",""170342""
","""event"",""trial"",""time""
""focus"",""1"",""2571""
""focus"",""7"",""57743""
""focus"",""7"",""117141""
""focus"",""7"",""173210""
","""event"",""trial"",""time""
""fullscreenenter"",""1"",""3300""
","""event"",""trial"",""time""
""fullscreenexit"",""7"",""82534""
","","","-1","","","21","3705","2283","&#9761;","elianto","#3366ff99","-1","-1","1","+10","[]","0","0","2","","","","","","","",""
"pit-trial","55","577627","0.0-2.0-11.3-3.3","battery-v0.2","","""event"",""trial"",""time""
""focus"",""1"",""2571""
""fullscreenenter"",""1"",""3300""
""blur"",""7"",""56260""
""focus"",""7"",""57743""
""fullscreenexit"",""7"",""82534""
""blur"",""7"",""115949""
""focus"",""7"",""117141""
""blur"",""7"",""170342""
""focus"",""7"",""173210""
","""event"",""trial"",""time""
""blur"",""7"",""56260""
""blur"",""7"",""115949""
""blur"",""7"",""170342""
","""event"",""trial"",""time""
""focus"",""1"",""2571""
""focus"",""7"",""57743""
""focus"",""7"",""117141""
""focus"",""7"",""173210""
","""event"",""trial"",""time""
""fullscreenenter"",""1"",""3300""
","""event"",""trial"",""time""
""fullscreenexit"",""7"",""82534""
","","","-1","","","21","3705","2283","&#9761;","elianto","#3366ff99","-1","-1","1","0","[]","0","0","2","","","","","","","",""
"pit-trial","56","582500","0.0-2.0-11.3-4.3","battery-v0.2","","""event"",""trial"",""time""
""focus"",""1"",""2571""
""fullscreenenter"",""1"",""3300""
""blur"",""7"",""56260""
""focus"",""7"",""57743""
""fullscreenexit"",""7"",""82534""
""blur"",""7"",""115949""
""focus"",""7"",""117141""
""blur"",""7"",""170342""
""focus"",""7"",""173210""
","""event"",""trial"",""time""
""blur"",""7"",""56260""
""blur"",""7"",""115949""
""blur"",""7"",""170342""
","""event"",""trial"",""time""
""focus"",""1"",""2571""
""focus"",""7"",""57743""
""focus"",""7"",""117141""
""focus"",""7"",""173210""
","""event"",""trial"",""time""
""fullscreenenter"",""1"",""3300""
","""event"",""trial"",""time""
""fullscreenexit"",""7"",""82534""
","","","-1","","","21","3705","2283","&#9761;","elianto","#3366ff99","-1","-1","1","+10","[]","0","0","2","","","","","","","",""
"call-function","57","582505","0.0-2.0-12.0","battery-v0.2","","""event"",""trial"",""time""
""focus"",""1"",""2571""
""fullscreenenter"",""1"",""3300""
""blur"",""7"",""56260""
""focus"",""7"",""57743""
""fullscreenexit"",""7"",""82534""
""blur"",""7"",""115949""
""focus"",""7"",""117141""
""blur"",""7"",""170342""
""focus"",""7"",""173210""
","""event"",""trial"",""time""
""blur"",""7"",""56260""
""blur"",""7"",""115949""
""blur"",""7"",""170342""
","""event"",""trial"",""time""
""focus"",""1"",""2571""
""focus"",""7"",""57743""
""focus"",""7"",""117141""
""focus"",""7"",""173210""
","""event"",""trial"",""time""
""fullscreenenter"",""1"",""3300""
","""event"",""trial"",""time""
""fullscreenexit"",""7"",""82534""
","","","","","","","","","","","","","","","","","","","","","","","","","","",""
"pit-instructions","58","634901","0.0-2.0-13.0","battery-v0.2","","""event"",""trial"",""time""
""focus"",""1"",""2571""
""fullscreenenter"",""1"",""3300""
""blur"",""7"",""56260""
""focus"",""7"",""57743""
""fullscreenexit"",""7"",""82534""
""blur"",""7"",""115949""
""focus"",""7"",""117141""
""blur"",""7"",""170342""
""focus"",""7"",""173210""
","""event"",""trial"",""time""
""blur"",""7"",""56260""
""blur"",""7"",""115949""
""blur"",""7"",""170342""
","""event"",""trial"",""time""
""focus"",""1"",""2571""
""focus"",""7"",""57743""
""focus"",""7"",""117141""
""focus"",""7"",""173210""
","""event"",""trial"",""time""
""fullscreenenter"",""1"",""3300""
","""event"",""trial"",""time""
""fullscreenexit"",""7"",""82534""
","","[{""page_index"":0,""viewing_time"":5543},{""page_index"":1,""viewing_time"":12801.900000095367},{""page_index"":2,""viewing_time"":4012.2999999523163},{""page_index"":3,""viewing_time"":21863.299999952316},{""page_index"":4,""viewing_time"":8172.200000047684}]","52394","","","","","","","","","","","","","","","","","","","","","","","",""
"pit-trial","59","638600","0.0-2.0-14.0-0.0","battery-v0.2","","""event"",""trial"",""time""
""focus"",""1"",""2571""
""fullscreenenter"",""1"",""3300""
""blur"",""7"",""56260""
""focus"",""7"",""57743""
""fullscreenexit"",""7"",""82534""
""blur"",""7"",""115949""
""focus"",""7"",""117141""
""blur"",""7"",""170342""
""focus"",""7"",""173210""
","""event"",""trial"",""time""
""blur"",""7"",""56260""
""blur"",""7"",""115949""
""blur"",""7"",""170342""
","""event"",""trial"",""time""
""focus"",""1"",""2571""
""focus"",""7"",""57743""
""focus"",""7"",""117141""
""focus"",""7"",""173210""
","""event"",""trial"",""time""
""fullscreenenter"",""1"",""3300""
","""event"",""trial"",""time""
""fullscreenexit"",""7"",""82534""
","","","765.7000000476837","","","21","3705","2283","&#9826;","elianto","#f73b6a7A","-1"," ","0","-10","[1669.1000001430511]","1","0","3","","","","","","","",""
"pit-trial","60","641863","0.0-2.0-14.0-1.0","battery-v0.2","","""event"",""trial"",""time""
""focus"",""1"",""2571""
""fullscreenenter"",""1"",""3300""
""blur"",""7"",""56260""
""focus"",""7"",""57743""
""fullscreenexit"",""7"",""82534""
""blur"",""7"",""115949""
""focus"",""7"",""117141""
""blur"",""7"",""170342""
""focus"",""7"",""173210""
","""event"",""trial"",""time""
""blur"",""7"",""56260""
""blur"",""7"",""115949""
""blur"",""7"",""170342""
","""event"",""trial"",""time""
""focus"",""1"",""2571""
""focus"",""7"",""57743""
""focus"",""7"",""117141""
""focus"",""7"",""173210""
","""event"",""trial"",""time""
""fullscreenenter"",""1"",""3300""
","""event"",""trial"",""time""
""fullscreenexit"",""7"",""82534""
","","","384.40000009536743","","","21","3705","2283","&#9826;","elianto","#f73b6a7A","-1"," ","0","-10","[1235.3000001907349]","1","0","3","","","","","","","",""
"pit-trial","61","646742","0.0-2.0-14.0-2.0","battery-v0.2","","""event"",""trial"",""time""
""focus"",""1"",""2571""
""fullscreenenter"",""1"",""3300""
""blur"",""7"",""56260""
""focus"",""7"",""57743""
""fullscreenexit"",""7"",""82534""
""blur"",""7"",""115949""
""focus"",""7"",""117141""
""blur"",""7"",""170342""
""focus"",""7"",""173210""
","""event"",""trial"",""time""
""blur"",""7"",""56260""
""blur"",""7"",""115949""
""blur"",""7"",""170342""
","""event"",""trial"",""time""
""focus"",""1"",""2571""
""focus"",""7"",""57743""
""focus"",""7"",""117141""
""focus"",""7"",""173210""
","""event"",""trial"",""time""
""fullscreenenter"",""1"",""3300""
","""event"",""trial"",""time""
""fullscreenexit"",""7"",""82534""
","","","-1","","","21","3705","2283","&#9826;","elianto","#f73b6a7A","-1","-1","1","0","[]","0","0","3","","","","","","","",""
"pit-trial","62","651658","0.0-2.0-14.0-3.0","battery-v0.2","","""event"",""trial"",""time""
""focus"",""1"",""2571""
""fullscreenenter"",""1"",""3300""
""blur"",""7"",""56260""
""focus"",""7"",""57743""
""fullscreenexit"",""7"",""82534""
""blur"",""7"",""115949""
""focus"",""7"",""117141""
""blur"",""7"",""170342""
""focus"",""7"",""173210""
","""event"",""trial"",""time""
""blur"",""7"",""56260""
""blur"",""7"",""115949""
""blur"",""7"",""170342""
","""event"",""trial"",""time""
""focus"",""1"",""2571""
""focus"",""7"",""57743""
""focus"",""7"",""117141""
""focus"",""7"",""173210""
","""event"",""trial"",""time""
""fullscreenenter"",""1"",""3300""
","""event"",""trial"",""time""
""fullscreenexit"",""7"",""82534""
","","","-1","","","21","3705","2283","&#9826;","elianto","#f73b6a7A","-1","-1","1","-10","[]","0","0","3","","","","","","","",""
"pit-trial","63","656584","0.0-2.0-14.0-4.0","battery-v0.2","","""event"",""trial"",""time""
""focus"",""1"",""2571""
""fullscreenenter"",""1"",""3300""
""blur"",""7"",""56260""
""focus"",""7"",""57743""
""fullscreenexit"",""7"",""82534""
""blur"",""7"",""115949""
""focus"",""7"",""117141""
""blur"",""7"",""170342""
""focus"",""7"",""173210""
","""event"",""trial"",""time""
""blur"",""7"",""56260""
""blur"",""7"",""115949""
""blur"",""7"",""170342""
","""event"",""trial"",""time""
""focus"",""1"",""2571""
""focus"",""7"",""57743""
""focus"",""7"",""117141""
""focus"",""7"",""173210""
","""event"",""trial"",""time""
""fullscreenenter"",""1"",""3300""
","""event"",""trial"",""time""
""fullscreenexit"",""7"",""82534""
","","","-1","","","21","3705","2283","&#9826;","elianto","#f73b6a7A","-1","-1","1","0","[]","0","0","3","","","","","","","",""
"pit-trial","64","661475","0.0-2.0-14.1-0.1","battery-v0.2","","""event"",""trial"",""time""
""focus"",""1"",""2571""
""fullscreenenter"",""1"",""3300""
""blur"",""7"",""56260""
""focus"",""7"",""57743""
""fullscreenexit"",""7"",""82534""
""blur"",""7"",""115949""
""focus"",""7"",""117141""
""blur"",""7"",""170342""
""focus"",""7"",""173210""
","""event"",""trial"",""time""
""blur"",""7"",""56260""
""blur"",""7"",""115949""
""blur"",""7"",""170342""
","""event"",""trial"",""time""
""focus"",""1"",""2571""
""focus"",""7"",""57743""
""focus"",""7"",""117141""
""focus"",""7"",""173210""
","""event"",""trial"",""time""
""fullscreenenter"",""1"",""3300""
","""event"",""trial"",""time""
""fullscreenexit"",""7"",""82534""
","","","-1","","","21","3705","2283","&#9826;","elianto","#f73b6a7A","-1","-1","1","0","[]","0","0","3","","","","","","","",""
"pit-trial","65","665507","0.0-2.0-14.1-1.1","battery-v0.2","","""event"",""trial"",""time""
""focus"",""1"",""2571""
""fullscreenenter"",""1"",""3300""
""blur"",""7"",""56260""
""focus"",""7"",""57743""
""fullscreenexit"",""7"",""82534""
""blur"",""7"",""115949""
""focus"",""7"",""117141""
""blur"",""7"",""170342""
""focus"",""7"",""173210""
","""event"",""trial"",""time""
""blur"",""7"",""56260""
""blur"",""7"",""115949""
""blur"",""7"",""170342""
","""event"",""trial"",""time""
""focus"",""1"",""2571""
""focus"",""7"",""57743""
""focus"",""7"",""117141""
""focus"",""7"",""173210""
","""event"",""trial"",""time""
""fullscreenenter"",""1"",""3300""
","""event"",""trial"",""time""
""fullscreenexit"",""7"",""82534""
","","","1152","","","21","3705","2283","&#9826;","elianto","#f73b6a7A","-1"," ","0","-10","[2013.5]","1","0","3","","","","","","","",""
"pit-trial","66","670371","0.0-2.0-14.1-2.1","battery-v0.2","","""event"",""trial"",""time""
""focus"",""1"",""2571""
""fullscreenenter"",""1"",""3300""
""blur"",""7"",""56260""
""focus"",""7"",""57743""
""fullscreenexit"",""7"",""82534""
""blur"",""7"",""115949""
""focus"",""7"",""117141""
""blur"",""7"",""170342""
""focus"",""7"",""173210""
","""event"",""trial"",""time""
""blur"",""7"",""56260""
""blur"",""7"",""115949""
""blur"",""7"",""170342""
","""event"",""trial"",""time""
""focus"",""1"",""2571""
""focus"",""7"",""57743""
""focus"",""7"",""117141""
""focus"",""7"",""173210""
","""event"",""trial"",""time""
""fullscreenenter"",""1"",""3300""
","""event"",""trial"",""time""
""fullscreenexit"",""7"",""82534""
","","","-1","","","21","3705","2283","&#9826;","elianto","#f73b6a7A","-1","-1","1","0","[]","0","0","3","","","","","","","",""
"pit-trial","67","675244","0.0-2.0-14.1-3.1","battery-v0.2","","""event"",""trial"",""time""
""focus"",""1"",""2571""
""fullscreenenter"",""1"",""3300""
""blur"",""7"",""56260""
""focus"",""7"",""57743""
""fullscreenexit"",""7"",""82534""
""blur"",""7"",""115949""
""focus"",""7"",""117141""
""blur"",""7"",""170342""
""focus"",""7"",""173210""
","""event"",""trial"",""time""
""blur"",""7"",""56260""
""blur"",""7"",""115949""
""blur"",""7"",""170342""
","""event"",""trial"",""time""
""focus"",""1"",""2571""
""focus"",""7"",""57743""
""focus"",""7"",""117141""
""focus"",""7"",""173210""
","""event"",""trial"",""time""
""fullscreenenter"",""1"",""3300""
","""event"",""trial"",""time""
""fullscreenexit"",""7"",""82534""
","","","-1","","","21","3705","2283","&#9826;","elianto","#f73b6a7A","-1","-1","1","-10","[]","0","0","3","","","","","","","",""
"pit-trial","68","680115","0.0-2.0-14.1-4.1","battery-v0.2","","""event"",""trial"",""time""
""focus"",""1"",""2571""
""fullscreenenter"",""1"",""3300""
""blur"",""7"",""56260""
""focus"",""7"",""57743""
""fullscreenexit"",""7"",""82534""
""blur"",""7"",""115949""
""focus"",""7"",""117141""
""blur"",""7"",""170342""
""focus"",""7"",""173210""
","""event"",""trial"",""time""
""blur"",""7"",""56260""
""blur"",""7"",""115949""
""blur"",""7"",""170342""
","""event"",""trial"",""time""
""focus"",""1"",""2571""
""focus"",""7"",""57743""
""focus"",""7"",""117141""
""focus"",""7"",""173210""
","""event"",""trial"",""time""
""fullscreenenter"",""1"",""3300""
","""event"",""trial"",""time""
""fullscreenexit"",""7"",""82534""
","","","-1","","","21","3705","2283","&#9826;","elianto","#f73b6a7A","-1","-1","1","0","[]","0","0","3","","","","","","","",""
"pit-trial","69","684988","0.0-2.0-14.2-0.2","battery-v0.2","","""event"",""trial"",""time""
""focus"",""1"",""2571""
""fullscreenenter"",""1"",""3300""
""blur"",""7"",""56260""
""focus"",""7"",""57743""
""fullscreenexit"",""7"",""82534""
""blur"",""7"",""115949""
""focus"",""7"",""117141""
""blur"",""7"",""170342""
""focus"",""7"",""173210""
","""event"",""trial"",""time""
""blur"",""7"",""56260""
""blur"",""7"",""115949""
""blur"",""7"",""170342""
","""event"",""trial"",""time""
""focus"",""1"",""2571""
""focus"",""7"",""57743""
""focus"",""7"",""117141""
""focus"",""7"",""173210""
","""event"",""trial"",""time""
""fullscreenenter"",""1"",""3300""
","""event"",""trial"",""time""
""fullscreenexit"",""7"",""82534""
","","","-1","","","21","3705","2283","&#9826;","elianto","#f73b6a7A","-1","-1","1","0","[]","0","0","3","","","","","","","",""
"pit-trial","70","689860","0.0-2.0-14.2-1.2","battery-v0.2","","""event"",""trial"",""time""
""focus"",""1"",""2571""
""fullscreenenter"",""1"",""3300""
""blur"",""7"",""56260""
""focus"",""7"",""57743""
""fullscreenexit"",""7"",""82534""
""blur"",""7"",""115949""
""focus"",""7"",""117141""
""blur"",""7"",""170342""
""focus"",""7"",""173210""
","""event"",""trial"",""time""
""blur"",""7"",""56260""
""blur"",""7"",""115949""
""blur"",""7"",""170342""
","""event"",""trial"",""time""
""focus"",""1"",""2571""
""focus"",""7"",""57743""
""focus"",""7"",""117141""
""focus"",""7"",""173210""
","""event"",""trial"",""time""
""fullscreenenter"",""1"",""3300""
","""event"",""trial"",""time""
""fullscreenexit"",""7"",""82534""
","","","-1","","","21","3705","2283","&#9826;","elianto","#f73b6a7A","-1","-1","1","0","[]","0","0","3","","","","","","","",""
"pit-trial","71","694724","0.0-2.0-14.2-2.2","battery-v0.2","","""event"",""trial"",""time""
""focus"",""1"",""2571""
""fullscreenenter"",""1"",""3300""
""blur"",""7"",""56260""
""focus"",""7"",""57743""
""fullscreenexit"",""7"",""82534""
""blur"",""7"",""115949""
""focus"",""7"",""117141""
""blur"",""7"",""170342""
""focus"",""7"",""173210""
","""event"",""trial"",""time""
""blur"",""7"",""56260""
""blur"",""7"",""115949""
""blur"",""7"",""170342""
","""event"",""trial"",""time""
""focus"",""1"",""2571""
""focus"",""7"",""57743""
""focus"",""7"",""117141""
""focus"",""7"",""173210""
","""event"",""trial"",""time""
""fullscreenenter"",""1"",""3300""
","""event"",""trial"",""time""
""fullscreenexit"",""7"",""82534""
","","","-1","","","21","3705","2283","&#9826;","elianto","#f73b6a7A","-1","-1","1","0","[]","0","0","3","","","","","","","",""
"pit-trial","72","699595","0.0-2.0-14.2-3.2","battery-v0.2","","""event"",""trial"",""time""
""focus"",""1"",""2571""
""fullscreenenter"",""1"",""3300""
""blur"",""7"",""56260""
""focus"",""7"",""57743""
""fullscreenexit"",""7"",""82534""
""blur"",""7"",""115949""
""focus"",""7"",""117141""
""blur"",""7"",""170342""
""focus"",""7"",""173210""
","""event"",""trial"",""time""
""blur"",""7"",""56260""
""blur"",""7"",""115949""
""blur"",""7"",""170342""
","""event"",""trial"",""time""
""focus"",""1"",""2571""
""focus"",""7"",""57743""
""focus"",""7"",""117141""
""focus"",""7"",""173210""
","""event"",""trial"",""time""
""fullscreenenter"",""1"",""3300""
","""event"",""trial"",""time""
""fullscreenexit"",""7"",""82534""
","","","-1","","","21","3705","2283","&#9826;","elianto","#f73b6a7A","-1","-1","1","-10","[]","0","0","3","","","","","","","",""
"pit-trial","73","704467","0.0-2.0-14.2-4.2","battery-v0.2","","""event"",""trial"",""time""
""focus"",""1"",""2571""
""fullscreenenter"",""1"",""3300""
""blur"",""7"",""56260""
""focus"",""7"",""57743""
""fullscreenexit"",""7"",""82534""
""blur"",""7"",""115949""
""focus"",""7"",""117141""
""blur"",""7"",""170342""
""focus"",""7"",""173210""
","""event"",""trial"",""time""
""blur"",""7"",""56260""
""blur"",""7"",""115949""
""blur"",""7"",""170342""
","""event"",""trial"",""time""
""focus"",""1"",""2571""
""focus"",""7"",""57743""
""focus"",""7"",""117141""
""focus"",""7"",""173210""
","""event"",""trial"",""time""
""fullscreenenter"",""1"",""3300""
","""event"",""trial"",""time""
""fullscreenexit"",""7"",""82534""
","","","-1","","","21","3705","2283","&#9826;","elianto","#f73b6a7A","-1","-1","1","0","[]","0","0","3","","","","","","","",""
"pit-trial","74","709339","0.0-2.0-14.3-0.3","battery-v0.2","","""event"",""trial"",""time""
""focus"",""1"",""2571""
""fullscreenenter"",""1"",""3300""
""blur"",""7"",""56260""
""focus"",""7"",""57743""
""fullscreenexit"",""7"",""82534""
""blur"",""7"",""115949""
""focus"",""7"",""117141""
""blur"",""7"",""170342""
""focus"",""7"",""173210""
","""event"",""trial"",""time""
""blur"",""7"",""56260""
""blur"",""7"",""115949""
""blur"",""7"",""170342""
","""event"",""trial"",""time""
""focus"",""1"",""2571""
""focus"",""7"",""57743""
""focus"",""7"",""117141""
""focus"",""7"",""173210""
","""event"",""trial"",""time""
""fullscreenenter"",""1"",""3300""
","""event"",""trial"",""time""
""fullscreenexit"",""7"",""82534""
","","","-1","","","21","3705","2283","&#9826;","elianto","#f73b6a7A","-1","-1","1","0","[]","0","0","3","","","","","","","",""
"pit-trial","75","714210","0.0-2.0-14.3-1.3","battery-v0.2","","""event"",""trial"",""time""
""focus"",""1"",""2571""
""fullscreenenter"",""1"",""3300""
""blur"",""7"",""56260""
""focus"",""7"",""57743""
""fullscreenexit"",""7"",""82534""
""blur"",""7"",""115949""
""focus"",""7"",""117141""
""blur"",""7"",""170342""
""focus"",""7"",""173210""
","""event"",""trial"",""time""
""blur"",""7"",""56260""
""blur"",""7"",""115949""
""blur"",""7"",""170342""
","""event"",""trial"",""time""
""focus"",""1"",""2571""
""focus"",""7"",""57743""
""focus"",""7"",""117141""
""focus"",""7"",""173210""
","""event"",""trial"",""time""
""fullscreenenter"",""1"",""3300""
","""event"",""trial"",""time""
""fullscreenexit"",""7"",""82534""
","","","-1","","","21","3705","2283","&#9826;","elianto","#f73b6a7A","-1","-1","1","0","[]","0","0","3","","","","","","","",""
"pit-trial","76","719083","0.0-2.0-14.3-2.3","battery-v0.2","","""event"",""trial"",""time""
""focus"",""1"",""2571""
""fullscreenenter"",""1"",""3300""
""blur"",""7"",""56260""
""focus"",""7"",""57743""
""fullscreenexit"",""7"",""82534""
""blur"",""7"",""115949""
""focus"",""7"",""117141""
""blur"",""7"",""170342""
""focus"",""7"",""173210""
","""event"",""trial"",""time""
""blur"",""7"",""56260""
""blur"",""7"",""115949""
""blur"",""7"",""170342""
","""event"",""trial"",""time""
""focus"",""1"",""2571""
""focus"",""7"",""57743""
""focus"",""7"",""117141""
""focus"",""7"",""173210""
","""event"",""trial"",""time""
""fullscreenenter"",""1"",""3300""
","""event"",""trial"",""time""
""fullscreenexit"",""7"",""82534""
","","","-1","","","21","3705","2283","&#9826;","elianto","#f73b6a7A","-1","-1","1","0","[]","0","0","3","","","","","","","",""
"pit-trial","77","723955","0.0-2.0-14.3-3.3","battery-v0.2","","""event"",""trial"",""time""
""focus"",""1"",""2571""
""fullscreenenter"",""1"",""3300""
""blur"",""7"",""56260""
""focus"",""7"",""57743""
""fullscreenexit"",""7"",""82534""
""blur"",""7"",""115949""
""focus"",""7"",""117141""
""blur"",""7"",""170342""
""focus"",""7"",""173210""
","""event"",""trial"",""time""
""blur"",""7"",""56260""
""blur"",""7"",""115949""
""blur"",""7"",""170342""
","""event"",""trial"",""time""
""focus"",""1"",""2571""
""focus"",""7"",""57743""
""focus"",""7"",""117141""
""focus"",""7"",""173210""
","""event"",""trial"",""time""
""fullscreenenter"",""1"",""3300""
","""event"",""trial"",""time""
""fullscreenexit"",""7"",""82534""
","","","-1","","","21","3705","2283","&#9826;","elianto","#f73b6a7A","-1","-1","1","-10","[]","0","0","3","","","","","","","",""
"pit-trial","78","728828","0.0-2.0-14.3-4.3","battery-v0.2","","""event"",""trial"",""time""
""focus"",""1"",""2571""
""fullscreenenter"",""1"",""3300""
""blur"",""7"",""56260""
""focus"",""7"",""57743""
""fullscreenexit"",""7"",""82534""
""blur"",""7"",""115949""
""focus"",""7"",""117141""
""blur"",""7"",""170342""
""focus"",""7"",""173210""
","""event"",""trial"",""time""
""blur"",""7"",""56260""
""blur"",""7"",""115949""
""blur"",""7"",""170342""
","""event"",""trial"",""time""
""focus"",""1"",""2571""
""focus"",""7"",""57743""
""focus"",""7"",""117141""
""focus"",""7"",""173210""
","""event"",""trial"",""time""
""fullscreenenter"",""1"",""3300""
","""event"",""trial"",""time""
""fullscreenexit"",""7"",""82534""
","","","-1","","","21","3705","2283","&#9826;","elianto","#f73b6a7A","-1","-1","1","0","[]","0","0","3","","","","","","","",""
"call-function","79","728838","0.0-2.0-15.0","battery-v0.2","","""event"",""trial"",""time""
""focus"",""1"",""2571""
""fullscreenenter"",""1"",""3300""
""blur"",""7"",""56260""
""focus"",""7"",""57743""
""fullscreenexit"",""7"",""82534""
""blur"",""7"",""115949""
""focus"",""7"",""117141""
""blur"",""7"",""170342""
""focus"",""7"",""173210""
","""event"",""trial"",""time""
""blur"",""7"",""56260""
""blur"",""7"",""115949""
""blur"",""7"",""170342""
","""event"",""trial"",""time""
""focus"",""1"",""2571""
""focus"",""7"",""57743""
""focus"",""7"",""117141""
""focus"",""7"",""173210""
","""event"",""trial"",""time""
""fullscreenenter"",""1"",""3300""
","""event"",""trial"",""time""
""fullscreenexit"",""7"",""82534""
","","","","","","","","","","","","","","","","","","","","","","","","","","",""
"pit-instructions","80","765129","0.0-2.0-16.0","battery-v0.2","","""event"",""trial"",""time""
""focus"",""1"",""2571""
""fullscreenenter"",""1"",""3300""
""blur"",""7"",""56260""
""focus"",""7"",""57743""
""fullscreenexit"",""7"",""82534""
""blur"",""7"",""115949""
""focus"",""7"",""117141""
""blur"",""7"",""170342""
""focus"",""7"",""173210""
","""event"",""trial"",""time""
""blur"",""7"",""56260""
""blur"",""7"",""115949""
""blur"",""7"",""170342""
","""event"",""trial"",""time""
""focus"",""1"",""2571""
""focus"",""7"",""57743""
""focus"",""7"",""117141""
""focus"",""7"",""173210""
","""event"",""trial"",""time""
""fullscreenenter"",""1"",""3300""
","""event"",""trial"",""time""
""fullscreenexit"",""7"",""82534""
","","[{""page_index"":0,""viewing_time"":7071.200000047684},{""page_index"":1,""viewing_time"":11851.899999856949},{""page_index"":2,""viewing_time"":12163},{""page_index"":3,""viewing_time"":5200.600000143051}]","36288.5","","","","","","","","","","","","","","","","","","","","","","","",""
"pit-trial","81","768670","0.0-2.0-17.0-0.0","battery-v0.2","","""event"",""trial"",""time""
""focus"",""1"",""2571""
""fullscreenenter"",""1"",""3300""
""blur"",""7"",""56260""
""focus"",""7"",""57743""
""fullscreenexit"",""7"",""82534""
""blur"",""7"",""115949""
""focus"",""7"",""117141""
""blur"",""7"",""170342""
""focus"",""7"",""173210""
","""event"",""trial"",""time""
""blur"",""7"",""56260""
""blur"",""7"",""115949""
""blur"",""7"",""170342""
","""event"",""trial"",""time""
""focus"",""1"",""2571""
""focus"",""7"",""57743""
""focus"",""7"",""117141""
""focus"",""7"",""173210""
","""event"",""trial"",""time""
""fullscreenenter"",""1"",""3300""
","""event"",""trial"",""time""
""fullscreenexit"",""7"",""82534""
","","","669.7999999523163","","","21","3705","2283","&#9789;","elianto","#f73b6a7A"," "," ","1","0","[1520.7000000476837]","1","0","4","","","","","","","",""
"pit-trial","82","771910","0.0-2.0-17.0-1.0","battery-v0.2","","""event"",""trial"",""time""
""focus"",""1"",""2571""
""fullscreenenter"",""1"",""3300""
""blur"",""7"",""56260""
""focus"",""7"",""57743""
""fullscreenexit"",""7"",""82534""
""blur"",""7"",""115949""
""focus"",""7"",""117141""
""blur"",""7"",""170342""
""focus"",""7"",""173210""
","""event"",""trial"",""time""
""blur"",""7"",""56260""
""blur"",""7"",""115949""
""blur"",""7"",""170342""
","""event"",""trial"",""time""
""focus"",""1"",""2571""
""focus"",""7"",""57743""
""focus"",""7"",""117141""
""focus"",""7"",""173210""
","""event"",""trial"",""time""
""fullscreenenter"",""1"",""3300""
","""event"",""trial"",""time""
""fullscreenexit"",""7"",""82534""
","","","364","","","21","3705","2283","&#9789;","elianto","#f73b6a7A"," "," ","1","0","[1216.8000001907349]","1","0","4","","","","","","","",""
"pit-trial","83","775029","0.0-2.0-17.0-2.0","battery-v0.2","","""event"",""trial"",""time""
""focus"",""1"",""2571""
""fullscreenenter"",""1"",""3300""
""blur"",""7"",""56260""
""focus"",""7"",""57743""
""fullscreenexit"",""7"",""82534""
""blur"",""7"",""115949""
""focus"",""7"",""117141""
""blur"",""7"",""170342""
""focus"",""7"",""173210""
","""event"",""trial"",""time""
""blur"",""7"",""56260""
""blur"",""7"",""115949""
""blur"",""7"",""170342""
","""event"",""trial"",""time""
""focus"",""1"",""2571""
""focus"",""7"",""57743""
""focus"",""7"",""117141""
""focus"",""7"",""173210""
","""event"",""trial"",""time""
""fullscreenenter"",""1"",""3300""
","""event"",""trial"",""time""
""fullscreenexit"",""7"",""82534""
","","","233","","","21","3705","2283","&#9789;","elianto","#f73b6a7A"," "," ","1","0","[1096.1000001430511]","1","0","4","","","","","","","",""
"pit-trial","84","778269","0.0-2.0-17.0-3.0","battery-v0.2","","""event"",""trial"",""time""
""focus"",""1"",""2571""
""fullscreenenter"",""1"",""3300""
""blur"",""7"",""56260""
""focus"",""7"",""57743""
""fullscreenexit"",""7"",""82534""
""blur"",""7"",""115949""
""focus"",""7"",""117141""
""blur"",""7"",""170342""
""focus"",""7"",""173210""
","""event"",""trial"",""time""
""blur"",""7"",""56260""
""blur"",""7"",""115949""
""blur"",""7"",""170342""
","""event"",""trial"",""time""
""focus"",""1"",""2571""
""focus"",""7"",""57743""
""focus"",""7"",""117141""
""focus"",""7"",""173210""
","""event"",""trial"",""time""
""fullscreenenter"",""1"",""3300""
","""event"",""trial"",""time""
""fullscreenexit"",""7"",""82534""
","","","361.2999999523163","","","21","3705","2283","&#9789;","elianto","#f73b6a7A"," "," ","1","-10","[1213]","1","0","4","","","","","","","",""
"pit-trial","85","781590","0.0-2.0-17.0-4.0","battery-v0.2","","""event"",""trial"",""time""
""focus"",""1"",""2571""
""fullscreenenter"",""1"",""3300""
""blur"",""7"",""56260""
""focus"",""7"",""57743""
""fullscreenexit"",""7"",""82534""
""blur"",""7"",""115949""
""focus"",""7"",""117141""
""blur"",""7"",""170342""
""focus"",""7"",""173210""
","""event"",""trial"",""time""
""blur"",""7"",""56260""
""blur"",""7"",""115949""
""blur"",""7"",""170342""
","""event"",""trial"",""time""
""focus"",""1"",""2571""
""focus"",""7"",""57743""
""focus"",""7"",""117141""
""focus"",""7"",""173210""
","""event"",""trial"",""time""
""fullscreenenter"",""1"",""3300""
","""event"",""trial"",""time""
""fullscreenexit"",""7"",""82534""
","","","440.59999990463257","","","21","3705","2283","&#9789;","elianto","#f73b6a7A"," "," ","1","0","[1295.7999999523163]","1","0","4","","","","","","","",""
"pit-trial","86","784910","0.0-2.0-17.1-0.1","battery-v0.2","","""event"",""trial"",""time""
""focus"",""1"",""2571""
""fullscreenenter"",""1"",""3300""
""blur"",""7"",""56260""
""focus"",""7"",""57743""
""fullscreenexit"",""7"",""82534""
""blur"",""7"",""115949""
""focus"",""7"",""117141""
""blur"",""7"",""170342""
""focus"",""7"",""173210""
","""event"",""trial"",""time""
""blur"",""7"",""56260""
""blur"",""7"",""115949""
""blur"",""7"",""170342""
","""event"",""trial"",""time""
""focus"",""1"",""2571""
""focus"",""7"",""57743""
""focus"",""7"",""117141""
""focus"",""7"",""173210""
","""event"",""trial"",""time""
""fullscreenenter"",""1"",""3300""
","""event"",""trial"",""time""
""fullscreenexit"",""7"",""82534""
","","","446.09999990463257","","","21","3705","2283","&#9789;","elianto","#f73b6a7A"," "," ","1","0","[1301.3000001907349]","1","0","4","","","","","","","",""
"pit-trial","87","788080","0.0-2.0-17.1-1.1","battery-v0.2","","""event"",""trial"",""time""
""focus"",""1"",""2571""
""fullscreenenter"",""1"",""3300""
""blur"",""7"",""56260""
""focus"",""7"",""57743""
""fullscreenexit"",""7"",""82534""
""blur"",""7"",""115949""
""focus"",""7"",""117141""
""blur"",""7"",""170342""
""focus"",""7"",""173210""
","""event"",""trial"",""time""
""blur"",""7"",""56260""
""blur"",""7"",""115949""
""blur"",""7"",""170342""
","""event"",""trial"",""time""
""focus"",""1"",""2571""
""focus"",""7"",""57743""
""focus"",""7"",""117141""
""focus"",""7"",""173210""
","""event"",""trial"",""time""
""fullscreenenter"",""1"",""3300""
","""event"",""trial"",""time""
""fullscreenexit"",""7"",""82534""
","","","294.2999999523163","","","21","3705","2283","&#9789;","elianto","#f73b6a7A"," "," ","1","0","[1147]","1","0","4","","","","","","","",""
"pit-trial","88","791370","0.0-2.0-17.1-2.1","battery-v0.2","","""event"",""trial"",""time""
""focus"",""1"",""2571""
""fullscreenenter"",""1"",""3300""
""blur"",""7"",""56260""
""focus"",""7"",""57743""
""fullscreenexit"",""7"",""82534""
""blur"",""7"",""115949""
""focus"",""7"",""117141""
""blur"",""7"",""170342""
""focus"",""7"",""173210""
","""event"",""trial"",""time""
""blur"",""7"",""56260""
""blur"",""7"",""115949""
""blur"",""7"",""170342""
","""event"",""trial"",""time""
""focus"",""1"",""2571""
""focus"",""7"",""57743""
""focus"",""7"",""117141""
""focus"",""7"",""173210""
","""event"",""trial"",""time""
""fullscreenenter"",""1"",""3300""
","""event"",""trial"",""time""
""fullscreenexit"",""7"",""82534""
","","","417.2999999523163","","","21","3705","2283","&#9789;","elianto","#f73b6a7A"," "," ","1","0","[1268.8999998569489]","1","0","4","","","","","","","",""
"pit-trial","89","794430","0.0-2.0-17.1-3.1","battery-v0.2","","""event"",""trial"",""time""
""focus"",""1"",""2571""
""fullscreenenter"",""1"",""3300""
""blur"",""7"",""56260""
""focus"",""7"",""57743""
""fullscreenexit"",""7"",""82534""
""blur"",""7"",""115949""
""focus"",""7"",""117141""
""blur"",""7"",""170342""
""focus"",""7"",""173210""
","""event"",""trial"",""time""
""blur"",""7"",""56260""
""blur"",""7"",""115949""
""blur"",""7"",""170342""
","""event"",""trial"",""time""
""focus"",""1"",""2571""
""focus"",""7"",""57743""
""focus"",""7"",""117141""
""focus"",""7"",""173210""
","""event"",""trial"",""time""
""fullscreenenter"",""1"",""3300""
","""event"",""trial"",""time""
""fullscreenexit"",""7"",""82534""
","","","172.29999995231628","","","21","3705","2283","&#9789;","elianto","#f73b6a7A"," "," ","1","-10","[1024.9000000953674]","1","0","4","","","","","","","",""
"pit-trial","90","797540","0.0-2.0-17.1-4.1","battery-v0.2","","""event"",""trial"",""time""
""focus"",""1"",""2571""
""fullscreenenter"",""1"",""3300""
""blur"",""7"",""56260""
""focus"",""7"",""57743""
""fullscreenexit"",""7"",""82534""
""blur"",""7"",""115949""
""focus"",""7"",""117141""
""blur"",""7"",""170342""
""focus"",""7"",""173210""
","""event"",""trial"",""time""
""blur"",""7"",""56260""
""blur"",""7"",""115949""
""blur"",""7"",""170342""
","""event"",""trial"",""time""
""focus"",""1"",""2571""
""focus"",""7"",""57743""
""focus"",""7"",""117141""
""focus"",""7"",""173210""
","""event"",""trial"",""time""
""fullscreenenter"",""1"",""3300""
","""event"",""trial"",""time""
""fullscreenexit"",""7"",""82534""
","","","235.20000004768372","","","21","3705","2283","&#9789;","elianto","#f73b6a7A"," "," ","1","0","[1091]","1","0","4","","","","","","","",""
"pit-trial","91","800619","0.0-2.0-17.2-0.2","battery-v0.2","","""event"",""trial"",""time""
""focus"",""1"",""2571""
""fullscreenenter"",""1"",""3300""
""blur"",""7"",""56260""
""focus"",""7"",""57743""
""fullscreenexit"",""7"",""82534""
""blur"",""7"",""115949""
""focus"",""7"",""117141""
""blur"",""7"",""170342""
""focus"",""7"",""173210""
","""event"",""trial"",""time""
""blur"",""7"",""56260""
""blur"",""7"",""115949""
""blur"",""7"",""170342""
","""event"",""trial"",""time""
""focus"",""1"",""2571""
""focus"",""7"",""57743""
""focus"",""7"",""117141""
""focus"",""7"",""173210""
","""event"",""trial"",""time""
""fullscreenenter"",""1"",""3300""
","""event"",""trial"",""time""
""fullscreenexit"",""7"",""82534""
","","","209.09999990463257","","","21","3705","2283","&#9789;","elianto","#f73b6a7A"," "," ","1","0","[1062.3000001907349]","1","0","4","","","","","","","",""
"pit-trial","92","805491","0.0-2.0-17.2-1.2","battery-v0.2","","""event"",""trial"",""time""
""focus"",""1"",""2571""
""fullscreenenter"",""1"",""3300""
""blur"",""7"",""56260""
""focus"",""7"",""57743""
""fullscreenexit"",""7"",""82534""
""blur"",""7"",""115949""
""focus"",""7"",""117141""
""blur"",""7"",""170342""
""focus"",""7"",""173210""
","""event"",""trial"",""time""
""blur"",""7"",""56260""
""blur"",""7"",""115949""
""blur"",""7"",""170342""
","""event"",""trial"",""time""
""focus"",""1"",""2571""
""focus"",""7"",""57743""
""focus"",""7"",""117141""
""focus"",""7"",""173210""
","""event"",""trial"",""time""
""fullscreenenter"",""1"",""3300""
","""event"",""trial"",""time""
""fullscreenexit"",""7"",""82534""
","","","-1","","","21","3705","2283","&#9789;","elianto","#f73b6a7A"," ","-1","0","-10","[]","0","0","4","","","","","","","",""
"pit-trial","93","808987","0.0-2.0-17.2-2.2","battery-v0.2","","""event"",""trial"",""time""
""focus"",""1"",""2571""
""fullscreenenter"",""1"",""3300""
""blur"",""7"",""56260""
""focus"",""7"",""57743""
""fullscreenexit"",""7"",""82534""
""blur"",""7"",""115949""
""focus"",""7"",""117141""
""blur"",""7"",""170342""
""focus"",""7"",""173210""
","""event"",""trial"",""time""
""blur"",""7"",""56260""
""blur"",""7"",""115949""
""blur"",""7"",""170342""
","""event"",""trial"",""time""
""focus"",""1"",""2571""
""focus"",""7"",""57743""
""focus"",""7"",""117141""
""focus"",""7"",""173210""
","""event"",""trial"",""time""
""fullscreenenter"",""1"",""3300""
","""event"",""trial"",""time""
""fullscreenexit"",""7"",""82534""
","","","627.7000000476837","","","21","3705","2283","&#9789;","elianto","#f73b6a7A"," "," ","1","0","[1483.1000001430511]","1","0","4","","","","","","","",""
"pit-trial","94","812251","0.0-2.0-17.2-3.2","battery-v0.2","","""event"",""trial"",""time""
""focus"",""1"",""2571""
""fullscreenenter"",""1"",""3300""
""blur"",""7"",""56260""
""focus"",""7"",""57743""
""fullscreenexit"",""7"",""82534""
""blur"",""7"",""115949""
""focus"",""7"",""117141""
""blur"",""7"",""170342""
""focus"",""7"",""173210""
","""event"",""trial"",""time""
""blur"",""7"",""56260""
""blur"",""7"",""115949""
""blur"",""7"",""170342""
","""event"",""trial"",""time""
""focus"",""1"",""2571""
""focus"",""7"",""57743""
""focus"",""7"",""117141""
""focus"",""7"",""173210""
","""event"",""trial"",""time""
""fullscreenenter"",""1"",""3300""
","""event"",""trial"",""time""
""fullscreenexit"",""7"",""82534""
","","","399.39999985694885","","","21","3705","2283","&#9789;","elianto","#f73b6a7A"," "," ","1","-10","[1250.7000000476837]","1","0","4","","","","","","","",""
"pit-trial","95","815835","0.0-2.0-17.2-4.2","battery-v0.2","","""event"",""trial"",""time""
""focus"",""1"",""2571""
""fullscreenenter"",""1"",""3300""
""blur"",""7"",""56260""
""focus"",""7"",""57743""
""fullscreenexit"",""7"",""82534""
""blur"",""7"",""115949""
""focus"",""7"",""117141""
""blur"",""7"",""170342""
""focus"",""7"",""173210""
","""event"",""trial"",""time""
""blur"",""7"",""56260""
""blur"",""7"",""115949""
""blur"",""7"",""170342""
","""event"",""trial"",""time""
""focus"",""1"",""2571""
""focus"",""7"",""57743""
""focus"",""7"",""117141""
""focus"",""7"",""173210""
","""event"",""trial"",""time""
""fullscreenenter"",""1"",""3300""
","""event"",""trial"",""time""
""fullscreenexit"",""7"",""82534""
","","","725.4000000953674","","","21","3705","2283","&#9789;","elianto","#f73b6a7A"," "," ","1","0","[1577]","1","0","4","","","","","","","",""
"pit-trial","96","818836","0.0-2.0-17.3-0.3","battery-v0.2","","""event"",""trial"",""time""
""focus"",""1"",""2571""
""fullscreenenter"",""1"",""3300""
""blur"",""7"",""56260""
""focus"",""7"",""57743""
""fullscreenexit"",""7"",""82534""
""blur"",""7"",""115949""
""focus"",""7"",""117141""
""blur"",""7"",""170342""
""focus"",""7"",""173210""
","""event"",""trial"",""time""
""blur"",""7"",""56260""
""blur"",""7"",""115949""
""blur"",""7"",""170342""
","""event"",""trial"",""time""
""focus"",""1"",""2571""
""focus"",""7"",""57743""
""focus"",""7"",""117141""
""focus"",""7"",""173210""
","""event"",""trial"",""time""
""fullscreenenter"",""1"",""3300""
","""event"",""trial"",""time""
""fullscreenexit"",""7"",""82534""
","","","133.70000004768372","","","21","3705","2283","&#9789;","elianto","#f73b6a7A"," "," ","1","0","[984.6999998092651]","1","0","4","","","","","","","",""
"pit-trial","97","822178","0.0-2.0-17.3-1.3","battery-v0.2","","""event"",""trial"",""time""
""focus"",""1"",""2571""
""fullscreenenter"",""1"",""3300""
""blur"",""7"",""56260""
""focus"",""7"",""57743""
""fullscreenexit"",""7"",""82534""
""blur"",""7"",""115949""
""focus"",""7"",""117141""
""blur"",""7"",""170342""
""focus"",""7"",""173210""
","""event"",""trial"",""time""
""blur"",""7"",""56260""
""blur"",""7"",""115949""
""blur"",""7"",""170342""
","""event"",""trial"",""time""
""focus"",""1"",""2571""
""focus"",""7"",""57743""
""focus"",""7"",""117141""
""focus"",""7"",""173210""
","""event"",""trial"",""time""
""fullscreenenter"",""1"",""3300""
","""event"",""trial"",""time""
""fullscreenexit"",""7"",""82534""
","","","474.89999985694885","","","21","3705","2283","&#9789;","elianto","#f73b6a7A"," "," ","1","0","[1327.7999999523163]","1","0","4","","","","","","","",""
"pit-trial","98","825539","0.0-2.0-17.3-2.3","battery-v0.2","","""event"",""trial"",""time""
""focus"",""1"",""2571""
""fullscreenenter"",""1"",""3300""
""blur"",""7"",""56260""
""focus"",""7"",""57743""
""fullscreenexit"",""7"",""82534""
""blur"",""7"",""115949""
""focus"",""7"",""117141""
""blur"",""7"",""170342""
""focus"",""7"",""173210""
","""event"",""trial"",""time""
""blur"",""7"",""56260""
""blur"",""7"",""115949""
""blur"",""7"",""170342""
","""event"",""trial"",""time""
""focus"",""1"",""2571""
""focus"",""7"",""57743""
""focus"",""7"",""117141""
""focus"",""7"",""173210""
","""event"",""trial"",""time""
""fullscreenenter"",""1"",""3300""
","""event"",""trial"",""time""
""fullscreenexit"",""7"",""82534""
","","","495.7999999523163","","","21","3705","2283","&#9789;","elianto","#f73b6a7A"," "," ","1","0","[1350.7000000476837]","1","0","4","","","","","","","",""
"pit-trial","99","828899","0.0-2.0-17.3-3.3","battery-v0.2","","""event"",""trial"",""time""
""focus"",""1"",""2571""
""fullscreenenter"",""1"",""3300""
""blur"",""7"",""56260""
""focus"",""7"",""57743""
""fullscreenexit"",""7"",""82534""
""blur"",""7"",""115949""
""focus"",""7"",""117141""
""blur"",""7"",""170342""
""focus"",""7"",""173210""
","""event"",""trial"",""time""
""blur"",""7"",""56260""
""blur"",""7"",""115949""
""blur"",""7"",""170342""
","""event"",""trial"",""time""
""focus"",""1"",""2571""
""focus"",""7"",""57743""
""focus"",""7"",""117141""
""focus"",""7"",""173210""
","""event"",""trial"",""time""
""fullscreenenter"",""1"",""3300""
","""event"",""trial"",""time""
""fullscreenexit"",""7"",""82534""
","","","491.40000009536743","","","21","3705","2283","&#9789;","elianto","#f73b6a7A"," "," ","1","-10","[1349.5999999046326]","1","0","4","","","","","","","",""
"pit-trial","100","833771","0.0-2.0-17.3-4.3","battery-v0.2","","""event"",""trial"",""time""
""focus"",""1"",""2571""
""fullscreenenter"",""1"",""3300""
""blur"",""7"",""56260""
""focus"",""7"",""57743""
""fullscreenexit"",""7"",""82534""
""blur"",""7"",""115949""
""focus"",""7"",""117141""
""blur"",""7"",""170342""
""focus"",""7"",""173210""
","""event"",""trial"",""time""
""blur"",""7"",""56260""
""blur"",""7"",""115949""
""blur"",""7"",""170342""
","""event"",""trial"",""time""
""focus"",""1"",""2571""
""focus"",""7"",""57743""
""focus"",""7"",""117141""
""focus"",""7"",""173210""
","""event"",""trial"",""time""
""fullscreenenter"",""1"",""3300""
","""event"",""trial"",""time""
""fullscreenexit"",""7"",""82534""
","","","-1","","","21","3705","2283","&#9789;","elianto","#f73b6a7A"," ","-1","0","-10","[828.4000000953674]","1","0","4","","","","","","","",""
"call-function","101","833776","0.0-2.0-18.0","battery-v0.2","","""event"",""trial"",""time""
""focus"",""1"",""2571""
""fullscreenenter"",""1"",""3300""
""blur"",""7"",""56260""
""focus"",""7"",""57743""
""fullscreenexit"",""7"",""82534""
""blur"",""7"",""115949""
""focus"",""7"",""117141""
""blur"",""7"",""170342""
""focus"",""7"",""173210""
","""event"",""trial"",""time""
""blur"",""7"",""56260""
""blur"",""7"",""115949""
""blur"",""7"",""170342""
","""event"",""trial"",""time""
""focus"",""1"",""2571""
""focus"",""7"",""57743""
""focus"",""7"",""117141""
""focus"",""7"",""173210""
","""event"",""trial"",""time""
""fullscreenenter"",""1"",""3300""
","""event"",""trial"",""time""
""fullscreenexit"",""7"",""82534""
","","","","","","","","","","","","","","","","","","","","","","","","","","",""
"pit-instructions","102","915059","0.0-2.0-19.0","battery-v0.2","","""event"",""trial"",""time""
""focus"",""1"",""2571""
""fullscreenenter"",""1"",""3300""
""blur"",""7"",""56260""
""focus"",""7"",""57743""
""fullscreenexit"",""7"",""82534""
""blur"",""7"",""115949""
""focus"",""7"",""117141""
""blur"",""7"",""170342""
""focus"",""7"",""173210""
","""event"",""trial"",""time""
""blur"",""7"",""56260""
""blur"",""7"",""115949""
""blur"",""7"",""170342""
","""event"",""trial"",""time""
""focus"",""1"",""2571""
""focus"",""7"",""57743""
""focus"",""7"",""117141""
""focus"",""7"",""173210""
","""event"",""trial"",""time""
""fullscreenenter"",""1"",""3300""
","""event"",""trial"",""time""
""fullscreenexit"",""7"",""82534""
","","[{""page_index"":0,""viewing_time"":9062.400000095367},{""page_index"":1,""viewing_time"":13579.899999856949},{""page_index"":2,""viewing_time"":11163.5},{""page_index"":3,""viewing_time"":4912.299999952316},{""page_index"":4,""viewing_time"":7521.300000190735},{""page_index"":5,""viewing_time"":9566.799999952316},{""page_index"":6,""viewing_time"":5261.299999952316},{""page_index"":7,""viewing_time"":11512.200000047684},{""page_index"":8,""viewing_time"":8697.5}]","81279.59999990463","","","","","","","","","","","","","","","","","","","","","","","",""
"pit-comprehension","103","921720","0.0-2.0-20.0-0.0","battery-v0.2","","""event"",""trial"",""time""
""focus"",""1"",""2571""
""fullscreenenter"",""1"",""3300""
""blur"",""7"",""56260""
""focus"",""7"",""57743""
""fullscreenexit"",""7"",""82534""
""blur"",""7"",""115949""
""focus"",""7"",""117141""
""blur"",""7"",""170342""
""focus"",""7"",""173210""
","""event"",""trial"",""time""
""blur"",""7"",""56260""
""blur"",""7"",""115949""
""blur"",""7"",""170342""
","""event"",""trial"",""time""
""focus"",""1"",""2571""
""focus"",""7"",""57743""
""focus"",""7"",""117141""
""focus"",""7"",""173210""
","""event"",""trial"",""time""
""fullscreenenter"",""1"",""3300""
","""event"",""trial"",""time""
""fullscreenexit"",""7"",""82534""
","","","6641.299999952316","[""SPACE""]","0","21","3705","2283","","","","","","","","","","","","","","","","","","",""
"pit-instructions","104","925718","0.0-2.0-20.0-1.0","battery-v0.2","","""event"",""trial"",""time""
""focus"",""1"",""2571""
""fullscreenenter"",""1"",""3300""
""blur"",""7"",""56260""
""focus"",""7"",""57743""
""fullscreenexit"",""7"",""82534""
""blur"",""7"",""115949""
""focus"",""7"",""117141""
""blur"",""7"",""170342""
""focus"",""7"",""173210""
","""event"",""trial"",""time""
""blur"",""7"",""56260""
""blur"",""7"",""115949""
""blur"",""7"",""170342""
","""event"",""trial"",""time""
""focus"",""1"",""2571""
""focus"",""7"",""57743""
""focus"",""7"",""117141""
""focus"",""7"",""173210""
","""event"",""trial"",""time""
""fullscreenenter"",""1"",""3300""
","""event"",""trial"",""time""
""fullscreenexit"",""7"",""82534""
","","[{""page_index"":0,""viewing_time"":3483.7000000476837}]","3484.600000143051","","","","","","","","","","","","","","","","","","","","","","","",""
"pit-comprehension","105","930476","0.0-2.0-21.0-0.0","battery-v0.2","","""event"",""trial"",""time""
""focus"",""1"",""2571""
""fullscreenenter"",""1"",""3300""
""blur"",""7"",""56260""
""focus"",""7"",""57743""
""fullscreenexit"",""7"",""82534""
""blur"",""7"",""115949""
""focus"",""7"",""117141""
""blur"",""7"",""170342""
""focus"",""7"",""173210""
","""event"",""trial"",""time""
""blur"",""7"",""56260""
""blur"",""7"",""115949""
""blur"",""7"",""170342""
","""event"",""trial"",""time""
""focus"",""1"",""2571""
""focus"",""7"",""57743""
""focus"",""7"",""117141""
""focus"",""7"",""173210""
","""event"",""trial"",""time""
""fullscreenenter"",""1"",""3300""
","""event"",""trial"",""time""
""fullscreenexit"",""7"",""82534""
","","","4743.399999856949","[""10""]","0","21","3705","2283","","","","","","","","","","","","","","","","","","",""
"pit-instructions","106","933294","0.0-2.0-21.0-1.0","battery-v0.2","","""event"",""trial"",""time""
""focus"",""1"",""2571""
""fullscreenenter"",""1"",""3300""
""blur"",""7"",""56260""
""focus"",""7"",""57743""
""fullscreenexit"",""7"",""82534""
""blur"",""7"",""115949""
""focus"",""7"",""117141""
""blur"",""7"",""170342""
""focus"",""7"",""173210""
","""event"",""trial"",""time""
""blur"",""7"",""56260""
""blur"",""7"",""115949""
""blur"",""7"",""170342""
","""event"",""trial"",""time""
""focus"",""1"",""2571""
""focus"",""7"",""57743""
""focus"",""7"",""117141""
""focus"",""7"",""173210""
","""event"",""trial"",""time""
""fullscreenenter"",""1"",""3300""
","""event"",""trial"",""time""
""fullscreenexit"",""7"",""82534""
","","[{""page_index"":0,""viewing_time"":2514.9000000953674}]","2516.4000000953674","","","","","","","","","","","","","","","","","","","","","","","",""
"pit-comprehension","107","945343","0.0-2.0-22.0-0.0","battery-v0.2","","""event"",""trial"",""time""
""focus"",""1"",""2571""
""fullscreenenter"",""1"",""3300""
""blur"",""7"",""56260""
""focus"",""7"",""57743""
""fullscreenexit"",""7"",""82534""
""blur"",""7"",""115949""
""focus"",""7"",""117141""
""blur"",""7"",""170342""
""focus"",""7"",""173210""
","""event"",""trial"",""time""
""blur"",""7"",""56260""
""blur"",""7"",""115949""
""blur"",""7"",""170342""
","""event"",""trial"",""time""
""focus"",""1"",""2571""
""focus"",""7"",""57743""
""focus"",""7"",""117141""
""focus"",""7"",""173210""
","""event"",""trial"",""time""
""fullscreenenter"",""1"",""3300""
","""event"",""trial"",""time""
""fullscreenexit"",""7"",""82534""
","","","12032.099999904633","[""0""]","0","21","3705","2283","","","","","","","","","","","","","","","","","","",""
"pit-instructions","108","947991","0.0-2.0-22.0-1.0","battery-v0.2","","""event"",""trial"",""time""
""focus"",""1"",""2571""
""fullscreenenter"",""1"",""3300""
""blur"",""7"",""56260""
""focus"",""7"",""57743""
""fullscreenexit"",""7"",""82534""
""blur"",""7"",""115949""
""focus"",""7"",""117141""
""blur"",""7"",""170342""
""focus"",""7"",""173210""
","""event"",""trial"",""time""
""blur"",""7"",""56260""
""blur"",""7"",""115949""
""blur"",""7"",""170342""
","""event"",""trial"",""time""
""focus"",""1"",""2571""
""focus"",""7"",""57743""
""focus"",""7"",""117141""
""focus"",""7"",""173210""
","""event"",""trial"",""time""
""fullscreenenter"",""1"",""3300""
","""event"",""trial"",""time""
""fullscreenexit"",""7"",""82534""
","","[{""page_index"":0,""viewing_time"":2268.600000143051}]","2269.7000000476837","","","","","","","","","","","","","","","","","","","","","","","",""
"pit-comprehension","109","961681","0.0-2.0-23.0-0.0","battery-v0.2","","""event"",""trial"",""time""
""focus"",""1"",""2571""
""fullscreenenter"",""1"",""3300""
""blur"",""7"",""56260""
""focus"",""7"",""57743""
""fullscreenexit"",""7"",""82534""
""blur"",""7"",""115949""
""focus"",""7"",""117141""
""blur"",""7"",""170342""
""focus"",""7"",""173210""
","""event"",""trial"",""time""
""blur"",""7"",""56260""
""blur"",""7"",""115949""
""blur"",""7"",""170342""
","""event"",""trial"",""time""
""focus"",""1"",""2571""
""focus"",""7"",""57743""
""focus"",""7"",""117141""
""focus"",""7"",""173210""
","""event"",""trial"",""time""
""fullscreenenter"",""1"",""3300""
","""event"",""trial"",""time""
""fullscreenexit"",""7"",""82534""
","","","13673.800000190735","[""True""]","0","21","3705","2283","","","","","","","","","","","","","","","","","","",""
"pit-instructions","110","964712","0.0-2.0-23.0-1.0","battery-v0.2","","""event"",""trial"",""time""
""focus"",""1"",""2571""
""fullscreenenter"",""1"",""3300""
""blur"",""7"",""56260""
""focus"",""7"",""57743""
""fullscreenexit"",""7"",""82534""
""blur"",""7"",""115949""
""focus"",""7"",""117141""
""blur"",""7"",""170342""
""focus"",""7"",""173210""
","""event"",""trial"",""time""
""blur"",""7"",""56260""
""blur"",""7"",""115949""
""blur"",""7"",""170342""
","""event"",""trial"",""time""
""focus"",""1"",""2571""
""focus"",""7"",""57743""
""focus"",""7"",""117141""
""focus"",""7"",""173210""
","""event"",""trial"",""time""
""fullscreenenter"",""1"",""3300""
","""event"",""trial"",""time""
""fullscreenexit"",""7"",""82534""
","","[{""page_index"":0,""viewing_time"":2741.699999809265}]","2742.7999999523163","","","","","","","","","","","","","","","","","","","","","","","",""
"pit-comprehension","111","975588","0.0-2.0-24.0-0.0","battery-v0.2","","""event"",""trial"",""time""
""focus"",""1"",""2571""
""fullscreenenter"",""1"",""3300""
""blur"",""7"",""56260""
""focus"",""7"",""57743""
""fullscreenexit"",""7"",""82534""
""blur"",""7"",""115949""
""focus"",""7"",""117141""
""blur"",""7"",""170342""
""focus"",""7"",""173210""
","""event"",""trial"",""time""
""blur"",""7"",""56260""
""blur"",""7"",""115949""
""blur"",""7"",""170342""
","""event"",""trial"",""time""
""focus"",""1"",""2571""
""focus"",""7"",""57743""
""focus"",""7"",""117141""
""focus"",""7"",""173210""
","""event"",""trial"",""time""
""fullscreenenter"",""1"",""3300""
","""event"",""trial"",""time""
""fullscreenexit"",""7"",""82534""
","","","10858.299999952316","[""True""]","0","21","3705","2283","","","","","","","","","","","","","","","","","","",""
