"trial_type","trial_index","time_elapsed","internal_node_id","task_version","subject_id","interactions","blur_events","focus_events","fullscreenenter_events","fullscreenexit_events","success","view_history","rt","responses","num_errors","age","subject","participantId","rune","rune_set","hex","correct","choice","accuracy","outcome","keys","total_keys","block","practice","value","sub","trial","stimulus","robot","valence","action","sham"
"pavlovia","0","18","0.0-0.0","battery-v0.2","","""event"",""trial"",""time""
""fullscreenenter"",""1"",""1467""
","
","
","""event"",""trial"",""time""
""fullscreenenter"",""1"",""1467""
","
","","","","","","","","","","","","","","","","","","","","","","","","","","",""
"fullscreen","1","2417","0.0-1.0","battery-v0.2","","""event"",""trial"",""time""
""fullscreenenter"",""1"",""1467""
","
","
","""event"",""trial"",""time""
""fullscreenenter"",""1"",""1467""
","
","true","","","","","","","","","","","","","","","","","","","","","","","","","",""
"pit-instructions","2","7149","0.0-2.0-0.0","battery-v0.2","","""event"",""trial"",""time""
""fullscreenenter"",""1"",""1467""
","
","
","""event"",""trial"",""time""
""fullscreenenter"",""1"",""1467""
","
","","[{""page_index"":0,""viewing_time"":4728}]","4729","","","","","","","","","","","","","","","","","","","","","","","",""
"pit-comprehension","3","10726","0.0-2.0-1.0-0.0","battery-v0.2","","""event"",""trial"",""time""
""fullscreenenter"",""1"",""1467""
","
","
","""event"",""trial"",""time""
""fullscreenenter"",""1"",""1467""
","
","","","3464.000000000002","[""shark""]","0","23","18658","7076","","","","","","","","","","","","","","","","","","",""
"pit-instructions","4","16099","0.0-2.0-1.0-1.0","battery-v0.2","","""event"",""trial"",""time""
""fullscreenenter"",""1"",""1467""
","
","
","""event"",""trial"",""time""
""fullscreenenter"",""1"",""1467""
","
","","[{""page_index"":0,""viewing_time"":5364}]","5364","","","","","","","","","","","","","","","","","","","","","","","",""
"pit-comprehension","5","18920","0.0-2.0-2.0-0.0","battery-v0.2","","""event"",""trial"",""time""
""fullscreenenter"",""1"",""1467""
","
","
","""event"",""trial"",""time""
""fullscreenenter"",""1"",""1467""
","
","","","2817.0000000000036","[""tiger""]","0","23","18658","7076","","","","","","","","","","","","","","","","","","",""
"pit-instructions","6","20116","0.0-2.0-2.0-1.0","battery-v0.2","","""event"",""trial"",""time""
""fullscreenenter"",""1"",""1467""
","
","
","""event"",""trial"",""time""
""fullscreenenter"",""1"",""1467""
","
","","[{""page_index"":0,""viewing_time"":1189}]","1189","","","","","","","","","","","","","","","","","","","","","","","",""
"pit-instructions","7","116752","0.0-2.0-3.0","battery-v0.2","","""event"",""trial"",""time""
""fullscreenenter"",""1"",""1467""
","
","
","""event"",""trial"",""time""
""fullscreenenter"",""1"",""1467""
","
","","[{""page_index"":0,""viewing_time"":9779},{""page_index"":1,""viewing_time"":6117},{""page_index"":2,""viewing_time"":6333.000000000007},{""page_index"":3,""viewing_time"":5166.999999999993},{""page_index"":4,""viewing_time"":5916},{""page_index"":5,""viewing_time"":5434},{""page_index"":6,""viewing_time"":6950},{""page_index"":7,""viewing_time"":6499},{""page_index"":8,""viewing_time"":6601},{""page_index"":9,""viewing_time"":6583},{""page_index"":10,""viewing_time"":8083},{""page_index"":11,""viewing_time"":7134},{""page_index"":12,""viewing_time"":6350},{""page_index"":13,""viewing_time"":9683}]","96629","","","","","","","","","","","","","","","","","","","","","","","",""
"pit-trial","8","120385","0.0-2.0-4.0-0.0","battery-v0.2","","""event"",""trial"",""time""
""fullscreenenter"",""1"",""1467""
","
","
","""event"",""trial"",""time""
""fullscreenenter"",""1"",""1467""
","
","","","777","","","23","18658","7076","&#9784;","elianto","#FFFFF080"," "," ","1","&#10004","[1628]","1","0","0","","","","","","","",""
"pit-trial","9","124054","0.0-2.0-4.1-0.1","battery-v0.2","","""event"",""trial"",""time""
""fullscreenenter"",""1"",""1467""
","
","
","""event"",""trial"",""time""
""fullscreenenter"",""1"",""1467""
","
","","","814","","","23","18658","7076","&#9784;","elianto","#FFFFF080"," "," ","1","&#10004","[1665]","1","0","0","","","","","","","",""
"pit-trial","10","127690","0.0-2.0-4.2-0.2","battery-v0.2","","""event"",""trial"",""time""
""fullscreenenter"",""1"",""1467""
","
","
","""event"",""trial"",""time""
""fullscreenenter"",""1"",""1467""
","
","","","780.9999999999854","","","23","18658","7076","&#9784;","elianto","#FFFFF080"," "," ","1","&#10004","[1631.9999999999854]","1","0","0","","","","","","","",""
"pit-trial","11","131278","0.0-2.0-4.3-0.3","battery-v0.2","","""event"",""trial"",""time""
""fullscreenenter"",""1"",""1467""
","
","
","""event"",""trial"",""time""
""fullscreenenter"",""1"",""1467""
","
","","","733","","","23","18658","7076","&#9784;","elianto","#FFFFF080"," "," ","1","&#10004","[1584]","1","0","0","","","","","","","",""
"pit-trial","12","134796","0.0-2.0-4.4-0.4","battery-v0.2","","""event"",""trial"",""time""
""fullscreenenter"",""1"",""1467""
","
","
","""event"",""trial"",""time""
""fullscreenenter"",""1"",""1467""
","
","","","663","","","23","18658","7076","&#9784;","elianto","#FFFFF080"," "," ","1","&#10004","[1514]","1","0","0","","","","","","","",""
"pit-instructions","13","156520","0.0-2.0-5.0","battery-v0.2","","""event"",""trial"",""time""
""fullscreenenter"",""1"",""1467""
","
","
","""event"",""trial"",""time""
""fullscreenenter"",""1"",""1467""
","
","","[{""page_index"":0,""viewing_time"":4802},{""page_index"":1,""viewing_time"":5600},{""page_index"":2,""viewing_time"":4867},{""page_index"":3,""viewing_time"":6450}]","21719","","","","","","","","","","","","","","","","","","","","","","","",""
"pit-trial","14","161375","0.0-2.0-6.0-0.0","battery-v0.2","","""event"",""trial"",""time""
""fullscreenenter"",""1"",""1467""
","
","
","""event"",""trial"",""time""
""fullscreenenter"",""1"",""1467""
","
","","","-1","","","23","18658","7076","&#9854;","elianto","#FFFFF080","-1","-1","1","&#10004","[]","0","0","1","","","","","","","",""
"pit-trial","15","166231","0.0-2.0-6.1-0.1","battery-v0.2","","""event"",""trial"",""time""
""fullscreenenter"",""1"",""1467""
","
","
","""event"",""trial"",""time""
""fullscreenenter"",""1"",""1467""
","
","","","-1","","","23","18658","7076","&#9854;","elianto","#FFFFF080","-1","-1","1","&#10004","[]","0","0","1","","","","","","","",""
"pit-trial","16","171085","0.0-2.0-6.2-0.2","battery-v0.2","","""event"",""trial"",""time""
""fullscreenenter"",""1"",""1467""
","
","
","""event"",""trial"",""time""
""fullscreenenter"",""1"",""1467""
","
","","","-1","","","23","18658","7076","&#9854;","elianto","#FFFFF080","-1","-1","1","&#10004","[]","0","0","1","","","","","","","",""
"pit-trial","17","175940","0.0-2.0-6.3-0.3","battery-v0.2","","""event"",""trial"",""time""
""fullscreenenter"",""1"",""1467""
","
","
","""event"",""trial"",""time""
""fullscreenenter"",""1"",""1467""
","
","","","-1","","","23","18658","7076","&#9854;","elianto","#FFFFF080","-1","-1","1","&#10004","[]","0","0","1","","","","","","","",""
"pit-trial","18","180796","0.0-2.0-6.4-0.4","battery-v0.2","","""event"",""trial"",""time""
""fullscreenenter"",""1"",""1467""
","
","
","""event"",""trial"",""time""
""fullscreenenter"",""1"",""1467""
","
","","","-1","","","23","18658","7076","&#9854;","elianto","#FFFFF080","-1","-1","1","&#10004","[]","0","0","1","","","","","","","",""
"pit-instructions","19","301091","0.0-2.0-7.0","battery-v0.2","","""event"",""trial"",""time""
""fullscreenenter"",""1"",""1467""
","
","
","""event"",""trial"",""time""
""fullscreenenter"",""1"",""1467""
","
","","[{""page_index"":0,""viewing_time"":6170.000000000029},{""page_index"":1,""viewing_time"":8765.99999999997},{""page_index"":2,""viewing_time"":6551},{""page_index"":3,""viewing_time"":6399},{""page_index"":4,""viewing_time"":5900},{""page_index"":5,""viewing_time"":5317},{""page_index"":6,""viewing_time"":4867},{""page_index"":7,""viewing_time"":8050},{""page_index"":8,""viewing_time"":7016},{""page_index"":9,""viewing_time"":6217},{""page_index"":10,""viewing_time"":6417.000000000029},{""page_index"":11,""viewing_time"":5033},{""page_index"":12,""viewing_time"":7683.999999999971},{""page_index"":13,""viewing_time"":7433},{""page_index"":14,""viewing_time"":7367},{""page_index"":15,""viewing_time"":6550},{""page_index"":16,""viewing_time"":6783},{""page_index"":17,""viewing_time"":7767.000000000058}]","120287.00000000006","","","","","","","","","","","","","","","","","","","","","","","",""
"pit-trial","20","304626","0.0-2.0-8.0-0.0","battery-v0.2","","""event"",""trial"",""time""
""fullscreenenter"",""1"",""1467""
","
","
","""event"",""trial"",""time""
""fullscreenenter"",""1"",""1467""
","
","","","679","","","23","18658","7076","&#9776;","elianto","#3366ff99"," "," ","1","+10","[1530]","1","0","1","","","","","","","",""
"pit-trial","21","308042","0.0-2.0-8.0-1.0","battery-v0.2","","""event"",""trial"",""time""
""fullscreenenter"",""1"",""1467""
","
","
","""event"",""trial"",""time""
""fullscreenenter"",""1"",""1467""
","
","","","560.9999999999418","","","23","18658","7076","&#9776;","elianto","#3366ff99"," "," ","1","+10","[1411]","1","0","1","","","","","","","",""
"pit-trial","22","311249","0.0-2.0-8.0-2.0","battery-v0.2","","""event"",""trial"",""time""
""fullscreenenter"",""1"",""1467""
","
","
","""event"",""trial"",""time""
""fullscreenenter"",""1"",""1467""
","
","","","352.9999999999418","","","23","18658","7076","&#9776;","elianto","#3366ff99"," "," ","1","+10","[1203.9999999999418]","1","0","1","","","","","","","",""
"pit-trial","23","314514","0.0-2.0-8.0-3.0","battery-v0.2","","""event"",""trial"",""time""
""fullscreenenter"",""1"",""1467""
","
","
","""event"",""trial"",""time""
""fullscreenenter"",""1"",""1467""
","
","","","407","","","23","18658","7076","&#9776;","elianto","#3366ff99"," "," ","1","0","[1261]","1","0","1","","","","","","","",""
"pit-trial","24","317824","0.0-2.0-8.0-4.0","battery-v0.2","","""event"",""trial"",""time""
""fullscreenenter"",""1"",""1467""
","
","
","""event"",""trial"",""time""
""fullscreenenter"",""1"",""1467""
","
","","","455","","","23","18658","7076","&#9776;","elianto","#3366ff99"," "," ","1","+10","[1306]","1","0","1","","","","","","","",""
"pit-trial","25","321130","0.0-2.0-8.1-0.1","battery-v0.2","","""event"",""trial"",""time""
""fullscreenenter"",""1"",""1467""
","
","
","""event"",""trial"",""time""
""fullscreenenter"",""1"",""1467""
","
","","","449","","","23","18658","7076","&#9776;","elianto","#3366ff99"," "," ","1","+10","[1301]","1","0","1","","","","","","","",""
"pit-trial","26","324390","0.0-2.0-8.1-1.1","battery-v0.2","","""event"",""trial"",""time""
""fullscreenenter"",""1"",""1467""
","
","
","""event"",""trial"",""time""
""fullscreenenter"",""1"",""1467""
","
","","","406","","","23","18658","7076","&#9776;","elianto","#3366ff99"," "," ","1","+10","[1255.9999999999418]","1","0","1","","","","","","","",""
"pit-trial","27","328064","0.0-2.0-8.1-2.1","battery-v0.2","","""event"",""trial"",""time""
""fullscreenenter"",""1"",""1467""
","
","
","""event"",""trial"",""time""
""fullscreenenter"",""1"",""1467""
","
","","","822","","","23","18658","7076","&#9776;","elianto","#3366ff99"," "," ","1","+10","[1672]","1","0","1","","","","","","","",""
"pit-trial","28","331698","0.0-2.0-8.1-3.1","battery-v0.2","","""event"",""trial"",""time""
""fullscreenenter"",""1"",""1467""
","
","
","""event"",""trial"",""time""
""fullscreenenter"",""1"",""1467""
","
","","","780","","","23","18658","7076","&#9776;","elianto","#3366ff99"," "," ","1","0","[1630]","1","0","1","","","","","","","",""
"pit-trial","29","335287","0.0-2.0-8.1-4.1","battery-v0.2","","""event"",""trial"",""time""
""fullscreenenter"",""1"",""1467""
","
","
","""event"",""trial"",""time""
""fullscreenenter"",""1"",""1467""
","
","","","734","","","23","18658","7076","&#9776;","elianto","#3366ff99"," "," ","1","+10","[1584]","1","0","1","","","","","","","",""
"pit-trial","30","338986","0.0-2.0-8.2-0.2","battery-v0.2","","""event"",""trial"",""time""
""fullscreenenter"",""1"",""1467""
","
","
","""event"",""trial"",""time""
""fullscreenenter"",""1"",""1467""
","
","","","843","","","23","18658","7076","&#9776;","elianto","#3366ff99"," "," ","1","+10","[1693]","1","0","1","","","","","","","",""
"pit-trial","31","342954","0.0-2.0-8.2-1.2","battery-v0.2","","""event"",""trial"",""time""
""fullscreenenter"",""1"",""1467""
","
","
","""event"",""trial"",""time""
""fullscreenenter"",""1"",""1467""
","
","","","1115","","","23","18658","7076","&#9776;","elianto","#3366ff99"," "," ","1","+10","[1965]","1","0","1","","","","","","","",""
"pit-trial","32","346355","0.0-2.0-8.2-2.2","battery-v0.2","","""event"",""trial"",""time""
""fullscreenenter"",""1"",""1467""
","
","
","""event"",""trial"",""time""
""fullscreenenter"",""1"",""1467""
","
","","","545","","","23","18658","7076","&#9776;","elianto","#3366ff99"," "," ","1","+10","[1396]","1","0","1","","","","","","","",""
"pit-trial","33","349838","0.0-2.0-8.2-3.2","battery-v0.2","","""event"",""trial"",""time""
""fullscreenenter"",""1"",""1467""
","
","
","""event"",""trial"",""time""
""fullscreenenter"",""1"",""1467""
","
","","","627","","","23","18658","7076","&#9776;","elianto","#3366ff99"," "," ","1","0","[1478]","1","0","1","","","","","","","",""
"pit-trial","34","353082","0.0-2.0-8.2-4.2","battery-v0.2","","""event"",""trial"",""time""
""fullscreenenter"",""1"",""1467""
","
","
","""event"",""trial"",""time""
""fullscreenenter"",""1"",""1467""
","
","","","390.0000000000582","","","23","18658","7076","&#9776;","elianto","#3366ff99"," "," ","1","+10","[1240.0000000000582]","1","0","1","","","","","","","",""
"call-function","35","353085","0.0-2.0-9.0","battery-v0.2","","""event"",""trial"",""time""
""fullscreenenter"",""1"",""1467""
","
","
","""event"",""trial"",""time""
""fullscreenenter"",""1"",""1467""
","
","","","","","","","","","","","","","","","","","","","","","","","","","","",""
"pit-instructions","36","395228","0.0-2.0-10.0","battery-v0.2","","""event"",""trial"",""time""
""fullscreenenter"",""1"",""1467""
","
","
","""event"",""trial"",""time""
""fullscreenenter"",""1"",""1467""
","
","","[{""page_index"":0,""viewing_time"":6724},{""page_index"":1,""viewing_time"":6983},{""page_index"":2,""viewing_time"":10200},{""page_index"":3,""viewing_time"":9433},{""page_index"":4,""viewing_time"":8800}]","42141","","","","","","","","","","","","","","","","","","","","","","","",""
"pit-trial","37","398495","0.0-2.0-11.0-0.0","battery-v0.2","","""event"",""trial"",""time""
""fullscreenenter"",""1"",""1467""
","
","
","""event"",""trial"",""time""
""fullscreenenter"",""1"",""1467""
","
","","","414","","","23","18658","7076","&#9761;","elianto","#3366ff99","-1"," ","0","0","[1264]","1","0","2","","","","","","","",""
"pit-trial","38","401778","0.0-2.0-11.0-1.0","battery-v0.2","","""event"",""trial"",""time""
""fullscreenenter"",""1"",""1467""
","
","
","""event"",""trial"",""time""
""fullscreenenter"",""1"",""1467""
","
","","","428","","","23","18658","7076","&#9761;","elianto","#3366ff99","-1"," ","0","0","[1277.9999999999418]","1","0","2","","","","","","","",""
"pit-trial","39","405034","0.0-2.0-11.0-2.0","battery-v0.2","","""event"",""trial"",""time""
""fullscreenenter"",""1"",""1467""
","
","
","""event"",""trial"",""time""
""fullscreenenter"",""1"",""1467""
","
","","","400","","","23","18658","7076","&#9761;","elianto","#3366ff99","-1"," ","0","0","[1251]","1","0","2","","","","","","","",""
"pit-trial","40","409888","0.0-2.0-11.0-3.0","battery-v0.2","","""event"",""trial"",""time""
""fullscreenenter"",""1"",""1467""
","
","
","""event"",""trial"",""time""
""fullscreenenter"",""1"",""1467""
","
","","","-1","","","23","18658","7076","&#9761;","elianto","#3366ff99","-1","-1","1","0","[]","0","0","2","","","","","","","",""
"pit-trial","41","414744","0.0-2.0-11.0-4.0","battery-v0.2","","""event"",""trial"",""time""
""fullscreenenter"",""1"",""1467""
","
","
","""event"",""trial"",""time""
""fullscreenenter"",""1"",""1467""
","
","","","-1","","","23","18658","7076","&#9761;","elianto","#3366ff99","-1","-1","1","+10","[]","0","0","2","","","","","","","",""
"pit-trial","42","419600","0.0-2.0-11.1-0.1","battery-v0.2","","""event"",""trial"",""time""
""fullscreenenter"",""1"",""1467""
","
","
","""event"",""trial"",""time""
""fullscreenenter"",""1"",""1467""
","
","","","-1","","","23","18658","7076","&#9761;","elianto","#3366ff99","-1","-1","1","+10","[]","0","0","2","","","","","","","",""
"pit-trial","43","424456","0.0-2.0-11.1-1.1","battery-v0.2","","""event"",""trial"",""time""
""fullscreenenter"",""1"",""1467""
","
","
","""event"",""trial"",""time""
""fullscreenenter"",""1"",""1467""
","
","","","-1","","","23","18658","7076","&#9761;","elianto","#3366ff99","-1","-1","1","+10","[]","0","0","2","","","","","","","",""
"pit-trial","44","429312","0.0-2.0-11.1-2.1","battery-v0.2","","""event"",""trial"",""time""
""fullscreenenter"",""1"",""1467""
","
","
","""event"",""trial"",""time""
""fullscreenenter"",""1"",""1467""
","
","","","-1","","","23","18658","7076","&#9761;","elianto","#3366ff99","-1","-1","1","+10","[]","0","0","2","","","","","","","",""
"pit-trial","45","434168","0.0-2.0-11.1-3.1","battery-v0.2","","""event"",""trial"",""time""
""fullscreenenter"",""1"",""1467""
","
","
","""event"",""trial"",""time""
""fullscreenenter"",""1"",""1467""
","
","","","-1","","","23","18658","7076","&#9761;","elianto","#3366ff99","-1","-1","1","0","[]","0","0","2","","","","","","","",""
"pit-trial","46","439024","0.0-2.0-11.1-4.1","battery-v0.2","","""event"",""trial"",""time""
""fullscreenenter"",""1"",""1467""
","
","
","""event"",""trial"",""time""
""fullscreenenter"",""1"",""1467""
","
","","","-1","","","23","18658","7076","&#9761;","elianto","#3366ff99","-1","-1","1","+10","[]","0","0","2","","","","","","","",""
"pit-trial","47","443879","0.0-2.0-11.2-0.2","battery-v0.2","","""event"",""trial"",""time""
""fullscreenenter"",""1"",""1467""
","
","
","""event"",""trial"",""time""
""fullscreenenter"",""1"",""1467""
","
","","","-1","","","23","18658","7076","&#9761;","elianto","#3366ff99","-1","-1","1","+10","[]","0","0","2","","","","","","","",""
"pit-trial","48","448733","0.0-2.0-11.2-1.2","battery-v0.2","","""event"",""trial"",""time""
""fullscreenenter"",""1"",""1467""
","
","
","""event"",""trial"",""time""
""fullscreenenter"",""1"",""1467""
","
","","","-1","","","23","18658","7076","&#9761;","elianto","#3366ff99","-1","-1","1","+10","[]","0","0","2","","","","","","","",""
"pit-trial","49","453588","0.0-2.0-11.2-2.2","battery-v0.2","","""event"",""trial"",""time""
""fullscreenenter"",""1"",""1467""
","
","
","""event"",""trial"",""time""
""fullscreenenter"",""1"",""1467""
","
","","","-1","","","23","18658","7076","&#9761;","elianto","#3366ff99","-1","-1","1","+10","[]","0","0","2","","","","","","","",""
"pit-trial","50","458442","0.0-2.0-11.2-3.2","battery-v0.2","","""event"",""trial"",""time""
""fullscreenenter"",""1"",""1467""
","
","
","""event"",""trial"",""time""
""fullscreenenter"",""1"",""1467""
","
","","","-1","","","23","18658","7076","&#9761;","elianto","#3366ff99","-1","-1","1","0","[]","0","0","2","","","","","","","",""
"pit-trial","51","463297","0.0-2.0-11.2-4.2","battery-v0.2","","""event"",""trial"",""time""
""fullscreenenter"",""1"",""1467""
","
","
","""event"",""trial"",""time""
""fullscreenenter"",""1"",""1467""
","
","","","-1","","","23","18658","7076","&#9761;","elianto","#3366ff99","-1","-1","1","+10","[]","0","0","2","","","","","","","",""
"pit-trial","52","468151","0.0-2.0-11.3-0.3","battery-v0.2","","""event"",""trial"",""time""
""fullscreenenter"",""1"",""1467""
","
","
","""event"",""trial"",""time""
""fullscreenenter"",""1"",""1467""
","
","","","-1","","","23","18658","7076","&#9761;","elianto","#3366ff99","-1","-1","1","+10","[]","0","0","2","","","","","","","",""
"pit-trial","53","473005","0.0-2.0-11.3-1.3","battery-v0.2","","""event"",""trial"",""time""
""fullscreenenter"",""1"",""1467""
","
","
","""event"",""trial"",""time""
""fullscreenenter"",""1"",""1467""
","
","","","-1","","","23","18658","7076","&#9761;","elianto","#3366ff99","-1","-1","1","+10","[]","0","0","2","","","","","","","",""
"pit-trial","54","477637","0.0-2.0-11.3-2.3","battery-v0.2","","""event"",""trial"",""time""
""fullscreenenter"",""1"",""1467""
","
","
","""event"",""trial"",""time""
""fullscreenenter"",""1"",""1467""
","
","","","1777.9999999999418","","","23","18658","7076","&#9761;","elianto","#3366ff99","-1"," ","0","0","[2628]","1","0","2","","","","","","","",""
"pit-trial","55","482492","0.0-2.0-11.3-3.3","battery-v0.2","","""event"",""trial"",""time""
""fullscreenenter"",""1"",""1467""
","
","
","""event"",""trial"",""time""
""fullscreenenter"",""1"",""1467""
","
","","","-1","","","23","18658","7076","&#9761;","elianto","#3366ff99","-1","-1","1","0","[]","0","0","2","","","","","","","",""
"pit-trial","56","487346","0.0-2.0-11.3-4.3","battery-v0.2","","""event"",""trial"",""time""
""fullscreenenter"",""1"",""1467""
","
","
","""event"",""trial"",""time""
""fullscreenenter"",""1"",""1467""
","
","","","-1","","","23","18658","7076","&#9761;","elianto","#3366ff99","-1","-1","1","+10","[]","0","0","2","","","","","","","",""
"call-function","57","487349","0.0-2.0-12.0","battery-v0.2","","""event"",""trial"",""time""
""fullscreenenter"",""1"",""1467""
","
","
","""event"",""trial"",""time""
""fullscreenenter"",""1"",""1467""
","
","","","","","","","","","","","","","","","","","","","","","","","","","","",""
"pit-instructions","58","520498","0.0-2.0-13.0","battery-v0.2","","""event"",""trial"",""time""
""fullscreenenter"",""1"",""1467""
","
","
","""event"",""trial"",""time""
""fullscreenenter"",""1"",""1467""
","
","","[{""page_index"":0,""viewing_time"":5947},{""page_index"":1,""viewing_time"":7199.000000000058},{""page_index"":2,""viewing_time"":3716.999999999942},{""page_index"":3,""viewing_time"":11184.000000000058},{""page_index"":4,""viewing_time"":5099.999999999884}]","33146.99999999994","","","","","","","","","","","","","","","","","","","","","","","",""
"pit-trial","59","525355","0.0-2.0-14.0-0.0","battery-v0.2","","""event"",""trial"",""time""
""fullscreenenter"",""1"",""1467""
","
","
","""event"",""trial"",""time""
""fullscreenenter"",""1"",""1467""
","
","","","-1","","","23","18658","7076","&#9826;","elianto","#f73b6a7A","-1","-1","1","0","[]","0","0","3","","","","","","","",""
"pit-trial","60","530210","0.0-2.0-14.0-1.0","battery-v0.2","","""event"",""trial"",""time""
""fullscreenenter"",""1"",""1467""
","
","
","""event"",""trial"",""time""
""fullscreenenter"",""1"",""1467""
","
","","","-1","","","23","18658","7076","&#9826;","elianto","#f73b6a7A","-1","-1","1","0","[]","0","0","3","","","","","","","",""
"pit-trial","61","535065","0.0-2.0-14.0-2.0","battery-v0.2","","""event"",""trial"",""time""
""fullscreenenter"",""1"",""1467""
","
","
","""event"",""trial"",""time""
""fullscreenenter"",""1"",""1467""
","
","","","-1","","","23","18658","7076","&#9826;","elianto","#f73b6a7A","-1","-1","1","0","[]","0","0","3","","","","","","","",""
"pit-trial","62","539919","0.0-2.0-14.0-3.0","battery-v0.2","","""event"",""trial"",""time""
""fullscreenenter"",""1"",""1467""
","
","
","""event"",""trial"",""time""
""fullscreenenter"",""1"",""1467""
","
","","","-1","","","23","18658","7076","&#9826;","elianto","#f73b6a7A","-1","-1","1","-10","[]","0","0","3","","","","","","","",""
"pit-trial","63","544774","0.0-2.0-14.0-4.0","battery-v0.2","","""event"",""trial"",""time""
""fullscreenenter"",""1"",""1467""
","
","
","""event"",""trial"",""time""
""fullscreenenter"",""1"",""1467""
","
","","","-1","","","23","18658","7076","&#9826;","elianto","#f73b6a7A","-1","-1","1","0","[]","0","0","3","","","","","","","",""
"pit-trial","64","549628","0.0-2.0-14.1-0.1","battery-v0.2","","""event"",""trial"",""time""
""fullscreenenter"",""1"",""1467""
","
","
","""event"",""trial"",""time""
""fullscreenenter"",""1"",""1467""
","
","","","-1","","","23","18658","7076","&#9826;","elianto","#f73b6a7A","-1","-1","1","0","[]","0","0","3","","","","","","","",""
"pit-trial","65","554483","0.0-2.0-14.1-1.1","battery-v0.2","","""event"",""trial"",""time""
""fullscreenenter"",""1"",""1467""
","
","
","""event"",""trial"",""time""
""fullscreenenter"",""1"",""1467""
","
","","","-1","","","23","18658","7076","&#9826;","elianto","#f73b6a7A","-1","-1","1","0","[]","0","0","3","","","","","","","",""
"pit-trial","66","559337","0.0-2.0-14.1-2.1","battery-v0.2","","""event"",""trial"",""time""
""fullscreenenter"",""1"",""1467""
","
","
","""event"",""trial"",""time""
""fullscreenenter"",""1"",""1467""
","
","","","-1","","","23","18658","7076","&#9826;","elianto","#f73b6a7A","-1","-1","1","0","[]","0","0","3","","","","","","","",""
"pit-trial","67","564192","0.0-2.0-14.1-3.1","battery-v0.2","","""event"",""trial"",""time""
""fullscreenenter"",""1"",""1467""
","
","
","""event"",""trial"",""time""
""fullscreenenter"",""1"",""1467""
","
","","","-1","","","23","18658","7076","&#9826;","elianto","#f73b6a7A","-1","-1","1","-10","[]","0","0","3","","","","","","","",""
"pit-trial","68","569045","0.0-2.0-14.1-4.1","battery-v0.2","","""event"",""trial"",""time""
""fullscreenenter"",""1"",""1467""
","
","
","""event"",""trial"",""time""
""fullscreenenter"",""1"",""1467""
","
","","","-1","","","23","18658","7076","&#9826;","elianto","#f73b6a7A","-1","-1","1","0","[]","0","0","3","","","","","","","",""
"pit-trial","69","573898","0.0-2.0-14.2-0.2","battery-v0.2","","""event"",""trial"",""time""
""fullscreenenter"",""1"",""1467""
","
","
","""event"",""trial"",""time""
""fullscreenenter"",""1"",""1467""
","
","","","-1","","","23","18658","7076","&#9826;","elianto","#f73b6a7A","-1","-1","1","0","[]","0","0","3","","","","","","","",""
"pit-trial","70","578750","0.0-2.0-14.2-1.2","battery-v0.2","","""event"",""trial"",""time""
""fullscreenenter"",""1"",""1467""
","
","
","""event"",""trial"",""time""
""fullscreenenter"",""1"",""1467""
","
","","","-1","","","23","18658","7076","&#9826;","elianto","#f73b6a7A","-1","-1","1","0","[]","0","0","3","","","","","","","",""
"pit-trial","71","583604","0.0-2.0-14.2-2.2","battery-v0.2","","""event"",""trial"",""time""
""fullscreenenter"",""1"",""1467""
","
","
","""event"",""trial"",""time""
""fullscreenenter"",""1"",""1467""
","
","","","-1","","","23","18658","7076","&#9826;","elianto","#f73b6a7A","-1","-1","1","0","[]","0","0","3","","","","","","","",""
"pit-trial","72","588457","0.0-2.0-14.2-3.2","battery-v0.2","","""event"",""trial"",""time""
""fullscreenenter"",""1"",""1467""
","
","
","""event"",""trial"",""time""
""fullscreenenter"",""1"",""1467""
","
","","","-1","","","23","18658","7076","&#9826;","elianto","#f73b6a7A","-1","-1","1","-10","[]","0","0","3","","","","","","","",""
"pit-trial","73","593311","0.0-2.0-14.2-4.2","battery-v0.2","","""event"",""trial"",""time""
""fullscreenenter"",""1"",""1467""
","
","
","""event"",""trial"",""time""
""fullscreenenter"",""1"",""1467""
","
","","","-1","","","23","18658","7076","&#9826;","elianto","#f73b6a7A","-1","-1","1","0","[]","0","0","3","","","","","","","",""
"pit-trial","74","598164","0.0-2.0-14.3-0.3","battery-v0.2","","""event"",""trial"",""time""
""fullscreenenter"",""1"",""1467""
","
","
","""event"",""trial"",""time""
""fullscreenenter"",""1"",""1467""
","
","","","-1","","","23","18658","7076","&#9826;","elianto","#f73b6a7A","-1","-1","1","0","[]","0","0","3","","","","","","","",""
"pit-trial","75","603018","0.0-2.0-14.3-1.3","battery-v0.2","","""event"",""trial"",""time""
""fullscreenenter"",""1"",""1467""
","
","
","""event"",""trial"",""time""
""fullscreenenter"",""1"",""1467""
","
","","","-1","","","23","18658","7076","&#9826;","elianto","#f73b6a7A","-1","-1","1","0","[]","0","0","3","","","","","","","",""
"pit-trial","76","607872","0.0-2.0-14.3-2.3","battery-v0.2","","""event"",""trial"",""time""
""fullscreenenter"",""1"",""1467""
","
","
","""event"",""trial"",""time""
""fullscreenenter"",""1"",""1467""
","
","","","-1","","","23","18658","7076","&#9826;","elianto","#f73b6a7A","-1","-1","1","0","[]","0","0","3","","","","","","","",""
"pit-trial","77","612726","0.0-2.0-14.3-3.3","battery-v0.2","","""event"",""trial"",""time""
""fullscreenenter"",""1"",""1467""
","
","
","""event"",""trial"",""time""
""fullscreenenter"",""1"",""1467""
","
","","","-1","","","23","18658","7076","&#9826;","elianto","#f73b6a7A","-1","-1","1","-10","[]","0","0","3","","","","","","","",""
"pit-trial","78","617582","0.0-2.0-14.3-4.3","battery-v0.2","","""event"",""trial"",""time""
""fullscreenenter"",""1"",""1467""
","
","
","""event"",""trial"",""time""
""fullscreenenter"",""1"",""1467""
","
","","","-1","","","23","18658","7076","&#9826;","elianto","#f73b6a7A","-1","-1","1","0","[]","0","0","3","","","","","","","",""
"call-function","79","617584","0.0-2.0-15.0","battery-v0.2","","""event"",""trial"",""time""
""fullscreenenter"",""1"",""1467""
","
","
","""event"",""trial"",""time""
""fullscreenenter"",""1"",""1467""
","
","","","","","","","","","","","","","","","","","","","","","","","","","","",""
"pit-instructions","80","644674","0.0-2.0-16.0","battery-v0.2","","""event"",""trial"",""time""
""fullscreenenter"",""1"",""1467""
","
","
","""event"",""trial"",""time""
""fullscreenenter"",""1"",""1467""
","
","","[{""page_index"":0,""viewing_time"":7005},{""page_index"":1,""viewing_time"":10234},{""page_index"":2,""viewing_time"":4599.000000000116},{""page_index"":3,""viewing_time"":5250}]","27088.000000000116","","","","","","","","","","","","","","","","","","","","","","","",""
"pit-trial","81","648841","0.0-2.0-17.0-0.0","battery-v0.2","","""event"",""trial"",""time""
""fullscreenenter"",""1"",""1467""
","
","
","""event"",""trial"",""time""
""fullscreenenter"",""1"",""1467""
","
","","","1313","","","23","18658","7076","&#9789;","elianto","#f73b6a7A"," "," ","1","0","[2163]","1","0","4","","","","","","","",""
"pit-trial","82","652190","0.0-2.0-17.0-1.0","battery-v0.2","","""event"",""trial"",""time""
""fullscreenenter"",""1"",""1467""
","
","
","""event"",""trial"",""time""
""fullscreenenter"",""1"",""1467""
","
","","","496","","","23","18658","7076","&#9789;","elianto","#f73b6a7A"," "," ","1","0","[1346]","1","0","4","","","","","","","",""
"pit-trial","83","655663","0.0-2.0-17.0-2.0","battery-v0.2","","""event"",""trial"",""time""
""fullscreenenter"",""1"",""1467""
","
","
","""event"",""trial"",""time""
""fullscreenenter"",""1"",""1467""
","
","","","619","","","23","18658","7076","&#9789;","elianto","#f73b6a7A"," "," ","1","0","[1468.9999999998836]","1","0","4","","","","","","","",""
"pit-trial","84","659101","0.0-2.0-17.0-3.0","battery-v0.2","","""event"",""trial"",""time""
""fullscreenenter"",""1"",""1467""
","
","
","""event"",""trial"",""time""
""fullscreenenter"",""1"",""1467""
","
","","","583","","","23","18658","7076","&#9789;","elianto","#f73b6a7A"," "," ","1","-10","[1433]","1","0","4","","","","","","","",""
"pit-trial","85","662480","0.0-2.0-17.0-4.0","battery-v0.2","","""event"",""trial"",""time""
""fullscreenenter"",""1"",""1467""
","
","
","""event"",""trial"",""time""
""fullscreenenter"",""1"",""1467""
","
","","","525","","","23","18658","7076","&#9789;","elianto","#f73b6a7A"," "," ","1","0","[1376]","1","0","4","","","","","","","",""
"pit-trial","86","665916","0.0-2.0-17.1-0.1","battery-v0.2","","""event"",""trial"",""time""
""fullscreenenter"",""1"",""1467""
","
","
","""event"",""trial"",""time""
""fullscreenenter"",""1"",""1467""
","
","","","576.0000000001164","","","23","18658","7076","&#9789;","elianto","#f73b6a7A"," "," ","1","0","[1431.0000000001164]","1","0","4","","","","","","","",""
"pit-trial","87","669191","0.0-2.0-17.1-1.1","battery-v0.2","","""event"",""trial"",""time""
""fullscreenenter"",""1"",""1467""
","
","
","""event"",""trial"",""time""
""fullscreenenter"",""1"",""1467""
","
","","","418","","","23","18658","7076","&#9789;","elianto","#f73b6a7A"," "," ","1","0","[1271]","1","0","4","","","","","","","",""
"pit-trial","88","672473","0.0-2.0-17.1-2.1","battery-v0.2","","""event"",""trial"",""time""
""fullscreenenter"",""1"",""1467""
","
","
","""event"",""trial"",""time""
""fullscreenenter"",""1"",""1467""
","
","","","429.0000000001164","","","23","18658","7076","&#9789;","elianto","#f73b6a7A"," "," ","1","0","[1280.0000000001164]","1","0","4","","","","","","","",""
"pit-trial","89","675689","0.0-2.0-17.1-3.1","battery-v0.2","","""event"",""trial"",""time""
""fullscreenenter"",""1"",""1467""
","
","
","""event"",""trial"",""time""
""fullscreenenter"",""1"",""1467""
","
","","","360","","","23","18658","7076","&#9789;","elianto","#f73b6a7A"," "," ","1","-10","[1211]","1","0","4","","","","","","","",""
"pit-trial","90","678949","0.0-2.0-17.1-4.1","battery-v0.2","","""event"",""trial"",""time""
""fullscreenenter"",""1"",""1467""
","
","
","""event"",""trial"",""time""
""fullscreenenter"",""1"",""1467""
","
","","","406","","","23","18658","7076","&#9789;","elianto","#f73b6a7A"," "," ","1","0","[1257]","1","0","4","","","","","","","",""
"pit-trial","91","682367","0.0-2.0-17.2-0.2","battery-v0.2","","""event"",""trial"",""time""
""fullscreenenter"",""1"",""1467""
","
","
","""event"",""trial"",""time""
""fullscreenenter"",""1"",""1467""
","
","","","564.0000000001164","","","23","18658","7076","&#9789;","elianto","#f73b6a7A"," "," ","1","0","[1415.0000000001164]","1","0","4","","","","","","","",""
"pit-trial","92","685781","0.0-2.0-17.2-1.2","battery-v0.2","","""event"",""trial"",""time""
""fullscreenenter"",""1"",""1467""
","
","
","""event"",""trial"",""time""
""fullscreenenter"",""1"",""1467""
","
","","","559","","","23","18658","7076","&#9789;","elianto","#f73b6a7A"," "," ","1","0","[1410]","1","0","4","","","","","","","",""
"pit-trial","93","689198","0.0-2.0-17.2-2.2","battery-v0.2","","""event"",""trial"",""time""
""fullscreenenter"",""1"",""1467""
","
","
","""event"",""trial"",""time""
""fullscreenenter"",""1"",""1467""
","
","","","562","","","23","18658","7076","&#9789;","elianto","#f73b6a7A"," "," ","1","0","[1413]","1","0","4","","","","","","","",""
"pit-trial","94","692599","0.0-2.0-17.2-3.2","battery-v0.2","","""event"",""trial"",""time""
""fullscreenenter"",""1"",""1467""
","
","
","""event"",""trial"",""time""
""fullscreenenter"",""1"",""1467""
","
","","","548","","","23","18658","7076","&#9789;","elianto","#f73b6a7A"," "," ","1","-10","[1398.0000000001164]","1","0","4","","","","","","","",""
"pit-trial","95","695952","0.0-2.0-17.2-4.2","battery-v0.2","","""event"",""trial"",""time""
""fullscreenenter"",""1"",""1467""
","
","
","""event"",""trial"",""time""
""fullscreenenter"",""1"",""1467""
","
","","","499","","","23","18658","7076","&#9789;","elianto","#f73b6a7A"," "," ","1","0","[1350]","1","0","4","","","","","","","",""
"pit-trial","96","699444","0.0-2.0-17.3-0.3","battery-v0.2","","""event"",""trial"",""time""
""fullscreenenter"",""1"",""1467""
","
","
","""event"",""trial"",""time""
""fullscreenenter"",""1"",""1467""
","
","","","638","","","23","18658","7076","&#9789;","elianto","#f73b6a7A"," "," ","1","0","[1488]","1","0","4","","","","","","","",""
"pit-trial","97","702916","0.0-2.0-17.3-1.3","battery-v0.2","","""event"",""trial"",""time""
""fullscreenenter"",""1"",""1467""
","
","
","""event"",""trial"",""time""
""fullscreenenter"",""1"",""1467""
","
","","","619.0000000001164","","","23","18658","7076","&#9789;","elianto","#f73b6a7A"," "," ","1","0","[1468]","1","0","4","","","","","","","",""
"pit-trial","98","706486","0.0-2.0-17.3-2.3","battery-v0.2","","""event"",""trial"",""time""
""fullscreenenter"",""1"",""1467""
","
","
","""event"",""trial"",""time""
""fullscreenenter"",""1"",""1467""
","
","","","715","","","23","18658","7076","&#9789;","elianto","#f73b6a7A"," "," ","1","0","[1566]","1","0","4","","","","","","","",""
"pit-trial","99","709827","0.0-2.0-17.3-3.3","battery-v0.2","","""event"",""trial"",""time""
""fullscreenenter"",""1"",""1467""
","
","
","""event"",""trial"",""time""
""fullscreenenter"",""1"",""1467""
","
","","","487","","","23","18658","7076","&#9789;","elianto","#f73b6a7A"," "," ","1","-10","[1337]","1","0","4","","","","","","","",""
"pit-trial","100","713195","0.0-2.0-17.3-4.3","battery-v0.2","","""event"",""trial"",""time""
""fullscreenenter"",""1"",""1467""
","
","
","""event"",""trial"",""time""
""fullscreenenter"",""1"",""1467""
","
","","","515.0000000001164","","","23","18658","7076","&#9789;","elianto","#f73b6a7A"," "," ","1","0","[1365.0000000001164]","1","0","4","","","","","","","",""
"call-function","101","713198","0.0-2.0-18.0","battery-v0.2","","""event"",""trial"",""time""
""fullscreenenter"",""1"",""1467""
","
","
","""event"",""trial"",""time""
""fullscreenenter"",""1"",""1467""
","
","","","","","","","","","","","","","","","","","","","","","","","","","","",""
"pit-instructions","102","781444","0.0-2.0-19.0","battery-v0.2","","""event"",""trial"",""time""
""fullscreenenter"",""1"",""1467""
","
","
","""event"",""trial"",""time""
""fullscreenenter"",""1"",""1467""
","
","","[{""page_index"":0,""viewing_time"":8161},{""page_index"":1,""viewing_time"":6549},{""page_index"":2,""viewing_time"":10317},{""page_index"":3,""viewing_time"":6867},{""page_index"":4,""viewing_time"":8733},{""page_index"":5,""viewing_time"":8583},{""page_index"":6,""viewing_time"":9018},{""page_index"":7,""viewing_time"":6133},{""page_index"":8,""viewing_time"":3883}]","68244","","","","","","","","","","","","","","","","","","","","","","","",""
"pit-comprehension","103","786033","0.0-2.0-20.0-0.0","battery-v0.2","","""event"",""trial"",""time""
""fullscreenenter"",""1"",""1467""
","
","
","""event"",""trial"",""time""
""fullscreenenter"",""1"",""1467""
","
","","","4584","[""SPACE""]","0","23","18658","7076","","","","","","","","","","","","","","","","","","",""
"pit-instructions","104","794028","0.0-2.0-20.0-1.0","battery-v0.2","","""event"",""trial"",""time""
""fullscreenenter"",""1"",""1467""
","
","
","""event"",""trial"",""time""
""fullscreenenter"",""1"",""1467""
","
","","[{""page_index"":0,""viewing_time"":7907}]","7908.000000000116","","","","","","","","","","","","","","","","","","","","","","","",""
"pit-comprehension","105","798800","0.0-2.0-21.0-0.0","battery-v0.2","","""event"",""trial"",""time""
""fullscreenenter"",""1"",""1467""
","
","
","""event"",""trial"",""time""
""fullscreenenter"",""1"",""1467""
","
","","","4767","[""10""]","0","23","18658","7076","","","","","","","","","","","","","","","","","","",""
"pit-instructions","106","800395","0.0-2.0-21.0-1.0","battery-v0.2","","""event"",""trial"",""time""
""fullscreenenter"",""1"",""1467""
","
","
","""event"",""trial"",""time""
""fullscreenenter"",""1"",""1467""
","
","","[{""page_index"":0,""viewing_time"":1505}]","1505","","","","","","","","","","","","","","","","","","","","","","","",""
"pit-comprehension","107","807648","0.0-2.0-22.0-0.0","battery-v0.2","","""event"",""trial"",""time""
""fullscreenenter"",""1"",""1467""
","
","
","""event"",""trial"",""time""
""fullscreenenter"",""1"",""1467""
","
","","","7248.999999999884","[""0""]","0","23","18658","7076","","","","","","","","","","","","","","","","","","",""
"pit-instructions","108","810745","0.0-2.0-22.0-1.0","battery-v0.2","","""event"",""trial"",""time""
""fullscreenenter"",""1"",""1467""
","
","
","""event"",""trial"",""time""
""fullscreenenter"",""1"",""1467""
","
","","[{""page_index"":0,""viewing_time"":3014.0000000001164}]","3014.0000000001164","","","","","","","","","","","","","","","","","","","","","","","",""
"pit-comprehension","109","819649","0.0-2.0-23.0-0.0","battery-v0.2","","""event"",""trial"",""time""
""fullscreenenter"",""1"",""1467""
","
","
","""event"",""trial"",""time""
""fullscreenenter"",""1"",""1467""
","
","","","8900.000000000116","[""True""]","0","23","18658","7076","","","","","","","","","","","","","","","","","","",""
"pit-instructions","110","822212","0.0-2.0-23.0-1.0","battery-v0.2","","""event"",""trial"",""time""
""fullscreenenter"",""1"",""1467""
","
","
","""event"",""trial"",""time""
""fullscreenenter"",""1"",""1467""
","
","","[{""page_index"":0,""viewing_time"":2470}]","2470","","","","","","","","","","","","","","","","","","","","","","","",""
"pit-comprehension","111","829732","0.0-2.0-24.0-0.0","battery-v0.2","","""event"",""trial"",""time""
""fullscreenenter"",""1"",""1467""
","
","
","""event"",""trial"",""time""
""fullscreenenter"",""1"",""1467""
","
","","","7513","[""True""]","0","23","18658","7076","","","","","","","","","","","","","","","","","","",""
"pit-instructions","112","833612","0.0-2.0-24.0-1.0","battery-v0.2","","""event"",""trial"",""time""
""fullscreenenter"",""1"",""1467""
","
","
","""event"",""trial"",""time""
""fullscreenenter"",""1"",""1467""
","
","","[{""page_index"":0,""viewing_time"":3780}]","3780","","","","","","","","","","","","","","","","","","","","","","","",""
"pit-comprehension","113","840132","0.0-2.0-25.0-0.0","battery-v0.2","","""event"",""trial"",""time""
""fullscreenenter"",""1"",""1467""
","
","
","""event"",""trial"",""time""
""fullscreenenter"",""1"",""1467""
","
","","","6515","[""True""]","0","23","18658","7076","","","","","","","","","","","","","","","","","","",""
"pit-instructions","114","842946","0.0-2.0-25.0-1.0","battery-v0.2","","""event"",""trial"",""time""
""fullscreenenter"",""1"",""1467""
","
","
","""event"",""trial"",""time""
""fullscreenenter"",""1"",""1467""
","
","","[{""page_index"":0,""viewing_time"":2723.9999999998836}]","2723.9999999998836","","","","","","","","","","","","","","","","","","","","","","","",""
"pit-comprehension","115","847617","0.0-2.0-26.0-0.0","battery-v0.2","","""event"",""trial"",""time""
""fullscreenenter"",""1"",""1467""
","
","
","""event"",""trial"",""time""
""fullscreenenter"",""1"",""1467""
","
","","","4665.000000000116","[""False""]","0","23","18658","7076","","","","","","","","","","","","","","","","","","",""
"pit-instructions","116","850446","0.0-2.0-26.0-1.0","battery-v0.2","","""event"",""trial"",""time""
""fullscreenenter"",""1"",""1467""
","
","
","""event"",""trial"",""time""
""fullscreenenter"",""1"",""1467""
","
","","[{""page_index"":0,""viewing_time"":2735}]","2735","","","","","","","","","","","","","","","","","","","","","","","",""
"pit-instructions","117","865847","0.0-3.0","battery-v0.2","","""event"",""trial"",""time""
""fullscreenenter"",""1"",""1467""
","
","
","""event"",""trial"",""time""
""fullscreenenter"",""1"",""1467""
","
","","[{""page_index"":0,""viewing_time"":3842.9999999998836},{""page_index"":1,""viewing_time"":5017},{""page_index"":2,""viewing_time"":6533}]","15392.999999999884","","","","","","","","","","","","","","","","","","","","","","","",""
"pit-trial","118","870705","0.0-4.0","battery-v0.2","","""event"",""trial"",""time""
""fullscreenenter"",""1"",""1467""
","
","
","""event"",""trial"",""time""
""fullscreenenter"",""1"",""1467""
","
","","","-1","","","23","18658","7076","&#9728;","elianto","#f73b6a7A","-1","-1","1","0","[]","0","1","","","18658","1","0","4","lose","no-go","0"
"pit-trial","119","875561","0.0-5.0","battery-v0.2","","""event"",""trial"",""time""
""fullscreenenter"",""1"",""1467""
","
","
","""event"",""trial"",""time""
""fullscreenenter"",""1"",""1467""
","
","","","-1","","","23","18658","7076","&#9733;","elianto","#3366ff99","-1","-1","1","+10","[]","0","1","","","18658","2","2","2","win","no-go","0"
"pit-trial","120","880417","0.0-6.0","battery-v0.2","","""event"",""trial"",""time""
""fullscreenenter"",""1"",""1467""
","
","
","""event"",""trial"",""time""
""fullscreenenter"",""1"",""1467""
","
","","","-1","","","23","18658","7076","&#9730;","elianto","#3366ff99"," ","-1","0","+10","[]","0","1","","","18658","3","1","1","win","go","1"
"pit-trial","121","885274","0.0-7.0","battery-v0.2","","""event"",""trial"",""time""
""fullscreenenter"",""1"",""1467""
","
","
","""event"",""trial"",""time""
""fullscreenenter"",""1"",""1467""
","
","","","-1","","","23","18658","7076","&#9752;","elianto","#f73b6a7A"," ","-1","0","0","[]","0","1","","","18658","4","3","3","lose","go","1"
"pit-trial","122","890129","0.0-8.0","battery-v0.2","","""event"",""trial"",""time""
""fullscreenenter"",""1"",""1467""
","
","
","""event"",""trial"",""time""
""fullscreenenter"",""1"",""1467""
","
","","","-1","","","23","18658","7076","&#9730;","elianto","#3366ff99"," ","-1","0","0","[]","0","1","","","18658","5","1","1","win","go","0"
"pit-trial","123","894985","0.0-9.0","battery-v0.2","","""event"",""trial"",""time""
""fullscreenenter"",""1"",""1467""
","
","
","""event"",""trial"",""time""
""fullscreenenter"",""1"",""1467""
","
","","","-1","","","23","18658","7076","&#9733;","elianto","#3366ff99","-1","-1","1","+10","[]","0","1","","","18658","6","2","2","win","no-go","0"
"pit-trial","124","899840","0.0-10.0","battery-v0.2","","""event"",""trial"",""time""
""fullscreenenter"",""1"",""1467""
","
","
","""event"",""trial"",""time""
""fullscreenenter"",""1"",""1467""
","
","","","-1","","","23","18658","7076","&#9728;","elianto","#f73b6a7A","-1","-1","1","0","[]","0","1","","","18658","7","0","4","lose","no-go","0"
"pit-trial","125","904696","0.0-11.0","battery-v0.2","","""event"",""trial"",""time""
""fullscreenenter"",""1"",""1467""
","
","
","""event"",""trial"",""time""
""fullscreenenter"",""1"",""1467""
","
","","","-1","","","23","18658","7076","&#9752;","elianto","#f73b6a7A"," ","-1","0","-10","[]","0","1","","","18658","8","3","3","lose","go","0"
"pit-trial","126","909554","0.0-12.0","battery-v0.2","","""event"",""trial"",""time""
""fullscreenenter"",""1"",""1467""
","
","
","""event"",""trial"",""time""
""fullscreenenter"",""1"",""1467""
","
","","","-1","","","23","18658","7076","&#9728;","elianto","#f73b6a7A","-1","-1","1","0","[]","0","1","","","18658","9","0","4","lose","no-go","0"
"pit-trial","127","914409","0.0-13.0","battery-v0.2","","""event"",""trial"",""time""
""fullscreenenter"",""1"",""1467""
","
","
","""event"",""trial"",""time""
""fullscreenenter"",""1"",""1467""
","
","","","-1","","","23","18658","7076","&#9733;","elianto","#3366ff99","-1","-1","1","+10","[]","0","1","","","18658","10","2","2","win","no-go","0"
"pit-trial","128","919265","0.0-14.0","battery-v0.2","","""event"",""trial"",""time""
""fullscreenenter"",""1"",""1467""
","
","
","""event"",""trial"",""time""
""fullscreenenter"",""1"",""1467""
","
","","","-1","","","23","18658","7076","&#9730;","elianto","#3366ff99"," ","-1","0","0","[]","0","1","","","18658","11","1","1","win","go","0"
"pit-trial","129","924120","0.0-15.0","battery-v0.2","","""event"",""trial"",""time""
""fullscreenenter"",""1"",""1467""
","
","
","""event"",""trial"",""time""
""fullscreenenter"",""1"",""1467""
","
","","","-1","","","23","18658","7076","&#9752;","elianto","#f73b6a7A"," ","-1","0","-10","[]","0","1","","","18658","12","3","3","lose","go","0"
"pit-trial","130","928976","0.0-16.0","battery-v0.2","","""event"",""trial"",""time""
""fullscreenenter"",""1"",""1467""
","
","
","""event"",""trial"",""time""
""fullscreenenter"",""1"",""1467""
","
","","","-1","","","23","18658","7076","&#9730;","elianto","#3366ff99"," ","-1","0","0","[]","0","1","","","18658","13","1","1","win","go","0"
"pit-trial","131","933833","0.0-17.0","battery-v0.2","","""event"",""trial"",""time""
""fullscreenenter"",""1"",""1467""
","
","
","""event"",""trial"",""time""
""fullscreenenter"",""1"",""1467""
","
","","","-1","","","23","18658","7076","&#9728;","elianto","#f73b6a7A","-1","-1","1","-10","[]","0","1","","","18658","14","0","4","lose","no-go","1"
"pit-trial","132","938690","0.0-18.0","battery-v0.2","","""event"",""trial"",""time""
""fullscreenenter"",""1"",""1467""
","
","
","""event"",""trial"",""time""
""fullscreenenter"",""1"",""1467""
","
","","","-1","","","23","18658","7076","&#9733;","elianto","#3366ff99","-1","-1","1","0","[]","0","1","","","18658","15","2","2","win","no-go","1"
"pit-trial","133","943547","0.0-19.0","battery-v0.2","","""event"",""trial"",""time""
""fullscreenenter"",""1"",""1467""
","
","
","""event"",""trial"",""time""
""fullscreenenter"",""1"",""1467""
","
","","","-1","","","23","18658","7076","&#9752;","elianto","#f73b6a7A"," ","-1","0","-10","[]","0","1","","","18658","16","3","3","lose","go","0"
"pit-trial","134","948403","0.0-20.0","battery-v0.2","","""event"",""trial"",""time""
""fullscreenenter"",""1"",""1467""
","
","
","""event"",""trial"",""time""
""fullscreenenter"",""1"",""1467""
","
","","","-1","","","23","18658","7076","&#9730;","elianto","#3366ff99"," ","-1","0","+10","[]","0","1","","","18658","17","1","1","win","go","1"
"pit-trial","135","953258","0.0-21.0","battery-v0.2","","""event"",""trial"",""time""
""fullscreenenter"",""1"",""1467""
","
","
","""event"",""trial"",""time""
""fullscreenenter"",""1"",""1467""
","
","","","-1","","","23","18658","7076","&#9752;","elianto","#f73b6a7A"," ","-1","0","0","[]","0","1","","","18658","18","3","3","lose","go","1"
"pit-trial","136","958114","0.0-22.0","battery-v0.2","","""event"",""trial"",""time""
""fullscreenenter"",""1"",""1467""
","
","
","""event"",""trial"",""time""
""fullscreenenter"",""1"",""1467""
","
","","","-1","","","23","18658","7076","&#9728;","elianto","#f73b6a7A","-1","-1","1","0","[]","0","1","","","18658","19","0","4","lose","no-go","0"
"pit-trial","137","962969","0.0-23.0","battery-v0.2","","""event"",""trial"",""time""
""fullscreenenter"",""1"",""1467""
","
","
","""event"",""trial"",""time""
""fullscreenenter"",""1"",""1467""
","
","","","-1","","","23","18658","7076","&#9733;","elianto","#3366ff99","-1","-1","1","+10","[]","0","1","","","18658","20","2","2","win","no-go","0"
"pit-instructions","138","978267","0.0-24.0","battery-v0.2","","""event"",""trial"",""time""
""fullscreenenter"",""1"",""1467""
","
","
","""event"",""trial"",""time""
""fullscreenenter"",""1"",""1467""
","
","","[{""page_index"":0,""viewing_time"":6743},{""page_index"":1,""viewing_time"":8550}]","15294","","","","","","","","","","","","","","","","","","","","","","","",""
"pit-trial","139","981858","0.0-25.0","battery-v0.2","","""event"",""trial"",""time""
""fullscreenenter"",""1"",""1467""
","
","
","""event"",""trial"",""time""
""fullscreenenter"",""1"",""1467""
","
","","","734","","","23","18658","7076","d","elianto","#3366ff99"," "," ","1","0","[1583.9999999998836]","1","2","","","18658","21","1","1","win","go","1"
"pit-trial","140","985589","0.0-26.0","battery-v0.2","","""event"",""trial"",""time""
""fullscreenenter"",""1"",""1467""
","
","
","""event"",""trial"",""time""
""fullscreenenter"",""1"",""1467""
","
","","","875","","","23","18658","7076","w","elianto","#f73b6a7A"," "," ","1","0","[1725]","1","2","","","18658","22","3","3","lose","go","0"
"pit-trial","141","989422","0.0-27.0","battery-v0.2","","""event"",""trial"",""time""
""fullscreenenter"",""1"",""1467""
","
","
","""event"",""trial"",""time""
""fullscreenenter"",""1"",""1467""
","
","","","977","","","23","18658","7076","e","elianto","#f73b6a7A","-1"," ","0","-10","[1827]","1","2","","","18658","23","2","4","lose","no-go","0"
"pit-trial","142","993050","0.0-28.0","battery-v0.2","","""event"",""trial"",""time""
""fullscreenenter"",""1"",""1467""
","
","
","""event"",""trial"",""time""
""fullscreenenter"",""1"",""1467""
","
","","","769","","","23","18658","7076","j","elianto","#f73b6a7A","-1"," ","0","0","[1623]","1","2","","","18658","24","0","4","lose","no-go","1"
"pit-trial","143","996823","0.0-29.0","battery-v0.2","","""event"",""trial"",""time""
""fullscreenenter"",""1"",""1467""
","
","
","""event"",""trial"",""time""
""fullscreenenter"",""1"",""1467""
","
","","","916","","","23","18658","7076","w","elianto","#f73b6a7A"," "," ","1","0","[1767]","1","2","","","18658","25","3","3","lose","go","0"
"pit-trial","144","1001678","0.0-30.0","battery-v0.2","","""event"",""trial"",""time""
""fullscreenenter"",""1"",""1467""
","
","
","""event"",""trial"",""time""
""fullscreenenter"",""1"",""1467""
","
","","","-1","","","23","18658","7076","e","elianto","#f73b6a7A","-1","-1","1","0","[]","0","2","","","18658","26","2","4","lose","no-go","0"
"pit-trial","145","1006535","0.0-31.0","battery-v0.2","","""event"",""trial"",""time""
""fullscreenenter"",""1"",""1467""
","
","
","""event"",""trial"",""time""
""fullscreenenter"",""1"",""1467""
","
","","","-1","","","23","18658","7076","j","elianto","#f73b6a7A","-1","-1","1","0","[]","0","2","","","18658","27","0","4","lose","no-go","0"
"pit-trial","146","1010173","0.0-32.0","battery-v0.2","","""event"",""trial"",""time""
""fullscreenenter"",""1"",""1467""
","
","
","""event"",""trial"",""time""
""fullscreenenter"",""1"",""1467""
","
","","","781","","","23","18658","7076","d","elianto","#3366ff99"," "," ","1","+10","[1632]","1","2","","","18658","28","1","1","win","go","0"
"pit-trial","147","1014869","0.0-33.0","battery-v0.2","","""event"",""trial"",""time""
""fullscreenenter"",""1"",""1467""
","
","
","""event"",""trial"",""time""
""fullscreenenter"",""1"",""1467""
","
","","","1838","","","23","18658","7076","e","elianto","#f73b6a7A","-1"," ","0","0","[2691]","1","2","","","18658","29","2","4","lose","no-go","1"
"pit-trial","148","1018735","0.0-34.0","battery-v0.2","","""event"",""trial"",""time""
""fullscreenenter"",""1"",""1467""
","
","
","""event"",""trial"",""time""
""fullscreenenter"",""1"",""1467""
","
","","","1011","","","23","18658","7076","d","elianto","#3366ff99"," "," ","1","+10","[1862]","1","2","","","18658","30","1","1","win","go","0"
"pit-trial","149","1023591","0.0-35.0","battery-v0.2","","""event"",""trial"",""time""
""fullscreenenter"",""1"",""1467""
","
","
","""event"",""trial"",""time""
""fullscreenenter"",""1"",""1467""
","
","","","-1","","","23","18658","7076","w","elianto","#f73b6a7A"," ","-1","0","-10","[]","0","2","","","18658","31","3","3","lose","go","0"
"pit-trial","150","1028447","0.0-36.0","battery-v0.2","","""event"",""trial"",""time""
""fullscreenenter"",""1"",""1467""
","
","
","""event"",""trial"",""time""
""fullscreenenter"",""1"",""1467""
","
","","","-1","","","23","18658","7076","j","elianto","#f73b6a7A","-1","-1","1","0","[]","0","2","","","18658","32","0","4","lose","no-go","0"
"pit-trial","151","1032687","0.0-37.0","battery-v0.2","","""event"",""trial"",""time""
""fullscreenenter"",""1"",""1467""
","
","
","""event"",""trial"",""time""
""fullscreenenter"",""1"",""1467""
","
","","","1382.9999999997672","","","23","18658","7076","e","elianto","#f73b6a7A","-1"," ","0","0","[2233.9999999998836]","1","2","","","18658","33","2","4","lose","no-go","1"
"pit-trial","152","1036313","0.0-38.0","battery-v0.2","","""event"",""trial"",""time""
""fullscreenenter"",""1"",""1467""
","
","
","""event"",""trial"",""time""
""fullscreenenter"",""1"",""1467""
","
","","","772.0000000002328","","","23","18658","7076","d","elianto","#3366ff99"," "," ","1","+10","[1622.0000000001164]","1","2","","","18658","34","1","1","win","go","0"
"pit-trial","153","1041169","0.0-39.0","battery-v0.2","","""event"",""trial"",""time""
""fullscreenenter"",""1"",""1467""
","
","
","""event"",""trial"",""time""
""fullscreenenter"",""1"",""1467""
","
","","","-1","","","23","18658","7076","w","elianto","#f73b6a7A"," ","-1","0","-10","[]","0","2","","","18658","35","3","3","lose","go","0"
"pit-trial","154","1045504","0.0-40.0","battery-v0.2","","""event"",""trial"",""time""
""fullscreenenter"",""1"",""1467""
","
","
","""event"",""trial"",""time""
""fullscreenenter"",""1"",""1467""
","
","","","1478","","","23","18658","7076","j","elianto","#f73b6a7A","-1"," ","0","0","[2329.0000000001164]","1","2","","","18658","36","0","4","lose","no-go","1"
"pit-trial","155","1050147","0.0-41.0","battery-v0.2","","""event"",""trial"",""time""
""fullscreenenter"",""1"",""1467""
","
","
","""event"",""trial"",""time""
""fullscreenenter"",""1"",""1467""
","
","","","1786.9999999998836","","","23","18658","7076","d","elianto","#3366ff99"," "," ","1","+10","[2637]","1","2","","","18658","37","1","1","win","go","0"
"pit-trial","156","1055003","0.0-42.0","battery-v0.2","","""event"",""trial"",""time""
""fullscreenenter"",""1"",""1467""
","
","
","""event"",""trial"",""time""
""fullscreenenter"",""1"",""1467""
","
","","","-1","","","23","18658","7076","w","elianto","#f73b6a7A"," ","-1","0","-10","[]","0","2","","","18658","38","3","3","lose","go","0"
"pit-trial","157","1059042","0.0-43.0","battery-v0.2","","""event"",""trial"",""time""
""fullscreenenter"",""1"",""1467""
","
","
","""event"",""trial"",""time""
""fullscreenenter"",""1"",""1467""
","
","","","1183","","","23","18658","7076","j","elianto","#f73b6a7A","-1"," ","0","0","[2033]","1","2","","","18658","39","0","4","lose","no-go","1"
"pit-trial","158","1063897","0.0-44.0","battery-v0.2","","""event"",""trial"",""time""
""fullscreenenter"",""1"",""1467""
","
","
","""event"",""trial"",""time""
""fullscreenenter"",""1"",""1467""
","
","","","-1","","","23","18658","7076","e","elianto","#f73b6a7A","-1","-1","1","0","[]","0","2","","","18658","40","2","4","lose","no-go","0"
"pit-trial","159","1067414","0.0-45.0","battery-v0.2","","""event"",""trial"",""time""
""fullscreenenter"",""1"",""1467""
","
","
","""event"",""trial"",""time""
""fullscreenenter"",""1"",""1467""
","
","","","662","","","23","18658","7076","j","elianto","#f73b6a7A","-1"," ","0","-10","[1513]","1","2","","","18658","41","0","4","lose","no-go","0"
"pit-trial","160","1071057","0.0-46.0","battery-v0.2","","""event"",""trial"",""time""
""fullscreenenter"",""1"",""1467""
","
","
","""event"",""trial"",""time""
""fullscreenenter"",""1"",""1467""
","
","","","787","","","23","18658","7076","d","elianto","#3366ff99"," "," ","1","+10","[1637.9999999997672]","1","2","","","18658","42","1","1","win","go","0"
"pit-trial","161","1075277","0.0-47.0","battery-v0.2","","""event"",""trial"",""time""
""fullscreenenter"",""1"",""1467""
","
","
","""event"",""trial"",""time""
""fullscreenenter"",""1"",""1467""
","
","","","1364","","","23","18658","7076","w","elianto","#f73b6a7A"," "," ","1","0","[2215]","1","2","","","18658","43","3","3","lose","go","0"
"pit-trial","162","1080133","0.0-48.0","battery-v0.2","","""event"",""trial"",""time""
""fullscreenenter"",""1"",""1467""
","
","
","""event"",""trial"",""time""
""fullscreenenter"",""1"",""1467""
","
","","","-1","","","23","18658","7076","e","elianto","#f73b6a7A","-1","-1","1","0","[]","0","2","","","18658","44","2","4","lose","no-go","0"
"pit-trial","163","1084990","0.0-49.0","battery-v0.2","","""event"",""trial"",""time""
""fullscreenenter"",""1"",""1467""
","
","
","""event"",""trial"",""time""
""fullscreenenter"",""1"",""1467""
","
","","","-1","","","23","18658","7076","w","elianto","#f73b6a7A"," ","-1","0","-10","[2924.000000000233]","1","2","","","18658","45","3","3","lose","go","0"
"pit-trial","164","1089846","0.0-50.0","battery-v0.2","","""event"",""trial"",""time""
""fullscreenenter"",""1"",""1467""
","
","
","""event"",""trial"",""time""
""fullscreenenter"",""1"",""1467""
","
","","","-1","","","23","18658","7076","e","elianto","#f73b6a7A","-1","-1","1","0","[]","0","2","","","18658","46","2","4","lose","no-go","0"
"pit-trial","165","1094468","0.0-51.0","battery-v0.2","","""event"",""trial"",""time""
""fullscreenenter"",""1"",""1467""
","
","
","""event"",""trial"",""time""
""fullscreenenter"",""1"",""1467""
","
","","","1766.0000000002328","","","23","18658","7076","j","elianto","#f73b6a7A","-1"," ","0","-10","[2616.000000000233]","1","2","","","18658","47","0","4","lose","no-go","0"
"pit-trial","166","1098460","0.0-52.0","battery-v0.2","","""event"",""trial"",""time""
""fullscreenenter"",""1"",""1467""
","
","
","""event"",""trial"",""time""
""fullscreenenter"",""1"",""1467""
","
","","","1135.9999999997672","","","23","18658","7076","s","elianto","#3366ff99","-1"," ","0","0","[1986]","1","2","","","18658","48","4","2","win","no-go","0"
"pit-trial","167","1102278","0.0-53.0","battery-v0.2","","""event"",""trial"",""time""
""fullscreenenter"",""1"",""1467""
","
","
","""event"",""trial"",""time""
""fullscreenenter"",""1"",""1467""
","
","","","962","","","23","18658","7076","d","elianto","#3366ff99"," "," ","1","+10","[1814]","1","2","","","18658","49","1","1","win","go","0"
"pit-trial","168","1107042","0.0-54.0","battery-v0.2","","""event"",""trial"",""time""
""fullscreenenter"",""1"",""1467""
","
","
","""event"",""trial"",""time""
""fullscreenenter"",""1"",""1467""
","
","","","1908","","","23","18658","7076","w","elianto","#f73b6a7A"," "," ","1","-10","[2759]","1","2","","","18658","50","3","3","lose","go","1"
"pit-trial","169","1111899","0.0-55.0","battery-v0.2","","""event"",""trial"",""time""
""fullscreenenter"",""1"",""1467""
","
","
","""event"",""trial"",""time""
""fullscreenenter"",""1"",""1467""
","
","","","-1","","","23","18658","7076","j","elianto","#f73b6a7A","-1","-1","1","-10","[]","0","2","","","18658","51","0","4","lose","no-go","1"
"pit-trial","170","1115705","0.0-56.0","battery-v0.2","","""event"",""trial"",""time""
""fullscreenenter"",""1"",""1467""
","
","
","""event"",""trial"",""time""
""fullscreenenter"",""1"",""1467""
","
","","","950","","","23","18658","7076","s","elianto","#3366ff99","-1"," ","0","0","[1801]","1","2","","","18658","52","4","2","win","no-go","0"
"pit-trial","171","1120561","0.0-57.0","battery-v0.2","","""event"",""trial"",""time""
""fullscreenenter"",""1"",""1467""
","
","
","""event"",""trial"",""time""
""fullscreenenter"",""1"",""1467""
","
","","","-1","","","23","18658","7076","j","elianto","#f73b6a7A","-1","-1","1","0","[]","0","2","","","18658","53","0","4","lose","no-go","0"
"pit-trial","172","1124432","0.0-58.0","battery-v0.2","","""event"",""trial"",""time""
""fullscreenenter"",""1"",""1467""
","
","
","""event"",""trial"",""time""
""fullscreenenter"",""1"",""1467""
","
","","","1015","","","23","18658","7076","s","elianto","#3366ff99","-1"," ","0","0","[1866]","1","2","","","18658","54","4","2","win","no-go","0"
"pit-trial","173","1129288","0.0-59.0","battery-v0.2","","""event"",""trial"",""time""
""fullscreenenter"",""1"",""1467""
","
","
","""event"",""trial"",""time""
""fullscreenenter"",""1"",""1467""
","
","","","-1","","","23","18658","7076","e","elianto","#f73b6a7A","-1","-1","1","-10","[]","0","2","","","18658","55","2","4","lose","no-go","1"
"pit-trial","174","1132748","0.0-60.0","battery-v0.2","","""event"",""trial"",""time""
""fullscreenenter"",""1"",""1467""
","
","
","""event"",""trial"",""time""
""fullscreenenter"",""1"",""1467""
","
","","","604.0000000002328","","","23","18658","7076","d","elianto","#3366ff99"," "," ","1","+10","[1454.0000000002328]","1","2","","","18658","56","1","1","win","go","0"
"pit-trial","175","1137604","0.0-61.0","battery-v0.2","","""event"",""trial"",""time""
""fullscreenenter"",""1"",""1467""
","
","
","""event"",""trial"",""time""
""fullscreenenter"",""1"",""1467""
","
","","","-1","","","23","18658","7076","w","elianto","#f73b6a7A"," ","-1","0","-10","[]","0","2","","","18658","57","3","3","lose","go","0"
"pit-trial","176","1140979","0.0-62.0","battery-v0.2","","""event"",""trial"",""time""
""fullscreenenter"",""1"",""1467""
","
","
","""event"",""trial"",""time""
""fullscreenenter"",""1"",""1467""
","
","","","518","","","23","18658","7076","d","elianto","#3366ff99"," "," ","1","+10","[1369]","1","2","","","18658","58","1","1","win","go","0"
"pit-trial","177","1145834","0.0-63.0","battery-v0.2","","""event"",""trial"",""time""
""fullscreenenter"",""1"",""1467""
","
","
","""event"",""trial"",""time""
""fullscreenenter"",""1"",""1467""
","
","","","-1","","","23","18658","7076","j","elianto","#f73b6a7A","-1","-1","1","0","[]","0","2","","","18658","59","0","4","lose","no-go","0"
"pit-trial","178","1150691","0.0-64.0","battery-v0.2","","""event"",""trial"",""time""
""fullscreenenter"",""1"",""1467""
","
","
","""event"",""trial"",""time""
""fullscreenenter"",""1"",""1467""
","
","","","-1","","","23","18658","7076","s","elianto","#3366ff99","-1","-1","1","+10","[]","0","2","","","18658","60","4","2","win","no-go","0"
"pit-trial","179","1155279","0.0-65.0","battery-v0.2","","""event"",""trial"",""time""
""fullscreenenter"",""1"",""1467""
","
","
","""event"",""trial"",""time""
""fullscreenenter"",""1"",""1467""
","
","","","1728","","","23","18658","7076","e","elianto","#f73b6a7A","-1"," ","0","-10","[2582]","1","2","","","18658","61","2","4","lose","no-go","0"
"pit-trial","180","1159523","0.0-66.0","battery-v0.2","","""event"",""trial"",""time""
""fullscreenenter"",""1"",""1467""
","
","
","""event"",""trial"",""time""
""fullscreenenter"",""1"",""1467""
","
","","","1388","","","23","18658","7076","d","elianto","#3366ff99"," "," ","1","0","[2238]","1","2","","","18658","62","1","1","win","go","1"
"pit-trial","181","1164379","0.0-67.0","battery-v0.2","","""event"",""trial"",""time""
""fullscreenenter"",""1"",""1467""
","
","
","""event"",""trial"",""time""
""fullscreenenter"",""1"",""1467""
","
","","","-1","","","23","18658","7076","s","elianto","#3366ff99","-1","-1","1","+10","[]","0","2","","","18658","63","4","2","win","no-go","0"
"pit-trial","182","1169236","0.0-68.0","battery-v0.2","","""event"",""trial"",""time""
""fullscreenenter"",""1"",""1467""
","
","
","""event"",""trial"",""time""
""fullscreenenter"",""1"",""1467""
","
","","","-1","","","23","18658","7076","w","elianto","#f73b6a7A"," ","-1","0","-10","[3254]","1","2","","","18658","64","3","3","lose","go","0"
"pit-trial","183","1174092","0.0-69.0","battery-v0.2","","""event"",""trial"",""time""
""fullscreenenter"",""1"",""1467""
","
","
","""event"",""trial"",""time""
""fullscreenenter"",""1"",""1467""
","
","","","-1","","","23","18658","7076","e","elianto","#f73b6a7A","-1","-1","1","-10","[]","0","2","","","18658","65","2","4","lose","no-go","1"
"pit-trial","184","1178253","0.0-70.0","battery-v0.2","","""event"",""trial"",""time""
""fullscreenenter"",""1"",""1467""
","
","
","""event"",""trial"",""time""
""fullscreenenter"",""1"",""1467""
","
","","","1307","","","23","18658","7076","w","elianto","#f73b6a7A"," "," ","1","-10","[2157]","1","2","","","18658","66","3","3","lose","go","1"
"pit-trial","185","1182783","0.0-71.0","battery-v0.2","","""event"",""trial"",""time""
""fullscreenenter"",""1"",""1467""
","
","
","""event"",""trial"",""time""
""fullscreenenter"",""1"",""1467""
","
","","","1674","","","23","18658","7076","d","elianto","#3366ff99"," "," ","1","0","[2524]","1","2","","","18658","67","1","1","win","go","1"
"pit-trial","186","1187640","0.0-72.0","battery-v0.2","","""event"",""trial"",""time""
""fullscreenenter"",""1"",""1467""
","
","
","""event"",""trial"",""time""
""fullscreenenter"",""1"",""1467""
","
","","","-1","","","23","18658","7076","s","elianto","#3366ff99","-1","-1","1","+10","[]","0","2","","","18658","68","4","2","win","no-go","0"
"pit-trial","187","1191924","0.0-73.0","battery-v0.2","","""event"",""trial"",""time""
""fullscreenenter"",""1"",""1467""
","
","
","""event"",""trial"",""time""
""fullscreenenter"",""1"",""1467""
","
","","","1428","","","23","18658","7076","d","elianto","#3366ff99"," "," ","1","+10","[2278]","1","2","","","18658","69","1","1","win","go","0"
"pit-trial","188","1196779","0.0-74.0","battery-v0.2","","""event"",""trial"",""time""
""fullscreenenter"",""1"",""1467""
","
","
","""event"",""trial"",""time""
""fullscreenenter"",""1"",""1467""
","
","","","-1","","","23","18658","7076","w","elianto","#f73b6a7A"," ","-1","0","-10","[2890]","1","2","","","18658","70","3","3","lose","go","0"
"pit-trial","189","1201150","0.0-75.0","battery-v0.2","","""event"",""trial"",""time""
""fullscreenenter"",""1"",""1467""
","
","
","""event"",""trial"",""time""
""fullscreenenter"",""1"",""1467""
","
","","","1514","","","23","18658","7076","p","elianto","#3366ff99"," "," ","1","+10","[2365]","1","2","","","18658","71","5","1","win","go","0"
"pit-trial","190","1206005","0.0-76.0","battery-v0.2","","""event"",""trial"",""time""
""fullscreenenter"",""1"",""1467""
","
","
","""event"",""trial"",""time""
""fullscreenenter"",""1"",""1467""
","
","","","-1","","","23","18658","7076","s","elianto","#3366ff99","-1","-1","1","+10","[]","0","2","","","18658","72","4","2","win","no-go","0"
"pit-trial","191","1210862","0.0-77.0","battery-v0.2","","""event"",""trial"",""time""
""fullscreenenter"",""1"",""1467""
","
","
","""event"",""trial"",""time""
""fullscreenenter"",""1"",""1467""
","
","","","-1","","","23","18658","7076","p","elianto","#3366ff99"," ","-1","0","0","[3056.000000000233]","1","2","","","18658","73","5","1","win","go","0"
"pit-trial","192","1215718","0.0-78.0","battery-v0.2","","""event"",""trial"",""time""
""fullscreenenter"",""1"",""1467""
","
","
","""event"",""trial"",""time""
""fullscreenenter"",""1"",""1467""
","
","","","-1","","","23","18658","7076","s","elianto","#3366ff99","-1","-1","1","+10","[]","0","2","","","18658","74","4","2","win","no-go","0"
"pit-trial","193","1220574","0.0-79.0","battery-v0.2","","""event"",""trial"",""time""
""fullscreenenter"",""1"",""1467""
","
","
","""event"",""trial"",""time""
""fullscreenenter"",""1"",""1467""
","
","","","-1","","","23","18658","7076","w","elianto","#f73b6a7A"," ","-1","0","-10","[]","0","2","","","18658","75","3","3","lose","go","0"
"pit-trial","194","1224605","0.0-80.0","battery-v0.2","","""event"",""trial"",""time""
""fullscreenenter"",""1"",""1467""
","
","
","""event"",""trial"",""time""
""fullscreenenter"",""1"",""1467""
","
","","","1175","","","23","18658","7076","d","elianto","#3366ff99"," "," ","1","+10","[2027]","1","2","","","18658","76","1","1","win","go","0"
"pit-trial","195","1229461","0.0-81.0","battery-v0.2","","""event"",""trial"",""time""
""fullscreenenter"",""1"",""1467""
","
","
","""event"",""trial"",""time""
""fullscreenenter"",""1"",""1467""
","
","","","-1","","","23","18658","7076","s","elianto","#3366ff99","-1","-1","1","+10","[]","0","2","","","18658","77","4","2","win","no-go","0"
"pit-trial","196","1234317","0.0-82.0","battery-v0.2","","""event"",""trial"",""time""
""fullscreenenter"",""1"",""1467""
","
","
","""event"",""trial"",""time""
""fullscreenenter"",""1"",""1467""
","
","","","-1","","","23","18658","7076","p","elianto","#3366ff99"," ","-1","0","0","[]","0","2","","","18658","78","5","1","win","go","0"
"pit-trial","197","1239173","0.0-83.0","battery-v0.2","","""event"",""trial"",""time""
""fullscreenenter"",""1"",""1467""
","
","
","""event"",""trial"",""time""
""fullscreenenter"",""1"",""1467""
","
","","","-1","","","23","18658","7076","w","elianto","#f73b6a7A"," ","-1","0","-10","[]","0","2","","","18658","79","3","3","lose","go","0"
"pit-trial","198","1243124","0.0-84.0","battery-v0.2","","""event"",""trial"",""time""
""fullscreenenter"",""1"",""1467""
","
","
","""event"",""trial"",""time""
""fullscreenenter"",""1"",""1467""
","
","","","1095","","","23","18658","7076","g","elianto","#f73b6a7A","-1"," ","0","0","[1944]","1","2","","","18658","80","6","4","lose","no-go","1"
"pit-trial","199","1246925","0.0-85.0","battery-v0.2","","""event"",""trial"",""time""
""fullscreenenter"",""1"",""1467""
","
","
","""event"",""trial"",""time""
""fullscreenenter"",""1"",""1467""
","
","","","944.9999999997672","","","23","18658","7076","g","elianto","#f73b6a7A","-1"," ","0","-10","[1796]","1","2","","","18658","81","6","4","lose","no-go","0"
"pit-trial","200","1251066","0.0-86.0","battery-v0.2","","""event"",""trial"",""time""
""fullscreenenter"",""1"",""1467""
","
","
","""event"",""trial"",""time""
""fullscreenenter"",""1"",""1467""
","
","","","1287.0000000002328","","","23","18658","7076","a","elianto","#f73b6a7A"," "," ","1","0","[2137.000000000233]","1","2","","","18658","82","7","3","lose","go","0"
"pit-trial","201","1255165","0.0-87.0","battery-v0.2","","""event"",""trial"",""time""
""fullscreenenter"",""1"",""1467""
","
","
","""event"",""trial"",""time""
""fullscreenenter"",""1"",""1467""
","
","","","1244","","","23","18658","7076","p","elianto","#3366ff99"," "," ","1","+10","[2095]","1","2","","","18658","83","5","1","win","go","0"
"pit-trial","202","1260021","0.0-88.0","battery-v0.2","","""event"",""trial"",""time""
""fullscreenenter"",""1"",""1467""
","
","
","""event"",""trial"",""time""
""fullscreenenter"",""1"",""1467""
","
","","","-1","","","23","18658","7076","s","elianto","#3366ff99","-1","-1","1","+10","[]","0","2","","","18658","84","4","2","win","no-go","0"
"pit-trial","203","1264879","0.0-89.0","battery-v0.2","","""event"",""trial"",""time""
""fullscreenenter"",""1"",""1467""
","
","
","""event"",""trial"",""time""
""fullscreenenter"",""1"",""1467""
","
","","","-1","","","23","18658","7076","s","elianto","#3366ff99","-1","-1","1","+10","[]","0","2","","","18658","85","4","2","win","no-go","0"
"pit-trial","204","1269734","0.0-90.0","battery-v0.2","","""event"",""trial"",""time""
""fullscreenenter"",""1"",""1467""
","
","
","""event"",""trial"",""time""
""fullscreenenter"",""1"",""1467""
","
","","","-1","","","23","18658","7076","g","elianto","#f73b6a7A","-1","-1","1","0","[]","0","2","","","18658","86","6","4","lose","no-go","0"
"pit-trial","205","1274248","0.0-91.0","battery-v0.2","","""event"",""trial"",""time""
""fullscreenenter"",""1"",""1467""
","
","
","""event"",""trial"",""time""
""fullscreenenter"",""1"",""1467""
","
","","","1658","","","23","18658","7076","a","elianto","#f73b6a7A"," "," ","1","0","[2509]","1","2","","","18658","87","7","3","lose","go","0"
"pit-trial","206","1279104","0.0-92.0","battery-v0.2","","""event"",""trial"",""time""
""fullscreenenter"",""1"",""1467""
","
","
","""event"",""trial"",""time""
""fullscreenenter"",""1"",""1467""
","
","","","-1","","","23","18658","7076","p","elianto","#3366ff99"," ","-1","0","+10","[]","0","2","","","18658","88","5","1","win","go","1"
"pit-trial","207","1283960","0.0-93.0","battery-v0.2","","""event"",""trial"",""time""
""fullscreenenter"",""1"",""1467""
","
","
","""event"",""trial"",""time""
""fullscreenenter"",""1"",""1467""
","
","","","-1","","","23","18658","7076","p","elianto","#3366ff99"," ","-1","0","0","[]","0","2","","","18658","89","5","1","win","go","0"
"pit-trial","208","1288816","0.0-94.0","battery-v0.2","","""event"",""trial"",""time""
""fullscreenenter"",""1"",""1467""
","
","
","""event"",""trial"",""time""
""fullscreenenter"",""1"",""1467""
","
","","","-1","","","23","18658","7076","a","elianto","#f73b6a7A"," ","-1","0","-10","[]","0","2","","","18658","90","7","3","lose","go","0"
"pit-trial","209","1293674","0.0-95.0","battery-v0.2","","""event"",""trial"",""time""
""fullscreenenter"",""1"",""1467""
","
","
","""event"",""trial"",""time""
""fullscreenenter"",""1"",""1467""
","
","","","-1","","","23","18658","7076","s","elianto","#3366ff99","-1","-1","1","+10","[]","0","2","","","18658","91","4","2","win","no-go","0"
"pit-trial","210","1298530","0.0-96.0","battery-v0.2","","""event"",""trial"",""time""
""fullscreenenter"",""1"",""1467""
","
","
","""event"",""trial"",""time""
""fullscreenenter"",""1"",""1467""
","
","","","-1","","","23","18658","7076","g","elianto","#f73b6a7A","-1","-1","1","0","[]","0","2","","","18658","92","6","4","lose","no-go","0"
"pit-trial","211","1303386","0.0-97.0","battery-v0.2","","""event"",""trial"",""time""
""fullscreenenter"",""1"",""1467""
","
","
","""event"",""trial"",""time""
""fullscreenenter"",""1"",""1467""
","
","","","-1","","","23","18658","7076","p","elianto","#3366ff99"," ","-1","0","0","[]","0","2","","","18658","93","5","1","win","go","0"
"pit-trial","212","1307192","0.0-98.0","battery-v0.2","","""event"",""trial"",""time""
""fullscreenenter"",""1"",""1467""
","
","
","""event"",""trial"",""time""
""fullscreenenter"",""1"",""1467""
","
","","","948","","","23","18658","7076","l","elianto","#3366ff99","-1"," ","0","0","[1799]","1","2","","","18658","94","8","2","win","no-go","0"
"pit-trial","213","1312048","0.0-99.0","battery-v0.2","","""event"",""trial"",""time""
""fullscreenenter"",""1"",""1467""
","
","
","""event"",""trial"",""time""
""fullscreenenter"",""1"",""1467""
","
","","","-1","","","23","18658","7076","a","elianto","#f73b6a7A"," ","-1","0","0","[]","0","2","","","18658","95","7","3","lose","go","1"
"pit-trial","214","1316905","0.0-100.0","battery-v0.2","","""event"",""trial"",""time""
""fullscreenenter"",""1"",""1467""
","
","
","""event"",""trial"",""time""
""fullscreenenter"",""1"",""1467""
","
","","","-1","","","23","18658","7076","g","elianto","#f73b6a7A","-1","-1","1","0","[]","0","2","","","18658","96","6","4","lose","no-go","0"
"pit-trial","215","1321761","0.0-101.0","battery-v0.2","","""event"",""trial"",""time""
""fullscreenenter"",""1"",""1467""
","
","
","""event"",""trial"",""time""
""fullscreenenter"",""1"",""1467""
","
","","","-1","","","23","18658","7076","a","elianto","#f73b6a7A"," ","-1","0","-10","[]","0","2","","","18658","97","7","3","lose","go","0"
"pit-trial","216","1325535","0.0-102.0","battery-v0.2","","""event"",""trial"",""time""
""fullscreenenter"",""1"",""1467""
","
","
","""event"",""trial"",""time""
""fullscreenenter"",""1"",""1467""
","
","","","917.9999999997672","","","23","18658","7076","l","elianto","#3366ff99","-1"," ","0","0","[1768]","1","2","","","18658","98","8","2","win","no-go","0"
"pit-trial","217","1330391","0.0-103.0","battery-v0.2","","""event"",""trial"",""time""
""fullscreenenter"",""1"",""1467""
","
","
","""event"",""trial"",""time""
""fullscreenenter"",""1"",""1467""
","
","","","-1","","","23","18658","7076","p","elianto","#3366ff99"," ","-1","0","0","[]","0","2","","","18658","99","5","1","win","go","0"
"pit-trial","218","1334616","0.0-104.0","battery-v0.2","","""event"",""trial"",""time""
""fullscreenenter"",""1"",""1467""
","
","
","""event"",""trial"",""time""
""fullscreenenter"",""1"",""1467""
","
","","","1368","","","23","18658","7076","g","elianto","#f73b6a7A","-1"," ","0","0","[2218]","1","2","","","18658","100","6","4","lose","no-go","1"
"pit-trial","219","1339472","0.0-105.0","battery-v0.2","","""event"",""trial"",""time""
""fullscreenenter"",""1"",""1467""
","
","
","""event"",""trial"",""time""
""fullscreenenter"",""1"",""1467""
","
","","","-1","","","23","18658","7076","p","elianto","#3366ff99"," ","-1","0","0","[]","0","2","","","18658","101","5","1","win","go","0"
"pit-trial","220","1343331","0.0-106.0","battery-v0.2","","""event"",""trial"",""time""
""fullscreenenter"",""1"",""1467""
","
","
","""event"",""trial"",""time""
""fullscreenenter"",""1"",""1467""
","
","","","1004","","","23","18658","7076","g","elianto","#f73b6a7A","-1"," ","0","-10","[1854]","1","2","","","18658","102","6","4","lose","no-go","0"
"pit-trial","221","1347259","0.0-107.0","battery-v0.2","","""event"",""trial"",""time""
""fullscreenenter"",""1"",""1467""
","
","
","""event"",""trial"",""time""
""fullscreenenter"",""1"",""1467""
","
","","","1069","","","23","18658","7076","u","elianto","#3366ff99","-1"," ","0","0","[1922]","1","2","","","18658","103","9","2","win","no-go","0"
"pit-trial","222","1352115","0.0-108.0","battery-v0.2","","""event"",""trial"",""time""
""fullscreenenter"",""1"",""1467""
","
","
","""event"",""trial"",""time""
""fullscreenenter"",""1"",""1467""
","
","","","-1","","","23","18658","7076","l","elianto","#3366ff99","-1","-1","1","0","[]","0","2","","","18658","104","8","2","win","no-go","1"
"pit-trial","223","1356289","0.0-109.0","battery-v0.2","","""event"",""trial"",""time""
""fullscreenenter"",""1"",""1467""
","
","
","""event"",""trial"",""time""
""fullscreenenter"",""1"",""1467""
","
","","","1317","","","23","18658","7076","g","elianto","#f73b6a7A","-1"," ","0","0","[2168]","1","2","","","18658","105","6","4","lose","no-go","1"
"pit-trial","224","1361144","0.0-110.0","battery-v0.2","","""event"",""trial"",""time""
""fullscreenenter"",""1"",""1467""
","
","
","""event"",""trial"",""time""
""fullscreenenter"",""1"",""1467""
","
","","","-1","","","23","18658","7076","l","elianto","#3366ff99","-1","-1","1","0","[]","0","2","","","18658","106","8","2","win","no-go","1"
"pit-trial","225","1365171","0.0-111.0","battery-v0.2","","""event"",""trial"",""time""
""fullscreenenter"",""1"",""1467""
","
","
","""event"",""trial"",""time""
""fullscreenenter"",""1"",""1467""
","
","","","1172","","","23","18658","7076","u","elianto","#3366ff99","-1"," ","0","0","[2022]","1","2","","","18658","107","9","2","win","no-go","0"
"pit-trial","226","1370027","0.0-112.0","battery-v0.2","","""event"",""trial"",""time""
""fullscreenenter"",""1"",""1467""
","
","
","""event"",""trial"",""time""
""fullscreenenter"",""1"",""1467""
","
","","","-1","","","23","18658","7076","p","elianto","#3366ff99"," ","-1","0","+10","[]","0","2","","","18658","108","5","1","win","go","1"
"pit-trial","227","1374883","0.0-113.0","battery-v0.2","","""event"",""trial"",""time""
""fullscreenenter"",""1"",""1467""
","
","
","""event"",""trial"",""time""
""fullscreenenter"",""1"",""1467""
","
","","","-1","","","23","18658","7076","l","elianto","#3366ff99","-1","-1","1","+10","[]","0","2","","","18658","109","8","2","win","no-go","0"
"pit-trial","228","1379598","0.0-114.0","battery-v0.2","","""event"",""trial"",""time""
""fullscreenenter"",""1"",""1467""
","
","
","""event"",""trial"",""time""
""fullscreenenter"",""1"",""1467""
","
","","","1858","","","23","18658","7076","u","elianto","#3366ff99","-1"," ","0","+10","[2710]","1","2","","","18658","110","9","2","win","no-go","1"
"pit-trial","229","1383964","0.0-115.0","battery-v0.2","","""event"",""trial"",""time""
""fullscreenenter"",""1"",""1467""
","
","
","""event"",""trial"",""time""
""fullscreenenter"",""1"",""1467""
","
","","","1508.9999999997672","","","23","18658","7076","g","elianto","#f73b6a7A","-1"," ","0","-10","[2360]","1","2","","","18658","111","6","4","lose","no-go","0"
"pit-trial","230","1388820","0.0-116.0","battery-v0.2","","""event"",""trial"",""time""
""fullscreenenter"",""1"",""1467""
","
","
","""event"",""trial"",""time""
""fullscreenenter"",""1"",""1467""
","
","","","-1","","","23","18658","7076","p","elianto","#3366ff99"," ","-1","0","0","[]","0","2","","","18658","112","5","1","win","go","0"
"pit-trial","231","1393677","0.0-117.0","battery-v0.2","","""event"",""trial"",""time""
""fullscreenenter"",""1"",""1467""
","
","
","""event"",""trial"",""time""
""fullscreenenter"",""1"",""1467""
","
","","","-1","","","23","18658","7076","a","elianto","#f73b6a7A"," ","-1","0","-10","[]","0","2","","","18658","113","7","3","lose","go","0"
"pit-trial","232","1397096","0.0-118.0","battery-v0.2","","""event"",""trial"",""time""
""fullscreenenter"",""1"",""1467""
","
","
","""event"",""trial"",""time""
""fullscreenenter"",""1"",""1467""
","
","","","564","","","23","18658","7076","l","elianto","#3366ff99","-1"," ","0","0","[1415]","1","2","","","18658","114","8","2","win","no-go","0"
"pit-trial","233","1401276","0.0-119.0","battery-v0.2","","""event"",""trial"",""time""
""fullscreenenter"",""1"",""1467""
","
","
","""event"",""trial"",""time""
""fullscreenenter"",""1"",""1467""
","
","","","1324","","","23","18658","7076","u","elianto","#3366ff99","-1"," ","0","0","[2176]","1","2","","","18658","115","9","2","win","no-go","0"
"pit-trial","234","1406134","0.0-120.0","battery-v0.2","","""event"",""trial"",""time""
""fullscreenenter"",""1"",""1467""
","
","
","""event"",""trial"",""time""
""fullscreenenter"",""1"",""1467""
","
","","","-1","","","23","18658","7076","p","elianto","#3366ff99"," ","-1","0","+10","[]","0","2","","","18658","116","5","1","win","go","1"
"pit-trial","235","1410989","0.0-121.0","battery-v0.2","","""event"",""trial"",""time""
""fullscreenenter"",""1"",""1467""
","
","
","""event"",""trial"",""time""
""fullscreenenter"",""1"",""1467""
","
","","","-1","","","23","18658","7076","g","elianto","#f73b6a7A","-1","-1","1","0","[]","0","2","","","18658","117","6","4","lose","no-go","0"
"pit-trial","236","1414269","0.0-122.0","battery-v0.2","","""event"",""trial"",""time""
""fullscreenenter"",""1"",""1467""
","
","
","""event"",""trial"",""time""
""fullscreenenter"",""1"",""1467""
","
","","","424","","","23","18658","7076","u","elianto","#3366ff99","-1"," ","0","0","[1274]","1","2","","","18658","118","9","2","win","no-go","0"
"pit-trial","237","1417786","0.0-123.0","battery-v0.2","","""event"",""trial"",""time""
""fullscreenenter"",""1"",""1467""
","
","
","""event"",""trial"",""time""
""fullscreenenter"",""1"",""1467""
","
","","","661","","","23","18658","7076","p","elianto","#3366ff99"," "," ","1","+10","[1511]","1","2","","","18658","119","5","1","win","go","0"
"pit-trial","238","1421723","0.0-124.0","battery-v0.2","","""event"",""trial"",""time""
""fullscreenenter"",""1"",""1467""
","
","
","""event"",""trial"",""time""
""fullscreenenter"",""1"",""1467""
","
","","","1082","","","23","18658","7076","l","elianto","#3366ff99","-1"," ","0","0","[1932]","1","2","","","18658","120","8","2","win","no-go","0"
"pit-trial","239","1426578","0.0-125.0","battery-v0.2","","""event"",""trial"",""time""
""fullscreenenter"",""1"",""1467""
","
","
","""event"",""trial"",""time""
""fullscreenenter"",""1"",""1467""
","
","","","-1","","","23","18658","7076","a","elianto","#f73b6a7A"," ","-1","0","-10","[]","0","2","","","18658","121","7","3","lose","go","0"
"pit-trial","240","1430873","0.0-126.0","battery-v0.2","","""event"",""trial"",""time""
""fullscreenenter"",""1"",""1467""
","
","
","""event"",""trial"",""time""
""fullscreenenter"",""1"",""1467""
","
","","","1440","","","23","18658","7076","p","elianto","#3366ff99"," "," ","1","+10","[2290]","1","2","","","18658","122","5","1","win","go","0"
"pit-trial","241","1435728","0.0-127.0","battery-v0.2","","""event"",""trial"",""time""
""fullscreenenter"",""1"",""1467""
","
","
","""event"",""trial"",""time""
""fullscreenenter"",""1"",""1467""
","
","","","-1","","","23","18658","7076","l","elianto","#3366ff99","-1","-1","1","+10","[]","0","2","","","18658","123","8","2","win","no-go","0"
"pit-trial","242","1440584","0.0-128.0","battery-v0.2","","""event"",""trial"",""time""
""fullscreenenter"",""1"",""1467""
","
","
","""event"",""trial"",""time""
""fullscreenenter"",""1"",""1467""
","
","","","-1","","","23","18658","7076","u","elianto","#3366ff99","-1","-1","1","0","[]","0","2","","","18658","124","9","2","win","no-go","1"
"pit-trial","243","1445439","0.0-129.0","battery-v0.2","","""event"",""trial"",""time""
""fullscreenenter"",""1"",""1467""
","
","
","""event"",""trial"",""time""
""fullscreenenter"",""1"",""1467""
","
","","","-1","","","23","18658","7076","u","elianto","#3366ff99","-1","-1","1","0","[]","0","2","","","18658","125","9","2","win","no-go","1"
"pit-trial","244","1449070","0.0-130.0","battery-v0.2","","""event"",""trial"",""time""
""fullscreenenter"",""1"",""1467""
","
","
","""event"",""trial"",""time""
""fullscreenenter"",""1"",""1467""
","
","","","774","","","23","18658","7076","g","elianto","#f73b6a7A","-1"," ","0","0","[1625]","1","2","","","18658","126","6","4","lose","no-go","1"
"pit-trial","245","1453925","0.0-131.0","battery-v0.2","","""event"",""trial"",""time""
""fullscreenenter"",""1"",""1467""
","
","
","""event"",""trial"",""time""
""fullscreenenter"",""1"",""1467""
","
","","","-1","","","23","18658","7076","l","elianto","#3366ff99","-1","-1","1","+10","[]","0","2","","","18658","127","8","2","win","no-go","0"
"pit-trial","246","1458780","0.0-132.0","battery-v0.2","","""event"",""trial"",""time""
""fullscreenenter"",""1"",""1467""
","
","
","""event"",""trial"",""time""
""fullscreenenter"",""1"",""1467""
","
","","","-1","","","23","18658","7076","a","elianto","#f73b6a7A"," ","-1","0","-10","[]","0","2","","","18658","128","7","3","lose","go","0"
"pit-trial","247","1462209","0.0-133.0","battery-v0.2","","""event"",""trial"",""time""
""fullscreenenter"",""1"",""1467""
","
","
","""event"",""trial"",""time""
""fullscreenenter"",""1"",""1467""
","
","","","574","","","23","18658","7076","g","elianto","#f73b6a7A","-1"," ","0","0","[1424]","1","2","","","18658","129","6","4","lose","no-go","1"
"pit-trial","248","1466010","0.0-134.0","battery-v0.2","","""event"",""trial"",""time""
""fullscreenenter"",""1"",""1467""
","
","
","""event"",""trial"",""time""
""fullscreenenter"",""1"",""1467""
","
","","","945","","","23","18658","7076","l","elianto","#3366ff99","-1"," ","0","0","[1795]","1","2","","","18658","130","8","2","win","no-go","0"
"pit-trial","249","1470868","0.0-135.0","battery-v0.2","","""event"",""trial"",""time""
""fullscreenenter"",""1"",""1467""
","
","
","""event"",""trial"",""time""
""fullscreenenter"",""1"",""1467""
","
","","","-1","","","23","18658","7076","a","elianto","#f73b6a7A"," ","-1","0","-10","[]","0","2","","","18658","131","7","3","lose","go","0"
"pit-trial","250","1474304","0.0-136.0","battery-v0.2","","""event"",""trial"",""time""
""fullscreenenter"",""1"",""1467""
","
","
","""event"",""trial"",""time""
""fullscreenenter"",""1"",""1467""
","
","","","577.9999999997672","","","23","18658","7076","u","elianto","#3366ff99","-1"," ","0","0","[1432]","1","2","","","18658","132","9","2","win","no-go","0"
"pit-trial","251","1478129","0.0-137.0","battery-v0.2","","""event"",""trial"",""time""
""fullscreenenter"",""1"",""1467""
","
","
","""event"",""trial"",""time""
""fullscreenenter"",""1"",""1467""
","
","","","969.0000000002328","","","23","18658","7076","u","elianto","#3366ff99","-1"," ","0","0","[1820.0000000002328]","1","2","","","18658","133","9","2","win","no-go","0"
"pit-trial","252","1481908","0.0-138.0","battery-v0.2","","""event"",""trial"",""time""
""fullscreenenter"",""1"",""1467""
","
","
","""event"",""trial"",""time""
""fullscreenenter"",""1"",""1467""
","
","","","924.0000000002328","","","23","18658","7076","l","elianto","#3366ff99","-1"," ","0","+10","[1773]","1","2","","","18658","134","8","2","win","no-go","1"
"pit-trial","253","1486764","0.0-139.0","battery-v0.2","","""event"",""trial"",""time""
""fullscreenenter"",""1"",""1467""
","
","
","""event"",""trial"",""time""
""fullscreenenter"",""1"",""1467""
","
","","","-1","","","23","18658","7076","g","elianto","#f73b6a7A","-1","-1","1","0","[]","0","2","","","18658","135","6","4","lose","no-go","0"
"pit-trial","254","1490176","0.0-140.0","battery-v0.2","","""event"",""trial"",""time""
""fullscreenenter"",""1"",""1467""
","
","
","""event"",""trial"",""time""
""fullscreenenter"",""1"",""1467""
","
","","","556","","","23","18658","7076","a","elianto","#f73b6a7A"," "," ","1","0","[1406]","1","2","","","18658","136","7","3","lose","go","0"
"pit-trial","255","1495033","0.0-141.0","battery-v0.2","","""event"",""trial"",""time""
""fullscreenenter"",""1"",""1467""
","
","
","""event"",""trial"",""time""
""fullscreenenter"",""1"",""1467""
","
","","","-1","","","23","18658","7076","a","elianto","#f73b6a7A"," ","-1","0","-10","[]","0","2","","","18658","137","7","3","lose","go","0"
"pit-trial","256","1498300","0.0-142.0","battery-v0.2","","""event"",""trial"",""time""
""fullscreenenter"",""1"",""1467""
","
","
","""event"",""trial"",""time""
""fullscreenenter"",""1"",""1467""
","
","","","410","","","23","18658","7076","l","elianto","#3366ff99","-1"," ","0","0","[1261]","1","2","","","18658","138","8","2","win","no-go","0"
"pit-trial","257","1501893","0.0-143.0","battery-v0.2","","""event"",""trial"",""time""
""fullscreenenter"",""1"",""1467""
","
","
","""event"",""trial"",""time""
""fullscreenenter"",""1"",""1467""
","
","","","739","","","23","18658","7076","g","elianto","#f73b6a7A","-1"," ","0","0","[1589]","1","2","","","18658","139","6","4","lose","no-go","1"
"pit-trial","258","1505272","0.0-144.0","battery-v0.2","","""event"",""trial"",""time""
""fullscreenenter"",""1"",""1467""
""fullscreenexit"",""259"",""1726122""
""blur"",""259"",""1726153""
""focus"",""259"",""1726215""
""blur"",""259"",""1727835""
""focus"",""259"",""1749475""
""focus"",""259"",""1749476""
","""event"",""trial"",""time""
""blur"",""259"",""1726153""
""blur"",""259"",""1727835""
","""event"",""trial"",""time""
""focus"",""259"",""1726215""
""focus"",""259"",""1749475""
""focus"",""259"",""1749476""
","""event"",""trial"",""time""
""fullscreenenter"",""1"",""1467""
","""event"",""trial"",""time""
""fullscreenexit"",""259"",""1726122""
","","","522","","","23","18658","7076","u","elianto","#3366ff99","-1"," ","0","0","[1373]","1","2","","","18658","140","9","2","win","no-go","0"
"pit-instructions","259","1759811","0.0-145.0","battery-v0.2","","""event"",""trial"",""time""
""fullscreenenter"",""1"",""1467""
""fullscreenexit"",""259"",""1726122""
""blur"",""259"",""1726153""
""focus"",""259"",""1726215""
""blur"",""259"",""1727835""
""focus"",""259"",""1749475""
""focus"",""259"",""1749476""
","""event"",""trial"",""time""
""blur"",""259"",""1726153""
""blur"",""259"",""1727835""
","""event"",""trial"",""time""
""focus"",""259"",""1726215""
""focus"",""259"",""1749475""
""focus"",""259"",""1749476""
","""event"",""trial"",""time""
""fullscreenenter"",""1"",""1467""
","""event"",""trial"",""time""
""fullscreenexit"",""259"",""1726122""
","","[{""page_index"":0,""viewing_time"":245720},{""page_index"":1,""viewing_time"":8834}]","254554","","","","","","","","","","","","","","","","","","","","","","","",""
"pit-trial","260","1764075","0.0-146.0","battery-v0.2","","""event"",""trial"",""time""
""fullscreenenter"",""1"",""1467""
""fullscreenexit"",""259"",""1726122""
""blur"",""259"",""1726153""
""focus"",""259"",""1726215""
""blur"",""259"",""1727835""
""focus"",""259"",""1749475""
""focus"",""259"",""1749476""
","""event"",""trial"",""time""
""blur"",""259"",""1726153""
""blur"",""259"",""1727835""
","""event"",""trial"",""time""
""focus"",""259"",""1726215""
""focus"",""259"",""1749475""
""focus"",""259"",""1749476""
","""event"",""trial"",""time""
""fullscreenenter"",""1"",""1467""
","""event"",""trial"",""time""
""fullscreenexit"",""259"",""1726122""
","","","1403","","","23","18658","7076","n","elianto","#f73b6a7A"," "," ","1","0","[2256]","1","3","","","18658","141","0","3","lose","go","0"
"pit-trial","261","1767683","0.0-147.0","battery-v0.2","","""event"",""trial"",""time""
""fullscreenenter"",""1"",""1467""
""fullscreenexit"",""259"",""1726122""
""blur"",""259"",""1726153""
""focus"",""259"",""1726215""
""blur"",""259"",""1727835""
""focus"",""259"",""1749475""
""focus"",""259"",""1749476""
","""event"",""trial"",""time""
""blur"",""259"",""1726153""
""blur"",""259"",""1727835""
","""event"",""trial"",""time""
""focus"",""259"",""1726215""
""focus"",""259"",""1749475""
""focus"",""259"",""1749476""
","""event"",""trial"",""time""
""fullscreenenter"",""1"",""1467""
","""event"",""trial"",""time""
""fullscreenexit"",""259"",""1726122""
","","","752","","","23","18658","7076","t","elianto","#f73b6a7A"," "," ","1","0","[1603]","1","3","","","18658","142","2","3","lose","go","0"
"pit-trial","262","1772068","0.0-148.0","battery-v0.2","","""event"",""trial"",""time""
""fullscreenenter"",""1"",""1467""
""fullscreenexit"",""259"",""1726122""
""blur"",""259"",""1726153""
""focus"",""259"",""1726215""
""blur"",""259"",""1727835""
""focus"",""259"",""1749475""
""focus"",""259"",""1749476""
","""event"",""trial"",""time""
""blur"",""259"",""1726153""
""blur"",""259"",""1727835""
","""event"",""trial"",""time""
""focus"",""259"",""1726215""
""focus"",""259"",""1749475""
""focus"",""259"",""1749476""
","""event"",""trial"",""time""
""fullscreenenter"",""1"",""1467""
","""event"",""trial"",""time""
""fullscreenexit"",""259"",""1726122""
","","","1529","","","23","18658","7076","f","elianto","#3366ff99","-1"," ","0","0","[2378.999999999767]","1","3","","","18658","143","1","2","win","no-go","0"
"pit-trial","263","1776618","0.0-149.0","battery-v0.2","","""event"",""trial"",""time""
""fullscreenenter"",""1"",""1467""
""fullscreenexit"",""259"",""1726122""
""blur"",""259"",""1726153""
""focus"",""259"",""1726215""
""blur"",""259"",""1727835""
""focus"",""259"",""1749475""
""focus"",""259"",""1749476""
","""event"",""trial"",""time""
""blur"",""259"",""1726153""
""blur"",""259"",""1727835""
","""event"",""trial"",""time""
""focus"",""259"",""1726215""
""focus"",""259"",""1749475""
""focus"",""259"",""1749476""
","""event"",""trial"",""time""
""fullscreenenter"",""1"",""1467""
","""event"",""trial"",""time""
""fullscreenexit"",""259"",""1726122""
","","","1696","","","23","18658","7076","b","elianto","#f73b6a7A","-1"," ","0","-10","[2545.999999999767]","1","3","","","18658","144","3","4","lose","no-go","0"
"pit-trial","264","1781474","0.0-150.0","battery-v0.2","","""event"",""trial"",""time""
""fullscreenenter"",""1"",""1467""
""fullscreenexit"",""259"",""1726122""
""blur"",""259"",""1726153""
""focus"",""259"",""1726215""
""blur"",""259"",""1727835""
""focus"",""259"",""1749475""
""focus"",""259"",""1749476""
","""event"",""trial"",""time""
""blur"",""259"",""1726153""
""blur"",""259"",""1727835""
","""event"",""trial"",""time""
""focus"",""259"",""1726215""
""focus"",""259"",""1749475""
""focus"",""259"",""1749476""
","""event"",""trial"",""time""
""fullscreenenter"",""1"",""1467""
","""event"",""trial"",""time""
""fullscreenexit"",""259"",""1726122""
","","","-1","","","23","18658","7076","n","elianto","#f73b6a7A"," ","-1","0","-10","[]","0","3","","","18658","145","0","3","lose","go","0"
"pit-trial","265","1786330","0.0-151.0","battery-v0.2","","""event"",""trial"",""time""
""fullscreenenter"",""1"",""1467""
""fullscreenexit"",""259"",""1726122""
""blur"",""259"",""1726153""
""focus"",""259"",""1726215""
""blur"",""259"",""1727835""
""focus"",""259"",""1749475""
""focus"",""259"",""1749476""
","""event"",""trial"",""time""
""blur"",""259"",""1726153""
""blur"",""259"",""1727835""
","""event"",""trial"",""time""
