"trial_type","trial_index","time_elapsed","internal_node_id","task_version","subject_id","interactions","blur_events","focus_events","fullscreenenter_events","fullscreenexit_events","success","view_history","rt","responses","num_errors","age","subject","participantId","rune","rune_set","hex","correct","choice","accuracy","outcome","keys","total_keys","block","practice","value","sub","trial","stimulus","robot","valence","action","sham"
"pavlovia","0","8","0.0-0.0","battery-v0.2","","""event"",""trial"",""time""
""fullscreenenter"",""1"",""2421""
","
","
","""event"",""trial"",""time""
""fullscreenenter"",""1"",""2421""
","
","","","","","","","","","","","","","","","","","","","","","","","","","","",""
"fullscreen","1","3413","0.0-1.0","battery-v0.2","","""event"",""trial"",""time""
""fullscreenenter"",""1"",""2421""
","
","
","""event"",""trial"",""time""
""fullscreenenter"",""1"",""2421""
","
","true","","","","","","","","","","","","","","","","","","","","","","","","","",""
"pit-instructions","2","10011","0.0-2.0-0.0","battery-v0.2","","""event"",""trial"",""time""
""fullscreenenter"",""1"",""2421""
","
","
","""event"",""trial"",""time""
""fullscreenenter"",""1"",""2421""
","
","","[{""page_index"":0,""viewing_time"":6592.800000011921}]","6593.400000035763","","","","","","","","","","","","","","","","","","","","","","","",""
"pit-comprehension","3","24541","0.0-2.0-1.0-0.0","battery-v0.2","","""event"",""trial"",""time""
""fullscreenenter"",""1"",""2421""
","
","
","""event"",""trial"",""time""
""fullscreenenter"",""1"",""2421""
","
","","","14525.800000011921","[""shark""]","0","10","12452","385","","","","","","","","","","","","","","","","","","",""
"pit-instructions","4","25940","0.0-2.0-1.0-1.0","battery-v0.2","","""event"",""trial"",""time""
""fullscreenenter"",""1"",""2421""
","
","
","""event"",""trial"",""time""
""fullscreenenter"",""1"",""2421""
","
","","[{""page_index"":0,""viewing_time"":1381.6000000238419}]","1382","","","","","","","","","","","","","","","","","","","","","","","",""
"pit-comprehension","5","33179","0.0-2.0-2.0-0.0","battery-v0.2","","""event"",""trial"",""time""
""fullscreenenter"",""1"",""2421""
","
","
","""event"",""trial"",""time""
""fullscreenenter"",""1"",""2421""
","
","","","7234.099999964237","[""tiger""]","0","10","12452","385","","","","","","","","","","","","","","","","","","",""
"pit-instructions","6","34830","0.0-2.0-2.0-1.0","battery-v0.2","","""event"",""trial"",""time""
""fullscreenenter"",""1"",""2421""
","
","
","""event"",""trial"",""time""
""fullscreenenter"",""1"",""2421""
","
","","[{""page_index"":0,""viewing_time"":1646.6000000238419}]","1647.1000000238419","","","","","","","","","","","","","","","","","","","","","","","",""
"pit-instructions","7","136840","0.0-2.0-3.0","battery-v0.2","","""event"",""trial"",""time""
""fullscreenenter"",""1"",""2421""
","
","
","""event"",""trial"",""time""
""fullscreenenter"",""1"",""2421""
","
","","[{""page_index"":0,""viewing_time"":11151.900000035763},{""page_index"":1,""viewing_time"":6988.799999952316},{""page_index"":2,""viewing_time"":7708},{""page_index"":3,""viewing_time"":5218.900000035763},{""page_index"":4,""viewing_time"":5134.699999988079},{""page_index"":5,""viewing_time"":5206.300000011921},{""page_index"":6,""viewing_time"":7121.5},{""page_index"":7,""viewing_time"":6501.699999988079},{""page_index"":8,""viewing_time"":7816.699999988079},{""page_index"":9,""viewing_time"":9319.699999988079},{""page_index"":10,""viewing_time"":9887.700000047684},{""page_index"":11,""viewing_time"":7837.899999976158},{""page_index"":12,""viewing_time"":7505},{""page_index"":13,""viewing_time"":4606.399999976158}]","102005.5","","","","","","","","","","","","","","","","","","","","","","","",""
"pit-trial","8","140008","0.0-2.0-4.0-0.0","battery-v0.2","","""event"",""trial"",""time""
""fullscreenenter"",""1"",""2421""
","
","
","""event"",""trial"",""time""
""fullscreenenter"",""1"",""2421""
","
","","","298.89999997615814","","","10","12452","385","&#9784;","elianto","#FFFFF080"," "," ","1","&#10004","[1151.699999988079]","1","0","0","","","","","","","",""
"pit-trial","9","143091","0.0-2.0-4.1-0.1","battery-v0.2","","""event"",""trial"",""time""
""fullscreenenter"",""1"",""2421""
","
","
","""event"",""trial"",""time""
""fullscreenenter"",""1"",""2421""
","
","","","205.39999997615814","","","10","12452","385","&#9784;","elianto","#FFFFF080"," "," ","1","&#10004","[1065.699999988079]","1","0","0","","","","","","","",""
"pit-trial","10","146309","0.0-2.0-4.2-0.2","battery-v0.2","","""event"",""trial"",""time""
""fullscreenenter"",""1"",""2421""
","
","
","""event"",""trial"",""time""
""fullscreenenter"",""1"",""2421""
","
","","","345.89999997615814","","","10","12452","385","&#9784;","elianto","#FFFFF080"," "," ","1","&#10004","[1204.699999988079]","1","0","0","","","","","","","",""
"pit-trial","11","149870","0.0-2.0-4.3-0.3","battery-v0.2","","""event"",""trial"",""time""
""fullscreenenter"",""1"",""2421""
","
","
","""event"",""trial"",""time""
""fullscreenenter"",""1"",""2421""
","
","","","698","","","10","12452","385","&#9784;","elianto","#FFFFF080"," "," ","1","&#10004","[1551.6000000238419]","1","0","0","","","","","","","",""
"pit-trial","12","153411","0.0-2.0-4.4-0.4","battery-v0.2","","""event"",""trial"",""time""
""fullscreenenter"",""1"",""2421""
","
","
","""event"",""trial"",""time""
""fullscreenenter"",""1"",""2421""
","
","","","675.1000000238419","","","10","12452","385","&#9784;","elianto","#FFFFF080"," "," ","1","&#10004","[1527.699999988079]","1","0","0","","","","","","","",""
"pit-instructions","13","176434","0.0-2.0-5.0","battery-v0.2","","""event"",""trial"",""time""
""fullscreenenter"",""1"",""2421""
","
","
","""event"",""trial"",""time""
""fullscreenenter"",""1"",""2421""
","
","","[{""page_index"":0,""viewing_time"":5760.900000035763},{""page_index"":1,""viewing_time"":5054.899999976158},{""page_index"":2,""viewing_time"":6240},{""page_index"":3,""viewing_time"":5963.199999988079}]","23020.30000001192","","","","","","","","","","","","","","","","","","","","","","","",""
"pit-trial","14","181313","0.0-2.0-6.0-0.0","battery-v0.2","","""event"",""trial"",""time""
""fullscreenenter"",""1"",""2421""
","
","
","""event"",""trial"",""time""
""fullscreenenter"",""1"",""2421""
","
","","","-1","","","10","12452","385","&#9854;","elianto","#FFFFF080","-1","-1","1","&#10004","[]","0","0","1","","","","","","","",""
"pit-trial","15","186184","0.0-2.0-6.1-0.1","battery-v0.2","","""event"",""trial"",""time""
""fullscreenenter"",""1"",""2421""
","
","
","""event"",""trial"",""time""
""fullscreenenter"",""1"",""2421""
","
","","","-1","","","10","12452","385","&#9854;","elianto","#FFFFF080","-1","-1","1","&#10004","[]","0","0","1","","","","","","","",""
"pit-trial","16","191060","0.0-2.0-6.2-0.2","battery-v0.2","","""event"",""trial"",""time""
""fullscreenenter"",""1"",""2421""
","
","
","""event"",""trial"",""time""
""fullscreenenter"",""1"",""2421""
","
","","","-1","","","10","12452","385","&#9854;","elianto","#FFFFF080","-1","-1","1","&#10004","[]","0","0","1","","","","","","","",""
"pit-trial","17","195919","0.0-2.0-6.3-0.3","battery-v0.2","","""event"",""trial"",""time""
""fullscreenenter"",""1"",""2421""
","
","
","""event"",""trial"",""time""
""fullscreenenter"",""1"",""2421""
","
","","","-1","","","10","12452","385","&#9854;","elianto","#FFFFF080","-1","-1","1","&#10004","[]","0","0","1","","","","","","","",""
"pit-trial","18","200792","0.0-2.0-6.4-0.4","battery-v0.2","","""event"",""trial"",""time""
""fullscreenenter"",""1"",""2421""
","
","
","""event"",""trial"",""time""
""fullscreenenter"",""1"",""2421""
","
","","","-1","","","10","12452","385","&#9854;","elianto","#FFFFF080","-1","-1","1","&#10004","[]","0","0","1","","","","","","","",""
"pit-instructions","19","336205","0.0-2.0-7.0","battery-v0.2","","""event"",""trial"",""time""
""fullscreenenter"",""1"",""2421""
","
","
","""event"",""trial"",""time""
""fullscreenenter"",""1"",""2421""
","
","","[{""page_index"":0,""viewing_time"":6986.900000035763},{""page_index"":1,""viewing_time"":7044.5},{""page_index"":2,""viewing_time"":7611.299999952316},{""page_index"":3,""viewing_time"":5756.100000023842},{""page_index"":4,""viewing_time"":5838.100000023842},{""page_index"":5,""viewing_time"":7059.699999988079},{""page_index"":6,""viewing_time"":4860.699999988079},{""page_index"":7,""viewing_time"":9413.600000023842},{""page_index"":8,""viewing_time"":8684.099999964237},{""page_index"":9,""viewing_time"":7237.5},{""page_index"":10,""viewing_time"":7879.900000035763},{""page_index"":11,""viewing_time"":4268.399999976158},{""page_index"":12,""viewing_time"":8530.399999976158},{""page_index"":13,""viewing_time"":10172.700000047684},{""page_index"":14,""viewing_time"":10438},{""page_index"":15,""viewing_time"":7741.599999964237},{""page_index"":16,""viewing_time"":8063.600000023842},{""page_index"":17,""viewing_time"":7820.199999988079}]","135407.60000002384","","","","","","","","","","","","","","","","","","","","","","","",""
"pit-trial","20","339507","0.0-2.0-8.0-0.0","battery-v0.2","","""event"",""trial"",""time""
""fullscreenenter"",""1"",""2421""
","
","
","""event"",""trial"",""time""
""fullscreenenter"",""1"",""2421""
","
","","","431.19999998807907","","","10","12452","385","&#9776;","elianto","#3366ff99"," "," ","1","+10","[1286.5999999642372]","1","0","1","","","","","","","",""
"pit-trial","21","343139","0.0-2.0-8.0-1.0","battery-v0.2","","""event"",""trial"",""time""
""fullscreenenter"",""1"",""2421""
","
","
","""event"",""trial"",""time""
""fullscreenenter"",""1"",""2421""
","
","","","770.6000000238419","","","10","12452","385","&#9776;","elianto","#3366ff99"," "," ","1","+10","[1623.4000000357628]","1","0","1","","","","","","","",""
"pit-trial","22","346482","0.0-2.0-8.0-2.0","battery-v0.2","","""event"",""trial"",""time""
""fullscreenenter"",""1"",""2421""
","
","
","""event"",""trial"",""time""
""fullscreenenter"",""1"",""2421""
","
","","","483.19999998807907","","","10","12452","385","&#9776;","elianto","#3366ff99"," "," ","1","+10","[1337]","1","0","1","","","","","","","",""
"pit-trial","23","349811","0.0-2.0-8.0-3.0","battery-v0.2","","""event"",""trial"",""time""
""fullscreenenter"",""1"",""2421""
","
","
","""event"",""trial"",""time""
""fullscreenenter"",""1"",""2421""
","
","","","467.5","","","10","12452","385","&#9776;","elianto","#3366ff99"," "," ","1","0","[1321.5]","1","0","1","","","","","","","",""
"pit-trial","24","352813","0.0-2.0-8.0-4.0","battery-v0.2","","""event"",""trial"",""time""
""fullscreenenter"",""1"",""2421""
","
","
","""event"",""trial"",""time""
""fullscreenenter"",""1"",""2421""
","
","","","135.29999995231628","","","10","12452","385","&#9776;","elianto","#3366ff99"," "," ","1","+10","[988.1000000238419]","1","0","1","","","","","","","",""
"pit-trial","25","356144","0.0-2.0-8.1-0.1","battery-v0.2","","""event"",""trial"",""time""
""fullscreenenter"",""1"",""2421""
","
","
","""event"",""trial"",""time""
""fullscreenenter"",""1"",""2421""
","
","","","456.39999997615814","","","10","12452","385","&#9776;","elianto","#3366ff99"," "," ","1","+10","[1317.300000011921]","1","0","1","","","","","","","",""
"pit-trial","26","359409","0.0-2.0-8.1-1.1","battery-v0.2","","""event"",""trial"",""time""
""fullscreenenter"",""1"",""2421""
","
","
","""event"",""trial"",""time""
""fullscreenenter"",""1"",""2421""
","
","","","397.30000001192093","","","10","12452","385","&#9776;","elianto","#3366ff99"," "," ","1","+10","[1248.6000000238419]","1","0","1","","","","","","","",""
"pit-trial","27","362893","0.0-2.0-8.1-2.1","battery-v0.2","","""event"",""trial"",""time""
""fullscreenenter"",""1"",""2421""
","
","
","""event"",""trial"",""time""
""fullscreenenter"",""1"",""2421""
","
","","","617.1999999880791","","","10","12452","385","&#9776;","elianto","#3366ff99"," "," ","1","+10","[1469.2999999523163]","1","0","1","","","","","","","",""
"pit-trial","28","366368","0.0-2.0-8.1-3.1","battery-v0.2","","""event"",""trial"",""time""
""fullscreenenter"",""1"",""2421""
","
","
","""event"",""trial"",""time""
""fullscreenenter"",""1"",""2421""
","
","","","620.1000000238419","","","10","12452","385","&#9776;","elianto","#3366ff99"," "," ","1","0","[1472.4000000357628]","1","0","1","","","","","","","",""
"pit-trial","29","370422","0.0-2.0-8.1-4.1","battery-v0.2","","""event"",""trial"",""time""
""fullscreenenter"",""1"",""2421""
","
","
","""event"",""trial"",""time""
""fullscreenenter"",""1"",""2421""
","
","","","1200.5","","","10","12452","385","&#9776;","elianto","#3366ff99"," "," ","1","+10","[2051.5]","1","0","1","","","","","","","",""
"pit-trial","30","373664","0.0-2.0-8.2-0.2","battery-v0.2","","""event"",""trial"",""time""
""fullscreenenter"",""1"",""2421""
","
","
","""event"",""trial"",""time""
""fullscreenenter"",""1"",""2421""
","
","","","389","","","10","12452","385","&#9776;","elianto","#3366ff99"," "," ","1","+10","[1239.699999988079]","1","0","1","","","","","","","",""
"pit-trial","31","376628","0.0-2.0-8.2-1.2","battery-v0.2","","""event"",""trial"",""time""
""fullscreenenter"",""1"",""2421""
","
","
","""event"",""trial"",""time""
""fullscreenenter"",""1"",""2421""
","
","","","111.19999998807907","","","10","12452","385","&#9776;","elianto","#3366ff99"," "," ","1","+10","[431.39999997615814,961.5999999642372]","2","0","1","","","","","","","",""
"pit-trial","32","379983","0.0-2.0-8.2-2.2","battery-v0.2","","""event"",""trial"",""time""
""fullscreenenter"",""1"",""2421""
","
","
","""event"",""trial"",""time""
""fullscreenenter"",""1"",""2421""
","
","","","499.5","","","10","12452","385","&#9776;","elianto","#3366ff99"," "," ","1","+10","[1351.199999988079]","1","0","1","","","","","","","",""
"pit-trial","33","383567","0.0-2.0-8.2-3.2","battery-v0.2","","""event"",""trial"",""time""
""fullscreenenter"",""1"",""2421""
","
","
","""event"",""trial"",""time""
""fullscreenenter"",""1"",""2421""
","
","","","730.5","","","10","12452","385","&#9776;","elianto","#3366ff99"," "," ","1","0","[1580.699999988079]","1","0","1","","","","","","","",""
"pit-trial","34","387784","0.0-2.0-8.2-4.2","battery-v0.2","","""event"",""trial"",""time""
""fullscreenenter"",""1"",""2421""
","
","
","""event"",""trial"",""time""
""fullscreenenter"",""1"",""2421""
","
","","","1363.0999999642372","","","10","12452","385","&#9776;","elianto","#3366ff99"," "," ","1","+10","[2213.7999999523163]","1","0","1","","","","","","","",""
"call-function","35","387787","0.0-2.0-9.0","battery-v0.2","","""event"",""trial"",""time""
""fullscreenenter"",""1"",""2421""
","
","
","""event"",""trial"",""time""
""fullscreenenter"",""1"",""2421""
","
","","","","","","","","","","","","","","","","","","","","","","","","","","",""
"pit-instructions","36","435220","0.0-2.0-10.0","battery-v0.2","","""event"",""trial"",""time""
""fullscreenenter"",""1"",""2421""
","
","
","""event"",""trial"",""time""
""fullscreenenter"",""1"",""2421""
","
","","[{""page_index"":0,""viewing_time"":9341.800000011921},{""page_index"":1,""viewing_time"":7696.699999988079},{""page_index"":2,""viewing_time"":9780.399999976158},{""page_index"":3,""viewing_time"":12882.100000023842},{""page_index"":4,""viewing_time"":7730.800000011921}]","47432.39999997616","","","","","","","","","","","","","","","","","","","","","","","",""
"pit-trial","37","438794","0.0-2.0-11.0-0.0","battery-v0.2","","""event"",""trial"",""time""
""fullscreenenter"",""1"",""2421""
","
","
","""event"",""trial"",""time""
""fullscreenenter"",""1"",""2421""
","
","","","716.3000000119209","","","10","12452","385","&#9761;","elianto","#3366ff99","-1"," ","0","0","[1568.699999988079]","1","0","2","","","","","","","",""
"pit-trial","38","441813","0.0-2.0-11.0-1.0","battery-v0.2","","""event"",""trial"",""time""
""fullscreenenter"",""1"",""2421""
","
","
","""event"",""trial"",""time""
""fullscreenenter"",""1"",""2421""
","
","","","153.60000002384186","","","10","12452","385","&#9761;","elianto","#3366ff99","-1"," ","0","0","[1006.1999999880791]","1","0","2","","","","","","","",""
"pit-trial","39","446670","0.0-2.0-11.0-2.0","battery-v0.2","","""event"",""trial"",""time""
""fullscreenenter"",""1"",""2421""
","
","
","""event"",""trial"",""time""
""fullscreenenter"",""1"",""2421""
","
","","","-1","","","10","12452","385","&#9761;","elianto","#3366ff99","-1","-1","1","+10","[]","0","0","2","","","","","","","",""
"pit-trial","40","451530","0.0-2.0-11.0-3.0","battery-v0.2","","""event"",""trial"",""time""
""fullscreenenter"",""1"",""2421""
","
","
","""event"",""trial"",""time""
""fullscreenenter"",""1"",""2421""
","
","","","-1","","","10","12452","385","&#9761;","elianto","#3366ff99","-1","-1","1","0","[]","0","0","2","","","","","","","",""
"pit-trial","41","456403","0.0-2.0-11.0-4.0","battery-v0.2","","""event"",""trial"",""time""
""fullscreenenter"",""1"",""2421""
","
","
","""event"",""trial"",""time""
""fullscreenenter"",""1"",""2421""
","
","","","-1","","","10","12452","385","&#9761;","elianto","#3366ff99","-1","-1","1","+10","[]","0","0","2","","","","","","","",""
"pit-trial","42","461273","0.0-2.0-11.1-0.1","battery-v0.2","","""event"",""trial"",""time""
""fullscreenenter"",""1"",""2421""
","
","
","""event"",""trial"",""time""
""fullscreenenter"",""1"",""2421""
","
","","","-1","","","10","12452","385","&#9761;","elianto","#3366ff99","-1","-1","1","+10","[]","0","0","2","","","","","","","",""
"pit-trial","43","466136","0.0-2.0-11.1-1.1","battery-v0.2","","""event"",""trial"",""time""
""fullscreenenter"",""1"",""2421""
","
","
","""event"",""trial"",""time""
""fullscreenenter"",""1"",""2421""
","
","","","-1","","","10","12452","385","&#9761;","elianto","#3366ff99","-1","-1","1","+10","[]","0","0","2","","","","","","","",""
"pit-trial","44","470993","0.0-2.0-11.1-2.1","battery-v0.2","","""event"",""trial"",""time""
""fullscreenenter"",""1"",""2421""
","
","
","""event"",""trial"",""time""
""fullscreenenter"",""1"",""2421""
","
","","","-1","","","10","12452","385","&#9761;","elianto","#3366ff99","-1","-1","1","+10","[]","0","0","2","","","","","","","",""
"pit-trial","45","475848","0.0-2.0-11.1-3.1","battery-v0.2","","""event"",""trial"",""time""
""fullscreenenter"",""1"",""2421""
","
","
","""event"",""trial"",""time""
""fullscreenenter"",""1"",""2421""
","
","","","-1","","","10","12452","385","&#9761;","elianto","#3366ff99","-1","-1","1","0","[]","0","0","2","","","","","","","",""
"pit-trial","46","480702","0.0-2.0-11.1-4.1","battery-v0.2","","""event"",""trial"",""time""
""fullscreenenter"",""1"",""2421""
","
","
","""event"",""trial"",""time""
""fullscreenenter"",""1"",""2421""
","
","","","-1","","","10","12452","385","&#9761;","elianto","#3366ff99","-1","-1","1","+10","[]","0","0","2","","","","","","","",""
"pit-trial","47","485557","0.0-2.0-11.2-0.2","battery-v0.2","","""event"",""trial"",""time""
""fullscreenenter"",""1"",""2421""
","
","
","""event"",""trial"",""time""
""fullscreenenter"",""1"",""2421""
","
","","","-1","","","10","12452","385","&#9761;","elianto","#3366ff99","-1","-1","1","+10","[]","0","0","2","","","","","","","",""
"pit-trial","48","490411","0.0-2.0-11.2-1.2","battery-v0.2","","""event"",""trial"",""time""
""fullscreenenter"",""1"",""2421""
","
","
","""event"",""trial"",""time""
""fullscreenenter"",""1"",""2421""
","
","","","-1","","","10","12452","385","&#9761;","elianto","#3366ff99","-1","-1","1","+10","[]","0","0","2","","","","","","","",""
"pit-trial","49","495265","0.0-2.0-11.2-2.2","battery-v0.2","","""event"",""trial"",""time""
""fullscreenenter"",""1"",""2421""
","
","
","""event"",""trial"",""time""
""fullscreenenter"",""1"",""2421""
","
","","","-1","","","10","12452","385","&#9761;","elianto","#3366ff99","-1","-1","1","+10","[]","0","0","2","","","","","","","",""
"pit-trial","50","500119","0.0-2.0-11.2-3.2","battery-v0.2","","""event"",""trial"",""time""
""fullscreenenter"",""1"",""2421""
","
","
","""event"",""trial"",""time""
""fullscreenenter"",""1"",""2421""
","
","","","-1","","","10","12452","385","&#9761;","elianto","#3366ff99","-1","-1","1","0","[]","0","0","2","","","","","","","",""
"pit-trial","51","504974","0.0-2.0-11.2-4.2","battery-v0.2","","""event"",""trial"",""time""
""fullscreenenter"",""1"",""2421""
","
","
","""event"",""trial"",""time""
""fullscreenenter"",""1"",""2421""
","
","","","-1","","","10","12452","385","&#9761;","elianto","#3366ff99","-1","-1","1","+10","[]","0","0","2","","","","","","","",""
"pit-trial","52","509827","0.0-2.0-11.3-0.3","battery-v0.2","","""event"",""trial"",""time""
""fullscreenenter"",""1"",""2421""
","
","
","""event"",""trial"",""time""
""fullscreenenter"",""1"",""2421""
","
","","","-1","","","10","12452","385","&#9761;","elianto","#3366ff99","-1","-1","1","+10","[]","0","0","2","","","","","","","",""
"pit-trial","53","514680","0.0-2.0-11.3-1.3","battery-v0.2","","""event"",""trial"",""time""
""fullscreenenter"",""1"",""2421""
","
","
","""event"",""trial"",""time""
""fullscreenenter"",""1"",""2421""
","
","","","-1","","","10","12452","385","&#9761;","elianto","#3366ff99","-1","-1","1","+10","[]","0","0","2","","","","","","","",""
"pit-trial","54","519533","0.0-2.0-11.3-2.3","battery-v0.2","","""event"",""trial"",""time""
""fullscreenenter"",""1"",""2421""
","
","
","""event"",""trial"",""time""
""fullscreenenter"",""1"",""2421""
","
","","","-1","","","10","12452","385","&#9761;","elianto","#3366ff99","-1","-1","1","+10","[]","0","0","2","","","","","","","",""
"pit-trial","55","524387","0.0-2.0-11.3-3.3","battery-v0.2","","""event"",""trial"",""time""
""fullscreenenter"",""1"",""2421""
","
","
","""event"",""trial"",""time""
""fullscreenenter"",""1"",""2421""
","
","","","-1","","","10","12452","385","&#9761;","elianto","#3366ff99","-1","-1","1","0","[]","0","0","2","","","","","","","",""
"pit-trial","56","529242","0.0-2.0-11.3-4.3","battery-v0.2","","""event"",""trial"",""time""
""fullscreenenter"",""1"",""2421""
","
","
","""event"",""trial"",""time""
""fullscreenenter"",""1"",""2421""
","
","","","-1","","","10","12452","385","&#9761;","elianto","#3366ff99","-1","-1","1","+10","[]","0","0","2","","","","","","","",""
"call-function","57","529244","0.0-2.0-12.0","battery-v0.2","","""event"",""trial"",""time""
""fullscreenenter"",""1"",""2421""
","
","
","""event"",""trial"",""time""
""fullscreenenter"",""1"",""2421""
","
","","","","","","","","","","","","","","","","","","","","","","","","","","",""
"pit-instructions","58","567982","0.0-2.0-13.0","battery-v0.2","","""event"",""trial"",""time""
""fullscreenenter"",""1"",""2421""
","
","
","""event"",""trial"",""time""
""fullscreenenter"",""1"",""2421""
","
","","[{""page_index"":0,""viewing_time"":9394},{""page_index"":1,""viewing_time"":7228.600000023842},{""page_index"":2,""viewing_time"":4800.5},{""page_index"":3,""viewing_time"":12522},{""page_index"":4,""viewing_time"":4791.5}]","38737.5","","","","","","","","","","","","","","","","","","","","","","","",""
"pit-trial","59","572853","0.0-2.0-14.0-0.0","battery-v0.2","","""event"",""trial"",""time""
""fullscreenenter"",""1"",""2421""
","
","
","""event"",""trial"",""time""
""fullscreenenter"",""1"",""2421""
","
","","","-1","","","10","12452","385","&#9826;","elianto","#f73b6a7A","-1","-1","1","0","[]","0","0","3","","","","","","","",""
"pit-trial","60","576160","0.0-2.0-14.0-1.0","battery-v0.2","","""event"",""trial"",""time""
""fullscreenenter"",""1"",""2421""
","
","
","""event"",""trial"",""time""
""fullscreenenter"",""1"",""2421""
","
","","","438.9000000357628","","","10","12452","385","&#9826;","elianto","#f73b6a7A","-1"," ","0","-10","[1290.300000011921]","1","0","3","","","","","","","",""
"pit-trial","61","581025","0.0-2.0-14.0-2.0","battery-v0.2","","""event"",""trial"",""time""
""fullscreenenter"",""1"",""2421""
","
","
","""event"",""trial"",""time""
""fullscreenenter"",""1"",""2421""
","
","","","-1","","","10","12452","385","&#9826;","elianto","#f73b6a7A","-1","-1","1","0","[]","0","0","3","","","","","","","",""
"pit-trial","62","585892","0.0-2.0-14.0-3.0","battery-v0.2","","""event"",""trial"",""time""
""fullscreenenter"",""1"",""2421""
","
","
","""event"",""trial"",""time""
""fullscreenenter"",""1"",""2421""
","
","","","-1","","","10","12452","385","&#9826;","elianto","#f73b6a7A","-1","-1","1","-10","[]","0","0","3","","","","","","","",""
"pit-trial","63","590752","0.0-2.0-14.0-4.0","battery-v0.2","","""event"",""trial"",""time""
""fullscreenenter"",""1"",""2421""
","
","
","""event"",""trial"",""time""
""fullscreenenter"",""1"",""2421""
","
","","","-1","","","10","12452","385","&#9826;","elianto","#f73b6a7A","-1","-1","1","0","[]","0","0","3","","","","","","","",""
"pit-trial","64","595619","0.0-2.0-14.1-0.1","battery-v0.2","","""event"",""trial"",""time""
""fullscreenenter"",""1"",""2421""
","
","
","""event"",""trial"",""time""
""fullscreenenter"",""1"",""2421""
","
","","","-1","","","10","12452","385","&#9826;","elianto","#f73b6a7A","-1","-1","1","0","[]","0","0","3","","","","","","","",""
"pit-trial","65","600473","0.0-2.0-14.1-1.1","battery-v0.2","","""event"",""trial"",""time""
""fullscreenenter"",""1"",""2421""
","
","
","""event"",""trial"",""time""
""fullscreenenter"",""1"",""2421""
","
","","","-1","","","10","12452","385","&#9826;","elianto","#f73b6a7A","-1","-1","1","0","[]","0","0","3","","","","","","","",""
"pit-trial","66","605329","0.0-2.0-14.1-2.1","battery-v0.2","","""event"",""trial"",""time""
""fullscreenenter"",""1"",""2421""
","
","
","""event"",""trial"",""time""
""fullscreenenter"",""1"",""2421""
","
","","","-1","","","10","12452","385","&#9826;","elianto","#f73b6a7A","-1","-1","1","0","[]","0","0","3","","","","","","","",""
"pit-trial","67","610181","0.0-2.0-14.1-3.1","battery-v0.2","","""event"",""trial"",""time""
""fullscreenenter"",""1"",""2421""
","
","
","""event"",""trial"",""time""
""fullscreenenter"",""1"",""2421""
","
","","","-1","","","10","12452","385","&#9826;","elianto","#f73b6a7A","-1","-1","1","-10","[]","0","0","3","","","","","","","",""
"pit-trial","68","615034","0.0-2.0-14.1-4.1","battery-v0.2","","""event"",""trial"",""time""
""fullscreenenter"",""1"",""2421""
","
","
","""event"",""trial"",""time""
""fullscreenenter"",""1"",""2421""
","
","","","-1","","","10","12452","385","&#9826;","elianto","#f73b6a7A","-1","-1","1","0","[]","0","0","3","","","","","","","",""
"pit-trial","69","619886","0.0-2.0-14.2-0.2","battery-v0.2","","""event"",""trial"",""time""
""fullscreenenter"",""1"",""2421""
","
","
","""event"",""trial"",""time""
""fullscreenenter"",""1"",""2421""
","
","","","-1","","","10","12452","385","&#9826;","elianto","#f73b6a7A","-1","-1","1","0","[]","0","0","3","","","","","","","",""
"pit-trial","70","624740","0.0-2.0-14.2-1.2","battery-v0.2","","""event"",""trial"",""time""
""fullscreenenter"",""1"",""2421""
","
","
","""event"",""trial"",""time""
""fullscreenenter"",""1"",""2421""
","
","","","-1","","","10","12452","385","&#9826;","elianto","#f73b6a7A","-1","-1","1","0","[]","0","0","3","","","","","","","",""
"pit-trial","71","629596","0.0-2.0-14.2-2.2","battery-v0.2","","""event"",""trial"",""time""
""fullscreenenter"",""1"",""2421""
","
","
","""event"",""trial"",""time""
""fullscreenenter"",""1"",""2421""
","
","","","-1","","","10","12452","385","&#9826;","elianto","#f73b6a7A","-1","-1","1","0","[]","0","0","3","","","","","","","",""
"pit-trial","72","634452","0.0-2.0-14.2-3.2","battery-v0.2","","""event"",""trial"",""time""
""fullscreenenter"",""1"",""2421""
","
","
","""event"",""trial"",""time""
""fullscreenenter"",""1"",""2421""
","
","","","-1","","","10","12452","385","&#9826;","elianto","#f73b6a7A","-1","-1","1","-10","[]","0","0","3","","","","","","","",""
"pit-trial","73","639318","0.0-2.0-14.2-4.2","battery-v0.2","","""event"",""trial"",""time""
""fullscreenenter"",""1"",""2421""
","
","
","""event"",""trial"",""time""
""fullscreenenter"",""1"",""2421""
","
","","","-1","","","10","12452","385","&#9826;","elianto","#f73b6a7A","-1","-1","1","0","[]","0","0","3","","","","","","","",""
"pit-trial","74","644175","0.0-2.0-14.3-0.3","battery-v0.2","","""event"",""trial"",""time""
""fullscreenenter"",""1"",""2421""
","
","
","""event"",""trial"",""time""
""fullscreenenter"",""1"",""2421""
","
","","","-1","","","10","12452","385","&#9826;","elianto","#f73b6a7A","-1","-1","1","0","[]","0","0","3","","","","","","","",""
"pit-trial","75","649029","0.0-2.0-14.3-1.3","battery-v0.2","","""event"",""trial"",""time""
""fullscreenenter"",""1"",""2421""
","
","
","""event"",""trial"",""time""
""fullscreenenter"",""1"",""2421""
","
","","","-1","","","10","12452","385","&#9826;","elianto","#f73b6a7A","-1","-1","1","0","[]","0","0","3","","","","","","","",""
"pit-trial","76","653886","0.0-2.0-14.3-2.3","battery-v0.2","","""event"",""trial"",""time""
""fullscreenenter"",""1"",""2421""
","
","
","""event"",""trial"",""time""
""fullscreenenter"",""1"",""2421""
","
","","","-1","","","10","12452","385","&#9826;","elianto","#f73b6a7A","-1","-1","1","0","[]","0","0","3","","","","","","","",""
"pit-trial","77","658740","0.0-2.0-14.3-3.3","battery-v0.2","","""event"",""trial"",""time""
""fullscreenenter"",""1"",""2421""
","
","
","""event"",""trial"",""time""
""fullscreenenter"",""1"",""2421""
","
","","","-1","","","10","12452","385","&#9826;","elianto","#f73b6a7A","-1","-1","1","-10","[]","0","0","3","","","","","","","",""
"pit-trial","78","663592","0.0-2.0-14.3-4.3","battery-v0.2","","""event"",""trial"",""time""
""fullscreenenter"",""1"",""2421""
","
","
","""event"",""trial"",""time""
""fullscreenenter"",""1"",""2421""
","
","","","-1","","","10","12452","385","&#9826;","elianto","#f73b6a7A","-1","-1","1","0","[]","0","0","3","","","","","","","",""
"call-function","79","663593","0.0-2.0-15.0","battery-v0.2","","""event"",""trial"",""time""
""fullscreenenter"",""1"",""2421""
","
","
","""event"",""trial"",""time""
""fullscreenenter"",""1"",""2421""
","
","","","","","","","","","","","","","","","","","","","","","","","","","","",""
"pit-instructions","80","692863","0.0-2.0-16.0","battery-v0.2","","""event"",""trial"",""time""
""fullscreenenter"",""1"",""2421""
","
","
","""event"",""trial"",""time""
""fullscreenenter"",""1"",""2421""
","
","","[{""page_index"":0,""viewing_time"":8152.300000011921},{""page_index"":1,""viewing_time"":9300},{""page_index"":2,""viewing_time"":5567.199999988079},{""page_index"":3,""viewing_time"":6250.100000023842}]","29269.900000035763","","","","","","","","","","","","","","","","","","","","","","","",""
"pit-trial","81","697729","0.0-2.0-17.0-0.0","battery-v0.2","","""event"",""trial"",""time""
""fullscreenenter"",""1"",""2421""
","
","
","""event"",""trial"",""time""
""fullscreenenter"",""1"",""2421""
","
","","","-1","","","10","12452","385","&#9789;","elianto","#f73b6a7A"," ","-1","0","-10","[3009.2999999523163]","1","0","4","","","","","","","",""
"pit-trial","82","701132","0.0-2.0-17.0-1.0","battery-v0.2","","""event"",""trial"",""time""
""fullscreenenter"",""1"",""2421""
","
","
","""event"",""trial"",""time""
""fullscreenenter"",""1"",""2421""
","
","","","541.9000000357628","","","10","12452","385","&#9789;","elianto","#f73b6a7A"," "," ","1","0","[1394]","1","0","4","","","","","","","",""
"pit-trial","83","704395","0.0-2.0-17.0-2.0","battery-v0.2","","""event"",""trial"",""time""
""fullscreenenter"",""1"",""2421""
","
","
","""event"",""trial"",""time""
""fullscreenenter"",""1"",""2421""
","
","","","400","","","10","12452","385","&#9789;","elianto","#f73b6a7A"," "," ","1","0","[1258.3999999761581]","1","0","4","","","","","","","",""
"pit-trial","84","707715","0.0-2.0-17.0-3.0","battery-v0.2","","""event"",""trial"",""time""
""fullscreenenter"",""1"",""2421""
","
","
","""event"",""trial"",""time""
""fullscreenenter"",""1"",""2421""
","
","","","466.69999998807907","","","10","12452","385","&#9789;","elianto","#f73b6a7A"," "," ","1","-10","[1317.800000011921]","1","0","4","","","","","","","",""
"pit-trial","85","710839","0.0-2.0-17.0-4.0","battery-v0.2","","""event"",""trial"",""time""
""fullscreenenter"",""1"",""2421""
","
","
","""event"",""trial"",""time""
""fullscreenenter"",""1"",""2421""
","
","","","272.5","","","10","12452","385","&#9789;","elianto","#f73b6a7A"," "," ","1","0","[1122.9000000357628,2629.600000023842]","2","0","4","","","","","","","",""
"pit-trial","86","715133","0.0-2.0-17.1-0.1","battery-v0.2","","""event"",""trial"",""time""
""fullscreenenter"",""1"",""2421""
","
","
","""event"",""trial"",""time""
""fullscreenenter"",""1"",""2421""
","
","","","1429.5","","","10","12452","385","&#9789;","elianto","#f73b6a7A"," "," ","1","0","[2288.300000011921,2474,3062.300000011921,3437.800000011921,3784.2000000476837,3989.100000023842,4158.800000011921]","7","0","4","","","","","","","",""
"pit-trial","87","718066","0.0-2.0-17.1-1.1","battery-v0.2","","""event"",""trial"",""time""
""fullscreenenter"",""1"",""2421""
","
","
","""event"",""trial"",""time""
""fullscreenenter"",""1"",""2421""
","
","","","65.5","","","10","12452","385","&#9789;","elianto","#f73b6a7A"," "," ","1","0","[39.10000002384186,194.5,398.10000002384186,575.4000000357628,741.2000000476837,920.2000000476837,1095.9000000357628,1267.300000011921,1456.6000000238419,1645.1000000238419,1831.1000000238419,1997.6000000238419,2143.900000035763,2298.300000011921,2466.900000035763,2648.100000023842,2809]","17","0","4","","","","","","","",""
"pit-trial","88","720966","0.0-2.0-17.1-2.1","battery-v0.2","","""event"",""trial"",""time""
""fullscreenenter"",""1"",""2421""
","
","
","""event"",""trial"",""time""
""fullscreenenter"",""1"",""2421""
","
","","","31.700000047683716","","","10","12452","385","&#9789;","elianto","#f73b6a7A"," "," ","1","0","[48.59999996423721,209.19999998807907,549.1999999880791,883.3000000119209,1092.5,1926]","6","0","4","","","","","","","",""
"pit-trial","89","724216","0.0-2.0-17.1-3.1","battery-v0.2","","""event"",""trial"",""time""
""fullscreenenter"",""1"",""2421""
","
","
","""event"",""trial"",""time""
""fullscreenenter"",""1"",""2421""
","
","","","395.5","","","10","12452","385","&#9789;","elianto","#f73b6a7A"," "," ","1","-10","[1245.800000011921,3156.300000011921]","2","0","4","","","","","","","",""
"pit-trial","90","727197","0.0-2.0-17.1-4.1","battery-v0.2","","""event"",""trial"",""time""
""fullscreenenter"",""1"",""2421""
","
","
","""event"",""trial"",""time""
""fullscreenenter"",""1"",""2421""
","
","","","126.5","","","10","12452","385","&#9789;","elianto","#f73b6a7A"," "," ","1","0","[977.5]","1","0","4","","","","","","","",""
"pit-trial","91","730233","0.0-2.0-17.2-0.2","battery-v0.2","","""event"",""trial"",""time""
""fullscreenenter"",""1"",""2421""
","
","
","""event"",""trial"",""time""
""fullscreenenter"",""1"",""2421""
","
","","","182.80000001192093","","","10","12452","385","&#9789;","elianto","#f73b6a7A"," "," ","1","0","[1033.699999988079]","1","0","4","","","","","","","",""
"pit-trial","92","733551","0.0-2.0-17.2-1.2","battery-v0.2","","""event"",""trial"",""time""
""fullscreenenter"",""1"",""2421""
","
","
","""event"",""trial"",""time""
""fullscreenenter"",""1"",""2421""
","
","","","464.5","","","10","12452","385","&#9789;","elianto","#f73b6a7A"," "," ","1","0","[1314.699999988079]","1","0","4","","","","","","","",""
"pit-trial","93","736686","0.0-2.0-17.2-2.2","battery-v0.2","","""event"",""trial"",""time""
""fullscreenenter"",""1"",""2421""
","
","
","""event"",""trial"",""time""
""fullscreenenter"",""1"",""2421""
","
","","","282.4000000357628","","","10","12452","385","&#9789;","elianto","#f73b6a7A"," "," ","1","0","[1132.699999988079]","1","0","4","","","","","","","",""
"pit-trial","94","739745","0.0-2.0-17.2-3.2","battery-v0.2","","""event"",""trial"",""time""
""fullscreenenter"",""1"",""2421""
","
","
","""event"",""trial"",""time""
""fullscreenenter"",""1"",""2421""
","
","","","203.10000002384186","","","10","12452","385","&#9789;","elianto","#f73b6a7A"," "," ","1","-10","[1055]","1","0","4","","","","","","","",""
"pit-trial","95","742993","0.0-2.0-17.2-4.2","battery-v0.2","","""event"",""trial"",""time""
""fullscreenenter"",""1"",""2421""
","
","
","""event"",""trial"",""time""
""fullscreenenter"",""1"",""2421""
","
","","","389.7999999523163","","","10","12452","385","&#9789;","elianto","#f73b6a7A"," "," ","1","0","[1244]","1","0","4","","","","","","","",""
"pit-trial","96","746000","0.0-2.0-17.3-0.3","battery-v0.2","","""event"",""trial"",""time""
""fullscreenenter"",""1"",""2421""
","
","
","""event"",""trial"",""time""
""fullscreenenter"",""1"",""2421""
","
","","","151.5","","","10","12452","385","&#9789;","elianto","#f73b6a7A"," "," ","1","0","[1002.1999999880791]","1","0","4","","","","","","","",""
"pit-trial","97","749290","0.0-2.0-17.3-1.3","battery-v0.2","","""event"",""trial"",""time""
""fullscreenenter"",""1"",""2421""
","
","
","""event"",""trial"",""time""
""fullscreenenter"",""1"",""2421""
","
","","","436","","","10","12452","385","&#9789;","elianto","#f73b6a7A"," "," ","1","0","[668.3000000119209,1286.199999988079]","2","0","4","","","","","","","",""
"pit-trial","98","752323","0.0-2.0-17.3-2.3","battery-v0.2","","""event"",""trial"",""time""
""fullscreenenter"",""1"",""2421""
","
","
","""event"",""trial"",""time""
""fullscreenenter"",""1"",""2421""
","
","","","179.5","","","10","12452","385","&#9789;","elianto","#f73b6a7A"," "," ","1","0","[1029.8999999761581]","1","0","4","","","","","","","",""
"pit-trial","99","756914","0.0-2.0-17.3-3.3","battery-v0.2","","""event"",""trial"",""time""
""fullscreenenter"",""1"",""2421""
","
","
","""event"",""trial"",""time""
""fullscreenenter"",""1"",""2421""
","
","","","1735.1000000238419","","","10","12452","385","&#9789;","elianto","#f73b6a7A"," "," ","1","-10","[2585.800000011921,3825.300000011921]","2","0","4","","","","","","","",""
"pit-trial","100","760367","0.0-2.0-17.3-4.3","battery-v0.2","","""event"",""trial"",""time""
""fullscreenenter"",""1"",""2421""
","
","
","""event"",""trial"",""time""
""fullscreenenter"",""1"",""2421""
","
","","","599.8999999761581","","","10","12452","385","&#9789;","elianto","#f73b6a7A"," "," ","1","0","[1450.699999988079]","1","0","4","","","","","","","",""
"call-function","101","760368","0.0-2.0-18.0","battery-v0.2","","""event"",""trial"",""time""
""fullscreenenter"",""1"",""2421""
","
","
","""event"",""trial"",""time""
""fullscreenenter"",""1"",""2421""
","
","","","","","","","","","","","","","","","","","","","","","","","","","","",""
"pit-instructions","102","833989","0.0-2.0-19.0","battery-v0.2","","""event"",""trial"",""time""
""fullscreenenter"",""1"",""2421""
","
","
","""event"",""trial"",""time""
""fullscreenenter"",""1"",""2421""
","
","","[{""page_index"":0,""viewing_time"":10243.700000047684},{""page_index"":1,""viewing_time"":7190.599999964237},{""page_index"":2,""viewing_time"":12857.5},{""page_index"":3,""viewing_time"":6384.5},{""page_index"":4,""viewing_time"":7096.800000011921},{""page_index"":5,""viewing_time"":9137.600000023842},{""page_index"":6,""viewing_time"":9493.599999964237},{""page_index"":7,""viewing_time"":7668.300000011921},{""page_index"":8,""viewing_time"":3546.5}]","73619.40000003576","","","","","","","","","","","","","","","","","","","","","","","",""
"pit-comprehension","103","838842","0.0-2.0-20.0-0.0","battery-v0.2","","""event"",""trial"",""time""
""fullscreenenter"",""1"",""2421""
","
","
","""event"",""trial"",""time""
""fullscreenenter"",""1"",""2421""
","
","","","4849.600000023842","[""SPACE""]","0","10","12452","385","","","","","","","","","","","","","","","","","","",""
"pit-instructions","104","843454","0.0-2.0-20.0-1.0","battery-v0.2","","""event"",""trial"",""time""
""fullscreenenter"",""1"",""2421""
","
","
","""event"",""trial"",""time""
""fullscreenenter"",""1"",""2421""
","
","","[{""page_index"":0,""viewing_time"":4578.399999976158}]","4578.600000023842","","","","","","","","","","","","","","","","","","","","","","","",""
"pit-comprehension","105","849569","0.0-2.0-21.0-0.0","battery-v0.2","","""event"",""trial"",""time""
""fullscreenenter"",""1"",""2421""
","
","
","""event"",""trial"",""time""
""fullscreenenter"",""1"",""2421""
","
","","","6111.699999988079","[""10""]","0","10","12452","385","","","","","","","","","","","","","","","","","","",""
"pit-instructions","106","854954","0.0-2.0-21.0-1.0","battery-v0.2","","""event"",""trial"",""time""
""fullscreenenter"",""1"",""2421""
","
","
","""event"",""trial"",""time""
""fullscreenenter"",""1"",""2421""
","
","","[{""page_index"":0,""viewing_time"":5355.299999952316}]","5355.599999964237","","","","","","","","","","","","","","","","","","","","","","","",""
"pit-comprehension","107","863166","0.0-2.0-22.0-0.0","battery-v0.2","","""event"",""trial"",""time""
""fullscreenenter"",""1"",""2421""
","
","
","""event"",""trial"",""time""
""fullscreenenter"",""1"",""2421""
","
","","","8209.399999976158","[""0""]","0","10","12452","385","","","","","","","","","","","","","","","","","","",""
"pit-instructions","108","868958","0.0-2.0-22.0-1.0","battery-v0.2","","""event"",""trial"",""time""
""fullscreenenter"",""1"",""2421""
","
","
","""event"",""trial"",""time""
""fullscreenenter"",""1"",""2421""
","
","","[{""page_index"":0,""viewing_time"":5766.299999952316}]","5767.099999964237","","","","","","","","","","","","","","","","","","","","","","","",""
"pit-comprehension","109","877987","0.0-2.0-23.0-0.0","battery-v0.2","","""event"",""trial"",""time""
""fullscreenenter"",""1"",""2421""
","
","
","""event"",""trial"",""time""
""fullscreenenter"",""1"",""2421""
","
","","","9025.300000011921","[""True""]","0","10","12452","385","","","","","","","","","","","","","","","","","","",""
"pit-instructions","110","880686","0.0-2.0-23.0-1.0","battery-v0.2","","""event"",""trial"",""time""
""fullscreenenter"",""1"",""2421""
","
","
","""event"",""trial"",""time""
""fullscreenenter"",""1"",""2421""
","
","","[{""page_index"":0,""viewing_time"":2667.2999999523163}]","2667.899999976158","","","","","","","","","","","","","","","","","","","","","","","",""
"pit-comprehension","111","889857","0.0-2.0-24.0-0.0","battery-v0.2","","""event"",""trial"",""time""
""fullscreenenter"",""1"",""2421""
","
","
","""event"",""trial"",""time""
""fullscreenenter"",""1"",""2421""
","
","","","9167.300000011921","[""True""]","0","10","12452","385","","","","","","","","","","","","","","","","","","",""
"pit-instructions","112","890971","0.0-2.0-24.0-1.0","battery-v0.2","","""event"",""trial"",""time""
""fullscreenenter"",""1"",""2421""
","
","
","""event"",""trial"",""time""
""fullscreenenter"",""1"",""2421""
","
","","[{""page_index"":0,""viewing_time"":1086.5}]","1086.7999999523163","","","","","","","","","","","","","","","","","","","","","","","",""
"pit-comprehension","113","897132","0.0-2.0-25.0-0.0","battery-v0.2","","""event"",""trial"",""time""
""fullscreenenter"",""1"",""2421""
","
","
","""event"",""trial"",""time""
""fullscreenenter"",""1"",""2421""
","
","","","6158.199999988079","[""True""]","0","10","12452","385","","","","","","","","","","","","","","","","","","",""
"pit-instructions","114","898869","0.0-2.0-25.0-1.0","battery-v0.2","","""event"",""trial"",""time""
""fullscreenenter"",""1"",""2421""
","
","
","""event"",""trial"",""time""
""fullscreenenter"",""1"",""2421""
","
","","[{""page_index"":0,""viewing_time"":1693.3999999761581}]","1693.699999988079","","","","","","","","","","","","","","","","","","","","","","","",""
"pit-comprehension","115","903712","0.0-2.0-26.0-0.0","battery-v0.2","","""event"",""trial"",""time""
""fullscreenenter"",""1"",""2421""
","
","
","""event"",""trial"",""time""
""fullscreenenter"",""1"",""2421""
","
","","","4841.399999976158","[""False""]","0","10","12452","385","","","","","","","","","","","","","","","","","","",""
"pit-instructions","116","905007","0.0-2.0-26.0-1.0","battery-v0.2","","""event"",""trial"",""time""
""fullscreenenter"",""1"",""2421""
","
","
","""event"",""trial"",""time""
""fullscreenenter"",""1"",""2421""
","
","","[{""page_index"":0,""viewing_time"":1262.300000011921}]","1262.5","","","","","","","","","","","","","","","","","","","","","","","",""
"pit-instructions","117","930275","0.0-3.0","battery-v0.2","","""event"",""trial"",""time""
""fullscreenenter"",""1"",""2421""
","
","
","""event"",""trial"",""time""
""fullscreenenter"",""1"",""2421""
","
","","[{""page_index"":0,""viewing_time"":5728},{""page_index"":1,""viewing_time"":6288.899999976158},{""page_index"":2,""viewing_time"":13248.699999988079}]","25266.19999998808","","","","","","","","","","","","","","","","","","","","","","","",""
"pit-trial","118","933715","0.0-4.0","battery-v0.2","","""event"",""trial"",""time""
""fullscreenenter"",""1"",""2421""
","
","
","""event"",""trial"",""time""
""fullscreenenter"",""1"",""2421""
","
","","","572.3999999761581","","","10","12452","385","&#9730;","elianto","#3366ff99"," "," ","1","+10","[1429.5999999642372]","1","1","","","12452","1","1","1","win","go","0"
"pit-trial","119","937300","0.0-5.0","battery-v0.2","","""event"",""trial"",""time""
""fullscreenenter"",""1"",""2421""
","
","
","""event"",""trial"",""time""
""fullscreenenter"",""1"",""2421""
","
","","","710.6000000238419","","","10","12452","385","&#9733;","elianto","#3366ff99","-1"," ","0","+10","[1568]","1","1","","","12452","2","2","2","win","no-go","1"
"pit-trial","120","942167","0.0-6.0","battery-v0.2","","""event"",""trial"",""time""
""fullscreenenter"",""1"",""2421""
","
","
","""event"",""trial"",""time""
""fullscreenenter"",""1"",""2421""
","
","","","-1","","","10","12452","385","&#9752;","elianto","#f73b6a7A"," ","-1","0","0","[]","0","1","","","12452","3","3","3","lose","go","1"
"pit-trial","121","947031","0.0-7.0","battery-v0.2","","""event"",""trial"",""time""
""fullscreenenter"",""1"",""2421""
","
","
","""event"",""trial"",""time""
""fullscreenenter"",""1"",""2421""
","
","","","-1","","","10","12452","385","&#9728;","elianto","#f73b6a7A","-1","-1","1","-10","[]","0","1","","","12452","4","0","4","lose","no-go","1"
"pit-trial","122","951363","0.0-8.0","battery-v0.2","","""event"",""trial"",""time""
""fullscreenenter"",""1"",""2421""
","
","
","""event"",""trial"",""time""
""fullscreenenter"",""1"",""2421""
","
","","","1460.199999988079","","","10","12452","385","&#9752;","elianto","#f73b6a7A"," "," ","1","0","[2318.399999976158]","1","1","","","12452","5","3","3","lose","go","0"
"pit-trial","123","955992","0.0-9.0","battery-v0.2","","""event"",""trial"",""time""
""fullscreenenter"",""1"",""2421""
","
","
","""event"",""trial"",""time""
""fullscreenenter"",""1"",""2421""
","
","","","1768.3999999761581","","","10","12452","385","&#9730;","elianto","#3366ff99"," "," ","1","+10","[2625.2000000476837]","1","1","","","12452","6","1","1","win","go","0"
"pit-trial","124","959474","0.0-10.0","battery-v0.2","","""event"",""trial"",""time""
""fullscreenenter"",""1"",""2421""
","
","
","""event"",""trial"",""time""
""fullscreenenter"",""1"",""2421""
","
","","","629.8000000119209","","","10","12452","385","&#9733;","elianto","#3366ff99","-1"," ","0","+10","[1479.9000000357628]","1","1","","","12452","7","2","2","win","no-go","1"
"pit-trial","125","964328","0.0-11.0","battery-v0.2","","""event"",""trial"",""time""
""fullscreenenter"",""1"",""2421""
","
","
","""event"",""trial"",""time""
""fullscreenenter"",""1"",""2421""
","
","","","-1","","","10","12452","385","&#9728;","elianto","#f73b6a7A","-1","-1","1","0","[]","0","1","","","12452","8","0","4","lose","no-go","0"
"pit-trial","126","968213","0.0-12.0","battery-v0.2","","""event"",""trial"",""time""
""fullscreenenter"",""1"",""2421""
","
","
","""event"",""trial"",""time""
""fullscreenenter"",""1"",""2421""
","
","","","1028.699999988079","","","10","12452","385","&#9728;","elianto","#f73b6a7A","-1"," ","0","-10","[1880.6000000238419]","1","1","","","12452","9","0","4","lose","no-go","0"
"pit-trial","127","972010","0.0-13.0","battery-v0.2","","""event"",""trial"",""time""
""fullscreenenter"",""1"",""2421""
","
","
","""event"",""trial"",""time""
""fullscreenenter"",""1"",""2421""
","
","","","944.1000000238419","","","10","12452","385","&#9730;","elianto","#3366ff99"," "," ","1","+10","[1795.0999999642372]","1","1","","","12452","10","1","1","win","go","0"
"pit-trial","128","976078","0.0-14.0","battery-v0.2","","""event"",""trial"",""time""
""fullscreenenter"",""1"",""2421""
","
","
","""event"",""trial"",""time""
""fullscreenenter"",""1"",""2421""
","
","","","1214.2000000476837","","","10","12452","385","&#9752;","elianto","#f73b6a7A"," "," ","1","0","[2064.600000023842]","1","1","","","12452","11","3","3","lose","go","0"
"pit-trial","129","980261","0.0-15.0","battery-v0.2","","""event"",""trial"",""time""
""fullscreenenter"",""1"",""2421""
","
","
","""event"",""trial"",""time""
""fullscreenenter"",""1"",""2421""
","
","","","1330.5","","","10","12452","385","&#9733;","elianto","#3366ff99","-1"," ","0","0","[2181.600000023842]","1","1","","","12452","12","2","2","win","no-go","0"
"pit-trial","130","984489","0.0-16.0","battery-v0.2","","""event"",""trial"",""time""
""fullscreenenter"",""1"",""2421""
","
","
","""event"",""trial"",""time""
""fullscreenenter"",""1"",""2421""
","
","","","1374.199999988079","","","10","12452","385","&#9730;","elianto","#3366ff99"," "," ","1","+10","[2225.100000023842]","1","1","","","12452","13","1","1","win","go","0"
"pit-trial","131","988547","0.0-17.0","battery-v0.2","","""event"",""trial"",""time""
""fullscreenenter"",""1"",""2421""
","
","
","""event"",""trial"",""time""
""fullscreenenter"",""1"",""2421""
","
","","","1204.9000000357628","","","10","12452","385","&#9733;","elianto","#3366ff99","-1"," ","0","0","[2055.600000023842]","1","1","","","12452","14","2","2","win","no-go","0"
"pit-trial","132","993400","0.0-18.0","battery-v0.2","","""event"",""trial"",""time""
""fullscreenenter"",""1"",""2421""
","
","
","""event"",""trial"",""time""
""fullscreenenter"",""1"",""2421""
","
","","","-1","","","10","12452","385","&#9728;","elianto","#f73b6a7A","-1","-1","1","0","[]","0","1","","","12452","15","0","4","lose","no-go","0"
"pit-trial","133","997779","0.0-19.0","battery-v0.2","","""event"",""trial"",""time""
""fullscreenenter"",""1"",""2421""
","
","
","""event"",""trial"",""time""
""fullscreenenter"",""1"",""2421""
","
","","","1526.800000011921","","","10","12452","385","&#9752;","elianto","#f73b6a7A"," "," ","1","0","[2377.300000011921,3590.900000035763]","2","1","","","12452","16","3","3","lose","go","0"
"pit-trial","134","1001259","0.0-20.0","battery-v0.2","","""event"",""trial"",""time""
""fullscreenenter"",""1"",""2421""
""blur"",""135"",""1004416""
","""event"",""trial"",""time""
""blur"",""135"",""1004416""
","
","""event"",""trial"",""time""
""fullscreenenter"",""1"",""2421""
","
","","","626.6999999880791","","","10","12452","385","&#9733;","elianto","#3366ff99","-1"," ","0","0","[321.19999998807907,778.8999999761581,1477.3999999761581,1580.699999988079]","4","1","","","12452","17","2","2","win","no-go","0"
"pit-trial","135","1005966","0.0-21.0","battery-v0.2","","""event"",""trial"",""time""
""fullscreenenter"",""1"",""2421""
""blur"",""135"",""1004416""
""focus"",""136"",""1007496""
","""event"",""trial"",""time""
""blur"",""135"",""1004416""
","""event"",""trial"",""time""
""focus"",""136"",""1007496""
","""event"",""trial"",""time""
""fullscreenenter"",""1"",""2421""
","
","","","1759","","","10","12452","385","&#9728;","elianto","#f73b6a7A","-1"," ","0","-10","[2610.099999964237]","1","1","","","12452","18","0","4","lose","no-go","0"
"pit-trial","136","1010820","0.0-22.0","battery-v0.2","","""event"",""trial"",""time""
""fullscreenenter"",""1"",""2421""
""blur"",""135"",""1004416""
""focus"",""136"",""1007496""
","""event"",""trial"",""time""
""blur"",""135"",""1004416""
","""event"",""trial"",""time""
""focus"",""136"",""1007496""
","""event"",""trial"",""time""
""fullscreenenter"",""1"",""2421""
","
","","","-1","","","10","12452","385","&#9752;","elianto","#f73b6a7A"," ","-1","0","-10","[]","0","1","","","12452","19","3","3","lose","go","0"
"pit-trial","137","1014073","0.0-23.0","battery-v0.2","","""event"",""trial"",""time""
""fullscreenenter"",""1"",""2421""
""blur"",""135"",""1004416""
""focus"",""136"",""1007496""
","""event"",""trial"",""time""
""blur"",""135"",""1004416""
","""event"",""trial"",""time""
""focus"",""136"",""1007496""
","""event"",""trial"",""time""
""fullscreenenter"",""1"",""2421""
","
","","","399.2000000476837","","","10","12452","385","&#9730;","elianto","#3366ff99"," "," ","1","+10","[1251]","1","1","","","12452","20","1","1","win","go","0"
"pit-instructions","138","1032652","0.0-24.0","battery-v0.2","","""event"",""trial"",""time""
""fullscreenenter"",""1"",""2421""
""blur"",""135"",""1004416""
""focus"",""136"",""1007496""
","""event"",""trial"",""time""
""blur"",""135"",""1004416""
","""event"",""trial"",""time""
""focus"",""136"",""1007496""
","""event"",""trial"",""time""
""fullscreenenter"",""1"",""2421""
","
","","[{""page_index"":0,""viewing_time"":9553.099999964237},{""page_index"":1,""viewing_time"":9024.199999988079}]","18578.799999952316","","","","","","","","","","","","","","","","","","","","","","","",""
"pit-trial","139","1036864","0.0-25.0","battery-v0.2","","""event"",""trial"",""time""
""fullscreenenter"",""1"",""2421""
""blur"",""135"",""1004416""
""focus"",""136"",""1007496""
","""event"",""trial"",""time""
""blur"",""135"",""1004416""
","""event"",""trial"",""time""
""focus"",""136"",""1007496""
","""event"",""trial"",""time""
""fullscreenenter"",""1"",""2421""
","
","","","1345.6000000238419","","","10","12452","385","f","elianto","#3366ff99","-1"," ","0","+10","[2197]","1","2","","","12452","21","1","2","win","no-go","1"
"pit-trial","140","1041730","0.0-26.0","battery-v0.2","","""event"",""trial"",""time""
""fullscreenenter"",""1"",""2421""
""blur"",""135"",""1004416""
""focus"",""136"",""1007496""
","""event"",""trial"",""time""
""blur"",""135"",""1004416""
","""event"",""trial"",""time""
""focus"",""136"",""1007496""
","""event"",""trial"",""time""
""fullscreenenter"",""1"",""2421""
","
","","","-1","","","10","12452","385","t","elianto","#f73b6a7A"," ","-1","0","-10","[]","0","2","","","12452","22","2","3","lose","go","0"
"pit-trial","141","1046606","0.0-27.0","battery-v0.2","","""event"",""trial"",""time""
""fullscreenenter"",""1"",""2421""
""blur"",""135"",""1004416""
""focus"",""136"",""1007496""
","""event"",""trial"",""time""
""blur"",""135"",""1004416""
","""event"",""trial"",""time""
""focus"",""136"",""1007496""
","""event"",""trial"",""time""
""fullscreenenter"",""1"",""2421""
","
","","","-1","","","10","12452","385","n","elianto","#f73b6a7A"," ","-1","0","-10","[]","0","2","","","12452","23","0","3","lose","go","0"
"pit-trial","142","1050513","0.0-28.0","battery-v0.2","","""event"",""trial"",""time""
""fullscreenenter"",""1"",""2421""
""blur"",""135"",""1004416""
""focus"",""136"",""1007496""
","""event"",""trial"",""time""
""blur"",""135"",""1004416""
","""event"",""trial"",""time""
""focus"",""136"",""1007496""
","""event"",""trial"",""time""
""fullscreenenter"",""1"",""2421""
","
","","","1039.0999999642372","","","10","12452","385","b","elianto","#f73b6a7A","-1"," ","0","0","[1895.9000000357628]","1","2","","","12452","24","3","4","lose","no-go","1"
"pit-trial","143","1054073","0.0-29.0","battery-v0.2","","""event"",""trial"",""time""
""fullscreenenter"",""1"",""2421""
""blur"",""135"",""1004416""
""focus"",""136"",""1007496""
","""event"",""trial"",""time""
""blur"",""135"",""1004416""
","""event"",""trial"",""time""
""focus"",""136"",""1007496""
","""event"",""trial"",""time""
""fullscreenenter"",""1"",""2421""
","
","","","697.8999999761581","","","10","12452","385","f","elianto","#3366ff99","-1"," ","0","0","[1551.699999988079]","1","2","","","12452","25","1","2","win","no-go","0"
"pit-trial","144","1058951","0.0-30.0","battery-v0.2","","""event"",""trial"",""time""
""fullscreenenter"",""1"",""2421""
""blur"",""135"",""1004416""
""focus"",""136"",""1007496""
","""event"",""trial"",""time""
""blur"",""135"",""1004416""
","""event"",""trial"",""time""
""focus"",""136"",""1007496""
","""event"",""trial"",""time""
""fullscreenenter"",""1"",""2421""
","
","","","-1","","","10","12452","385","n","elianto","#f73b6a7A"," ","-1","0","-10","[]","0","2","","","12452","26","0","3","lose","go","0"
"pit-trial","145","1062459","0.0-31.0","battery-v0.2","","""event"",""trial"",""time""
""fullscreenenter"",""1"",""2421""
""blur"",""135"",""1004416""
""focus"",""136"",""1007496""
","""event"",""trial"",""time""
""blur"",""135"",""1004416""
","""event"",""trial"",""time""
""focus"",""136"",""1007496""
","""event"",""trial"",""time""
""fullscreenenter"",""1"",""2421""
","
","","","653.8000000119209","","","10","12452","385","b","elianto","#f73b6a7A","-1"," ","0","-10","[1504.699999988079]","1","2","","","12452","27","3","4","lose","no-go","0"
"pit-trial","146","1066138","0.0-32.0","battery-v0.2","","""event"",""trial"",""time""
""fullscreenenter"",""1"",""2421""
""blur"",""135"",""1004416""
""focus"",""136"",""1007496""
","""event"",""trial"",""time""
""blur"",""135"",""1004416""
","""event"",""trial"",""time""
""focus"",""136"",""1007496""
","""event"",""trial"",""time""
""fullscreenenter"",""1"",""2421""
","
","","","824","","","10","12452","385","t","elianto","#f73b6a7A"," "," ","1","-10","[1675.1000000238419,3550.699999988079]","2","2","","","12452","28","2","3","lose","go","1"
"pit-trial","147","1070993","0.0-33.0","battery-v0.2","","""event"",""trial"",""time""
""fullscreenenter"",""1"",""2421""
""blur"",""135"",""1004416""
""focus"",""136"",""1007496""
","""event"",""trial"",""time""
""blur"",""135"",""1004416""
","""event"",""trial"",""time""
""focus"",""136"",""1007496""
","""event"",""trial"",""time""
""fullscreenenter"",""1"",""2421""
","
","","","-1","","","10","12452","385","t","elianto","#f73b6a7A"," ","-1","0","-10","[]","0","2","","","12452","29","2","3","lose","go","0"
"pit-trial","148","1074573","0.0-34.0","battery-v0.2","","""event"",""trial"",""time""
""fullscreenenter"",""1"",""2421""
""blur"",""135"",""1004416""
""focus"",""136"",""1007496""
","""event"",""trial"",""time""
""blur"",""135"",""1004416""
","""event"",""trial"",""time""
""focus"",""136"",""1007496""
","""event"",""trial"",""time""
""fullscreenenter"",""1"",""2421""
","
","","","723.8000000119209","","","10","12452","385","f","elianto","#3366ff99","-1"," ","0","0","[1575.300000011921]","1","2","","","12452","30","1","2","win","no-go","0"
"pit-trial","149","1079436","0.0-35.0","battery-v0.2","","""event"",""trial"",""time""
""fullscreenenter"",""1"",""2421""
""blur"",""135"",""1004416""
""focus"",""136"",""1007496""
","""event"",""trial"",""time""
""blur"",""135"",""1004416""
","""event"",""trial"",""time""
""focus"",""136"",""1007496""
","""event"",""trial"",""time""
""fullscreenenter"",""1"",""2421""
","
","","","-1","","","10","12452","385","b","elianto","#f73b6a7A","-1","-1","1","0","[]","0","2","","","12452","31","3","4","lose","no-go","0"
"pit-trial","150","1084025","0.0-36.0","battery-v0.2","","""event"",""trial"",""time""
""fullscreenenter"",""1"",""2421""
""blur"",""135"",""1004416""
""focus"",""136"",""1007496""
","""event"",""trial"",""time""
""blur"",""135"",""1004416""
","""event"",""trial"",""time""
""focus"",""136"",""1007496""
","""event"",""trial"",""time""
""fullscreenenter"",""1"",""2421""
","
","","","1734.1000000238419","","","10","12452","385","n","elianto","#f73b6a7A"," "," ","1","0","[2584.5,3318.100000023842]","2","2","","","12452","32","0","3","lose","go","0"
"pit-trial","151","1088879","0.0-37.0","battery-v0.2","","""event"",""trial"",""time""
""fullscreenenter"",""1"",""2421""
""blur"",""135"",""1004416""
""focus"",""136"",""1007496""
","""event"",""trial"",""time""
""blur"",""135"",""1004416""
","""event"",""trial"",""time""
""focus"",""136"",""1007496""
","""event"",""trial"",""time""
""fullscreenenter"",""1"",""2421""
","
","","","-1","","","10","12452","385","t","elianto","#f73b6a7A"," ","-1","0","-10","[]","0","2","","","12452","33","2","3","lose","go","0"
"pit-trial","152","1093733","0.0-38.0","battery-v0.2","","""event"",""trial"",""time""
""fullscreenenter"",""1"",""2421""
""blur"",""135"",""1004416""
""focus"",""136"",""1007496""
","""event"",""trial"",""time""
""blur"",""135"",""1004416""
","""event"",""trial"",""time""
""focus"",""136"",""1007496""
","""event"",""trial"",""time""
""fullscreenenter"",""1"",""2421""
","
","","","-1","","","10","12452","385","f","elianto","#3366ff99","-1","-1","1","0","[]","0","2","","","12452","34","1","2","win","no-go","1"
"pit-trial","153","1097536","0.0-39.0","battery-v0.2","","""event"",""trial"",""time""
""fullscreenenter"",""1"",""2421""
""blur"",""135"",""1004416""
""focus"",""136"",""1007496""
","""event"",""trial"",""time""
""blur"",""135"",""1004416""
","""event"",""trial"",""time""
""focus"",""136"",""1007496""
","""event"",""trial"",""time""
""fullscreenenter"",""1"",""2421""
","
","","","949.2000000476837","","","10","12452","385","b","elianto","#f73b6a7A","-1"," ","0","0","[1799.5]","1","2","","","12452","35","3","4","lose","no-go","1"
"pit-trial","154","1102388","0.0-40.0","battery-v0.2","","""event"",""trial"",""time""
""fullscreenenter"",""1"",""2421""
""blur"",""135"",""1004416""
""focus"",""136"",""1007496""
","""event"",""trial"",""time""
""blur"",""135"",""1004416""
","""event"",""trial"",""time""
""focus"",""136"",""1007496""
","""event"",""trial"",""time""
""fullscreenenter"",""1"",""2421""
","
","","","-1","","","10","12452","385","n","elianto","#f73b6a7A"," ","-1","0","-10","[]","0","2","","","12452","36","0","3","lose","go","0"
"pit-trial","155","1106389","0.0-41.0","battery-v0.2","","""event"",""trial"",""time""
""fullscreenenter"",""1"",""2421""
""blur"",""135"",""1004416""
""focus"",""136"",""1007496""
","""event"",""trial"",""time""
""blur"",""135"",""1004416""
","""event"",""trial"",""time""
""focus"",""136"",""1007496""
","""event"",""trial"",""time""
""fullscreenenter"",""1"",""2421""
","
","","","1148.1000000238419","","","10","12452","385","t","elianto","#f73b6a7A"," "," ","1","0","[1999,2549.7999999523163,2821.599999964237,3046.699999988079,3456.199999988079,3726.199999988079,3908.699999988079]","7","2","","","12452","37","2","3","lose","go","0"
"pit-trial","156","1111242","0.0-42.0","battery-v0.2","","""event"",""trial"",""time""
""fullscreenenter"",""1"",""2421""
""blur"",""135"",""1004416""
""focus"",""136"",""1007496""
","""event"",""trial"",""time""
""blur"",""135"",""1004416""
","""event"",""trial"",""time""
""focus"",""136"",""1007496""
","""event"",""trial"",""time""
""fullscreenenter"",""1"",""2421""
","
","","","-1","","","10","12452","385","n","elianto","#f73b6a7A"," ","-1","0","0","[79.69999998807907]","1","2","","","12452","38","0","3","lose","go","1"
"pit-trial","157","1115311","0.0-43.0","battery-v0.2","","""event"",""trial"",""time""
""fullscreenenter"",""1"",""2421""
""blur"",""135"",""1004416""
""focus"",""136"",""1007496""
","""event"",""trial"",""time""
""blur"",""135"",""1004416""
","""event"",""trial"",""time""
""focus"",""136"",""1007496""
","""event"",""trial"",""time""
""fullscreenenter"",""1"",""2421""
","
","","","1215.5","","","10","12452","385","f","elianto","#3366ff99","-1"," ","0","0","[2066]","1","2","","","12452","39","1","2","win","no-go","0"
"pit-trial","158","1120165","0.0-44.0","battery-v0.2","","""event"",""trial"",""time""
""fullscreenenter"",""1"",""2421""
""blur"",""135"",""1004416""
""focus"",""136"",""1007496""
","""event"",""trial"",""time""
""blur"",""135"",""1004416""
","""event"",""trial"",""time""
""focus"",""136"",""1007496""
","""event"",""trial"",""time""
""fullscreenenter"",""1"",""2421""
","
","","","-1","","","10","12452","385","b","elianto","#f73b6a7A","-1","-1","1","-10","[]","0","2","","","12452","40","3","4","lose","no-go","1"
"pit-trial","159","1123194","0.0-45.0","battery-v0.2","","""event"",""trial"",""time""
""fullscreenenter"",""1"",""2421""
""blur"",""135"",""1004416""
""focus"",""136"",""1007496""
","""event"",""trial"",""time""
""blur"",""135"",""1004416""
","""event"",""trial"",""time""
""focus"",""136"",""1007496""
","""event"",""trial"",""time""
""fullscreenenter"",""1"",""2421""
","
","","","176.10000002384186","","","10","12452","385","f","elianto","#3366ff99","-1"," ","0","0","[403.10000002384186,1027.6000000238419]","2","2","","","12452","41","1","2","win","no-go","0"
"pit-trial","160","1128048","0.0-46.0","battery-v0.2","","""event"",""trial"",""time""
""fullscreenenter"",""1"",""2421""
""blur"",""135"",""1004416""
""focus"",""136"",""1007496""
","""event"",""trial"",""time""
""blur"",""135"",""1004416""
","""event"",""trial"",""time""
""focus"",""136"",""1007496""
","""event"",""trial"",""time""
""fullscreenenter"",""1"",""2421""
","
","","","-1","","","10","12452","385","n","elianto","#f73b6a7A"," ","-1","0","-10","[]","0","2","","","12452","42","0","3","lose","go","0"
"pit-trial","161","1132526","0.0-47.0","battery-v0.2","","""event"",""trial"",""time""
""fullscreenenter"",""1"",""2421""
""blur"",""135"",""1004416""
""focus"",""136"",""1007496""
","""event"",""trial"",""time""
""blur"",""135"",""1004416""
","""event"",""trial"",""time""
""focus"",""136"",""1007496""
","""event"",""trial"",""time""
""fullscreenenter"",""1"",""2421""
","
","","","1622.300000011921","","","10","12452","385","b","elianto","#f73b6a7A","-1"," ","0","-10","[2475.699999988079]","1","2","","","12452","43","3","4","lose","no-go","0"
"pit-trial","162","1136709","0.0-48.0","battery-v0.2","","""event"",""trial"",""time""
""fullscreenenter"",""1"",""2421""
""blur"",""135"",""1004416""
""focus"",""136"",""1007496""
","""event"",""trial"",""time""
""blur"",""135"",""1004416""
","""event"",""trial"",""time""
""focus"",""136"",""1007496""
","""event"",""trial"",""time""
""fullscreenenter"",""1"",""2421""
","
","","","1323.7000000476837","","","10","12452","385","t","elianto","#f73b6a7A"," "," ","1","0","[2179.400000035763]","1","2","","","12452","44","2","3","lose","go","0"
"pit-trial","163","1140332","0.0-49.0","battery-v0.2","","""event"",""trial"",""time""
""fullscreenenter"",""1"",""2421""
""blur"",""135"",""1004416""
""focus"",""136"",""1007496""
","""event"",""trial"",""time""
""blur"",""135"",""1004416""
","""event"",""trial"",""time""
""focus"",""136"",""1007496""
","""event"",""trial"",""time""
""fullscreenenter"",""1"",""2421""
","
","","","769.3000000119209","","","10","12452","385","f","elianto","#3366ff99","-1"," ","0","0","[1619.699999988079]","1","2","","","12452","45","1","2","win","no-go","0"
"pit-trial","164","1145194","0.0-50.0","battery-v0.2","","""event"",""trial"",""time""
""fullscreenenter"",""1"",""2421""
""blur"",""135"",""1004416""
""focus"",""136"",""1007496""
","""event"",""trial"",""time""
""blur"",""135"",""1004416""
","""event"",""trial"",""time""
""focus"",""136"",""1007496""
","""event"",""trial"",""time""
""fullscreenenter"",""1"",""2421""
","
","","","-1","","","10","12452","385","t","elianto","#f73b6a7A"," ","-1","0","-10","[]","0","2","","","12452","46","2","3","lose","go","0"
"pit-trial","165","1150048","0.0-51.0","battery-v0.2","","""event"",""trial"",""time""
""fullscreenenter"",""1"",""2421""
""blur"",""135"",""1004416""
""focus"",""136"",""1007496""
","""event"",""trial"",""time""
""blur"",""135"",""1004416""
","""event"",""trial"",""time""
""focus"",""136"",""1007496""
","""event"",""trial"",""time""
""fullscreenenter"",""1"",""2421""
","
","","","-1","","","10","12452","385","b","elianto","#f73b6a7A","-1","-1","1","0","[]","0","2","","","12452","47","3","4","lose","no-go","0"
"pit-trial","166","1154903","0.0-52.0","battery-v0.2","","""event"",""trial"",""time""
""fullscreenenter"",""1"",""2421""
""blur"",""135"",""1004416""
""focus"",""136"",""1007496""
","""event"",""trial"",""time""
""blur"",""135"",""1004416""
","""event"",""trial"",""time""
""focus"",""136"",""1007496""
","""event"",""trial"",""time""
""fullscreenenter"",""1"",""2421""
","
","","","-1","","","10","12452","385","n","elianto","#f73b6a7A"," ","-1","0","-10","[]","0","2","","","12452","48","0","3","lose","go","0"
"pit-trial","167","1159756","0.0-53.0","battery-v0.2","","""event"",""trial"",""time""
""fullscreenenter"",""1"",""2421""
""blur"",""135"",""1004416""
""focus"",""136"",""1007496""
","""event"",""trial"",""time""
""blur"",""135"",""1004416""
","""event"",""trial"",""time""
""focus"",""136"",""1007496""
","""event"",""trial"",""time""
""fullscreenenter"",""1"",""2421""
","
","","","-1","","","10","12452","385","b","elianto","#f73b6a7A","-1","-1","1","0","[]","0","2","","","12452","49","3","4","lose","no-go","0"
"pit-trial","168","1164609","0.0-54.0","battery-v0.2","","""event"",""trial"",""time""
""fullscreenenter"",""1"",""2421""
""blur"",""135"",""1004416""
""focus"",""136"",""1007496""
","""event"",""trial"",""time""
""blur"",""135"",""1004416""
","""event"",""trial"",""time""
""focus"",""136"",""1007496""
","""event"",""trial"",""time""
""fullscreenenter"",""1"",""2421""
","
","","","-1","","","10","12452","385","f","elianto","#3366ff99","-1","-1","1","+10","[]","0","2","","","12452","50","1","2","win","no-go","0"
"pit-trial","169","1169477","0.0-55.0","battery-v0.2","","""event"",""trial"",""time""
""fullscreenenter"",""1"",""2421""
""blur"",""135"",""1004416""
""focus"",""136"",""1007496""
","""event"",""trial"",""time""
""blur"",""135"",""1004416""
","""event"",""trial"",""time""
""focus"",""136"",""1007496""
","""event"",""trial"",""time""
""fullscreenenter"",""1"",""2421""
","
","","","-1","","","10","12452","385","n","elianto","#f73b6a7A"," ","-1","0","-10","[]","0","2","","","12452","51","0","3","lose","go","0"
"pit-trial","170","1174329","0.0-56.0","battery-v0.2","","""event"",""trial"",""time""
""fullscreenenter"",""1"",""2421""
""blur"",""135"",""1004416""
""focus"",""136"",""1007496""
","""event"",""trial"",""time""
""blur"",""135"",""1004416""
","""event"",""trial"",""time""
""focus"",""136"",""1007496""
","""event"",""trial"",""time""
""fullscreenenter"",""1"",""2421""
","
","","","-1","","","10","12452","385","t","elianto","#f73b6a7A"," ","-1","0","-10","[]","0","2","","","12452","52","2","3","lose","go","0"
"pit-trial","171","1179185","0.0-57.0","battery-v0.2","","""event"",""trial"",""time""
""fullscreenenter"",""1"",""2421""
""blur"",""135"",""1004416""
""focus"",""136"",""1007496""
","""event"",""trial"",""time""
""blur"",""135"",""1004416""
","""event"",""trial"",""time""
""focus"",""136"",""1007496""
","""event"",""trial"",""time""
""fullscreenenter"",""1"",""2421""
","
","","","-1","","","10","12452","385","f","elianto","#3366ff99","-1","-1","1","+10","[]","0","2","","","12452","53","1","2","win","no-go","0"
"pit-trial","172","1184040","0.0-58.0","battery-v0.2","","""event"",""trial"",""time""
""fullscreenenter"",""1"",""2421""
""blur"",""135"",""1004416""
""focus"",""136"",""1007496""
","""event"",""trial"",""time""
""blur"",""135"",""1004416""
","""event"",""trial"",""time""
""focus"",""136"",""1007496""
","""event"",""trial"",""time""
""fullscreenenter"",""1"",""2421""
","
","","","-1","","","10","12452","385","b","elianto","#f73b6a7A","-1","-1","1","0","[]","0","2","","","12452","54","3","4","lose","no-go","0"
"pit-trial","173","1188008","0.0-59.0","battery-v0.2","","""event"",""trial"",""time""
""fullscreenenter"",""1"",""2421""
""blur"",""135"",""1004416""
""focus"",""136"",""1007496""
","""event"",""trial"",""time""
""blur"",""135"",""1004416""
","""event"",""trial"",""time""
""focus"",""136"",""1007496""
","""event"",""trial"",""time""
""fullscreenenter"",""1"",""2421""
","
","","","1115.1000000238419","","","10","12452","385","t","elianto","#f73b6a7A"," "," ","1","0","[1966.1000000238419]","1","2","","","12452","55","2","3","lose","go","0"
"pit-trial","174","1192006","0.0-60.0","battery-v0.2","","""event"",""trial"",""time""
""fullscreenenter"",""1"",""2421""
""blur"",""135"",""1004416""
""focus"",""136"",""1007496""
","""event"",""trial"",""time""
""blur"",""135"",""1004416""
","""event"",""trial"",""time""
""focus"",""136"",""1007496""
","""event"",""trial"",""time""
""fullscreenenter"",""1"",""2421""
","
","","","1144.3999999761581","","","10","12452","385","n","elianto","#f73b6a7A"," "," ","1","0","[1994.8999999761581]","1","2","","","12452","56","0","3","lose","go","0"
"pit-trial","175","1196860","0.0-61.0","battery-v0.2","","""event"",""trial"",""time""
""fullscreenenter"",""1"",""2421""
""blur"",""135"",""1004416""
""focus"",""136"",""1007496""
","""event"",""trial"",""time""
""blur"",""135"",""1004416""
","""event"",""trial"",""time""
""focus"",""136"",""1007496""
","""event"",""trial"",""time""
""fullscreenenter"",""1"",""2421""
","
","","","-1","","","10","12452","385","b","elianto","#f73b6a7A","-1","-1","1","0","[]","0","2","","","12452","57","3","4","lose","no-go","0"
"pit-trial","176","1201715","0.0-62.0","battery-v0.2","","""event"",""trial"",""time""
""fullscreenenter"",""1"",""2421""
""blur"",""135"",""1004416""
""focus"",""136"",""1007496""
","""event"",""trial"",""time""
""blur"",""135"",""1004416""
","""event"",""trial"",""time""
""focus"",""136"",""1007496""
","""event"",""trial"",""time""
""fullscreenenter"",""1"",""2421""
","
","","","-1","","","10","12452","385","n","elianto","#f73b6a7A"," ","-1","0","-10","[]","0","2","","","12452","58","0","3","lose","go","0"
"pit-trial","177","1206323","0.0-63.0","battery-v0.2","","""event"",""trial"",""time""
""fullscreenenter"",""1"",""2421""
""blur"",""135"",""1004416""
""focus"",""136"",""1007496""
","""event"",""trial"",""time""
""blur"",""135"",""1004416""
","""event"",""trial"",""time""
""focus"",""136"",""1007496""
","""event"",""trial"",""time""
""fullscreenenter"",""1"",""2421""
","
","","","1754.0999999642372","","","10","12452","385","t","elianto","#f73b6a7A"," "," ","1","0","[2604.800000011921]","1","2","","","12452","59","2","3","lose","go","0"
"pit-trial","178","1210552","0.0-64.0","battery-v0.2","","""event"",""trial"",""time""
""fullscreenenter"",""1"",""2421""
""blur"",""135"",""1004416""
""focus"",""136"",""1007496""
","""event"",""trial"",""time""
""blur"",""135"",""1004416""
","""event"",""trial"",""time""
""focus"",""136"",""1007496""
","""event"",""trial"",""time""
""fullscreenenter"",""1"",""2421""
","
","","","1376.5999999642372","","","10","12452","385","c","elianto","#3366ff99"," "," ","1","+10","[2228.100000023842]","1","2","","","12452","60","4","1","win","go","0"
"pit-trial","179","1214044","0.0-65.0","battery-v0.2","","""event"",""trial"",""time""
""fullscreenenter"",""1"",""2421""
""blur"",""135"",""1004416""
""focus"",""136"",""1007496""
","""event"",""trial"",""time""
""blur"",""135"",""1004416""
","""event"",""trial"",""time""
""focus"",""136"",""1007496""
","""event"",""trial"",""time""
""fullscreenenter"",""1"",""2421""
","
","","","639.1000000238419","","","10","12452","385","c","elianto","#3366ff99"," "," ","1","+10","[1489.5]","1","2","","","12452","61","4","1","win","go","0"
"pit-trial","180","1217641","0.0-66.0","battery-v0.2","","""event"",""trial"",""time""
""fullscreenenter"",""1"",""2421""
""blur"",""135"",""1004416""
""focus"",""136"",""1007496""
","""event"",""trial"",""time""
""blur"",""135"",""1004416""
","""event"",""trial"",""time""
""focus"",""136"",""1007496""
","""event"",""trial"",""time""
""fullscreenenter"",""1"",""2421""
","
","","","732.5999999642372","","","10","12452","385","f","elianto","#3366ff99","-1"," ","0","0","[1585.7999999523163]","1","2","","","12452","62","1","2","win","no-go","0"
"pit-trial","181","1222497","0.0-67.0","battery-v0.2","","""event"",""trial"",""time""
""fullscreenenter"",""1"",""2421""
""blur"",""135"",""1004416""
""focus"",""136"",""1007496""
","""event"",""trial"",""time""
""blur"",""135"",""1004416""
","""event"",""trial"",""time""
""focus"",""136"",""1007496""
","""event"",""trial"",""time""
""fullscreenenter"",""1"",""2421""
","
","","","-1","","","10","12452","385","t","elianto","#f73b6a7A"," ","-1","0","-10","[]","0","2","","","12452","63","2","3","lose","go","0"
"pit-trial","182","1227350","0.0-68.0","battery-v0.2","","""event"",""trial"",""time""
""fullscreenenter"",""1"",""2421""
""blur"",""135"",""1004416""
""focus"",""136"",""1007496""
","""event"",""trial"",""time""
""blur"",""135"",""1004416""
","""event"",""trial"",""time""
""focus"",""136"",""1007496""
","""event"",""trial"",""time""
""fullscreenenter"",""1"",""2421""
","
","","","-1","","","10","12452","385","b","elianto","#f73b6a7A","-1","-1","1","0","[]","0","2","","","12452","64","3","4","lose","no-go","0"
"pit-trial","183","1230973","0.0-69.0","battery-v0.2","","""event"",""trial"",""time""
""fullscreenenter"",""1"",""2421""
""blur"",""135"",""1004416""
""focus"",""136"",""1007496""
","""event"",""trial"",""time""
""blur"",""135"",""1004416""
","""event"",""trial"",""time""
""focus"",""136"",""1007496""
","""event"",""trial"",""time""
""fullscreenenter"",""1"",""2421""
","
","","","759.6999999880791","","","10","12452","385","c","elianto","#3366ff99"," "," ","1","0","[1618.5999999642372,2515.099999964237,2779.800000011921,3034.599999964237,3384]","5","2","","","12452","65","4","1","win","go","1"
"pit-trial","184","1234700","0.0-70.0","battery-v0.2","","""event"",""trial"",""time""
""fullscreenenter"",""1"",""2421""
""blur"",""135"",""1004416""
""focus"",""136"",""1007496""
","""event"",""trial"",""time""
""blur"",""135"",""1004416""
","""event"",""trial"",""time""
""focus"",""136"",""1007496""
","""event"",""trial"",""time""
""fullscreenenter"",""1"",""2421""
","
","","","874.1000000238419","","","10","12452","385","z","elianto","#3366ff99","-1"," ","0","0","[1724.199999988079,2132.2999999523163]","2","2","","","12452","66","5","2","win","no-go","0"
"pit-trial","185","1237751","0.0-71.0","battery-v0.2","","""event"",""trial"",""time""
""fullscreenenter"",""1"",""2421""
""blur"",""135"",""1004416""
""focus"",""136"",""1007496""
","""event"",""trial"",""time""
""blur"",""135"",""1004416""
","""event"",""trial"",""time""
""focus"",""136"",""1007496""
","""event"",""trial"",""time""
""fullscreenenter"",""1"",""2421""
","
","","","197.30000001192093","","","10","12452","385","f","elianto","#3366ff99","-1"," ","0","+10","[1047.3999999761581,1473.3999999761581]","2","2","","","12452","67","1","2","win","no-go","1"
"pit-trial","186","1242441","0.0-72.0","battery-v0.2","","""event"",""trial"",""time""
""fullscreenenter"",""1"",""2421""
""blur"",""135"",""1004416""
""focus"",""136"",""1007496""
","""event"",""trial"",""time""
""blur"",""135"",""1004416""
","""event"",""trial"",""time""
""focus"",""136"",""1007496""
","""event"",""trial"",""time""
""fullscreenenter"",""1"",""2421""
","
","","","1836.3999999761581","","","10","12452","385","b","elianto","#f73b6a7A","-1"," ","0","0","[2686.5,3222.100000023842,3677.300000011921]","3","2","","","12452","68","3","4","lose","no-go","1"
"pit-trial","187","1246801","0.0-73.0","battery-v0.2","","""event"",""trial"",""time""
""fullscreenenter"",""1"",""2421""
""blur"",""135"",""1004416""
""focus"",""136"",""1007496""
","""event"",""trial"",""time""
""blur"",""135"",""1004416""
","""event"",""trial"",""time""
""focus"",""136"",""1007496""
","""event"",""trial"",""time""
""fullscreenenter"",""1"",""2421""
","
","","","1507.2000000476837","","","10","12452","385","f","elianto","#3366ff99","-1"," ","0","0","[2357.600000023842,3975.2000000476837]","2","2","","","12452","69","1","2","win","no-go","0"
"pit-trial","188","1250683","0.0-74.0","battery-v0.2","","""event"",""trial"",""time""
""fullscreenenter"",""1"",""2421""
""blur"",""135"",""1004416""
""focus"",""136"",""1007496""
","""event"",""trial"",""time""
""blur"",""135"",""1004416""
","""event"",""trial"",""time""
""focus"",""136"",""1007496""
","""event"",""trial"",""time""
""fullscreenenter"",""1"",""2421""
","
","","","1028.6000000238419","","","10","12452","385","c","elianto","#3366ff99"," "," ","1","+10","[1879.199999988079,2788.800000011921]","2","2","","","12452","70","4","1","win","go","0"
"pit-trial","189","1253976","0.0-75.0","battery-v0.2","","""event"",""trial"",""time""
""fullscreenenter"",""1"",""2421""
""blur"",""135"",""1004416""
""focus"",""136"",""1007496""
","""event"",""trial"",""time""
""blur"",""135"",""1004416""
","""event"",""trial"",""time""
""focus"",""136"",""1007496""
","""event"",""trial"",""time""
""fullscreenenter"",""1"",""2421""
","
","","","440.10000002384186","","","10","12452","385","z","elianto","#3366ff99","-1"," ","0","0","[1290.5,2836.900000035763]","2","2","","","12452","71","5","2","win","no-go","0"
"pit-trial","190","1257970","0.0-76.0","battery-v0.2","","""event"",""trial"",""time""
""fullscreenenter"",""1"",""2421""
""blur"",""135"",""1004416""
""focus"",""136"",""1007496""
","""event"",""trial"",""time""
""blur"",""135"",""1004416""
","""event"",""trial"",""time""
""focus"",""136"",""1007496""
","""event"",""trial"",""time""
""fullscreenenter"",""1"",""2421""
","
","","","1141.300000011921","","","10","12452","385","t","elianto","#f73b6a7A"," "," ","1","0","[1992.199999988079]","1","2","","","12452","72","2","3","lose","go","0"
"pit-trial","191","1261675","0.0-77.0","battery-v0.2","","""event"",""trial"",""time""
""fullscreenenter"",""1"",""2421""
""blur"",""135"",""1004416""
""focus"",""136"",""1007496""
","""event"",""trial"",""time""
""blur"",""135"",""1004416""
","""event"",""trial"",""time""
""focus"",""136"",""1007496""
","""event"",""trial"",""time""
""fullscreenenter"",""1"",""2421""
","
","","","849","","","10","12452","385","c","elianto","#3366ff99"," "," ","1","+10","[1700]","1","2","","","12452","73","4","1","win","go","0"
"pit-trial","192","1266532","0.0-78.0","battery-v0.2","","""event"",""trial"",""time""
""fullscreenenter"",""1"",""2421""
""blur"",""135"",""1004416""
""focus"",""136"",""1007496""
","""event"",""trial"",""time""
""blur"",""135"",""1004416""
","""event"",""trial"",""time""
""focus"",""136"",""1007496""
","""event"",""trial"",""time""
""fullscreenenter"",""1"",""2421""
","
","","","-1","","","10","12452","385","f","elianto","#3366ff99","-1","-1","1","+10","[277.9000000357628]","1","2","","","12452","74","1","2","win","no-go","0"
"pit-trial","193","1270758","0.0-79.0","battery-v0.2","","""event"",""trial"",""time""
""fullscreenenter"",""1"",""2421""
""blur"",""135"",""1004416""
""focus"",""136"",""1007496""
","""event"",""trial"",""time""
""blur"",""135"",""1004416""
","""event"",""trial"",""time""
""focus"",""136"",""1007496""
","""event"",""trial"",""time""
""fullscreenenter"",""1"",""2421""
","
","","","1370.699999988079","","","10","12452","385","b","elianto","#f73b6a7A","-1"," ","0","-10","[2221.399999976158]","1","2","","","12452","75","3","4","lose","no-go","0"
"pit-trial","194","1275615","0.0-80.0","battery-v0.2","","""event"",""trial"",""time""
""fullscreenenter"",""1"",""2421""
""blur"",""135"",""1004416""
""focus"",""136"",""1007496""
","""event"",""trial"",""time""
""blur"",""135"",""1004416""
","""event"",""trial"",""time""
""focus"",""136"",""1007496""
","""event"",""trial"",""time""
""fullscreenenter"",""1"",""2421""
","
","","","-1","","","10","12452","385","z","elianto","#3366ff99","-1","-1","1","0","[]","0","2","","","12452","76","5","2","win","no-go","1"
"pit-trial","195","1278790","0.0-81.0","battery-v0.2","","""event"",""trial"",""time""
""fullscreenenter"",""1"",""2421""
""blur"",""135"",""1004416""
""focus"",""136"",""1007496""
","""event"",""trial"",""time""
""blur"",""135"",""1004416""
","""event"",""trial"",""time""
""focus"",""136"",""1007496""
","""event"",""trial"",""time""
""fullscreenenter"",""1"",""2421""
","
","","","319.5","","","10","12452","385","c","elianto","#3366ff99"," "," ","1","+10","[1170.800000011921]","1","2","","","12452","77","4","1","win","go","0"
"pit-trial","196","1283643","0.0-82.0","battery-v0.2","","""event"",""trial"",""time""
""fullscreenenter"",""1"",""2421""
""blur"",""135"",""1004416""
""focus"",""136"",""1007496""
","""event"",""trial"",""time""
""blur"",""135"",""1004416""
","""event"",""trial"",""time""
""focus"",""136"",""1007496""
","""event"",""trial"",""time""
""fullscreenenter"",""1"",""2421""
","
","","","-1","","","10","12452","385","b","elianto","#f73b6a7A","-1","-1","1","0","[395.9000000357628]","1","2","","","12452","78","3","4","lose","no-go","0"
"pit-trial","197","1288231","0.0-83.0","battery-v0.2","","""event"",""trial"",""time""
""fullscreenenter"",""1"",""2421""
""blur"",""135"",""1004416""
""focus"",""136"",""1007496""
","""event"",""trial"",""time""
""blur"",""135"",""1004416""
","""event"",""trial"",""time""
""focus"",""136"",""1007496""
","""event"",""trial"",""time""
""fullscreenenter"",""1"",""2421""
","
","","","1733.3999999761581","","","10","12452","385","z","elianto","#3366ff99","-1"," ","0","0","[2585.099999964237,3333.300000011921,3850.399999976158,4144.300000011921,4441.699999988079]","5","2","","","12452","79","5","2","win","no-go","0"
"pit-trial","198","1291235","0.0-84.0","battery-v0.2","","""event"",""trial"",""time""
""fullscreenenter"",""1"",""2421""
""blur"",""135"",""1004416""
""focus"",""136"",""1007496""
","""event"",""trial"",""time""
""blur"",""135"",""1004416""
","""event"",""trial"",""time""
""focus"",""136"",""1007496""
","""event"",""trial"",""time""
""fullscreenenter"",""1"",""2421""
","
","","","148.9000000357628","","","10","12452","385","c","elianto","#3366ff99"," "," ","1","+10","[296.10000002384186,999.6000000238419]","2","2","","","12452","80","4","1","win","go","0"
"pit-trial","199","1296091","0.0-85.0","battery-v0.2","","""event"",""trial"",""time""
""fullscreenenter"",""1"",""2421""
""blur"",""135"",""1004416""
""focus"",""136"",""1007496""
","""event"",""trial"",""time""
""blur"",""135"",""1004416""
","""event"",""trial"",""time""
""focus"",""136"",""1007496""
","""event"",""trial"",""time""
""fullscreenenter"",""1"",""2421""
","
","","","-1","","","10","12452","385","y","elianto","#f73b6a7A","-1","-1","1","-10","[]","0","2","","","12452","81","7","4","lose","no-go","1"
"pit-trial","200","1300271","0.0-86.0","battery-v0.2","","""event"",""trial"",""time""
""fullscreenenter"",""1"",""2421""
""blur"",""135"",""1004416""
""focus"",""136"",""1007496""
","""event"",""trial"",""time""
""blur"",""135"",""1004416""
","""event"",""trial"",""time""
""focus"",""136"",""1007496""
","""event"",""trial"",""time""
""fullscreenenter"",""1"",""2421""
","
","","","1325.800000011921","","","10","12452","385","z","elianto","#3366ff99","-1"," ","0","0","[2177.099999964237]","1","2","","","12452","82","5","2","win","no-go","0"
"pit-trial","201","1304254","0.0-87.0","battery-v0.2","","""event"",""trial"",""time""
""fullscreenenter"",""1"",""2421""
""blur"",""135"",""1004416""
""focus"",""136"",""1007496""
","""event"",""trial"",""time""
""blur"",""135"",""1004416""
","""event"",""trial"",""time""
""focus"",""136"",""1007496""
","""event"",""trial"",""time""
""fullscreenenter"",""1"",""2421""
","
","","","1129.5","","","10","12452","385","c","elianto","#3366ff99"," "," ","1","+10","[1980.1000000238419]","1","2","","","12452","83","4","1","win","go","0"
"pit-trial","202","1309110","0.0-88.0","battery-v0.2","","""event"",""trial"",""time""
""fullscreenenter"",""1"",""2421""
""blur"",""135"",""1004416""
""focus"",""136"",""1007496""
","""event"",""trial"",""time""
""blur"",""135"",""1004416""
","""event"",""trial"",""time""
""focus"",""136"",""1007496""
","""event"",""trial"",""time""
""fullscreenenter"",""1"",""2421""
","
","","","-1","","","10","12452","385","b","elianto","#f73b6a7A","-1","-1","1","0","[]","0","2","","","12452","84","3","4","lose","no-go","0"
"pit-trial","203","1312855","0.0-89.0","battery-v0.2","","""event"",""trial"",""time""
""fullscreenenter"",""1"",""2421""
""blur"",""135"",""1004416""
""focus"",""136"",""1007496""
","""event"",""trial"",""time""
""blur"",""135"",""1004416""
","""event"",""trial"",""time""
""focus"",""136"",""1007496""
","""event"",""trial"",""time""
""fullscreenenter"",""1"",""2421""
","
","","","892.1999999880791","","","10","12452","385","z","elianto","#3366ff99","-1"," ","0","0","[1742.4000000357628]","1","2","","","12452","85","5","2","win","no-go","0"
"pit-trial","204","1317021","0.0-90.0","battery-v0.2","","""event"",""trial"",""time""
""fullscreenenter"",""1"",""2421""
""blur"",""135"",""1004416""
""focus"",""136"",""1007496""
","""event"",""trial"",""time""
""blur"",""135"",""1004416""
","""event"",""trial"",""time""
""focus"",""136"",""1007496""
","""event"",""trial"",""time""
""fullscreenenter"",""1"",""2421""
","
","","","1310.300000011921","","","10","12452","385","c","elianto","#3366ff99"," "," ","1","+10","[2160.300000011921]","1","2","","","12452","86","4","1","win","go","0"
"pit-trial","205","1321877","0.0-91.0","battery-v0.2","","""event"",""trial"",""time""
""fullscreenenter"",""1"",""2421""
""blur"",""135"",""1004416""
""focus"",""136"",""1007496""
","""event"",""trial"",""time""
""blur"",""135"",""1004416""
","""event"",""trial"",""time""
""focus"",""136"",""1007496""
","""event"",""trial"",""time""
""fullscreenenter"",""1"",""2421""
","
","","","-1","","","10","12452","385","y","elianto","#f73b6a7A","-1","-1","1","0","[]","0","2","","","12452","87","7","4","lose","no-go","0"
"pit-trial","206","1326731","0.0-92.0","battery-v0.2","","""event"",""trial"",""time""
""fullscreenenter"",""1"",""2421""
""blur"",""135"",""1004416""
""focus"",""136"",""1007496""
","""event"",""trial"",""time""
""blur"",""135"",""1004416""
","""event"",""trial"",""time""
""focus"",""136"",""1007496""
","""event"",""trial"",""time""
""fullscreenenter"",""1"",""2421""
","
","","","-1","","","10","12452","385","h","elianto","#f73b6a7A"," ","-1","0","0","[2868,4345.100000023842]","2","2","","","12452","88","6","3","lose","go","1"
"pit-trial","207","1330586","0.0-93.0","battery-v0.2","","""event"",""trial"",""time""
""fullscreenenter"",""1"",""2421""
""blur"",""135"",""1004416""
""focus"",""136"",""1007496""
","""event"",""trial"",""time""
""blur"",""135"",""1004416""
","""event"",""trial"",""time""
""focus"",""136"",""1007496""
","""event"",""trial"",""time""
""fullscreenenter"",""1"",""2421""
","
","","","1000.5","","","10","12452","385","h","elianto","#f73b6a7A"," "," ","1","-10","[1852.3999999761581]","1","2","","","12452","89","6","3","lose","go","1"
"pit-trial","208","1334559","0.0-94.0","battery-v0.2","","""event"",""trial"",""time""
""fullscreenenter"",""1"",""2421""
""blur"",""135"",""1004416""
""focus"",""136"",""1007496""
","""event"",""trial"",""time""
""blur"",""135"",""1004416""
","""event"",""trial"",""time""
""focus"",""136"",""1007496""
","""event"",""trial"",""time""
""fullscreenenter"",""1"",""2421""
","
","","","1120.4000000357628","","","10","12452","385","c","elianto","#3366ff99"," "," ","1","+10","[1970.800000011921]","1","2","","","12452","90","4","1","win","go","0"
"pit-trial","209","1339389","0.0-95.0","battery-v0.2","","""event"",""trial"",""time""
""fullscreenenter"",""1"",""2421""
""blur"",""135"",""1004416""
""focus"",""136"",""1007496""
","""event"",""trial"",""time""
""blur"",""135"",""1004416""
","""event"",""trial"",""time""
""focus"",""136"",""1007496""
","""event"",""trial"",""time""
""fullscreenenter"",""1"",""2421""
","
","","","1976.2999999523163","","","10","12452","385","y","elianto","#f73b6a7A","-1"," ","0","0","[2826.5]","1","2","","","12452","91","7","4","lose","no-go","1"
"pit-trial","210","1344243","0.0-96.0","battery-v0.2","","""event"",""trial"",""time""
""fullscreenenter"",""1"",""2421""
""blur"",""135"",""1004416""
""focus"",""136"",""1007496""
","""event"",""trial"",""time""
""blur"",""135"",""1004416""
","""event"",""trial"",""time""
""focus"",""136"",""1007496""
","""event"",""trial"",""time""
""fullscreenenter"",""1"",""2421""
","
","","","-1","","","10","12452","385","z","elianto","#3366ff99","-1","-1","1","+10","[]","0","2","","","12452","92","5","2","win","no-go","0"
"pit-trial","211","1348067","0.0-97.0","battery-v0.2","","""event"",""trial"",""time""
""fullscreenenter"",""1"",""2421""
""blur"",""135"",""1004416""
""focus"",""136"",""1007496""
","""event"",""trial"",""time""
""blur"",""135"",""1004416""
","""event"",""trial"",""time""
""focus"",""136"",""1007496""
","""event"",""trial"",""time""
""fullscreenenter"",""1"",""2421""
","
","","","971","","","10","12452","385","h","elianto","#f73b6a7A"," "," ","1","-10","[1822.300000011921,2242,2881.199999988079,3101.800000011921,3314.5,3507.199999988079,3651.800000011921]","7","2","","","12452","93","6","3","lose","go","1"
"pit-trial","212","1351373","0.0-98.0","battery-v0.2","","""event"",""trial"",""time""
""fullscreenenter"",""1"",""2421""
""blur"",""135"",""1004416""
""focus"",""136"",""1007496""
","""event"",""trial"",""time""
""blur"",""135"",""1004416""
","""event"",""trial"",""time""
""focus"",""136"",""1007496""
","""event"",""trial"",""time""
""fullscreenenter"",""1"",""2421""
","
","","","453.80000001192093","","","10","12452","385","z","elianto","#3366ff99","-1"," ","0","0","[73.69999998807907,461.60000002384186,702,1304.1000000238419,2095.5,3075.600000023842]","6","2","","","12452","94","5","2","win","no-go","0"
"pit-trial","213","1355363","0.0-99.0","battery-v0.2","","""event"",""trial"",""time""
""fullscreenenter"",""1"",""2421""
""blur"",""135"",""1004416""
""focus"",""136"",""1007496""
","""event"",""trial"",""time""
""blur"",""135"",""1004416""
","""event"",""trial"",""time""
""focus"",""136"",""1007496""
","""event"",""trial"",""time""
""fullscreenenter"",""1"",""2421""
","
","","","1134.5","","","10","12452","385","r","elianto","#3366ff99"," "," ","1","0","[231.19999998807907,1985.199999988079]","2","2","","","12452","95","8","1","win","go","1"
"pit-trial","214","1360066","0.0-100.0","battery-v0.2","","""event"",""trial"",""time""
""fullscreenenter"",""1"",""2421""
""blur"",""135"",""1004416""
""focus"",""136"",""1007496""
","""event"",""trial"",""time""
""blur"",""135"",""1004416""
","""event"",""trial"",""time""
""focus"",""136"",""1007496""
","""event"",""trial"",""time""
""fullscreenenter"",""1"",""2421""
","
","","","1835.5","","","10","12452","385","y","elianto","#f73b6a7A","-1"," ","0","-10","[2687.300000011921]","1","2","","","12452","96","7","4","lose","no-go","0"
"pit-trial","215","1364919","0.0-101.0","battery-v0.2","","""event"",""trial"",""time""
""fullscreenenter"",""1"",""2421""
""blur"",""135"",""1004416""
""focus"",""136"",""1007496""
","""event"",""trial"",""time""
""blur"",""135"",""1004416""
","""event"",""trial"",""time""
""focus"",""136"",""1007496""
","""event"",""trial"",""time""
""fullscreenenter"",""1"",""2421""
","
","","","-1","","","10","12452","385","h","elianto","#f73b6a7A"," ","-1","0","-10","[]","0","2","","","12452","97","6","3","lose","go","0"
"pit-trial","216","1369642","0.0-102.0","battery-v0.2","","""event"",""trial"",""time""
""fullscreenenter"",""1"",""2421""
""blur"",""135"",""1004416""
""focus"",""136"",""1007496""
","""event"",""trial"",""time""
""blur"",""135"",""1004416""
","""event"",""trial"",""time""
""focus"",""136"",""1007496""
","""event"",""trial"",""time""
""fullscreenenter"",""1"",""2421""
","
","","","1870.5","","","10","12452","385","r","elianto","#3366ff99"," "," ","1","+10","[2720.900000035763]","1","2","","","12452","98","8","1","win","go","0"
"pit-trial","217","1374494","0.0-103.0","battery-v0.2","","""event"",""trial"",""time""
""fullscreenenter"",""1"",""2421""
""blur"",""135"",""1004416""
""focus"",""136"",""1007496""
","""event"",""trial"",""time""
""blur"",""135"",""1004416""
","""event"",""trial"",""time""
""focus"",""136"",""1007496""
","""event"",""trial"",""time""
""fullscreenenter"",""1"",""2421""
","
","","","-1","","","10","12452","385","z","elianto","#3366ff99","-1","-1","1","0","[]","0","2","","","12452","99","5","2","win","no-go","1"
"pit-trial","218","1379355","0.0-104.0","battery-v0.2","","""event"",""trial"",""time""
""fullscreenenter"",""1"",""2421""
""blur"",""135"",""1004416""
""focus"",""136"",""1007496""
","""event"",""trial"",""time""
""blur"",""135"",""1004416""
","""event"",""trial"",""time""
""focus"",""136"",""1007496""
","""event"",""trial"",""time""
""fullscreenenter"",""1"",""2421""
","
","","","-1","","","10","12452","385","y","elianto","#f73b6a7A","-1","-1","1","0","[]","0","2","","","12452","100","7","4","lose","no-go","0"
"pit-trial","219","1384210","0.0-105.0","battery-v0.2","","""event"",""trial"",""time""
""fullscreenenter"",""1"",""2421""
""blur"",""135"",""1004416""
""focus"",""136"",""1007496""
","""event"",""trial"",""time""
""blur"",""135"",""1004416""
","""event"",""trial"",""time""
""focus"",""136"",""1007496""
","""event"",""trial"",""time""
""fullscreenenter"",""1"",""2421""
","
","","","-1","","","10","12452","385","y","elianto","#f73b6a7A","-1","-1","1","0","[4007.699999988079]","1","2","","","12452","101","7","4","lose","no-go","0"
"pit-trial","220","1389073","0.0-106.0","battery-v0.2","","""event"",""trial"",""time""
""fullscreenenter"",""1"",""2421""
""blur"",""135"",""1004416""
""focus"",""136"",""1007496""
","""event"",""trial"",""time""
""blur"",""135"",""1004416""
","""event"",""trial"",""time""
""focus"",""136"",""1007496""
","""event"",""trial"",""time""
""fullscreenenter"",""1"",""2421""
","
","","","-1","","","10","12452","385","z","elianto","#3366ff99","-1","-1","1","+10","[]","0","2","","","12452","102","5","2","win","no-go","0"
"pit-trial","221","1393926","0.0-107.0","battery-v0.2","","""event"",""trial"",""time""
""fullscreenenter"",""1"",""2421""
""blur"",""135"",""1004416""
""focus"",""136"",""1007496""
","""event"",""trial"",""time""
""blur"",""135"",""1004416""
","""event"",""trial"",""time""
""focus"",""136"",""1007496""
","""event"",""trial"",""time""
""fullscreenenter"",""1"",""2421""
","
