"trial_type","trial_index","time_elapsed","internal_node_id","task_version","subject_id","interactions","blur_events","focus_events","fullscreenenter_events","fullscreenexit_events","success","view_history","rt","responses","num_errors","age","subject","participantId","rune","rune_set","hex","correct","choice","accuracy","outcome","keys","total_keys","block","practice","value","sub","trial","stimulus","robot","valence","action","sham"
"pavlovia","0","35","0.0-0.0","battery-v0.2","","""event"",""trial"",""time""
""fullscreenenter"",""1"",""4192""
","
","
","""event"",""trial"",""time""
""fullscreenenter"",""1"",""4192""
","
","","","","","","","","","","","","","","","","","","","","","","","","","","",""
"fullscreen","1","4309","0.0-1.0","battery-v0.2","","""event"",""trial"",""time""
""fullscreenenter"",""1"",""4192""
","
","
","""event"",""trial"",""time""
""fullscreenenter"",""1"",""4192""
","
","true","","","","","","","","","","","","","","","","","","","","","","","","","",""
"pit-instructions","2","11191","0.0-2.0-0.0","battery-v0.2","","""event"",""trial"",""time""
""fullscreenenter"",""1"",""4192""
","
","
","""event"",""trial"",""time""
""fullscreenenter"",""1"",""4192""
","
","","[{""page_index"":0,""viewing_time"":6878}]","6878.4000000059605","","","","","","","","","","","","","","","","","","","","","","","",""
"pit-comprehension","3","15364","0.0-2.0-1.0-0.0","battery-v0.2","","""event"",""trial"",""time""
""fullscreenenter"",""1"",""4192""
","
","
","""event"",""trial"",""time""
""fullscreenenter"",""1"",""4192""
","
","","","4164.69999999553","[""shark""]","0","22","4919","2541","","","","","","","","","","","","","","","","","","",""
"pit-instructions","4","16945","0.0-2.0-1.0-1.0","battery-v0.2","","""event"",""trial"",""time""
""fullscreenenter"",""1"",""4192""
","
","
","""event"",""trial"",""time""
""fullscreenenter"",""1"",""4192""
","
","","[{""page_index"":0,""viewing_time"":1566}]","1566.2000000029802","","","","","","","","","","","","","","","","","","","","","","","",""
"pit-comprehension","5","19373","0.0-2.0-2.0-0.0","battery-v0.2","","""event"",""trial"",""time""
""fullscreenenter"",""1"",""4192""
","
","
","""event"",""trial"",""time""
""fullscreenenter"",""1"",""4192""
","
","","","2418.60000000149","[""tiger""]","0","22","4919","2541","","","","","","","","","","","","","","","","","","",""
"pit-instructions","6","20183","0.0-2.0-2.0-1.0","battery-v0.2","","""event"",""trial"",""time""
""fullscreenenter"",""1"",""4192""
","
","
","""event"",""trial"",""time""
""fullscreenenter"",""1"",""4192""
","
","","[{""page_index"":0,""viewing_time"":777.7000000029802}]","778","","","","","","","","","","","","","","","","","","","","","","","",""
"pit-instructions","7","158379","0.0-2.0-3.0","battery-v0.2","","""event"",""trial"",""time""
""fullscreenenter"",""1"",""4192""
","
","
","""event"",""trial"",""time""
""fullscreenenter"",""1"",""4192""
","
","","[{""page_index"":0,""viewing_time"":10726},{""page_index"":1,""viewing_time"":21848},{""page_index"":2,""viewing_time"":20592.60000000149},{""page_index"":3,""viewing_time"":6600.5},{""page_index"":4,""viewing_time"":5796.79999999702},{""page_index"":5,""viewing_time"":5409.70000000298},{""page_index"":6,""viewing_time"":7016.0999999940395},{""page_index"":7,""viewing_time"":6531.80000000447},{""page_index"":8,""viewing_time"":7536.19999999553},{""page_index"":9,""viewing_time"":9919},{""page_index"":10,""viewing_time"":7475.30000000447},{""page_index"":11,""viewing_time"":5449.39999999851},{""page_index"":12,""viewing_time"":4241.89999999851},{""page_index"":11,""viewing_time"":6747.10000000149},{""page_index"":12,""viewing_time"":6600.10000000149},{""page_index"":13,""viewing_time"":5698.39999999851}]","138189.19999999553","","","","","","","","","","","","","","","","","","","","","","","",""
"pit-trial","8","161777","0.0-2.0-4.0-0.0","battery-v0.2","","""event"",""trial"",""time""
""fullscreenenter"",""1"",""4192""
","
","
","""event"",""trial"",""time""
""fullscreenenter"",""1"",""4192""
","
","","","538","","","22","4919","2541","&#9784;","elianto","#FFFFF080"," "," ","1","&#10004","[1388.8000000044703]","1","0","0","","","","","","","",""
"pit-trial","9","165322","0.0-2.0-4.1-0.1","battery-v0.2","","""event"",""trial"",""time""
""fullscreenenter"",""1"",""4192""
","
","
","""event"",""trial"",""time""
""fullscreenenter"",""1"",""4192""
","
","","","683.4000000059605","","","22","4919","2541","&#9784;","elianto","#FFFFF080"," "," ","1","&#10004","[1537.4000000059605]","1","0","0","","","","","","","",""
"pit-trial","10","168886","0.0-2.0-4.2-0.2","battery-v0.2","","""event"",""trial"",""time""
""fullscreenenter"",""1"",""4192""
","
","
","""event"",""trial"",""time""
""fullscreenenter"",""1"",""4192""
","
","","","705.6000000014901","","","22","4919","2541","&#9784;","elianto","#FFFFF080"," "," ","1","&#10004","[1556.2999999970198]","1","0","0","","","","","","","",""
"pit-trial","11","172438","0.0-2.0-4.3-0.3","battery-v0.2","","""event"",""trial"",""time""
""fullscreenenter"",""1"",""4192""
","
","
","""event"",""trial"",""time""
""fullscreenenter"",""1"",""4192""
","
","","","690.7999999970198","","","22","4919","2541","&#9784;","elianto","#FFFFF080"," "," ","1","&#10004","[1543.7999999970198]","1","0","0","","","","","","","",""
"pit-trial","12","176140","0.0-2.0-4.4-0.4","battery-v0.2","","""event"",""trial"",""time""
""fullscreenenter"",""1"",""4192""
","
","
","""event"",""trial"",""time""
""fullscreenenter"",""1"",""4192""
","
","","","844.2000000029802","","","22","4919","2541","&#9784;","elianto","#FFFFF080"," "," ","1","&#10004","[1697.6000000014901]","1","0","0","","","","","","","",""
"pit-instructions","13","199850","0.0-2.0-5.0","battery-v0.2","","""event"",""trial"",""time""
""fullscreenenter"",""1"",""4192""
","
","
","""event"",""trial"",""time""
""fullscreenenter"",""1"",""4192""
","
","","[{""page_index"":0,""viewing_time"":6421.20000000298},{""page_index"":1,""viewing_time"":6072.39999999851},{""page_index"":2,""viewing_time"":5309.60000000149},{""page_index"":3,""viewing_time"":5899}]","23704.70000000298","","","","","","","","","","","","","","","","","","","","","","","",""
"pit-trial","14","204710","0.0-2.0-6.0-0.0","battery-v0.2","","""event"",""trial"",""time""
""fullscreenenter"",""1"",""4192""
","
","
","""event"",""trial"",""time""
""fullscreenenter"",""1"",""4192""
","
","","","-1","","","22","4919","2541","&#9854;","elianto","#FFFFF080","-1","-1","1","&#10004","[]","0","0","1","","","","","","","",""
"pit-trial","15","209579","0.0-2.0-6.1-0.1","battery-v0.2","","""event"",""trial"",""time""
""fullscreenenter"",""1"",""4192""
","
","
","""event"",""trial"",""time""
""fullscreenenter"",""1"",""4192""
","
","","","-1","","","22","4919","2541","&#9854;","elianto","#FFFFF080","-1","-1","1","&#10004","[]","0","0","1","","","","","","","",""
"pit-trial","16","214443","0.0-2.0-6.2-0.2","battery-v0.2","","""event"",""trial"",""time""
""fullscreenenter"",""1"",""4192""
","
","
","""event"",""trial"",""time""
""fullscreenenter"",""1"",""4192""
","
","","","-1","","","22","4919","2541","&#9854;","elianto","#FFFFF080","-1","-1","1","&#10004","[]","0","0","1","","","","","","","",""
"pit-trial","17","219306","0.0-2.0-6.3-0.3","battery-v0.2","","""event"",""trial"",""time""
""fullscreenenter"",""1"",""4192""
","
","
","""event"",""trial"",""time""
""fullscreenenter"",""1"",""4192""
","
","","","-1","","","22","4919","2541","&#9854;","elianto","#FFFFF080","-1","-1","1","&#10004","[]","0","0","1","","","","","","","",""
"pit-trial","18","224166","0.0-2.0-6.4-0.4","battery-v0.2","","""event"",""trial"",""time""
""fullscreenenter"",""1"",""4192""
","
","
","""event"",""trial"",""time""
""fullscreenenter"",""1"",""4192""
","
","","","-1","","","22","4919","2541","&#9854;","elianto","#FFFFF080","-1","-1","1","&#10004","[]","0","0","1","","","","","","","",""
"pit-instructions","19","342068","0.0-2.0-7.0","battery-v0.2","","""event"",""trial"",""time""
""fullscreenenter"",""1"",""4192""
","
","
","""event"",""trial"",""time""
""fullscreenenter"",""1"",""4192""
","
","","[{""page_index"":0,""viewing_time"":5562.69999999553},{""page_index"":1,""viewing_time"":6647.5},{""page_index"":2,""viewing_time"":8282.39999999851},{""page_index"":3,""viewing_time"":6214},{""page_index"":4,""viewing_time"":5918.20000000298},{""page_index"":5,""viewing_time"":6083.29999999702},{""page_index"":6,""viewing_time"":4566.4000000059605},{""page_index"":7,""viewing_time"":7652.69999999553},{""page_index"":8,""viewing_time"":6528.89999999851},{""page_index"":9,""viewing_time"":5750.20000000298},{""page_index"":10,""viewing_time"":6080.60000000149},{""page_index"":11,""viewing_time"":5169.29999999702},{""page_index"":12,""viewing_time"":9300.10000000149},{""page_index"":13,""viewing_time"":6650.20000000298},{""page_index"":14,""viewing_time"":6820.5999999940395},{""page_index"":15,""viewing_time"":6199},{""page_index"":16,""viewing_time"":6303.70000000298},{""page_index"":17,""viewing_time"":8167}]","117897.19999999553","","","","","","","","","","","","","","","","","","","","","","","",""
"pit-trial","20","345532","0.0-2.0-8.0-0.0","battery-v0.2","","""event"",""trial"",""time""
""fullscreenenter"",""1"",""4192""
","
","
","""event"",""trial"",""time""
""fullscreenenter"",""1"",""4192""
","
","","","606.5","","","22","4919","2541","&#9776;","elianto","#3366ff99"," "," ","1","+10","[1458]","1","0","1","","","","","","","",""
"pit-trial","21","349291","0.0-2.0-8.0-1.0","battery-v0.2","","""event"",""trial"",""time""
""fullscreenenter"",""1"",""4192""
","
","
","""event"",""trial"",""time""
""fullscreenenter"",""1"",""4192""
","
","","","898.1000000014901","","","22","4919","2541","&#9776;","elianto","#3366ff99"," "," ","1","+10","[1753.2999999970198]","1","0","1","","","","","","","",""
"pit-trial","22","352774","0.0-2.0-8.0-2.0","battery-v0.2","","""event"",""trial"",""time""
""fullscreenenter"",""1"",""4192""
","
","
","""event"",""trial"",""time""
""fullscreenenter"",""1"",""4192""
","
","","","623.6999999955297","","","22","4919","2541","&#9776;","elianto","#3366ff99"," "," ","1","+10","[1477.3999999985099]","1","0","1","","","","","","","",""
"pit-trial","23","356097","0.0-2.0-8.0-3.0","battery-v0.2","","""event"",""trial"",""time""
""fullscreenenter"",""1"",""4192""
","
","
","""event"",""trial"",""time""
""fullscreenenter"",""1"",""4192""
","
","","","465.6000000014901","","","22","4919","2541","&#9776;","elianto","#3366ff99"," "," ","1","0","[1315.8999999985099]","1","0","1","","","","","","","",""
"pit-trial","24","359454","0.0-2.0-8.0-4.0","battery-v0.2","","""event"",""trial"",""time""
""fullscreenenter"",""1"",""4192""
","
","
","""event"",""trial"",""time""
""fullscreenenter"",""1"",""4192""
","
","","","500.1000000014901","","","22","4919","2541","&#9776;","elianto","#3366ff99"," "," ","1","+10","[1350.6000000014901]","1","0","1","","","","","","","",""
"pit-trial","25","362844","0.0-2.0-8.1-0.1","battery-v0.2","","""event"",""trial"",""time""
""fullscreenenter"",""1"",""4192""
","
","
","""event"",""trial"",""time""
""fullscreenenter"",""1"",""4192""
","
","","","525.2999999970198","","","22","4919","2541","&#9776;","elianto","#3366ff99"," "," ","1","+10","[1384.6000000014901]","1","0","1","","","","","","","",""
"pit-trial","26","366251","0.0-2.0-8.1-1.1","battery-v0.2","","""event"",""trial"",""time""
""fullscreenenter"",""1"",""4192""
","
","
","""event"",""trial"",""time""
""fullscreenenter"",""1"",""4192""
","
","","","541","","","22","4919","2541","&#9776;","elianto","#3366ff99"," "," ","1","+10","[1398.8999999985099]","1","0","1","","","","","","","",""
"pit-trial","27","369675","0.0-2.0-8.1-2.1","battery-v0.2","","""event"",""trial"",""time""
""fullscreenenter"",""1"",""4192""
","
","
","""event"",""trial"",""time""
""fullscreenenter"",""1"",""4192""
","
","","","545.3999999985099","","","22","4919","2541","&#9776;","elianto","#3366ff99"," "," ","1","+10","[1415.7999999970198]","1","0","1","","","","","","","",""
"pit-trial","28","372998","0.0-2.0-8.1-3.1","battery-v0.2","","""event"",""trial"",""time""
""fullscreenenter"",""1"",""4192""
","
","
","""event"",""trial"",""time""
""fullscreenenter"",""1"",""4192""
","
","","","464.1000000014901","","","22","4919","2541","&#9776;","elianto","#3366ff99"," "," ","1","0","[1316.8999999985099]","1","0","1","","","","","","","",""
"pit-trial","29","376298","0.0-2.0-8.1-4.1","battery-v0.2","","""event"",""trial"",""time""
""fullscreenenter"",""1"",""4192""
","
","
","""event"",""trial"",""time""
""fullscreenenter"",""1"",""4192""
","
","","","442.5","","","22","4919","2541","&#9776;","elianto","#3366ff99"," "," ","1","+10","[1292.9000000059605]","1","0","1","","","","","","","",""
"pit-trial","30","379644","0.0-2.0-8.2-0.2","battery-v0.2","","""event"",""trial"",""time""
""fullscreenenter"",""1"",""4192""
","
","
","""event"",""trial"",""time""
""fullscreenenter"",""1"",""4192""
","
","","","489.1000000014901","","","22","4919","2541","&#9776;","elianto","#3366ff99"," "," ","1","+10","[1340.5]","1","0","1","","","","","","","",""
"pit-trial","31","383009","0.0-2.0-8.2-1.2","battery-v0.2","","""event"",""trial"",""time""
""fullscreenenter"",""1"",""4192""
","
","
","""event"",""trial"",""time""
""fullscreenenter"",""1"",""4192""
","
","","","507.1000000014901","","","22","4919","2541","&#9776;","elianto","#3366ff99"," "," ","1","+10","[1357.2999999970198]","1","0","1","","","","","","","",""
"pit-trial","32","386428","0.0-2.0-8.2-2.2","battery-v0.2","","""event"",""trial"",""time""
""fullscreenenter"",""1"",""4192""
","
","
","""event"",""trial"",""time""
""fullscreenenter"",""1"",""4192""
","
","","","562.1000000014901","","","22","4919","2541","&#9776;","elianto","#3366ff99"," "," ","1","+10","[1414.6000000014901]","1","0","1","","","","","","","",""
"pit-trial","33","389761","0.0-2.0-8.2-3.2","battery-v0.2","","""event"",""trial"",""time""
""fullscreenenter"",""1"",""4192""
","
","
","""event"",""trial"",""time""
""fullscreenenter"",""1"",""4192""
","
","","","471.69999999552965","","","22","4919","2541","&#9776;","elianto","#3366ff99"," "," ","1","0","[1326.5999999940395]","1","0","1","","","","","","","",""
"pit-trial","34","393121","0.0-2.0-8.2-4.2","battery-v0.2","","""event"",""trial"",""time""
""fullscreenenter"",""1"",""4192""
","
","
","""event"",""trial"",""time""
""fullscreenenter"",""1"",""4192""
","
","","","503.1000000014901","","","22","4919","2541","&#9776;","elianto","#3366ff99"," "," ","1","+10","[1353.5]","1","0","1","","","","","","","",""
"call-function","35","393124","0.0-2.0-9.0","battery-v0.2","","""event"",""trial"",""time""
""fullscreenenter"",""1"",""4192""
","
","
","""event"",""trial"",""time""
""fullscreenenter"",""1"",""4192""
","
","","","","","","","","","","","","","","","","","","","","","","","","","","",""
"pit-instructions","36","430465","0.0-2.0-10.0","battery-v0.2","","""event"",""trial"",""time""
""fullscreenenter"",""1"",""4192""
","
","
","""event"",""trial"",""time""
""fullscreenenter"",""1"",""4192""
","
","","[{""page_index"":0,""viewing_time"":5700.0999999940395},{""page_index"":1,""viewing_time"":6617.4000000059605},{""page_index"":2,""viewing_time"":9565.69999999553},{""page_index"":3,""viewing_time"":8103.80000000447},{""page_index"":4,""viewing_time"":7353}]","37340.29999999702","","","","","","","","","","","","","","","","","","","","","","","",""
"pit-trial","37","433692","0.0-2.0-11.0-0.0","battery-v0.2","","""event"",""trial"",""time""
""fullscreenenter"",""1"",""4192""
","
","
","""event"",""trial"",""time""
""fullscreenenter"",""1"",""4192""
","
","","","364.79999999701977","","","22","4919","2541","&#9761;","elianto","#3366ff99","-1"," ","0","0","[1218.6000000014901]","1","0","2","","","","","","","",""
"pit-trial","38","437079","0.0-2.0-11.0-1.0","battery-v0.2","","""event"",""trial"",""time""
""fullscreenenter"",""1"",""4192""
","
","
","""event"",""trial"",""time""
""fullscreenenter"",""1"",""4192""
","
","","","525.3999999985099","","","22","4919","2541","&#9761;","elianto","#3366ff99","-1"," ","0","0","[1376.6000000014901]","1","0","2","","","","","","","",""
"pit-trial","39","441938","0.0-2.0-11.0-2.0","battery-v0.2","","""event"",""trial"",""time""
""fullscreenenter"",""1"",""4192""
","
","
","""event"",""trial"",""time""
""fullscreenenter"",""1"",""4192""
","
","","","-1","","","22","4919","2541","&#9761;","elianto","#3366ff99","-1","-1","1","+10","[]","0","0","2","","","","","","","",""
"pit-trial","40","445441","0.0-2.0-11.0-3.0","battery-v0.2","","""event"",""trial"",""time""
""fullscreenenter"",""1"",""4192""
","
","
","""event"",""trial"",""time""
""fullscreenenter"",""1"",""4192""
","
","","","646.1999999955297","","","22","4919","2541","&#9761;","elianto","#3366ff99","-1"," ","0","+10","[1498.2999999970198]","1","0","2","","","","","","","",""
"pit-trial","41","448924","0.0-2.0-11.0-4.0","battery-v0.2","","""event"",""trial"",""time""
""fullscreenenter"",""1"",""4192""
","
","
","""event"",""trial"",""time""
""fullscreenenter"",""1"",""4192""
","
","","","626.1000000014901","","","22","4919","2541","&#9761;","elianto","#3366ff99","-1"," ","0","0","[1477.1000000014901]","1","0","2","","","","","","","",""
"pit-trial","42","452594","0.0-2.0-11.1-0.1","battery-v0.2","","""event"",""trial"",""time""
""fullscreenenter"",""1"",""4192""
","
","
","""event"",""trial"",""time""
""fullscreenenter"",""1"",""4192""
","
","","","809.3000000044703","","","22","4919","2541","&#9761;","elianto","#3366ff99","-1"," ","0","0","[1662.6000000014901]","1","0","2","","","","","","","",""
"pit-trial","43","455957","0.0-2.0-11.1-1.1","battery-v0.2","","""event"",""trial"",""time""
""fullscreenenter"",""1"",""4192""
","
","
","""event"",""trial"",""time""
""fullscreenenter"",""1"",""4192""
","
","","","501.70000000298023","","","22","4919","2541","&#9761;","elianto","#3366ff99","-1"," ","0","0","[1353.5]","1","0","2","","","","","","","",""
"pit-trial","44","460813","0.0-2.0-11.1-2.1","battery-v0.2","","""event"",""trial"",""time""
""fullscreenenter"",""1"",""4192""
","
","
","""event"",""trial"",""time""
""fullscreenenter"",""1"",""4192""
","
","","","-1","","","22","4919","2541","&#9761;","elianto","#3366ff99","-1","-1","1","+10","[]","0","0","2","","","","","","","",""
"pit-trial","45","465672","0.0-2.0-11.1-3.1","battery-v0.2","","""event"",""trial"",""time""
""fullscreenenter"",""1"",""4192""
","
","
","""event"",""trial"",""time""
""fullscreenenter"",""1"",""4192""
","
","","","-1","","","22","4919","2541","&#9761;","elianto","#3366ff99","-1","-1","1","0","[]","0","0","2","","","","","","","",""
"pit-trial","46","470530","0.0-2.0-11.1-4.1","battery-v0.2","","""event"",""trial"",""time""
""fullscreenenter"",""1"",""4192""
","
","
","""event"",""trial"",""time""
""fullscreenenter"",""1"",""4192""
","
","","","-1","","","22","4919","2541","&#9761;","elianto","#3366ff99","-1","-1","1","+10","[]","0","0","2","","","","","","","",""
"pit-trial","47","474141","0.0-2.0-11.2-0.2","battery-v0.2","","""event"",""trial"",""time""
""fullscreenenter"",""1"",""4192""
","
","
","""event"",""trial"",""time""
""fullscreenenter"",""1"",""4192""
","
","","","751.8000000044703","","","22","4919","2541","&#9761;","elianto","#3366ff99","-1"," ","0","0","[1606.5]","1","0","2","","","","","","","",""
"pit-trial","48","479003","0.0-2.0-11.2-1.2","battery-v0.2","","""event"",""trial"",""time""
""fullscreenenter"",""1"",""4192""
","
","
","""event"",""trial"",""time""
""fullscreenenter"",""1"",""4192""
","
","","","-1","","","22","4919","2541","&#9761;","elianto","#3366ff99","-1","-1","1","+10","[3130]","1","0","2","","","","","","","",""
"pit-trial","49","482434","0.0-2.0-11.2-2.2","battery-v0.2","","""event"",""trial"",""time""
""fullscreenenter"",""1"",""4192""
","
","
","""event"",""trial"",""time""
""fullscreenenter"",""1"",""4192""
","
","","","575","","","22","4919","2541","&#9761;","elianto","#3366ff99","-1"," ","0","0","[1427]","1","0","2","","","","","","","",""
"pit-trial","50","485806","0.0-2.0-11.2-3.2","battery-v0.2","","""event"",""trial"",""time""
""fullscreenenter"",""1"",""4192""
","
","
","""event"",""trial"",""time""
""fullscreenenter"",""1"",""4192""
","
","","","514.0999999940395","","","22","4919","2541","&#9761;","elianto","#3366ff99","-1"," ","0","+10","[1364.6999999955297]","1","0","2","","","","","","","",""
"pit-trial","51","489191","0.0-2.0-11.2-4.2","battery-v0.2","","""event"",""trial"",""time""
""fullscreenenter"",""1"",""4192""
","
","
","""event"",""trial"",""time""
""fullscreenenter"",""1"",""4192""
","
","","","524.2999999970198","","","22","4919","2541","&#9761;","elianto","#3366ff99","-1"," ","0","0","[1378.3000000044703]","1","0","2","","","","","","","",""
"pit-trial","52","494056","0.0-2.0-11.3-0.3","battery-v0.2","","""event"",""trial"",""time""
""fullscreenenter"",""1"",""4192""
","
","
","""event"",""trial"",""time""
""fullscreenenter"",""1"",""4192""
","
","","","-1","","","22","4919","2541","&#9761;","elianto","#3366ff99","-1","-1","1","+10","[]","0","0","2","","","","","","","",""
"pit-trial","53","497714","0.0-2.0-11.3-1.3","battery-v0.2","","""event"",""trial"",""time""
""fullscreenenter"",""1"",""4192""
","
","
","""event"",""trial"",""time""
""fullscreenenter"",""1"",""4192""
","
","","","800.5","","","22","4919","2541","&#9761;","elianto","#3366ff99","-1"," ","0","0","[1651.5]","1","0","2","","","","","","","",""
"pit-trial","54","501174","0.0-2.0-11.3-2.3","battery-v0.2","","""event"",""trial"",""time""
""fullscreenenter"",""1"",""4192""
","
","
","""event"",""trial"",""time""
""fullscreenenter"",""1"",""4192""
","
","","","599.7999999970198","","","22","4919","2541","&#9761;","elianto","#3366ff99","-1"," ","0","0","[1450.6000000014901]","1","0","2","","","","","","","",""
"pit-trial","55","505698","0.0-2.0-11.3-3.3","battery-v0.2","","""event"",""trial"",""time""
""fullscreenenter"",""1"",""4192""
","
","
","""event"",""trial"",""time""
""fullscreenenter"",""1"",""4192""
","
","","","1666.2000000029802","","","22","4919","2541","&#9761;","elianto","#3366ff99","-1"," ","0","+10","[2517.2000000029802]","1","0","2","","","","","","","",""
"pit-trial","56","510557","0.0-2.0-11.3-4.3","battery-v0.2","","""event"",""trial"",""time""
""fullscreenenter"",""1"",""4192""
","
","
","""event"",""trial"",""time""
""fullscreenenter"",""1"",""4192""
","
","","","-1","","","22","4919","2541","&#9761;","elianto","#3366ff99","-1","-1","1","+10","[]","0","0","2","","","","","","","",""
"call-function","57","510561","0.0-2.0-12.0","battery-v0.2","","""event"",""trial"",""time""
""fullscreenenter"",""1"",""4192""
","
","
","""event"",""trial"",""time""
""fullscreenenter"",""1"",""4192""
","
","","","","","","","","","","","","","","","","","","","","","","","","","","",""
"pit-instructions","58","546340","0.0-2.0-13.0","battery-v0.2","","""event"",""trial"",""time""
""fullscreenenter"",""1"",""4192""
","
","
","""event"",""trial"",""time""
""fullscreenenter"",""1"",""4192""
","
","","[{""page_index"":0,""viewing_time"":7796.60000000149},{""page_index"":1,""viewing_time"":7131.70000000298},{""page_index"":2,""viewing_time"":4145.79999999702},{""page_index"":3,""viewing_time"":10859.10000000149},{""page_index"":4,""viewing_time"":5845.89999999851}]","35779.5","","","","","","","","","","","","","","","","","","","","","","","",""
"pit-trial","59","551203","0.0-2.0-14.0-0.0","battery-v0.2","","""event"",""trial"",""time""
""fullscreenenter"",""1"",""4192""
","
","
","""event"",""trial"",""time""
""fullscreenenter"",""1"",""4192""
","
","","","-1","","","22","4919","2541","&#9826;","elianto","#f73b6a7A","-1","-1","1","0","[]","0","0","3","","","","","","","",""
"pit-trial","60","556063","0.0-2.0-14.0-1.0","battery-v0.2","","""event"",""trial"",""time""
""fullscreenenter"",""1"",""4192""
","
","
","""event"",""trial"",""time""
""fullscreenenter"",""1"",""4192""
","
","","","-1","","","22","4919","2541","&#9826;","elianto","#f73b6a7A","-1","-1","1","0","[]","0","0","3","","","","","","","",""
"pit-trial","61","560922","0.0-2.0-14.0-2.0","battery-v0.2","","""event"",""trial"",""time""
""fullscreenenter"",""1"",""4192""
","
","
","""event"",""trial"",""time""
""fullscreenenter"",""1"",""4192""
","
","","","-1","","","22","4919","2541","&#9826;","elianto","#f73b6a7A","-1","-1","1","0","[]","0","0","3","","","","","","","",""
"pit-trial","62","565804","0.0-2.0-14.0-3.0","battery-v0.2","","""event"",""trial"",""time""
""fullscreenenter"",""1"",""4192""
","
","
","""event"",""trial"",""time""
""fullscreenenter"",""1"",""4192""
","
","","","-1","","","22","4919","2541","&#9826;","elianto","#f73b6a7A","-1","-1","1","-10","[]","0","0","3","","","","","","","",""
"pit-trial","63","570665","0.0-2.0-14.0-4.0","battery-v0.2","","""event"",""trial"",""time""
""fullscreenenter"",""1"",""4192""
","
","
","""event"",""trial"",""time""
""fullscreenenter"",""1"",""4192""
","
","","","-1","","","22","4919","2541","&#9826;","elianto","#f73b6a7A","-1","-1","1","0","[]","0","0","3","","","","","","","",""
"pit-trial","64","575531","0.0-2.0-14.1-0.1","battery-v0.2","","""event"",""trial"",""time""
""fullscreenenter"",""1"",""4192""
","
","
","""event"",""trial"",""time""
""fullscreenenter"",""1"",""4192""
","
","","","-1","","","22","4919","2541","&#9826;","elianto","#f73b6a7A","-1","-1","1","0","[]","0","0","3","","","","","","","",""
"pit-trial","65","580395","0.0-2.0-14.1-1.1","battery-v0.2","","""event"",""trial"",""time""
""fullscreenenter"",""1"",""4192""
","
","
","""event"",""trial"",""time""
""fullscreenenter"",""1"",""4192""
","
","","","-1","","","22","4919","2541","&#9826;","elianto","#f73b6a7A","-1","-1","1","0","[]","0","0","3","","","","","","","",""
"pit-trial","66","585254","0.0-2.0-14.1-2.1","battery-v0.2","","""event"",""trial"",""time""
""fullscreenenter"",""1"",""4192""
","
","
","""event"",""trial"",""time""
""fullscreenenter"",""1"",""4192""
","
","","","-1","","","22","4919","2541","&#9826;","elianto","#f73b6a7A","-1","-1","1","0","[]","0","0","3","","","","","","","",""
"pit-trial","67","590112","0.0-2.0-14.1-3.1","battery-v0.2","","""event"",""trial"",""time""
""fullscreenenter"",""1"",""4192""
","
","
","""event"",""trial"",""time""
""fullscreenenter"",""1"",""4192""
","
","","","-1","","","22","4919","2541","&#9826;","elianto","#f73b6a7A","-1","-1","1","-10","[]","0","0","3","","","","","","","",""
"pit-trial","68","594971","0.0-2.0-14.1-4.1","battery-v0.2","","""event"",""trial"",""time""
""fullscreenenter"",""1"",""4192""
","
","
","""event"",""trial"",""time""
""fullscreenenter"",""1"",""4192""
","
","","","-1","","","22","4919","2541","&#9826;","elianto","#f73b6a7A","-1","-1","1","0","[]","0","0","3","","","","","","","",""
"pit-trial","69","599832","0.0-2.0-14.2-0.2","battery-v0.2","","""event"",""trial"",""time""
""fullscreenenter"",""1"",""4192""
","
","
","""event"",""trial"",""time""
""fullscreenenter"",""1"",""4192""
","
","","","-1","","","22","4919","2541","&#9826;","elianto","#f73b6a7A","-1","-1","1","0","[]","0","0","3","","","","","","","",""
"pit-trial","70","604692","0.0-2.0-14.2-1.2","battery-v0.2","","""event"",""trial"",""time""
""fullscreenenter"",""1"",""4192""
","
","
","""event"",""trial"",""time""
""fullscreenenter"",""1"",""4192""
","
","","","-1","","","22","4919","2541","&#9826;","elianto","#f73b6a7A","-1","-1","1","0","[]","0","0","3","","","","","","","",""
"pit-trial","71","609552","0.0-2.0-14.2-2.2","battery-v0.2","","""event"",""trial"",""time""
""fullscreenenter"",""1"",""4192""
","
","
","""event"",""trial"",""time""
""fullscreenenter"",""1"",""4192""
","
","","","-1","","","22","4919","2541","&#9826;","elianto","#f73b6a7A","-1","-1","1","0","[]","0","0","3","","","","","","","",""
"pit-trial","72","614411","0.0-2.0-14.2-3.2","battery-v0.2","","""event"",""trial"",""time""
""fullscreenenter"",""1"",""4192""
","
","
","""event"",""trial"",""time""
""fullscreenenter"",""1"",""4192""
","
","","","-1","","","22","4919","2541","&#9826;","elianto","#f73b6a7A","-1","-1","1","-10","[]","0","0","3","","","","","","","",""
"pit-trial","73","619270","0.0-2.0-14.2-4.2","battery-v0.2","","""event"",""trial"",""time""
""fullscreenenter"",""1"",""4192""
","
","
","""event"",""trial"",""time""
""fullscreenenter"",""1"",""4192""
","
","","","-1","","","22","4919","2541","&#9826;","elianto","#f73b6a7A","-1","-1","1","0","[]","0","0","3","","","","","","","",""
"pit-trial","74","624134","0.0-2.0-14.3-0.3","battery-v0.2","","""event"",""trial"",""time""
""fullscreenenter"",""1"",""4192""
","
","
","""event"",""trial"",""time""
""fullscreenenter"",""1"",""4192""
","
","","","-1","","","22","4919","2541","&#9826;","elianto","#f73b6a7A","-1","-1","1","0","[]","0","0","3","","","","","","","",""
"pit-trial","75","628997","0.0-2.0-14.3-1.3","battery-v0.2","","""event"",""trial"",""time""
""fullscreenenter"",""1"",""4192""
","
","
","""event"",""trial"",""time""
""fullscreenenter"",""1"",""4192""
","
","","","-1","","","22","4919","2541","&#9826;","elianto","#f73b6a7A","-1","-1","1","0","[]","0","0","3","","","","","","","",""
"pit-trial","76","633856","0.0-2.0-14.3-2.3","battery-v0.2","","""event"",""trial"",""time""
""fullscreenenter"",""1"",""4192""
","
","
","""event"",""trial"",""time""
""fullscreenenter"",""1"",""4192""
","
","","","-1","","","22","4919","2541","&#9826;","elianto","#f73b6a7A","-1","-1","1","0","[]","0","0","3","","","","","","","",""
"pit-trial","77","638715","0.0-2.0-14.3-3.3","battery-v0.2","","""event"",""trial"",""time""
""fullscreenenter"",""1"",""4192""
","
","
","""event"",""trial"",""time""
""fullscreenenter"",""1"",""4192""
","
","","","-1","","","22","4919","2541","&#9826;","elianto","#f73b6a7A","-1","-1","1","-10","[]","0","0","3","","","","","","","",""
"pit-trial","78","643574","0.0-2.0-14.3-4.3","battery-v0.2","","""event"",""trial"",""time""
""fullscreenenter"",""1"",""4192""
","
","
","""event"",""trial"",""time""
""fullscreenenter"",""1"",""4192""
","
","","","-1","","","22","4919","2541","&#9826;","elianto","#f73b6a7A","-1","-1","1","0","[]","0","0","3","","","","","","","",""
"call-function","79","643577","0.0-2.0-15.0","battery-v0.2","","""event"",""trial"",""time""
""fullscreenenter"",""1"",""4192""
","
","
","""event"",""trial"",""time""
""fullscreenenter"",""1"",""4192""
","
","","","","","","","","","","","","","","","","","","","","","","","","","","",""
"pit-instructions","80","678588","0.0-2.0-16.0","battery-v0.2","","""event"",""trial"",""time""
""fullscreenenter"",""1"",""4192""
","
","
","""event"",""trial"",""time""
""fullscreenenter"",""1"",""4192""
","
","","[{""page_index"":0,""viewing_time"":11971.89999999851},{""page_index"":1,""viewing_time"":11826.89999999851},{""page_index"":2,""viewing_time"":5112.30000000447},{""page_index"":3,""viewing_time"":6099.10000000149}]","35010.70000000298","","","","","","","","","","","","","","","","","","","","","","","",""
"pit-trial","81","683449","0.0-2.0-17.0-0.0","battery-v0.2","","""event"",""trial"",""time""
""fullscreenenter"",""1"",""4192""
","
","
","""event"",""trial"",""time""
""fullscreenenter"",""1"",""4192""
","
","","","-1","","","22","4919","2541","&#9789;","elianto","#f73b6a7A"," ","-1","0","-10","[]","0","0","4","","","","","","","",""
"pit-trial","82","688315","0.0-2.0-17.0-1.0","battery-v0.2","","""event"",""trial"",""time""
""fullscreenenter"",""1"",""4192""
","
","
","""event"",""trial"",""time""
""fullscreenenter"",""1"",""4192""
","
","","","-1","","","22","4919","2541","&#9789;","elianto","#f73b6a7A"," ","-1","0","-10","[]","0","0","4","","","","","","","",""
"pit-trial","83","693173","0.0-2.0-17.0-2.0","battery-v0.2","","""event"",""trial"",""time""
""fullscreenenter"",""1"",""4192""
","
","
","""event"",""trial"",""time""
""fullscreenenter"",""1"",""4192""
","
","","","-1","","","22","4919","2541","&#9789;","elianto","#f73b6a7A"," ","-1","0","-10","[]","0","0","4","","","","","","","",""
"pit-trial","84","698036","0.0-2.0-17.0-3.0","battery-v0.2","","""event"",""trial"",""time""
""fullscreenenter"",""1"",""4192""
","
","
","""event"",""trial"",""time""
""fullscreenenter"",""1"",""4192""
","
","","","-1","","","22","4919","2541","&#9789;","elianto","#f73b6a7A"," ","-1","0","0","[]","0","0","4","","","","","","","",""
"pit-trial","85","702893","0.0-2.0-17.0-4.0","battery-v0.2","","""event"",""trial"",""time""
""fullscreenenter"",""1"",""4192""
","
","
","""event"",""trial"",""time""
""fullscreenenter"",""1"",""4192""
","
","","","-1","","","22","4919","2541","&#9789;","elianto","#f73b6a7A"," ","-1","0","-10","[]","0","0","4","","","","","","","",""
"pit-trial","86","707754","0.0-2.0-17.1-0.1","battery-v0.2","","""event"",""trial"",""time""
""fullscreenenter"",""1"",""4192""
","
","
","""event"",""trial"",""time""
""fullscreenenter"",""1"",""4192""
","
","","","-1","","","22","4919","2541","&#9789;","elianto","#f73b6a7A"," ","-1","0","-10","[]","0","0","4","","","","","","","",""
"pit-trial","87","712612","0.0-2.0-17.1-1.1","battery-v0.2","","""event"",""trial"",""time""
""fullscreenenter"",""1"",""4192""
","
","
","""event"",""trial"",""time""
""fullscreenenter"",""1"",""4192""
","
","","","-1","","","22","4919","2541","&#9789;","elianto","#f73b6a7A"," ","-1","0","-10","[]","0","0","4","","","","","","","",""
"pit-trial","88","717467","0.0-2.0-17.1-2.1","battery-v0.2","","""event"",""trial"",""time""
""fullscreenenter"",""1"",""4192""
","
","
","""event"",""trial"",""time""
""fullscreenenter"",""1"",""4192""
","
","","","-1","","","22","4919","2541","&#9789;","elianto","#f73b6a7A"," ","-1","0","-10","[]","0","0","4","","","","","","","",""
"pit-trial","89","722330","0.0-2.0-17.1-3.1","battery-v0.2","","""event"",""trial"",""time""
""fullscreenenter"",""1"",""4192""
","
","
","""event"",""trial"",""time""
""fullscreenenter"",""1"",""4192""
","
","","","-1","","","22","4919","2541","&#9789;","elianto","#f73b6a7A"," ","-1","0","0","[]","0","0","4","","","","","","","",""
"pit-trial","90","727188","0.0-2.0-17.1-4.1","battery-v0.2","","""event"",""trial"",""time""
""fullscreenenter"",""1"",""4192""
","
","
","""event"",""trial"",""time""
""fullscreenenter"",""1"",""4192""
","
","","","-1","","","22","4919","2541","&#9789;","elianto","#f73b6a7A"," ","-1","0","-10","[]","0","0","4","","","","","","","",""
"pit-trial","91","732047","0.0-2.0-17.2-0.2","battery-v0.2","","""event"",""trial"",""time""
""fullscreenenter"",""1"",""4192""
","
","
","""event"",""trial"",""time""
""fullscreenenter"",""1"",""4192""
","
","","","-1","","","22","4919","2541","&#9789;","elianto","#f73b6a7A"," ","-1","0","-10","[]","0","0","4","","","","","","","",""
"pit-trial","92","736909","0.0-2.0-17.2-1.2","battery-v0.2","","""event"",""trial"",""time""
""fullscreenenter"",""1"",""4192""
","
","
","""event"",""trial"",""time""
""fullscreenenter"",""1"",""4192""
","
","","","-1","","","22","4919","2541","&#9789;","elianto","#f73b6a7A"," ","-1","0","-10","[]","0","0","4","","","","","","","",""
"pit-trial","93","741767","0.0-2.0-17.2-2.2","battery-v0.2","","""event"",""trial"",""time""
""fullscreenenter"",""1"",""4192""
","
","
","""event"",""trial"",""time""
""fullscreenenter"",""1"",""4192""
","
","","","-1","","","22","4919","2541","&#9789;","elianto","#f73b6a7A"," ","-1","0","-10","[]","0","0","4","","","","","","","",""
"pit-trial","94","746628","0.0-2.0-17.2-3.2","battery-v0.2","","""event"",""trial"",""time""
""fullscreenenter"",""1"",""4192""
","
","
","""event"",""trial"",""time""
""fullscreenenter"",""1"",""4192""
","
","","","-1","","","22","4919","2541","&#9789;","elianto","#f73b6a7A"," ","-1","0","0","[]","0","0","4","","","","","","","",""
"pit-trial","95","751487","0.0-2.0-17.2-4.2","battery-v0.2","","""event"",""trial"",""time""
""fullscreenenter"",""1"",""4192""
","
","
","""event"",""trial"",""time""
""fullscreenenter"",""1"",""4192""
","
","","","-1","","","22","4919","2541","&#9789;","elianto","#f73b6a7A"," ","-1","0","-10","[]","0","0","4","","","","","","","",""
"pit-trial","96","756351","0.0-2.0-17.3-0.3","battery-v0.2","","""event"",""trial"",""time""
""fullscreenenter"",""1"",""4192""
","
","
","""event"",""trial"",""time""
""fullscreenenter"",""1"",""4192""
","
","","","-1","","","22","4919","2541","&#9789;","elianto","#f73b6a7A"," ","-1","0","-10","[]","0","0","4","","","","","","","",""
"pit-trial","97","761209","0.0-2.0-17.3-1.3","battery-v0.2","","""event"",""trial"",""time""
""fullscreenenter"",""1"",""4192""
","
","
","""event"",""trial"",""time""
""fullscreenenter"",""1"",""4192""
","
","","","-1","","","22","4919","2541","&#9789;","elianto","#f73b6a7A"," ","-1","0","-10","[]","0","0","4","","","","","","","",""
"pit-trial","98","766068","0.0-2.0-17.3-2.3","battery-v0.2","","""event"",""trial"",""time""
""fullscreenenter"",""1"",""4192""
","
","
","""event"",""trial"",""time""
""fullscreenenter"",""1"",""4192""
","
","","","-1","","","22","4919","2541","&#9789;","elianto","#f73b6a7A"," ","-1","0","-10","[]","0","0","4","","","","","","","",""
"pit-trial","99","770931","0.0-2.0-17.3-3.3","battery-v0.2","","""event"",""trial"",""time""
""fullscreenenter"",""1"",""4192""
","
","
","""event"",""trial"",""time""
""fullscreenenter"",""1"",""4192""
","
","","","-1","","","22","4919","2541","&#9789;","elianto","#f73b6a7A"," ","-1","0","0","[]","0","0","4","","","","","","","",""
"pit-trial","100","775789","0.0-2.0-17.3-4.3","battery-v0.2","","""event"",""trial"",""time""
""fullscreenenter"",""1"",""4192""
","
","
","""event"",""trial"",""time""
""fullscreenenter"",""1"",""4192""
","
","","","-1","","","22","4919","2541","&#9789;","elianto","#f73b6a7A"," ","-1","0","-10","[]","0","0","4","","","","","","","",""
"call-function","101","775792","0.0-2.0-18.0","battery-v0.2","","""event"",""trial"",""time""
""fullscreenenter"",""1"",""4192""
","
","
","""event"",""trial"",""time""
""fullscreenenter"",""1"",""4192""
","
","","","","","","","","","","","","","","","","","","","","","","","","","","",""
"pit-instructions","102","959536","0.0-2.0-19.0","battery-v0.2","","""event"",""trial"",""time""
""fullscreenenter"",""1"",""4192""
","
","
","""event"",""trial"",""time""
""fullscreenenter"",""1"",""4192""
","
","","[{""page_index"":0,""viewing_time"":10297.60000000149},{""page_index"":1,""viewing_time"":7979.60000000149},{""page_index"":2,""viewing_time"":28020.39999999851},{""page_index"":3,""viewing_time"":19842.19999999553},{""page_index"":4,""viewing_time"":35906.10000000149},{""page_index"":5,""viewing_time"":9915.89999999851},{""page_index"":6,""viewing_time"":8364.90000000596},{""page_index"":7,""viewing_time"":57918.09999999404},{""page_index"":8,""viewing_time"":5498}]","183743.1000000015","","","","","","","","","","","","","","","","","","","","","","","",""
"pit-comprehension","103","965520","0.0-2.0-20.0-0.0","battery-v0.2","","""event"",""trial"",""time""
""fullscreenenter"",""1"",""4192""
","
","
","""event"",""trial"",""time""
""fullscreenenter"",""1"",""4192""
","
","","","5979","[""SPACE""]","0","22","4919","2541","","","","","","","","","","","","","","","","","","",""
"pit-instructions","104","968152","0.0-2.0-20.0-1.0","battery-v0.2","","""event"",""trial"",""time""
""fullscreenenter"",""1"",""4192""
","
","
","""event"",""trial"",""time""
""fullscreenenter"",""1"",""4192""
","
","","[{""page_index"":0,""viewing_time"":2591.5}]","2591.8000000044703","","","","","","","","","","","","","","","","","","","","","","","",""
"pit-comprehension","105","973704","0.0-2.0-21.0-0.0","battery-v0.2","","""event"",""trial"",""time""
""fullscreenenter"",""1"",""4192""
","
","
","""event"",""trial"",""time""
""fullscreenenter"",""1"",""4192""
","
","","","5545.10000000149","[""10""]","0","22","4919","2541","","","","","","","","","","","","","","","","","","",""
"pit-instructions","106","979684","0.0-2.0-21.0-1.0","battery-v0.2","","""event"",""trial"",""time""
""fullscreenenter"",""1"",""4192""
","
","
","""event"",""trial"",""time""
""fullscreenenter"",""1"",""4192""
","
","","[{""page_index"":0,""viewing_time"":5937.5}]","5937.79999999702","","","","","","","","","","","","","","","","","","","","","","","",""
"pit-comprehension","107","988311","0.0-2.0-22.0-0.0","battery-v0.2","","""event"",""trial"",""time""
""fullscreenenter"",""1"",""4192""
","
","
","""event"",""trial"",""time""
""fullscreenenter"",""1"",""4192""
","
","","","8617.10000000149","[""10""]","1","22","4919","2541","","","","","","","","","","","","","","","","","","",""
"pit-instructions","108","993716","0.0-2.0-22.0-1.0","battery-v0.2","","""event"",""trial"",""time""
""fullscreenenter"",""1"",""4192""
","
","
","""event"",""trial"",""time""
""fullscreenenter"",""1"",""4192""
","
","","[{""page_index"":0,""viewing_time"":5349.5}]","5349.89999999851","","","","","","","","","","","","","","","","","","","","","","","",""
"pit-instructions","109","994653","0.0-2.0-22.0-2.0-0.0","battery-v0.2","","""event"",""trial"",""time""
""fullscreenenter"",""1"",""4192""
","
","
","""event"",""trial"",""time""
""fullscreenenter"",""1"",""4192""
","
","","[{""page_index"":0,""viewing_time"":932.3999999985099}]","932.7999999970198","","","","","","","","","","","","","","","","","","","","","","","",""
"pit-comprehension","110","1000860","0.0-2.0-22.1-0.1","battery-v0.2","","""event"",""trial"",""time""
""fullscreenenter"",""1"",""4192""
","
","
","""event"",""trial"",""time""
""fullscreenenter"",""1"",""4192""
","
","","","6201.5","[""-10""]","1","22","4919","2541","","","","","","","","","","","","","","","","","","",""
"pit-instructions","111","1003210","0.0-2.0-22.1-1.1","battery-v0.2","","""event"",""trial"",""time""
""fullscreenenter"",""1"",""4192""
","
","
","""event"",""trial"",""time""
""fullscreenenter"",""1"",""4192""
","
","","[{""page_index"":0,""viewing_time"":2300.7000000029802}]","2301","","","","","","","","","","","","","","","","","","","","","","","",""
"pit-instructions","112","1004219","0.0-2.0-22.1-2.1-0.1","battery-v0.2","","""event"",""trial"",""time""
""fullscreenenter"",""1"",""4192""
","
","
","""event"",""trial"",""time""
""fullscreenenter"",""1"",""4192""
","
","","[{""page_index"":0,""viewing_time"":1002}]","1003.8999999985099","","","","","","","","","","","","","","","","","","","","","","","",""
"pit-comprehension","113","1010598","0.0-2.0-22.2-0.2","battery-v0.2","","""event"",""trial"",""time""
""fullscreenenter"",""1"",""4192""
","
","
","""event"",""trial"",""time""
""fullscreenenter"",""1"",""4192""
","
","","","6374.89999999851","[""0""]","0","22","4919","2541","","","","","","","","","","","","","","","","","","",""
"pit-instructions","114","1012335","0.0-2.0-22.2-1.2","battery-v0.2","","""event"",""trial"",""time""
""fullscreenenter"",""1"",""4192""
","
","
","""event"",""trial"",""time""
""fullscreenenter"",""1"",""4192""
","
","","[{""page_index"":0,""viewing_time"":1692.1000000014901}]","1692.5","","","","","","","","","","","","","","","","","","","","","","","",""
"pit-comprehension","115","1028805","0.0-2.0-23.0-0.0","battery-v0.2","","""event"",""trial"",""time""
""fullscreenenter"",""1"",""4192""
","
","
","""event"",""trial"",""time""
""fullscreenenter"",""1"",""4192""
","
","","","16463.10000000149","[""False""]","1","22","4919","2541","","","","","","","","","","","","","","","","","","",""
"pit-instructions","116","1034522","0.0-2.0-23.0-1.0","battery-v0.2","","""event"",""trial"",""time""
""fullscreenenter"",""1"",""4192""
","
","
","""event"",""trial"",""time""
""fullscreenenter"",""1"",""4192""
","
","","[{""page_index"":0,""viewing_time"":5642.60000000149}]","5642.89999999851","","","","","","","","","","","","","","","","","","","","","","","",""
"pit-instructions","117","1035549","0.0-2.0-23.0-2.0-0.0","battery-v0.2","","""event"",""trial"",""time""
""fullscreenenter"",""1"",""4192""
","
","
","""event"",""trial"",""time""
""fullscreenenter"",""1"",""4192""
","
","","[{""page_index"":0,""viewing_time"":1022.6000000014901}]","1023.1000000014901","","","","","","","","","","","","","","","","","","","","","","","",""
"pit-comprehension","118","1044140","0.0-2.0-23.1-0.1","battery-v0.2","","""event"",""trial"",""time""
""fullscreenenter"",""1"",""4192""
","
","
","""event"",""trial"",""time""
""fullscreenenter"",""1"",""4192""
","
","","","8585.89999999851","[""True""]","0","22","4919","2541","","","","","","","","","","","","","","","","","","",""
"pit-instructions","119","1045919","0.0-2.0-23.1-1.1","battery-v0.2","","""event"",""trial"",""time""
""fullscreenenter"",""1"",""4192""
","
","
","""event"",""trial"",""time""
""fullscreenenter"",""1"",""4192""
","
","","[{""page_index"":0,""viewing_time"":1737.3000000044703}]","1737.6000000014901","","","","","","","","","","","","","","","","","","","","","","","",""
"pit-comprehension","120","1054018","0.0-2.0-24.0-0.0","battery-v0.2","","""event"",""trial"",""time""
""fullscreenenter"",""1"",""4192""
","
","
","""event"",""trial"",""time""
""fullscreenenter"",""1"",""4192""
","
","","","8092.5","[""True""]","0","22","4919","2541","","","","","","","","","","","","","","","","","","",""
"pit-instructions","121","1059673","0.0-2.0-24.0-1.0","battery-v0.2","","""event"",""trial"",""time""
""fullscreenenter"",""1"",""4192""
","
","
","""event"",""trial"",""time""
""fullscreenenter"",""1"",""4192""
","
","","[{""page_index"":0,""viewing_time"":5609.4000000059605}]","5609.60000000149","","","","","","","","","","","","","","","","","","","","","","","",""
"pit-comprehension","122","1068804","0.0-2.0-25.0-0.0","battery-v0.2","","""event"",""trial"",""time""
""fullscreenenter"",""1"",""4192""
","
","
","""event"",""trial"",""time""
""fullscreenenter"",""1"",""4192""
","
","","","9125.79999999702","[""True""]","0","22","4919","2541","","","","","","","","","","","","","","","","","","",""
"pit-instructions","123","1071108","0.0-2.0-25.0-1.0","battery-v0.2","","""event"",""trial"",""time""
""fullscreenenter"",""1"",""4192""
","
","
","""event"",""trial"",""time""
""fullscreenenter"",""1"",""4192""
","
","","[{""page_index"":0,""viewing_time"":2257.5}]","2257.89999999851","","","","","","","","","","","","","","","","","","","","","","","",""
"pit-comprehension","124","1082954","0.0-2.0-26.0-0.0","battery-v0.2","","""event"",""trial"",""time""
""fullscreenenter"",""1"",""4192""
","
","
","""event"",""trial"",""time""
""fullscreenenter"",""1"",""4192""
","
","","","11837.89999999851","[""True""]","1","22","4919","2541","","","","","","","","","","","","","","","","","","",""
"pit-instructions","125","1090968","0.0-2.0-26.0-1.0","battery-v0.2","","""event"",""trial"",""time""
""fullscreenenter"",""1"",""4192""
","
","
","""event"",""trial"",""time""
""fullscreenenter"",""1"",""4192""
","
","","[{""page_index"":0,""viewing_time"":7965.69999999553}]","7967","","","","","","","","","","","","","","","","","","","","","","","",""
"pit-instructions","126","1092040","0.0-2.0-26.0-2.0-0.0","battery-v0.2","","""event"",""trial"",""time""
""fullscreenenter"",""1"",""4192""
","
","
","""event"",""trial"",""time""
""fullscreenenter"",""1"",""4192""
","
","","[{""page_index"":0,""viewing_time"":1067.6999999955297}]","1068.1999999955297","","","","","","","","","","","","","","","","","","","","","","","",""
"pit-comprehension","127","1096968","0.0-2.0-26.1-0.1","battery-v0.2","","""event"",""trial"",""time""
""fullscreenenter"",""1"",""4192""
","
","
","""event"",""trial"",""time""
""fullscreenenter"",""1"",""4192""
","
","","","4923.39999999851","[""False""]","0","22","4919","2541","","","","","","","","","","","","","","","","","","",""
"pit-instructions","128","1099762","0.0-2.0-26.1-1.1","battery-v0.2","","""event"",""trial"",""time""
""fullscreenenter"",""1"",""4192""
","
","
","""event"",""trial"",""time""
""fullscreenenter"",""1"",""4192""
","
","","[{""page_index"":0,""viewing_time"":2719.7999999970198}]","2720.1999999955297","","","","","","","","","","","","","","","","","","","","","","","",""
"pit-instructions","129","1118636","0.0-3.0","battery-v0.2","","""event"",""trial"",""time""
""fullscreenenter"",""1"",""4192""
","
","
","""event"",""trial"",""time""
""fullscreenenter"",""1"",""4192""
","
","","[{""page_index"":0,""viewing_time"":5748.70000000298},{""page_index"":1,""viewing_time"":6004.0999999940395},{""page_index"":2,""viewing_time"":7115.70000000298}]","18869","","","","","","","","","","","","","","","","","","","","","","","",""
"pit-trial","130","1123506","0.0-4.0","battery-v0.2","","""event"",""trial"",""time""
""fullscreenenter"",""1"",""4192""
","
","
","""event"",""trial"",""time""
""fullscreenenter"",""1"",""4192""
","
","","","-1","","","22","4919","2541","&#9752;","elianto","#f73b6a7A"," ","-1","0","-10","[]","0","1","","","4919","1","3","3","lose","go","0"
"pit-trial","131","1128370","0.0-5.0","battery-v0.2","","""event"",""trial"",""time""
""fullscreenenter"",""1"",""4192""
","
","
","""event"",""trial"",""time""
""fullscreenenter"",""1"",""4192""
","
","","","-1","","","22","4919","2541","&#9728;","elianto","#f73b6a7A","-1","-1","1","0","[]","0","1","","","4919","2","0","4","lose","no-go","0"
"pit-trial","132","1132204","0.0-6.0","battery-v0.2","","""event"",""trial"",""time""
""fullscreenenter"",""1"",""4192""
","
","
","""event"",""trial"",""time""
""fullscreenenter"",""1"",""4192""
","
","","","974.2999999970198","","","22","4919","2541","&#9733;","elianto","#3366ff99","-1"," ","0","+10","[1827.6000000014901]","1","1","","","4919","3","2","2","win","no-go","1"
"pit-trial","133","1135745","0.0-7.0","battery-v0.2","","""event"",""trial"",""time""
""fullscreenenter"",""1"",""4192""
","
","
","""event"",""trial"",""time""
""fullscreenenter"",""1"",""4192""
","
","","","676.3999999985099","","","22","4919","2541","&#9730;","elianto","#3366ff99"," "," ","1","0","[1533.7000000029802]","1","1","","","4919","4","1","1","win","go","1"
"pit-trial","134","1139239","0.0-8.0","battery-v0.2","","""event"",""trial"",""time""
""fullscreenenter"",""1"",""4192""
","
","
","""event"",""trial"",""time""
""fullscreenenter"",""1"",""4192""
","
","","","633.3000000044703","","","22","4919","2541","&#9733;","elianto","#3366ff99","-1"," ","0","0","[1487.6000000014901]","1","1","","","4919","5","2","2","win","no-go","0"
"pit-trial","135","1144103","0.0-9.0","battery-v0.2","","""event"",""trial"",""time""
""fullscreenenter"",""1"",""4192""
","
","
","""event"",""trial"",""time""
""fullscreenenter"",""1"",""4192""
","
","","","-1","","","22","4919","2541","&#9728;","elianto","#f73b6a7A","-1","-1","1","0","[]","0","1","","","4919","6","0","4","lose","no-go","0"
"pit-trial","136","1147558","0.0-10.0","battery-v0.2","","""event"",""trial"",""time""
""fullscreenenter"",""1"",""4192""
","
","
","""event"",""trial"",""time""
""fullscreenenter"",""1"",""4192""
","
","","","599.8999999985099","","","22","4919","2541","&#9730;","elianto","#3366ff99"," "," ","1","+10","[1450.8000000044703]","1","1","","","4919","7","1","1","win","go","0"
"pit-trial","137","1152418","0.0-11.0","battery-v0.2","","""event"",""trial"",""time""
""fullscreenenter"",""1"",""4192""
","
","
","""event"",""trial"",""time""
""fullscreenenter"",""1"",""4192""
","
","","","-1","","","22","4919","2541","&#9752;","elianto","#f73b6a7A"," ","-1","0","-10","[]","0","1","","","4919","8","3","3","lose","go","0"
"pit-trial","138","1157277","0.0-12.0","battery-v0.2","","""event"",""trial"",""time""
""fullscreenenter"",""1"",""4192""
","
","
","""event"",""trial"",""time""
""fullscreenenter"",""1"",""4192""
","
","","","-1","","","22","4919","2541","&#9752;","elianto","#f73b6a7A"," ","-1","0","-10","[]","0","1","","","4919","9","3","3","lose","go","0"
"pit-trial","139","1160701","0.0-13.0","battery-v0.2","","""event"",""trial"",""time""
""fullscreenenter"",""1"",""4192""
","
","
","""event"",""trial"",""time""
""fullscreenenter"",""1"",""4192""
","
","","","563.3999999985099","","","22","4919","2541","&#9733;","elianto","#3366ff99","-1"," ","0","0","[1415.6999999955297]","1","1","","","4919","10","2","2","win","no-go","0"
"pit-trial","140","1165560","0.0-14.0","battery-v0.2","","""event"",""trial"",""time""
""fullscreenenter"",""1"",""4192""
","
","
","""event"",""trial"",""time""
""fullscreenenter"",""1"",""4192""
","
","","","-1","","","22","4919","2541","&#9730;","elianto","#3366ff99"," ","-1","0","0","[3006.2000000029802]","1","1","","","4919","11","1","1","win","go","0"
"pit-trial","141","1170423","0.0-15.0","battery-v0.2","","""event"",""trial"",""time""
""fullscreenenter"",""1"",""4192""
","
","
","""event"",""trial"",""time""
""fullscreenenter"",""1"",""4192""
","
","","","-1","","","22","4919","2541","&#9728;","elianto","#f73b6a7A","-1","-1","1","-10","[]","0","1","","","4919","12","0","4","lose","no-go","1"
"pit-trial","142","1175283","0.0-16.0","battery-v0.2","","""event"",""trial"",""time""
""fullscreenenter"",""1"",""4192""
","
","
","""event"",""trial"",""time""
""fullscreenenter"",""1"",""4192""
","
","","","-1","","","22","4919","2541","&#9728;","elianto","#f73b6a7A","-1","-1","1","0","[]","0","1","","","4919","13","0","4","lose","no-go","0"
"pit-trial","143","1180142","0.0-17.0","battery-v0.2","","""event"",""trial"",""time""
""fullscreenenter"",""1"",""4192""
","
","
","""event"",""trial"",""time""
""fullscreenenter"",""1"",""4192""
","
","","","-1","","","22","4919","2541","&#9733;","elianto","#3366ff99","-1","-1","1","0","[]","0","1","","","4919","14","2","2","win","no-go","1"
"pit-trial","144","1183677","0.0-18.0","battery-v0.2","","""event"",""trial"",""time""
""fullscreenenter"",""1"",""4192""
","
","
","""event"",""trial"",""time""
""fullscreenenter"",""1"",""4192""
","
","","","672.5","","","22","4919","2541","&#9730;","elianto","#3366ff99"," "," ","1","+10","[1527.2999999970198]","1","1","","","4919","15","1","1","win","go","0"
"pit-trial","145","1188541","0.0-19.0","battery-v0.2","","""event"",""trial"",""time""
""fullscreenenter"",""1"",""4192""
","
","
","""event"",""trial"",""time""
""fullscreenenter"",""1"",""4192""
","
","","","-1","","","22","4919","2541","&#9752;","elianto","#f73b6a7A"," ","-1","0","0","[]","0","1","","","4919","16","3","3","lose","go","1"
"pit-trial","146","1193400","0.0-20.0","battery-v0.2","","""event"",""trial"",""time""
""fullscreenenter"",""1"",""4192""
","
","
","""event"",""trial"",""time""
""fullscreenenter"",""1"",""4192""
","
","","","-1","","","22","4919","2541","&#9728;","elianto","#f73b6a7A","-1","-1","1","-10","[]","0","1","","","4919","17","0","4","lose","no-go","1"
"pit-trial","147","1197640","0.0-21.0","battery-v0.2","","""event"",""trial"",""time""
""fullscreenenter"",""1"",""4192""
","
","
","""event"",""trial"",""time""
""fullscreenenter"",""1"",""4192""
","
","","","1378.3000000044703","","","22","4919","2541","&#9730;","elianto","#3366ff99"," "," ","1","+10","[2233.10000000149]","1","1","","","4919","18","1","1","win","go","0"
"pit-trial","148","1202508","0.0-22.0","battery-v0.2","","""event"",""trial"",""time""
""fullscreenenter"",""1"",""4192""
","
","
","""event"",""trial"",""time""
""fullscreenenter"",""1"",""4192""
","
","","","-1","","","22","4919","2541","&#9752;","elianto","#f73b6a7A"," ","-1","0","-10","[]","0","1","","","4919","19","3","3","lose","go","0"
"pit-trial","149","1207368","0.0-23.0","battery-v0.2","","""event"",""trial"",""time""
""fullscreenenter"",""1"",""4192""
","
","
","""event"",""trial"",""time""
""fullscreenenter"",""1"",""4192""
","
","","","-1","","","22","4919","2541","&#9733;","elianto","#3366ff99","-1","-1","1","+10","[]","0","1","","","4919","20","2","2","win","no-go","0"
"pit-instructions","150","1220867","0.0-24.0","battery-v0.2","","""event"",""trial"",""time""
""fullscreenenter"",""1"",""4192""
","
","
","""event"",""trial"",""time""
""fullscreenenter"",""1"",""4192""
","
","","[{""page_index"":0,""viewing_time"":6659.20000000298},{""page_index"":1,""viewing_time"":6836.10000000149}]","13495.60000000149","","","","","","","","","","","","","","","","","","","","","","","",""
"pit-trial","151","1225732","0.0-25.0","battery-v0.2","","""event"",""trial"",""time""
""fullscreenenter"",""1"",""4192""
","
","
","""event"",""trial"",""time""
""fullscreenenter"",""1"",""4192""
","
","","","-1","","","22","4919","2541","y","elianto","#f73b6a7A"," ","-1","0","0","[]","0","2","","","4919","21","2","3","lose","go","1"
"pit-trial","152","1230590","0.0-26.0","battery-v0.2","","""event"",""trial"",""time""
""fullscreenenter"",""1"",""4192""
","
","
","""event"",""trial"",""time""
""fullscreenenter"",""1"",""4192""
","
","","","-1","","","22","4919","2541","m","elianto","#f73b6a7A"," ","-1","0","-10","[]","0","2","","","4919","22","0","3","lose","go","0"
"pit-trial","153","1234735","0.0-27.0","battery-v0.2","","""event"",""trial"",""time""
""fullscreenenter"",""1"",""4192""
","
","
","""event"",""trial"",""time""
""fullscreenenter"",""1"",""4192""
","
","","","1285.3999999985099","","","22","4919","2541","h","elianto","#f73b6a7A","-1"," ","0","-10","[2138.39999999851]","1","2","","","4919","23","3","4","lose","no-go","0"
"pit-trial","154","1238249","0.0-28.0","battery-v0.2","","""event"",""trial"",""time""
""fullscreenenter"",""1"",""4192""
","
","
","""event"",""trial"",""time""
""fullscreenenter"",""1"",""4192""
","
","","","655.6000000014901","","","22","4919","2541","r","elianto","#3366ff99","-1"," ","0","0","[1507.8000000044703]","1","2","","","4919","24","1","2","win","no-go","0"
"pit-trial","155","1243108","0.0-29.0","battery-v0.2","","""event"",""trial"",""time""
""fullscreenenter"",""1"",""4192""
","
","
","""event"",""trial"",""time""
""fullscreenenter"",""1"",""4192""
","
","","","-1","","","22","4919","2541","y","elianto","#f73b6a7A"," ","-1","0","0","[]","0","2","","","4919","25","2","3","lose","go","1"
"pit-trial","156","1247966","0.0-30.0","battery-v0.2","","""event"",""trial"",""time""
""fullscreenenter"",""1"",""4192""
","
","
","""event"",""trial"",""time""
""fullscreenenter"",""1"",""4192""
","
","","","-1","","","22","4919","2541","m","elianto","#f73b6a7A"," ","-1","0","0","[]","0","2","","","4919","26","0","3","lose","go","1"
"pit-trial","157","1252827","0.0-31.0","battery-v0.2","","""event"",""trial"",""time""
""fullscreenenter"",""1"",""4192""
","
","
","""event"",""trial"",""time""
""fullscreenenter"",""1"",""4192""
","
","","","-1","","","22","4919","2541","h","elianto","#f73b6a7A","-1","-1","1","0","[510.5,3007.39999999851]","2","2","","","4919","27","3","4","lose","no-go","0"
"pit-trial","158","1256294","0.0-32.0","battery-v0.2","","""event"",""trial"",""time""
""fullscreenenter"",""1"",""4192""
","
","
","""event"",""trial"",""time""
""fullscreenenter"",""1"",""4192""
","
","","","604","","","22","4919","2541","r","elianto","#3366ff99","-1"," ","0","0","[1457.9000000059605]","1","2","","","4919","28","1","2","win","no-go","0"
"pit-trial","159","1259974","0.0-33.0","battery-v0.2","","""event"",""trial"",""time""
""fullscreenenter"",""1"",""4192""
","
","
","""event"",""trial"",""time""
""fullscreenenter"",""1"",""4192""
","
","","","818.5","","","22","4919","2541","r","elianto","#3366ff99","-1"," ","0","0","[1672.4000000059605]","1","2","","","4919","29","1","2","win","no-go","0"
"pit-trial","160","1264837","0.0-34.0","battery-v0.2","","""event"",""trial"",""time""
""fullscreenenter"",""1"",""4192""
","
","
","""event"",""trial"",""time""
""fullscreenenter"",""1"",""4192""
","
","","","-1","","","22","4919","2541","y","elianto","#f73b6a7A"," ","-1","0","-10","[]","0","2","","","4919","30","2","3","lose","go","0"
"pit-trial","161","1268737","0.0-35.0","battery-v0.2","","""event"",""trial"",""time""
""fullscreenenter"",""1"",""4192""
","
","
","""event"",""trial"",""time""
""fullscreenenter"",""1"",""4192""
","
","","","1041.1000000014901","","","22","4919","2541","h","elianto","#f73b6a7A","-1"," ","0","-10","[1894.7999999970198]","1","2","","","4919","31","3","4","lose","no-go","0"
"pit-trial","162","1273601","0.0-36.0","battery-v0.2","","""event"",""trial"",""time""
""fullscreenenter"",""1"",""4192""
","
","
","""event"",""trial"",""time""
""fullscreenenter"",""1"",""4192""
","
","","","-1","","","22","4919","2541","m","elianto","#f73b6a7A"," ","-1","0","-10","[]","0","2","","","4919","32","0","3","lose","go","0"
"pit-trial","163","1278459","0.0-37.0","battery-v0.2","","""event"",""trial"",""time""
""fullscreenenter"",""1"",""4192""
","
","
","""event"",""trial"",""time""
""fullscreenenter"",""1"",""4192""
","
","","","-1","","","22","4919","2541","y","elianto","#f73b6a7A"," ","-1","0","-10","[]","0","2","","","4919","33","2","3","lose","go","0"
"pit-trial","164","1283320","0.0-38.0","battery-v0.2","","""event"",""trial"",""time""
""fullscreenenter"",""1"",""4192""
","
","
","""event"",""trial"",""time""
""fullscreenenter"",""1"",""4192""
","
","","","-1","","","22","4919","2541","m","elianto","#f73b6a7A"," ","-1","0","-10","[3649]","1","2","","","4919","34","0","3","lose","go","0"
"pit-trial","165","1287091","0.0-39.0","battery-v0.2","","""event"",""trial"",""time""
""fullscreenenter"",""1"",""4192""
","
","
","""event"",""trial"",""time""
""fullscreenenter"",""1"",""4192""
","
","","","910.5","","","22","4919","2541","r","elianto","#3366ff99","-1"," ","0","0","[1763.1999999955297]","1","2","","","4919","35","1","2","win","no-go","0"
"pit-trial","166","1291946","0.0-40.0","battery-v0.2","","""event"",""trial"",""time""
""fullscreenenter"",""1"",""4192""
","
","
","""event"",""trial"",""time""
""fullscreenenter"",""1"",""4192""
","
","","","-1","","","22","4919","2541","h","elianto","#f73b6a7A","-1","-1","1","0","[]","0","2","","","4919","36","3","4","lose","no-go","0"
"pit-trial","167","1296807","0.0-41.0","battery-v0.2","","""event"",""trial"",""time""
""fullscreenenter"",""1"",""4192""
","
","
","""event"",""trial"",""time""
""fullscreenenter"",""1"",""4192""
","
","","","-1","","","22","4919","2541","y","elianto","#f73b6a7A"," ","-1","0","-10","[]","0","2","","","4919","37","2","3","lose","go","0"
"pit-trial","168","1300854","0.0-42.0","battery-v0.2","","""event"",""trial"",""time""
""fullscreenenter"",""1"",""4192""
","
","
","""event"",""trial"",""time""
""fullscreenenter"",""1"",""4192""
","
","","","1182.9000000059605","","","22","4919","2541","m","elianto","#f73b6a7A"," "," ","1","0","[2035.7000000029802]","1","2","","","4919","38","0","3","lose","go","0"
"pit-trial","169","1305725","0.0-43.0","battery-v0.2","","""event"",""trial"",""time""
""fullscreenenter"",""1"",""4192""
","
","
","""event"",""trial"",""time""
""fullscreenenter"",""1"",""4192""
","
","","","-1","","","22","4919","2541","r","elianto","#3366ff99","-1","-1","1","+10","[]","0","2","","","4919","39","1","2","win","no-go","0"
"pit-trial","170","1310587","0.0-44.0","battery-v0.2","","""event"",""trial"",""time""
""fullscreenenter"",""1"",""4192""
","
","
","""event"",""trial"",""time""
""fullscreenenter"",""1"",""4192""
","
","","","-1","","","22","4919","2541","h","elianto","#f73b6a7A","-1","-1","1","0","[]","0","2","","","4919","40","3","4","lose","no-go","0"
"pit-trial","171","1315201","0.0-45.0","battery-v0.2","","""event"",""trial"",""time""
""fullscreenenter"",""1"",""4192""
","
","
","""event"",""trial"",""time""
""fullscreenenter"",""1"",""4192""
","
","","","1758","","","22","4919","2541","m","elianto","#f73b6a7A"," "," ","1","-10","[2609]","1","2","","","4919","41","0","3","lose","go","1"
"pit-trial","172","1319035","0.0-46.0","battery-v0.2","","""event"",""trial"",""time""
""fullscreenenter"",""1"",""4192""
","
","
","""event"",""trial"",""time""
""fullscreenenter"",""1"",""4192""
","
","","","972.8999999985099","","","22","4919","2541","r","elianto","#3366ff99","-1"," ","0","0","[1827.7999999970198]","1","2","","","4919","42","1","2","win","no-go","0"
"pit-trial","173","1323894","0.0-47.0","battery-v0.2","","""event"",""trial"",""time""
""fullscreenenter"",""1"",""4192""
","
","
","""event"",""trial"",""time""
""fullscreenenter"",""1"",""4192""
","
","","","-1","","","22","4919","2541","y","elianto","#f73b6a7A"," ","-1","0","0","[]","0","2","","","4919","43","2","3","lose","go","1"
"pit-trial","174","1328710","0.0-48.0","battery-v0.2","","""event"",""trial"",""time""
""fullscreenenter"",""1"",""4192""
","
","
","""event"",""trial"",""time""
""fullscreenenter"",""1"",""4192""
","
","","","1944.3000000044703","","","22","4919","2541","h","elianto","#f73b6a7A","-1"," ","0","0","[2812]","1","2","","","4919","44","3","4","lose","no-go","1"
"pit-trial","175","1333573","0.0-49.0","battery-v0.2","","""event"",""trial"",""time""
""fullscreenenter"",""1"",""4192""
","
","
","""event"",""trial"",""time""
""fullscreenenter"",""1"",""4192""
","
","","","-1","","","22","4919","2541","h","elianto","#f73b6a7A","-1","-1","1","-10","[]","0","2","","","4919","45","3","4","lose","no-go","1"
"pit-trial","176","1337259","0.0-50.0","battery-v0.2","","""event"",""trial"",""time""
""fullscreenenter"",""1"",""4192""
","
","
","""event"",""trial"",""time""
""fullscreenenter"",""1"",""4192""
","
","","","826.6000000014901","","","22","4919","2541","r","elianto","#3366ff99","-1"," ","0","0","[1681.7999999970198]","1","2","","","4919","46","1","2","win","no-go","0"
"pit-trial","177","1341665","0.0-51.0","battery-v0.2","","""event"",""trial"",""time""
""fullscreenenter"",""1"",""4192""
","
","
","""event"",""trial"",""time""
""fullscreenenter"",""1"",""4192""
","
","","","1543.8999999985099","","","22","4919","2541","m","elianto","#f73b6a7A"," "," ","1","-10","[2397]","1","2","","","4919","47","0","3","lose","go","1"
"pit-trial","178","1346523","0.0-52.0","battery-v0.2","","""event"",""trial"",""time""
""fullscreenenter"",""1"",""4192""
","
","
","""event"",""trial"",""time""
""fullscreenenter"",""1"",""4192""
","
","","","-1","","","22","4919","2541","y","elianto","#f73b6a7A"," ","-1","0","-10","[]","0","2","","","4919","48","2","3","lose","go","0"
"pit-trial","179","1350438","0.0-53.0","battery-v0.2","","""event"",""trial"",""time""
""fullscreenenter"",""1"",""4192""
","
","
","""event"",""trial"",""time""
""fullscreenenter"",""1"",""4192""
","
","","","1056.7000000029802","","","22","4919","2541","m","elianto","#f73b6a7A"," "," ","1","0","[1907.6000000014901]","1","2","","","4919","49","0","3","lose","go","0"
"pit-trial","180","1355297","0.0-54.0","battery-v0.2","","""event"",""trial"",""time""
""fullscreenenter"",""1"",""4192""
","
","
","""event"",""trial"",""time""
""fullscreenenter"",""1"",""4192""
","
","","","-1","","","22","4919","2541","y","elianto","#f73b6a7A"," ","-1","0","-10","[]","0","2","","","4919","50","2","3","lose","go","0"
"pit-trial","181","1360155","0.0-55.0","battery-v0.2","","""event"",""trial"",""time""
""fullscreenenter"",""1"",""4192""
","
","
","""event"",""trial"",""time""
""fullscreenenter"",""1"",""4192""
","
","","","-1","","","22","4919","2541","h","elianto","#f73b6a7A","-1","-1","1","0","[]","0","2","","","4919","51","3","4","lose","no-go","0"
"pit-trial","182","1365016","0.0-56.0","battery-v0.2","","""event"",""trial"",""time""
""fullscreenenter"",""1"",""4192""
","
","
","""event"",""trial"",""time""
""fullscreenenter"",""1"",""4192""
","
","","","-1","","","22","4919","2541","r","elianto","#3366ff99","-1","-1","1","0","[]","0","2","","","4919","52","1","2","win","no-go","1"
"pit-trial","183","1369878","0.0-57.0","battery-v0.2","","""event"",""trial"",""time""
""fullscreenenter"",""1"",""4192""
","
","
","""event"",""trial"",""time""
""fullscreenenter"",""1"",""4192""
","
","","","-1","","","22","4919","2541","h","elianto","#f73b6a7A","-1","-1","1","-10","[]","0","2","","","4919","53","3","4","lose","no-go","1"
"pit-trial","184","1374739","0.0-58.0","battery-v0.2","","""event"",""trial"",""time""
""fullscreenenter"",""1"",""4192""
","
","
","""event"",""trial"",""time""
""fullscreenenter"",""1"",""4192""
","
","","","-1","","","22","4919","2541","y","elianto","#f73b6a7A"," ","-1","0","-10","[]","0","2","","","4919","54","2","3","lose","go","0"
"pit-trial","185","1378321","0.0-59.0","battery-v0.2","","""event"",""trial"",""time""
""fullscreenenter"",""1"",""4192""
","
","
","""event"",""trial"",""time""
""fullscreenenter"",""1"",""4192""
","
","","","721.1000000014901","","","22","4919","2541","r","elianto","#3366ff99","-1"," ","0","0","[1578.3000000044703]","1","2","","","4919","55","1","2","win","no-go","0"
"pit-trial","186","1383179","0.0-60.0","battery-v0.2","","""event"",""trial"",""time""
""fullscreenenter"",""1"",""4192""
","
","
","""event"",""trial"",""time""
""fullscreenenter"",""1"",""4192""
","
","","","-1","","","22","4919","2541","m","elianto","#f73b6a7A"," ","-1","0","0","[]","0","2","","","4919","56","0","3","lose","go","1"
"pit-trial","187","1387094","0.0-61.0","battery-v0.2","","""event"",""trial"",""time""
""fullscreenenter"",""1"",""4192""
","
","
","""event"",""trial"",""time""
""fullscreenenter"",""1"",""4192""
","
","","","1057.3999999985099","","","22","4919","2541","z","elianto","#3366ff99"," "," ","1","+10","[1908.3999999985099]","1","2","","","4919","57","4","1","win","go","0"
"pit-trial","188","1391803","0.0-62.0","battery-v0.2","","""event"",""trial"",""time""
""fullscreenenter"",""1"",""4192""
","
","
","""event"",""trial"",""time""
""fullscreenenter"",""1"",""4192""
","
","","","1851.2999999970198","","","22","4919","2541","m","elianto","#f73b6a7A"," "," ","1","0","[2703.1999999955297]","1","2","","","4919","58","0","3","lose","go","0"
"pit-trial","189","1395856","0.0-63.0","battery-v0.2","","""event"",""trial"",""time""
""fullscreenenter"",""1"",""4192""
","
","
","""event"",""trial"",""time""
""fullscreenenter"",""1"",""4192""
","
","","","1191.5999999940395","","","22","4919","2541","h","elianto","#f73b6a7A","-1"," ","0","-10","[2047.2999999970198]","1","2","","","4919","59","3","4","lose","no-go","0"
"pit-trial","190","1400715","0.0-64.0","battery-v0.2","","""event"",""trial"",""time""
""fullscreenenter"",""1"",""4192""
","
","
","""event"",""trial"",""time""
""fullscreenenter"",""1"",""4192""
","
","","","-1","","","22","4919","2541","y","elianto","#f73b6a7A"," ","-1","0","0","[]","0","2","","","4919","60","2","3","lose","go","1"
"pit-trial","191","1404272","0.0-65.0","battery-v0.2","","""event"",""trial"",""time""
""fullscreenenter"",""1"",""4192""
","
","
","""event"",""trial"",""time""
""fullscreenenter"",""1"",""4192""
","
","","","694.3999999985099","","","22","4919","2541","r","elianto","#3366ff99","-1"," ","0","0","[1552.6999999955297]","1","2","","","4919","61","1","2","win","no-go","0"
"pit-trial","192","1407969","0.0-66.0","battery-v0.2","","""event"",""trial"",""time""
""fullscreenenter"",""1"",""4192""
","
","
","""event"",""trial"",""time""
""fullscreenenter"",""1"",""4192""
","
","","","836.1999999955297","","","22","4919","2541","z","elianto","#3366ff99"," "," ","1","0","[1690.2999999970198]","1","2","","","4919","62","4","1","win","go","1"
"pit-trial","193","1412830","0.0-67.0","battery-v0.2","","""event"",""trial"",""time""
""fullscreenenter"",""1"",""4192""
","
","
","""event"",""trial"",""time""
""fullscreenenter"",""1"",""4192""
","
","","","-1","","","22","4919","2541","h","elianto","#f73b6a7A","-1","-1","1","0","[]","0","2","","","4919","63","3","4","lose","no-go","0"
"pit-trial","194","1417691","0.0-68.0","battery-v0.2","","""event"",""trial"",""time""
""fullscreenenter"",""1"",""4192""
","
","
","""event"",""trial"",""time""
""fullscreenenter"",""1"",""4192""
","
","","","-1","","","22","4919","2541","y","elianto","#f73b6a7A"," ","-1","0","-10","[]","0","2","","","4919","64","2","3","lose","go","0"
"pit-trial","195","1422550","0.0-69.0","battery-v0.2","","""event"",""trial"",""time""
""fullscreenenter"",""1"",""4192""
","
","
","""event"",""trial"",""time""
""fullscreenenter"",""1"",""4192""
","
","","","-1","","","22","4919","2541","h","elianto","#f73b6a7A","-1","-1","1","0","[]","0","2","","","4919","65","3","4","lose","no-go","0"
"pit-trial","196","1426246","0.0-70.0","battery-v0.2","","""event"",""trial"",""time""
""fullscreenenter"",""1"",""4192""
","
","
","""event"",""trial"",""time""
""fullscreenenter"",""1"",""4192""
","
","","","835.8000000044703","","","22","4919","2541","z","elianto","#3366ff99"," "," ","1","0","[1690.8000000044703]","1","2","","","4919","66","4","1","win","go","1"
"pit-trial","197","1429793","0.0-71.0","battery-v0.2","","""event"",""trial"",""time""
""fullscreenenter"",""1"",""4192""
","
","
","""event"",""trial"",""time""
""fullscreenenter"",""1"",""4192""
","
","","","683.5","","","22","4919","2541","r","elianto","#3366ff99","-1"," ","0","+10","[1538.5]","1","2","","","4919","67","1","2","win","no-go","1"
"pit-trial","198","1433366","0.0-72.0","battery-v0.2","","""event"",""trial"",""time""
""fullscreenenter"",""1"",""4192""
","
","
","""event"",""trial"",""time""
""fullscreenenter"",""1"",""4192""
","
","","","713.5","","","22","4919","2541","c","elianto","#3366ff99","-1"," ","0","0","[1566.1000000014901]","1","2","","","4919","68","5","2","win","no-go","0"
"pit-trial","199","1438227","0.0-73.0","battery-v0.2","","""event"",""trial"",""time""
""fullscreenenter"",""1"",""4192""
","
","
","""event"",""trial"",""time""
""fullscreenenter"",""1"",""4192""
","
","","","-1","","","22","4919","2541","r","elianto","#3366ff99","-1","-1","1","+10","[]","0","2","","","4919","69","1","2","win","no-go","0"
"pit-trial","200","1442251","0.0-74.0","battery-v0.2","","""event"",""trial"",""time""
""fullscreenenter"",""1"",""4192""
","
","
","""event"",""trial"",""time""
""fullscreenenter"",""1"",""4192""
","
","","","1168.9000000059605","","","22","4919","2541","c","elianto","#3366ff99","-1"," ","0","+10","[2019.7000000029802]","1","2","","","4919","70","5","2","win","no-go","1"
"pit-trial","201","1447111","0.0-75.0","battery-v0.2","","""event"",""trial"",""time""
""fullscreenenter"",""1"",""4192""
","
","
","""event"",""trial"",""time""
""fullscreenenter"",""1"",""4192""
","
","","","-1","","","22","4919","2541","y","elianto","#f73b6a7A"," ","-1","0","-10","[]","0","2","","","4919","71","2","3","lose","go","0"
"pit-trial","202","1450934","0.0-76.0","battery-v0.2","","""event"",""trial"",""time""
""fullscreenenter"",""1"",""4192""
","
","
","""event"",""trial"",""time""
""fullscreenenter"",""1"",""4192""
","
","","","966","","","22","4919","2541","z","elianto","#3366ff99"," "," ","1","+10","[1816.3000000044703]","1","2","","","4919","72","4","1","win","go","0"
"pit-trial","203","1455794","0.0-77.0","battery-v0.2","","""event"",""trial"",""time""
""fullscreenenter"",""1"",""4192""
","
","
","""event"",""trial"",""time""
""fullscreenenter"",""1"",""4192""
","
","","","-1","","","22","4919","2541","h","elianto","#f73b6a7A","-1","-1","1","0","[]","0","2","","","4919","73","3","4","lose","no-go","0"
"pit-trial","204","1460653","0.0-78.0","battery-v0.2","","""event"",""trial"",""time""
""fullscreenenter"",""1"",""4192""
","
","
","""event"",""trial"",""time""
""fullscreenenter"",""1"",""4192""
","
","","","-1","","","22","4919","2541","r","elianto","#3366ff99","-1","-1","1","+10","[]","0","2","","","4919","74","1","2","win","no-go","0"
"pit-trial","205","1464196","0.0-79.0","battery-v0.2","","""event"",""trial"",""time""
""fullscreenenter"",""1"",""4192""
","
","
","""event"",""trial"",""time""
""fullscreenenter"",""1"",""4192""
","
","","","683.7000000029802","","","22","4919","2541","z","elianto","#3366ff99"," "," ","1","+10","[1535.8999999985099]","1","2","","","4919","75","4","1","win","go","0"
"pit-trial","206","1467654","0.0-80.0","battery-v0.2","","""event"",""trial"",""time""
""fullscreenenter"",""1"",""4192""
","
","
","""event"",""trial"",""time""
""fullscreenenter"",""1"",""4192""
","
","","","602.7999999970198","","","22","4919","2541","c","elianto","#3366ff99","-1"," ","0","0","[1452.8999999985099]","1","2","","","4919","76","5","2","win","no-go","0"
"pit-trial","207","1471259","0.0-81.0","battery-v0.2","","""event"",""trial"",""time""
""fullscreenenter"",""1"",""4192""
","
","
","""event"",""trial"",""time""
""fullscreenenter"",""1"",""4192""
","
","","","747","","","22","4919","2541","c","elianto","#3366ff99","-1"," ","0","0","[1598.1000000014901]","1","2","","","4919","77","5","2","win","no-go","0"
"pit-trial","208","1476120","0.0-82.0","battery-v0.2","","""event"",""trial"",""time""
""fullscreenenter"",""1"",""4192""
","
","
","""event"",""trial"",""time""
""fullscreenenter"",""1"",""4192""
","
","","","-1","","","22","4919","2541","h","elianto","#f73b6a7A","-1","-1","1","0","[]","0","2","","","4919","78","3","4","lose","no-go","0"
"pit-trial","209","1480113","0.0-83.0","battery-v0.2","","""event"",""trial"",""time""
""fullscreenenter"",""1"",""4192""
","
","
","""event"",""trial"",""time""
""fullscreenenter"",""1"",""4192""
","
","","","1133.7999999970198","","","22","4919","2541","z","elianto","#3366ff99"," "," ","1","+10","[1986.7999999970198]","1","2","","","4919","79","4","1","win","go","0"
"pit-trial","210","1483656","0.0-84.0","battery-v0.2","","""event"",""trial"",""time""
""fullscreenenter"",""1"",""4192""
","
","
","""event"",""trial"",""time""
""fullscreenenter"",""1"",""4192""
","
","","","678.5","","","22","4919","2541","z","elianto","#3366ff99"," "," ","1","0","[1533.8999999985099]","1","2","","","4919","80","4","1","win","go","1"
"pit-trial","211","1488518","0.0-85.0","battery-v0.2","","""event"",""trial"",""time""
""fullscreenenter"",""1"",""4192""
","
","
","""event"",""trial"",""time""
""fullscreenenter"",""1"",""4192""
","
","","","-1","","","22","4919","2541","t","elianto","#f73b6a7A","-1","-1","1","-10","[]","0","2","","","4919","81","7","4","lose","no-go","1"
"pit-trial","212","1493377","0.0-86.0","battery-v0.2","","""event"",""trial"",""time""
""fullscreenenter"",""1"",""4192""
","
","
","""event"",""trial"",""time""
""fullscreenenter"",""1"",""4192""
","
","","","-1","","","22","4919","2541","h","elianto","#f73b6a7A","-1","-1","1","0","[]","0","2","","","4919","82","3","4","lose","no-go","0"
"pit-trial","213","1497263","0.0-87.0","battery-v0.2","","""event"",""trial"",""time""
""fullscreenenter"",""1"",""4192""
","
","
","""event"",""trial"",""time""
""fullscreenenter"",""1"",""4192""
","
","","","1025.5","","","22","4919","2541","z","elianto","#3366ff99"," "," ","1","+10","[1877.2000000029802]","1","2","","","4919","83","4","1","win","go","0"
"pit-trial","214","1500813","0.0-88.0","battery-v0.2","","""event"",""trial"",""time""
""fullscreenenter"",""1"",""4192""
","
","
","""event"",""trial"",""time""
""fullscreenenter"",""1"",""4192""
","
","","","692.8999999985099","","","22","4919","2541","c","elianto","#3366ff99","-1"," ","0","+10","[1544.5999999940395]","1","2","","","4919","84","5","2","win","no-go","1"
"pit-trial","215","1504550","0.0-89.0","battery-v0.2","","""event"",""trial"",""time""
""fullscreenenter"",""1"",""4192""
","
","
","""event"",""trial"",""time""
""fullscreenenter"",""1"",""4192""
","
","","","878.3000000044703","","","22","4919","2541","z","elianto","#3366ff99"," "," ","1","0","[1731]","1","2","","","4919","85","4","1","win","go","1"
"pit-trial","216","1507936","0.0-90.0","battery-v0.2","","""event"",""trial"",""time""
""fullscreenenter"",""1"",""4192""
","
","
","""event"",""trial"",""time""
""fullscreenenter"",""1"",""4192""
","
","","","519.2999999970198","","","22","4919","2541","c","elianto","#3366ff99","-1"," ","0","+10","[1375.5999999940395]","1","2","","","4919","86","5","2","win","no-go","1"
"pit-trial","217","1512796","0.0-91.0","battery-v0.2","","""event"",""trial"",""time""
""fullscreenenter"",""1"",""4192""
","
","
","""event"",""trial"",""time""
""fullscreenenter"",""1"",""4192""
","
","","","-1","","","22","4919","2541","t","elianto","#f73b6a7A","-1","-1","1","0","[]","0","2","","","4919","87","7","4","lose","no-go","0"
"pit-trial","218","1517660","0.0-92.0","battery-v0.2","","""event"",""trial"",""time""
""fullscreenenter"",""1"",""4192""
","
","
","""event"",""trial"",""time""
""fullscreenenter"",""1"",""4192""
","
","","","-1","","","22","4919","2541","b","elianto","#f73b6a7A"," ","-1","0","-10","[]","0","2","","","4919","88","6","3","lose","go","0"
"pit-trial","219","1522357","0.0-93.0","battery-v0.2","","""event"",""trial"",""time""
""fullscreenenter"",""1"",""4192""
","
","
","""event"",""trial"",""time""
""fullscreenenter"",""1"",""4192""
","
","","","1834.2999999970198","","","22","4919","2541","c","elianto","#3366ff99","-1"," ","0","0","[2689]","1","2","","","4919","89","5","2","win","no-go","0"
"pit-trial","220","1527213","0.0-94.0","battery-v0.2","","""event"",""trial"",""time""
""fullscreenenter"",""1"",""4192""
","
","
","""event"",""trial"",""time""
""fullscreenenter"",""1"",""4192""
","
","","","-1","","","22","4919","2541","t","elianto","#f73b6a7A","-1","-1","1","0","[]","0","2","","","4919","90","7","4","lose","no-go","0"
"pit-trial","221","1531334","0.0-95.0","battery-v0.2","","""event"",""trial"",""time""
""fullscreenenter"",""1"",""4192""
","
","
","""event"",""trial"",""time""
""fullscreenenter"",""1"",""4192""
","
","","","1262.3999999985099","","","22","4919","2541","z","elianto","#3366ff99"," "," ","1","+10","[2113.39999999851]","1","2","","","4919","91","4","1","win","go","0"
"pit-trial","222","1536198","0.0-96.0","battery-v0.2","","""event"",""trial"",""time""
""fullscreenenter"",""1"",""4192""
","
","
","""event"",""trial"",""time""
""fullscreenenter"",""1"",""4192""
","
","","","-1","","","22","4919","2541","b","elianto","#f73b6a7A"," ","-1","0","0","[2906.5]","1","2","","","4919","92","6","3","lose","go","1"
"pit-trial","223","1540049","0.0-97.0","battery-v0.2","","""event"",""trial"",""time""
""fullscreenenter"",""1"",""4192""
","
","
","""event"",""trial"",""time""
""fullscreenenter"",""1"",""4192""
","
","","","986.6000000014901","","","22","4919","2541","f","elianto","#3366ff99"," "," ","1","+10","[1839.5]","1","2","","","4919","93","8","1","win","go","0"
"pit-trial","224","1543782","0.0-98.0","battery-v0.2","","""event"",""trial"",""time""
""fullscreenenter"",""1"",""4192""
","
","
","""event"",""trial"",""time""
""fullscreenenter"",""1"",""4192""
","
","","","873.5","","","22","4919","2541","c","elianto","#3366ff99","-1"," ","0","0","[1725.2000000029802]","1","2","","","4919","94","5","2","win","no-go","0"
"pit-trial","225","1548641","0.0-99.0","battery-v0.2","","""event"",""trial"",""time""
""fullscreenenter"",""1"",""4192""
","
","
","""event"",""trial"",""time""
""fullscreenenter"",""1"",""4192""
","
","","","-1","","","22","4919","2541","t","elianto","#f73b6a7A","-1","-1","1","0","[]","0","2","","","4919","95","7","4","lose","no-go","0"
"pit-trial","226","1552667","0.0-100.0","battery-v0.2","","""event"",""trial"",""time""
""fullscreenenter"",""1"",""4192""
","
","
","""event"",""trial"",""time""
""fullscreenenter"",""1"",""4192""
","
","","","1162.2999999970198","","","22","4919","2541","b","elianto","#f73b6a7A"," "," ","1","0","[2015.5999999940395]","1","2","","","4919","96","6","3","lose","go","0"
"pit-trial","227","1557534","0.0-101.0","battery-v0.2","","""event"",""trial"",""time""
""fullscreenenter"",""1"",""4192""
","
","
","""event"",""trial"",""time""
""fullscreenenter"",""1"",""4192""
","
","","","-1","","","22","4919","2541","t","elianto","#f73b6a7A","-1","-1","1","0","[]","0","2","","","4919","97","7","4","lose","no-go","0"
"pit-trial","228","1561677","0.0-102.0","battery-v0.2","","""event"",""trial"",""time""
""fullscreenenter"",""1"",""4192""
","
","
","""event"",""trial"",""time""
""fullscreenenter"",""1"",""4192""
","
","","","1274.8999999985099","","","22","4919","2541","f","elianto","#3366ff99"," "," ","1","0","[2125.4000000059605]","1","2","","","4919","98","8","1","win","go","1"
"pit-trial","229","1565843","0.0-103.0","battery-v0.2","","""event"",""trial"",""time""
""fullscreenenter"",""1"",""4192""
","
","
","""event"",""trial"",""time""
""fullscreenenter"",""1"",""4192""
","
","","","1302.5","","","22","4919","2541","b","elianto","#f73b6a7A"," "," ","1","0","[2153.8000000044703]","1","2","","","4919","99","6","3","lose","go","0"
"pit-trial","230","1570305","0.0-104.0","battery-v0.2","","""event"",""trial"",""time""
""fullscreenenter"",""1"",""4192""
","
","
","""event"",""trial"",""time""
""fullscreenenter"",""1"",""4192""
","
","","","1603.7000000029802","","","22","4919","2541","c","elianto","#3366ff99","-1"," ","0","+10","[2453.7000000029802]","1","2","","","4919","100","5","2","win","no-go","1"
"pit-trial","231","1573846","0.0-105.0","battery-v0.2","","""event"",""trial"",""time""
""fullscreenenter"",""1"",""4192""
","
","
","""event"",""trial"",""time""
""fullscreenenter"",""1"",""4192""
","
","","","682.2999999970198","","","22","4919","2541","c","elianto","#3366ff99","-1"," ","0","0","[1533.5]","1","2","","","4919","101","5","2","win","no-go","0"
"pit-trial","232","1578710","0.0-106.0","battery-v0.2","","""event"",""trial"",""time""
""fullscreenenter"",""1"",""4192""
","
","
","""event"",""trial"",""time""
""fullscreenenter"",""1"",""4192""
","
","","","-1","","","22","4919","2541","t","elianto","#f73b6a7A","-1","-1","1","-10","[]","0","2","","","4919","102","7","4","lose","no-go","1"
"pit-trial","233","1583361","0.0-107.0","battery-v0.2","","""event"",""trial"",""time""
""fullscreenenter"",""1"",""4192""
","
","
","""event"",""trial"",""time""
""fullscreenenter"",""1"",""4192""
","
","","","1793.7999999970198","","","22","4919","2541","n","elianto","#3366ff99"," "," ","1","+10","[2645.7000000029802]","1","2","","","4919","103","9","1","win","go","0"
"pit-trial","234","1587979","0.0-108.0","battery-v0.2","","""event"",""trial"",""time""
""fullscreenenter"",""1"",""4192""
","
","
","""event"",""trial"",""time""
""fullscreenenter"",""1"",""4192""
","
","","","1757.6000000014901","","","22","4919","2541","f","elianto","#3366ff99"," "," ","1","0","[2611.5]","1","2","","","4919","104","8","1","win","go","1"
"pit-trial","235","1591952","0.0-109.0","battery-v0.2","","""event"",""trial"",""time""
""fullscreenenter"",""1"",""4192""
","
","
","""event"",""trial"",""time""
""fullscreenenter"",""1"",""4192""
","
","","","913","","","22","4919","2541","f","elianto","#3366ff99"," "," ","1","+10","[1964.6999999955297]","1","2","","","4919","105","8","1","win","go","0"
"pit-trial","236","1595954","0.0-110.0","battery-v0.2","","""event"",""trial"",""time""
""fullscreenenter"",""1"",""4192""
","
","
","""event"",""trial"",""time""
""fullscreenenter"",""1"",""4192""
","
","","","1139.2000000029802","","","22","4919","2541","n","elianto","#3366ff99"," "," ","1","+10","[1989.7000000029802]","1","2","","","4919","106","9","1","win","go","0"
"pit-trial","237","1600742","0.0-111.0","battery-v0.2","","""event"",""trial"",""time""
""fullscreenenter"",""1"",""4192""
","
","
","""event"",""trial"",""time""
""fullscreenenter"",""1"",""4192""
","
","","","1925.0999999940395","","","22","4919","2541","b","elianto","#f73b6a7A"," "," ","1","0","[2779.1999999955297]","1","2","","","4919","107","6","3","lose","go","0"
"pit-trial","238","1605238","0.0-112.0","battery-v0.2","","""event"",""trial"",""time""
""fullscreenenter"",""1"",""4192""
","
","
","""event"",""trial"",""time""
""fullscreenenter"",""1"",""4192""
","
","","","1634","","","22","4919","2541","z","elianto","#3366ff99"," "," ","1","+10","[2489.3000000044703]","1","2","","","4919","108","4","1","win","go","0"
"pit-trial","239","1609067","0.0-113.0","battery-v0.2","","""event"",""trial"",""time""
""fullscreenenter"",""1"",""4192""
","
","
","""event"",""trial"",""time""
""fullscreenenter"",""1"",""4192""
","
","","","967.1000000014901","","","22","4919","2541","n","elianto","#3366ff99"," "," ","1","+10","[1820.7999999970198]","1","2","","","4919","109","9","1","win","go","0"
"pit-trial","240","1612630","0.0-114.0","battery-v0.2","","""event"",""trial"",""time""
""fullscreenenter"",""1"",""4192""
","
","
","""event"",""trial"",""time""
""fullscreenenter"",""1"",""4192""
","
","","","700","","","22","4919","2541","c","elianto","#3366ff99","-1"," ","0","0","[1554.5]","1","2","","","4919","110","5","2","win","no-go","0"
"pit-trial","241","1616104","0.0-115.0","battery-v0.2","","""event"",""trial"",""time""
""fullscreenenter"",""1"",""4192""
","
","
","""event"",""trial"",""time""
""fullscreenenter"",""1"",""4192""
","
","","","609.9000000059605","","","22","4919","2541","f","elianto","#3366ff99"," "," ","1","+10","[1470.3000000044703]","1","2","","","4919","111","8","1","win","go","0"
"pit-trial","242","1620030","0.0-116.0","battery-v0.2","","""event"",""trial"",""time""
""fullscreenenter"",""1"",""4192""
","
","
","""event"",""trial"",""time""
""fullscreenenter"",""1"",""4192""
","
","","","1063.5","","","22","4919","2541","b","elianto","#f73b6a7A"," "," ","1","0","[1917.3999999985099]","1","2","","","4919","112","6","3","lose","go","0"
"pit-trial","243","1623723","0.0-117.0","battery-v0.2","","""event"",""trial"",""time""
""fullscreenenter"",""1"",""4192""
","
","
","""event"",""trial"",""time""
""fullscreenenter"",""1"",""4192""
","
","","","829.8000000044703","","","22","4919","2541","c","elianto","#3366ff99","-1"," ","0","0","[1686.1000000014901]","1","2","","","4919","113","5","2","win","no-go","0"
"pit-trial","244","1627355","0.0-118.0","battery-v0.2","","""event"",""trial"",""time""
""fullscreenenter"",""1"",""4192""
","
","
","""event"",""trial"",""time""
""fullscreenenter"",""1"",""4192""
","
","","","749.9000000059605","","","22","4919","2541","b","elianto","#f73b6a7A"," "," ","1","-10","[1624]","1","2","","","4919","114","6","3","lose","go","1"
"pit-trial","245","1630800","0.0-119.0","battery-v0.2","","""event"",""trial"",""time""
""fullscreenenter"",""1"",""4192""
","
","
","""event"",""trial"",""time""
""fullscreenenter"",""1"",""4192""
","
","","","587.5","","","22","4919","2541","f","elianto","#3366ff99"," "," ","1","+10","[1438.3999999985099]","1","2","","","4919","115","8","1","win","go","0"
"pit-trial","246","1634306","0.0-120.0","battery-v0.2","","""event"",""trial"",""time""
""fullscreenenter"",""1"",""4192""
","
","
","""event"",""trial"",""time""
""fullscreenenter"",""1"",""4192""
","
","","","638.2000000029802","","","22","4919","2541","n","elianto","#3366ff99"," "," ","1","+10","[1490.6000000014901]","1","2","","","4919","116","9","1","win","go","0"
"pit-trial","247","1639046","0.0-121.0","battery-v0.2","","""event"",""trial"",""time""
""fullscreenenter"",""1"",""4192""
","
","
","""event"",""trial"",""time""
""fullscreenenter"",""1"",""4192""
","
","","","1880.8999999985099","","","22","4919","2541","b","elianto","#f73b6a7A"," "," ","1","0","[2734.60000000149]","1","2","","","4919","117","6","3","lose","go","0"
"pit-trial","248","1642699","0.0-122.0","battery-v0.2","","""event"",""trial"",""time""
""fullscreenenter"",""1"",""4192""
","
","
","""event"",""trial"",""time""
""fullscreenenter"",""1"",""4192""
","
","","","795.3999999985099","","","22","4919","2541","n","elianto","#3366ff99"," "," ","1","+10","[1649.1000000014901]","1","2","","","4919","118","9","1","win","go","0"
"pit-trial","249","1646151","0.0-123.0","battery-v0.2","","""event"",""trial"",""time""
""fullscreenenter"",""1"",""4192""
","
","
","""event"",""trial"",""time""
""fullscreenenter"",""1"",""4192""
","
","","","586","","","22","4919","2541","c","elianto","#3366ff99","-1"," ","0","0","[1438.2000000029802]","1","2","","","4919","119","5","2","win","no-go","0"
"pit-trial","250","1649574","0.0-124.0","battery-v0.2","","""event"",""trial"",""time""
""fullscreenenter"",""1"",""4192""
","
","
","""event"",""trial"",""time""
""fullscreenenter"",""1"",""4192""
","
","","","563.2000000029802","","","22","4919","2541","f","elianto","#3366ff99"," "," ","1","+10","[1415.3000000044703]","1","2","","","4919","120","8","1","win","go","0"
"pit-trial","251","1653019","0.0-125.0","battery-v0.2","","""event"",""trial"",""time""
""fullscreenenter"",""1"",""4192""
","
","
","""event"",""trial"",""time""
""fullscreenenter"",""1"",""4192""
","
","","","587.2999999970198","","","22","4919","2541","f","elianto","#3366ff99"," "," ","1","+10","[1438.2999999970198]","1","2","","","4919","121","8","1","win","go","0"
"pit-trial","252","1657881","0.0-126.0","battery-v0.2","","""event"",""trial"",""time""
""fullscreenenter"",""1"",""4192""
","
","
","""event"",""trial"",""time""
""fullscreenenter"",""1"",""4192""
","
","","","-1","","","22","4919","2541","t","elianto","#f73b6a7A","-1","-1","1","0","[]","0","2","","","4919","122","7","4","lose","no-go","0"
"pit-trial","253","1661494","0.0-127.0","battery-v0.2","","""event"",""trial"",""time""
""fullscreenenter"",""1"",""4192""
","
","
","""event"",""trial"",""time""
""fullscreenenter"",""1"",""4192""
","
","","","753.8999999985099","","","22","4919","2541","b","elianto","#f73b6a7A"," "," ","1","0","[1606.1000000014901]","1","2","","","4919","123","6","3","lose","go","0"
"pit-trial","254","1665046","0.0-128.0","battery-v0.2","","""event"",""trial"",""time""
""fullscreenenter"",""1"",""4192""
","
","
","""event"",""trial"",""time""
""fullscreenenter"",""1"",""4192""
","
","","","690.6000000014901","","","22","4919","2541","n","elianto","#3366ff99"," "," ","1","+10","[1544.1000000014901]","1","2","","","4919","124","9","1","win","go","0"
"pit-trial","255","1669907","0.0-129.0","battery-v0.2","","""event"",""trial"",""time""
""fullscreenenter"",""1"",""4192""
","
","
","""event"",""trial"",""time""
""fullscreenenter"",""1"",""4192""
","
","","","-1","","","22","4919","2541","t","elianto","#f73b6a7A","-1","-1","1","0","[]","0","2","","","4919","125","7","4","lose","no-go","0"
"pit-trial","256","1673494","0.0-130.0","battery-v0.2","","""event"",""trial"",""time""
""fullscreenenter"",""1"",""4192""
","
","
","""event"",""trial"",""time""
""fullscreenenter"",""1"",""4192""
","
","","","728.5","","","22","4919","2541","n","elianto","#3366ff99"," "," ","1","+10","[1579.1000000014901]","1","2","","","4919","126","9","1","win","go","0"
"pit-trial","257","1677174","0.0-131.0","battery-v0.2","","""event"",""trial"",""time""
""fullscreenenter"",""1"",""4192""
","
","
","""event"",""trial"",""time""
""fullscreenenter"",""1"",""4192""
","
","","","822","","","22","4919","2541","b","elianto","#f73b6a7A"," "," ","1","0","[1672.8999999985099]","1","2","","","4919","127","6","3","lose","go","0"
"pit-trial","258","1680891","0.0-132.0","battery-v0.2","","""event"",""trial"",""time""
""fullscreenenter"",""1"",""4192""
","
","
","""event"",""trial"",""time""
""fullscreenenter"",""1"",""4192""
","
","","","862","","","22","4919","2541","f","elianto","#3366ff99"," "," ","1","+10","[1712.2999999970198]","1","2","","","4919","128","8","1","win","go","0"
"pit-trial","259","1685755","0.0-133.0","battery-v0.2","","""event"",""trial"",""time""
""fullscreenenter"",""1"",""4192""
","
","
","""event"",""trial"",""time""
""fullscreenenter"",""1"",""4192""
","
","","","-1","","","22","4919","2541","t","elianto","#f73b6a7A","-1","-1","1","-10","[]","0","2","","","4919","129","7","4","lose","no-go","1"
"pit-trial","260","1689489","0.0-134.0","battery-v0.2","","""event"",""trial"",""time""
""fullscreenenter"",""1"",""4192""
","
","
","""event"",""trial"",""time""
""fullscreenenter"",""1"",""4192""
","
","","","873.8000000044703","","","22","4919","2541","f","elianto","#3366ff99"," "," ","1","+10","[1726.2000000029802]","1","2","","","4919","130","8","1","win","go","0"
"pit-trial","261","1693105","0.0-135.0","battery-v0.2","","""event"",""trial"",""time""
""fullscreenenter"",""1"",""4192""
","
","
","""event"",""trial"",""time""
""fullscreenenter"",""1"",""4192""
","
","","","759.5","","","22","4919","2541","b","elianto","#f73b6a7A"," "," ","1","0","[1610.2000000029802]","1","2","","","4919","131","6","3","lose","go","0"
"pit-trial","262","1696619","0.0-136.0","battery-v0.2","","""event"",""trial"",""time""
""fullscreenenter"",""1"",""4192""
","
","
","""event"",""trial"",""time""
""fullscreenenter"",""1"",""4192""
","
","","","654.3999999985099","","","22","4919","2541","n","elianto","#3366ff99"," "," ","1","+10","[1510.3999999985099]","1","2","","","4919","132","9","1","win","go","0"
"pit-trial","263","1700107","0.0-137.0","battery-v0.2","","""event"",""trial"",""time""
""fullscreenenter"",""1"",""4192""
","
","
","""event"",""trial"",""time""
""fullscreenenter"",""1"",""4192""
","
","","","630.3000000044703","","","22","4919","2541","f","elianto","#3366ff99"," "," ","1","+10","[1482.6000000014901]","1","2","","","4919","133","8","1","win","go","0"
"pit-trial","264","1703661","0.0-138.0","battery-v0.2","","""event"",""trial"",""time""
""fullscreenenter"",""1"",""4192""
","
","
","""event"",""trial"",""time""
""fullscreenenter"",""1"",""4192""
","
","","","693.9000000059605","","","22","4919","2541","b","elianto","#f73b6a7A"," "," ","1","0","[1544.6000000014901]","1","2","","","4919","134","6","3","lose","go","0"
"pit-trial","265","1708523","0.0-139.0","battery-v0.2","","""event"",""trial"",""time""
""fullscreenenter"",""1"",""4192""
","
","
","""event"",""trial"",""time""
""fullscreenenter"",""1"",""4192""
","
","","","-1","","","22","4919","2541","t","elianto","#f73b6a7A","-1","-1","1","0","[]","0","2","","","4919","135","7","4","lose","no-go","0"
"pit-trial","266","1712033","0.0-140.0","battery-v0.2","","""event"",""trial"",""time""
""fullscreenenter"",""1"",""4192""
","
","
","""event"",""trial"",""time""
""fullscreenenter"",""1"",""4192""
","
","","","640.1000000014901","","","22","4919","2541","n","elianto","#3366ff99"," "," ","1","+10","[1502.6999999955297]","1","2","","","4919","136","9","1","win","go","0"
"pit-trial","267","1716893","0.0-141.0","battery-v0.2","","""event"",""trial"",""time""
""fullscreenenter"",""1"",""4192""
","
","
","""event"",""trial"",""time""
""fullscreenenter"",""1"",""4192""
","
","","","-1","","","22","4919","2541","t","elianto","#f73b6a7A","-1","-1","1","-10","[]","0","2","","","4919","137","7","4","lose","no-go","1"
"pit-trial","268","1720491","0.0-142.0","battery-v0.2","","""event"",""trial"",""time""
""fullscreenenter"",""1"",""4192""
","
","
","""event"",""trial"",""time""
""fullscreenenter"",""1"",""4192""
","
