"trial_type","trial_index","time_elapsed","internal_node_id","task_version","subject_id","interactions","blur_events","focus_events","fullscreenenter_events","fullscreenexit_events","success","view_history","rt","responses","num_errors","age","subject","participantId","rune","rune_set","hex","correct","choice","accuracy","outcome","keys","total_keys","block","practice","value","sub","trial","stimulus","robot","valence","action","sham"
"pavlovia","0","33","0.0-0.0","battery-v0.2","","""event"",""trial"",""time""
""focus"",""0"",""2""
""fullscreenenter"",""1"",""1901""
","
","""event"",""trial"",""time""
""focus"",""0"",""2""
","""event"",""trial"",""time""
""fullscreenenter"",""1"",""1901""
","
","","","","","","","","","","","","","","","","","","","","","","","","","","",""
"fullscreen","1","2907","0.0-1.0","battery-v0.2","","""event"",""trial"",""time""
""focus"",""0"",""2""
""fullscreenenter"",""1"",""1901""
","
","""event"",""trial"",""time""
""focus"",""0"",""2""
","""event"",""trial"",""time""
""fullscreenenter"",""1"",""1901""
","
","true","","","","","","","","","","","","","","","","","","","","","","","","","",""
"pit-instructions","2","10708","0.0-2.0-0.0","battery-v0.2","","""event"",""trial"",""time""
""focus"",""0"",""2""
""fullscreenenter"",""1"",""1901""
","
","""event"",""trial"",""time""
""focus"",""0"",""2""
","""event"",""trial"",""time""
""fullscreenenter"",""1"",""1901""
","
","","[{""page_index"":0,""viewing_time"":7794}]","7794","","","","","","","","","","","","","","","","","","","","","","","",""
"pit-comprehension","3","15972","0.0-2.0-1.0-0.0","battery-v0.2","","""event"",""trial"",""time""
""focus"",""0"",""2""
""fullscreenenter"",""1"",""1901""
","
","""event"",""trial"",""time""
""focus"",""0"",""2""
","""event"",""trial"",""time""
""fullscreenenter"",""1"",""1901""
","
","","","5257","[""shark""]","0","13","5978","3496","","","","","","","","","","","","","","","","","","",""
"pit-instructions","4","17748","0.0-2.0-1.0-1.0","battery-v0.2","","""event"",""trial"",""time""
""focus"",""0"",""2""
""fullscreenenter"",""1"",""1901""
","
","""event"",""trial"",""time""
""focus"",""0"",""2""
","""event"",""trial"",""time""
""fullscreenenter"",""1"",""1901""
","
","","[{""page_index"":0,""viewing_time"":1762}]","1762","","","","","","","","","","","","","","","","","","","","","","","",""
"pit-comprehension","5","21356","0.0-2.0-2.0-0.0","battery-v0.2","","""event"",""trial"",""time""
""focus"",""0"",""2""
""fullscreenenter"",""1"",""1901""
","
","""event"",""trial"",""time""
""focus"",""0"",""2""
","""event"",""trial"",""time""
""fullscreenenter"",""1"",""1901""
","
","","","3604","[""tiger""]","0","13","5978","3496","","","","","","","","","","","","","","","","","","",""
"pit-instructions","6","22540","0.0-2.0-2.0-1.0","battery-v0.2","","""event"",""trial"",""time""
""focus"",""0"",""2""
""fullscreenenter"",""1"",""1901""
","
","""event"",""trial"",""time""
""focus"",""0"",""2""
","""event"",""trial"",""time""
""fullscreenenter"",""1"",""1901""
","
","","[{""page_index"":0,""viewing_time"":1178}]","1178","","","","","","","","","","","","","","","","","","","","","","","",""
"pit-instructions","7","152779","0.0-2.0-3.0","battery-v0.2","","""event"",""trial"",""time""
""focus"",""0"",""2""
""fullscreenenter"",""1"",""1901""
","
","""event"",""trial"",""time""
""focus"",""0"",""2""
","""event"",""trial"",""time""
""fullscreenenter"",""1"",""1901""
","
","","[{""page_index"":0,""viewing_time"":29883},{""page_index"":1,""viewing_time"":6097},{""page_index"":2,""viewing_time"":6423},{""page_index"":3,""viewing_time"":13744},{""page_index"":4,""viewing_time"":6191},{""page_index"":5,""viewing_time"":7713},{""page_index"":6,""viewing_time"":9335},{""page_index"":7,""viewing_time"":7401},{""page_index"":8,""viewing_time"":6856},{""page_index"":9,""viewing_time"":7904},{""page_index"":10,""viewing_time"":8536},{""page_index"":11,""viewing_time"":7592},{""page_index"":12,""viewing_time"":6648},{""page_index"":13,""viewing_time"":5912}]","130235","","","","","","","","","","","","","","","","","","","","","","","",""
"pit-trial","8","156293","0.0-2.0-4.0-0.0","battery-v0.2","","""event"",""trial"",""time""
""focus"",""0"",""2""
""fullscreenenter"",""1"",""1901""
","
","""event"",""trial"",""time""
""focus"",""0"",""2""
","""event"",""trial"",""time""
""fullscreenenter"",""1"",""1901""
","
","","","646","","","13","5978","3496","&#9784;","elianto","#FFFFF080"," "," ","1","&#10004","[1498]","1","0","0","","","","","","","",""
"pit-trial","9","159923","0.0-2.0-4.1-0.1","battery-v0.2","","""event"",""trial"",""time""
""focus"",""0"",""2""
""fullscreenenter"",""1"",""1901""
","
","""event"",""trial"",""time""
""focus"",""0"",""2""
","""event"",""trial"",""time""
""fullscreenenter"",""1"",""1901""
","
","","","752","","","13","5978","3496","&#9784;","elianto","#FFFFF080"," "," ","1","&#10004","[1614]","1","0","0","","","","","","","",""
"pit-trial","10","163443","0.0-2.0-4.2-0.2","battery-v0.2","","""event"",""trial"",""time""
""focus"",""0"",""2""
""fullscreenenter"",""1"",""1901""
","
","""event"",""trial"",""time""
""focus"",""0"",""2""
","""event"",""trial"",""time""
""fullscreenenter"",""1"",""1901""
","
","","","646","","","13","5978","3496","&#9784;","elianto","#FFFFF080"," "," ","1","&#10004","[1505]","1","0","0","","","","","","","",""
"pit-trial","11","167179","0.0-2.0-4.3-0.3","battery-v0.2","","""event"",""trial"",""time""
""focus"",""0"",""2""
""fullscreenenter"",""1"",""1901""
","
","""event"",""trial"",""time""
""focus"",""0"",""2""
","""event"",""trial"",""time""
""fullscreenenter"",""1"",""1901""
","
","","","862","","","13","5978","3496","&#9784;","elianto","#FFFFF080"," "," ","1","&#10004","[1722]","1","0","0","","","","","","","",""
"pit-trial","12","170584","0.0-2.0-4.4-0.4","battery-v0.2","","""event"",""trial"",""time""
""focus"",""0"",""2""
""fullscreenenter"",""1"",""1901""
","
","""event"",""trial"",""time""
""focus"",""0"",""2""
","""event"",""trial"",""time""
""fullscreenenter"",""1"",""1901""
","
","","","528","","","13","5978","3496","&#9784;","elianto","#FFFFF080"," "," ","1","&#10004","[1388]","1","0","0","","","","","","","",""
"pit-instructions","13","190723","0.0-2.0-5.0","battery-v0.2","","""event"",""trial"",""time""
""focus"",""0"",""2""
""fullscreenenter"",""1"",""1901""
","
","""event"",""trial"",""time""
""focus"",""0"",""2""
","""event"",""trial"",""time""
""fullscreenenter"",""1"",""1901""
","
","","[{""page_index"":0,""viewing_time"":4558},{""page_index"":1,""viewing_time"":5343},{""page_index"":2,""viewing_time"":4800},{""page_index"":3,""viewing_time"":5425}]","20126","","","","","","","","","","","","","","","","","","","","","","","",""
"pit-trial","14","195599","0.0-2.0-6.0-0.0","battery-v0.2","","""event"",""trial"",""time""
""focus"",""0"",""2""
""fullscreenenter"",""1"",""1901""
","
","""event"",""trial"",""time""
""focus"",""0"",""2""
","""event"",""trial"",""time""
""fullscreenenter"",""1"",""1901""
","
","","","-1","","","13","5978","3496","&#9854;","elianto","#FFFFF080","-1","-1","1","&#10004","[]","0","0","1","","","","","","","",""
"pit-trial","15","200484","0.0-2.0-6.1-0.1","battery-v0.2","","""event"",""trial"",""time""
""focus"",""0"",""2""
""fullscreenenter"",""1"",""1901""
","
","""event"",""trial"",""time""
""focus"",""0"",""2""
","""event"",""trial"",""time""
""fullscreenenter"",""1"",""1901""
","
","","","-1","","","13","5978","3496","&#9854;","elianto","#FFFFF080","-1","-1","1","&#10004","[]","0","0","1","","","","","","","",""
"pit-trial","16","205358","0.0-2.0-6.2-0.2","battery-v0.2","","""event"",""trial"",""time""
""focus"",""0"",""2""
""fullscreenenter"",""1"",""1901""
","
","""event"",""trial"",""time""
""focus"",""0"",""2""
","""event"",""trial"",""time""
""fullscreenenter"",""1"",""1901""
","
","","","-1","","","13","5978","3496","&#9854;","elianto","#FFFFF080","-1","-1","1","&#10004","[]","0","0","1","","","","","","","",""
"pit-trial","17","210228","0.0-2.0-6.3-0.3","battery-v0.2","","""event"",""trial"",""time""
""focus"",""0"",""2""
""fullscreenenter"",""1"",""1901""
","
","""event"",""trial"",""time""
""focus"",""0"",""2""
","""event"",""trial"",""time""
""fullscreenenter"",""1"",""1901""
","
","","","-1","","","13","5978","3496","&#9854;","elianto","#FFFFF080","-1","-1","1","&#10004","[]","0","0","1","","","","","","","",""
"pit-trial","18","215109","0.0-2.0-6.4-0.4","battery-v0.2","","""event"",""trial"",""time""
""focus"",""0"",""2""
""fullscreenenter"",""1"",""1901""
""blur"",""19"",""249485""
""focus"",""19"",""249592""
","""event"",""trial"",""time""
""blur"",""19"",""249485""
","""event"",""trial"",""time""
""focus"",""0"",""2""
""focus"",""19"",""249592""
","""event"",""trial"",""time""
""fullscreenenter"",""1"",""1901""
","
","","","-1","","","13","5978","3496","&#9854;","elianto","#FFFFF080","-1","-1","1","&#10004","[]","0","0","1","","","","","","","",""
"pit-instructions","19","327258","0.0-2.0-7.0","battery-v0.2","","""event"",""trial"",""time""
""focus"",""0"",""2""
""fullscreenenter"",""1"",""1901""
""blur"",""19"",""249485""
""focus"",""19"",""249592""
","""event"",""trial"",""time""
""blur"",""19"",""249485""
","""event"",""trial"",""time""
""focus"",""0"",""2""
""focus"",""19"",""249592""
","""event"",""trial"",""time""
""fullscreenenter"",""1"",""1901""
","
","","[{""page_index"":0,""viewing_time"":5598},{""page_index"":1,""viewing_time"":6776},{""page_index"":2,""viewing_time"":7472},{""page_index"":3,""viewing_time"":6152},{""page_index"":4,""viewing_time"":5360},{""page_index"":5,""viewing_time"":5400},{""page_index"":6,""viewing_time"":4464},{""page_index"":7,""viewing_time"":7063},{""page_index"":8,""viewing_time"":6329},{""page_index"":9,""viewing_time"":5952},{""page_index"":10,""viewing_time"":6224},{""page_index"":11,""viewing_time"":4192},{""page_index"":12,""viewing_time"":6856},{""page_index"":13,""viewing_time"":6952},{""page_index"":14,""viewing_time"":7800},{""page_index"":15,""viewing_time"":6056},{""page_index"":16,""viewing_time"":6224},{""page_index"":17,""viewing_time"":7272}]","112142","","","","","","","","","","","","","","","","","","","","","","","",""
"pit-trial","20","330648","0.0-2.0-8.0-0.0","battery-v0.2","","""event"",""trial"",""time""
""focus"",""0"",""2""
""fullscreenenter"",""1"",""1901""
""blur"",""19"",""249485""
""focus"",""19"",""249592""
","""event"",""trial"",""time""
""blur"",""19"",""249485""
","""event"",""trial"",""time""
""focus"",""0"",""2""
""focus"",""19"",""249592""
","""event"",""trial"",""time""
""fullscreenenter"",""1"",""1901""
","
","","","518","","","13","5978","3496","&#9776;","elianto","#3366ff99"," "," ","1","+10","[1378]","1","0","1","","","","","","","",""
"pit-trial","21","334132","0.0-2.0-8.0-1.0","battery-v0.2","","""event"",""trial"",""time""
""focus"",""0"",""2""
""fullscreenenter"",""1"",""1901""
""blur"",""19"",""249485""
""focus"",""19"",""249592""
","""event"",""trial"",""time""
""blur"",""19"",""249485""
","""event"",""trial"",""time""
""focus"",""0"",""2""
""focus"",""19"",""249592""
","""event"",""trial"",""time""
""fullscreenenter"",""1"",""1901""
","
","","","626","","","13","5978","3496","&#9776;","elianto","#3366ff99"," "," ","1","+10","[1477]","1","0","1","","","","","","","",""
"pit-trial","22","337678","0.0-2.0-8.0-2.0","battery-v0.2","","""event"",""trial"",""time""
""focus"",""0"",""2""
""fullscreenenter"",""1"",""1901""
""blur"",""19"",""249485""
""focus"",""19"",""249592""
","""event"",""trial"",""time""
""blur"",""19"",""249485""
","""event"",""trial"",""time""
""focus"",""0"",""2""
""focus"",""19"",""249592""
","""event"",""trial"",""time""
""fullscreenenter"",""1"",""1901""
","
","","","682","","","13","5978","3496","&#9776;","elianto","#3366ff99"," "," ","1","+10","[1537]","1","0","1","","","","","","","",""
"pit-trial","23","341248","0.0-2.0-8.0-3.0","battery-v0.2","","""event"",""trial"",""time""
""focus"",""0"",""2""
""fullscreenenter"",""1"",""1901""
""blur"",""19"",""249485""
""focus"",""19"",""249592""
","""event"",""trial"",""time""
""blur"",""19"",""249485""
","""event"",""trial"",""time""
""focus"",""0"",""2""
""focus"",""19"",""249592""
","""event"",""trial"",""time""
""fullscreenenter"",""1"",""1901""
","
","","","710","","","13","5978","3496","&#9776;","elianto","#3366ff99"," "," ","1","0","[1560]","1","0","1","","","","","","","",""
"pit-trial","24","344642","0.0-2.0-8.0-4.0","battery-v0.2","","""event"",""trial"",""time""
""focus"",""0"",""2""
""fullscreenenter"",""1"",""1901""
""blur"",""19"",""249485""
""focus"",""19"",""249592""
","""event"",""trial"",""time""
""blur"",""19"",""249485""
","""event"",""trial"",""time""
""focus"",""0"",""2""
""focus"",""19"",""249592""
","""event"",""trial"",""time""
""fullscreenenter"",""1"",""1901""
","
","","","537","","","13","5978","3496","&#9776;","elianto","#3366ff99"," "," ","1","+10","[1389]","1","0","1","","","","","","","",""
"pit-trial","25","347941","0.0-2.0-8.1-0.1","battery-v0.2","","""event"",""trial"",""time""
""focus"",""0"",""2""
""fullscreenenter"",""1"",""1901""
""blur"",""19"",""249485""
""focus"",""19"",""249592""
","""event"",""trial"",""time""
""blur"",""19"",""249485""
","""event"",""trial"",""time""
""focus"",""0"",""2""
""focus"",""19"",""249592""
","""event"",""trial"",""time""
""fullscreenenter"",""1"",""1901""
","
","","","425","","","13","5978","3496","&#9776;","elianto","#3366ff99"," "," ","1","+10","[1290]","1","0","1","","","","","","","",""
"pit-trial","26","351343","0.0-2.0-8.1-1.1","battery-v0.2","","""event"",""trial"",""time""
""focus"",""0"",""2""
""fullscreenenter"",""1"",""1901""
""blur"",""19"",""249485""
""focus"",""19"",""249592""
","""event"",""trial"",""time""
""blur"",""19"",""249485""
","""event"",""trial"",""time""
""focus"",""0"",""2""
""focus"",""19"",""249592""
","""event"",""trial"",""time""
""fullscreenenter"",""1"",""1901""
","
","","","517","","","13","5978","3496","&#9776;","elianto","#3366ff99"," "," ","1","+10","[1382]","1","0","1","","","","","","","",""
"pit-trial","27","354457","0.0-2.0-8.1-2.1","battery-v0.2","","""event"",""trial"",""time""
""focus"",""0"",""2""
""fullscreenenter"",""1"",""1901""
""blur"",""19"",""249485""
""focus"",""19"",""249592""
","""event"",""trial"",""time""
""blur"",""19"",""249485""
","""event"",""trial"",""time""
""focus"",""0"",""2""
""focus"",""19"",""249592""
","""event"",""trial"",""time""
""fullscreenenter"",""1"",""1901""
","
","","","245","","","13","5978","3496","&#9776;","elianto","#3366ff99"," "," ","1","+10","[1109]","1","0","1","","","","","","","",""
"pit-trial","28","357692","0.0-2.0-8.1-3.1","battery-v0.2","","""event"",""trial"",""time""
""focus"",""0"",""2""
""fullscreenenter"",""1"",""1901""
""blur"",""19"",""249485""
""focus"",""19"",""249592""
","""event"",""trial"",""time""
""blur"",""19"",""249485""
","""event"",""trial"",""time""
""focus"",""0"",""2""
""focus"",""19"",""249592""
","""event"",""trial"",""time""
""fullscreenenter"",""1"",""1901""
","
","","","378","","","13","5978","3496","&#9776;","elianto","#3366ff99"," "," ","1","0","[1229]","1","0","1","","","","","","","",""
"pit-trial","29","360707","0.0-2.0-8.1-4.1","battery-v0.2","","""event"",""trial"",""time""
""focus"",""0"",""2""
""fullscreenenter"",""1"",""1901""
""blur"",""19"",""249485""
""focus"",""19"",""249592""
","""event"",""trial"",""time""
""blur"",""19"",""249485""
","""event"",""trial"",""time""
""focus"",""0"",""2""
""focus"",""19"",""249592""
","""event"",""trial"",""time""
""fullscreenenter"",""1"",""1901""
","
","","","136","","","13","5978","3496","&#9776;","elianto","#3366ff99"," "," ","1","+10","[1001]","1","0","1","","","","","","","",""
"pit-trial","30","363822","0.0-2.0-8.2-0.2","battery-v0.2","","""event"",""trial"",""time""
""focus"",""0"",""2""
""fullscreenenter"",""1"",""1901""
""blur"",""19"",""249485""
""focus"",""19"",""249592""
","""event"",""trial"",""time""
""blur"",""19"",""249485""
","""event"",""trial"",""time""
""focus"",""0"",""2""
""focus"",""19"",""249592""
","""event"",""trial"",""time""
""fullscreenenter"",""1"",""1901""
","
","","","242","","","13","5978","3496","&#9776;","elianto","#3366ff99"," "," ","1","+10","[1097]","1","0","1","","","","","","","",""
"pit-trial","31","366972","0.0-2.0-8.2-1.2","battery-v0.2","","""event"",""trial"",""time""
""focus"",""0"",""2""
""fullscreenenter"",""1"",""1901""
""blur"",""19"",""249485""
""focus"",""19"",""249592""
","""event"",""trial"",""time""
""blur"",""19"",""249485""
","""event"",""trial"",""time""
""focus"",""0"",""2""
""focus"",""19"",""249592""
","""event"",""trial"",""time""
""fullscreenenter"",""1"",""1901""
","
","","","269","","","13","5978","3496","&#9776;","elianto","#3366ff99"," "," ","1","+10","[1134]","1","0","1","","","","","","","",""
"pit-trial","32","370326","0.0-2.0-8.2-2.2","battery-v0.2","","""event"",""trial"",""time""
""focus"",""0"",""2""
""fullscreenenter"",""1"",""1901""
""blur"",""19"",""249485""
""focus"",""19"",""249592""
","""event"",""trial"",""time""
""blur"",""19"",""249485""
","""event"",""trial"",""time""
""focus"",""0"",""2""
""focus"",""19"",""249592""
","""event"",""trial"",""time""
""fullscreenenter"",""1"",""1901""
","
","","","484","","","13","5978","3496","&#9776;","elianto","#3366ff99"," "," ","1","+10","[1345]","1","0","1","","","","","","","",""
"pit-trial","33","373402","0.0-2.0-8.2-3.2","battery-v0.2","","""event"",""trial"",""time""
""focus"",""0"",""2""
""fullscreenenter"",""1"",""1901""
""blur"",""19"",""249485""
""focus"",""19"",""249592""
","""event"",""trial"",""time""
""blur"",""19"",""249485""
","""event"",""trial"",""time""
""focus"",""0"",""2""
""focus"",""19"",""249592""
","""event"",""trial"",""time""
""fullscreenenter"",""1"",""1901""
","
","","","206","","","13","5978","3496","&#9776;","elianto","#3366ff99"," "," ","1","0","[1061]","1","0","1","","","","","","","",""
"pit-trial","34","376762","0.0-2.0-8.2-4.2","battery-v0.2","","""event"",""trial"",""time""
""focus"",""0"",""2""
""fullscreenenter"",""1"",""1901""
""blur"",""19"",""249485""
""focus"",""19"",""249592""
","""event"",""trial"",""time""
""blur"",""19"",""249485""
","""event"",""trial"",""time""
""focus"",""0"",""2""
""focus"",""19"",""249592""
","""event"",""trial"",""time""
""fullscreenenter"",""1"",""1901""
","
","","","497","","","13","5978","3496","&#9776;","elianto","#3366ff99"," "," ","1","+10","[1354]","1","0","1","","","","","","","",""
"call-function","35","376766","0.0-2.0-9.0","battery-v0.2","","""event"",""trial"",""time""
""focus"",""0"",""2""
""fullscreenenter"",""1"",""1901""
""blur"",""19"",""249485""
""focus"",""19"",""249592""
","""event"",""trial"",""time""
""blur"",""19"",""249485""
","""event"",""trial"",""time""
""focus"",""0"",""2""
""focus"",""19"",""249592""
","""event"",""trial"",""time""
""fullscreenenter"",""1"",""1901""
","
","","","","","","","","","","","","","","","","","","","","","","","","","","",""
"pit-instructions","36","415626","0.0-2.0-10.0","battery-v0.2","","""event"",""trial"",""time""
""focus"",""0"",""2""
""fullscreenenter"",""1"",""1901""
""blur"",""19"",""249485""
""focus"",""19"",""249592""
","""event"",""trial"",""time""
""blur"",""19"",""249485""
","""event"",""trial"",""time""
""focus"",""0"",""2""
""focus"",""19"",""249592""
","""event"",""trial"",""time""
""fullscreenenter"",""1"",""1901""
","
","","[{""page_index"":0,""viewing_time"":5625},{""page_index"":1,""viewing_time"":7289},{""page_index"":2,""viewing_time"":9456},{""page_index"":3,""viewing_time"":8576},{""page_index"":4,""viewing_time"":7911}]","38857","","","","","","","","","","","","","","","","","","","","","","","",""
"pit-trial","37","420492","0.0-2.0-11.0-0.0","battery-v0.2","","""event"",""trial"",""time""
""focus"",""0"",""2""
""fullscreenenter"",""1"",""1901""
""blur"",""19"",""249485""
""focus"",""19"",""249592""
","""event"",""trial"",""time""
""blur"",""19"",""249485""
","""event"",""trial"",""time""
""focus"",""0"",""2""
""focus"",""19"",""249592""
","""event"",""trial"",""time""
""fullscreenenter"",""1"",""1901""
","
","","","-1","","","13","5978","3496","&#9761;","elianto","#3366ff99","-1","-1","1","+10","[]","0","0","2","","","","","","","",""
"pit-trial","38","425367","0.0-2.0-11.0-1.0","battery-v0.2","","""event"",""trial"",""time""
""focus"",""0"",""2""
""fullscreenenter"",""1"",""1901""
""blur"",""19"",""249485""
""focus"",""19"",""249592""
","""event"",""trial"",""time""
""blur"",""19"",""249485""
","""event"",""trial"",""time""
""focus"",""0"",""2""
""focus"",""19"",""249592""
","""event"",""trial"",""time""
""fullscreenenter"",""1"",""1901""
","
","","","-1","","","13","5978","3496","&#9761;","elianto","#3366ff99","-1","-1","1","+10","[]","0","0","2","","","","","","","",""
"pit-trial","39","430236","0.0-2.0-11.0-2.0","battery-v0.2","","""event"",""trial"",""time""
""focus"",""0"",""2""
""fullscreenenter"",""1"",""1901""
""blur"",""19"",""249485""
""focus"",""19"",""249592""
","""event"",""trial"",""time""
""blur"",""19"",""249485""
","""event"",""trial"",""time""
""focus"",""0"",""2""
""focus"",""19"",""249592""
","""event"",""trial"",""time""
""fullscreenenter"",""1"",""1901""
","
","","","-1","","","13","5978","3496","&#9761;","elianto","#3366ff99","-1","-1","1","+10","[]","0","0","2","","","","","","","",""
"pit-trial","40","435102","0.0-2.0-11.0-3.0","battery-v0.2","","""event"",""trial"",""time""
""focus"",""0"",""2""
""fullscreenenter"",""1"",""1901""
""blur"",""19"",""249485""
""focus"",""19"",""249592""
","""event"",""trial"",""time""
""blur"",""19"",""249485""
","""event"",""trial"",""time""
""focus"",""0"",""2""
""focus"",""19"",""249592""
","""event"",""trial"",""time""
""fullscreenenter"",""1"",""1901""
","
","","","-1","","","13","5978","3496","&#9761;","elianto","#3366ff99","-1","-1","1","0","[]","0","0","2","","","","","","","",""
"pit-trial","41","439972","0.0-2.0-11.0-4.0","battery-v0.2","","""event"",""trial"",""time""
""focus"",""0"",""2""
""fullscreenenter"",""1"",""1901""
""blur"",""19"",""249485""
""focus"",""19"",""249592""
","""event"",""trial"",""time""
""blur"",""19"",""249485""
","""event"",""trial"",""time""
""focus"",""0"",""2""
""focus"",""19"",""249592""
","""event"",""trial"",""time""
""fullscreenenter"",""1"",""1901""
","
","","","-1","","","13","5978","3496","&#9761;","elianto","#3366ff99","-1","-1","1","+10","[]","0","0","2","","","","","","","",""
"pit-trial","42","444838","0.0-2.0-11.1-0.1","battery-v0.2","","""event"",""trial"",""time""
""focus"",""0"",""2""
""fullscreenenter"",""1"",""1901""
""blur"",""19"",""249485""
""focus"",""19"",""249592""
","""event"",""trial"",""time""
""blur"",""19"",""249485""
","""event"",""trial"",""time""
""focus"",""0"",""2""
""focus"",""19"",""249592""
","""event"",""trial"",""time""
""fullscreenenter"",""1"",""1901""
","
","","","-1","","","13","5978","3496","&#9761;","elianto","#3366ff99","-1","-1","1","+10","[]","0","0","2","","","","","","","",""
"pit-trial","43","449712","0.0-2.0-11.1-1.1","battery-v0.2","","""event"",""trial"",""time""
""focus"",""0"",""2""
""fullscreenenter"",""1"",""1901""
""blur"",""19"",""249485""
""focus"",""19"",""249592""
","""event"",""trial"",""time""
""blur"",""19"",""249485""
","""event"",""trial"",""time""
""focus"",""0"",""2""
""focus"",""19"",""249592""
","""event"",""trial"",""time""
""fullscreenenter"",""1"",""1901""
","
","","","-1","","","13","5978","3496","&#9761;","elianto","#3366ff99","-1","-1","1","+10","[]","0","0","2","","","","","","","",""
"pit-trial","44","454592","0.0-2.0-11.1-2.1","battery-v0.2","","""event"",""trial"",""time""
""focus"",""0"",""2""
""fullscreenenter"",""1"",""1901""
""blur"",""19"",""249485""
""focus"",""19"",""249592""
","""event"",""trial"",""time""
""blur"",""19"",""249485""
","""event"",""trial"",""time""
""focus"",""0"",""2""
""focus"",""19"",""249592""
","""event"",""trial"",""time""
""fullscreenenter"",""1"",""1901""
","
","","","-1","","","13","5978","3496","&#9761;","elianto","#3366ff99","-1","-1","1","+10","[]","0","0","2","","","","","","","",""
"pit-trial","45","459473","0.0-2.0-11.1-3.1","battery-v0.2","","""event"",""trial"",""time""
""focus"",""0"",""2""
""fullscreenenter"",""1"",""1901""
""blur"",""19"",""249485""
""focus"",""19"",""249592""
","""event"",""trial"",""time""
""blur"",""19"",""249485""
","""event"",""trial"",""time""
""focus"",""0"",""2""
""focus"",""19"",""249592""
","""event"",""trial"",""time""
""fullscreenenter"",""1"",""1901""
","
","","","-1","","","13","5978","3496","&#9761;","elianto","#3366ff99","-1","-1","1","0","[]","0","0","2","","","","","","","",""
"pit-trial","46","464343","0.0-2.0-11.1-4.1","battery-v0.2","","""event"",""trial"",""time""
""focus"",""0"",""2""
""fullscreenenter"",""1"",""1901""
""blur"",""19"",""249485""
""focus"",""19"",""249592""
","""event"",""trial"",""time""
""blur"",""19"",""249485""
","""event"",""trial"",""time""
""focus"",""0"",""2""
""focus"",""19"",""249592""
","""event"",""trial"",""time""
""fullscreenenter"",""1"",""1901""
","
","","","-1","","","13","5978","3496","&#9761;","elianto","#3366ff99","-1","-1","1","+10","[]","0","0","2","","","","","","","",""
"pit-trial","47","469222","0.0-2.0-11.2-0.2","battery-v0.2","","""event"",""trial"",""time""
""focus"",""0"",""2""
""fullscreenenter"",""1"",""1901""
""blur"",""19"",""249485""
""focus"",""19"",""249592""
","""event"",""trial"",""time""
""blur"",""19"",""249485""
","""event"",""trial"",""time""
""focus"",""0"",""2""
""focus"",""19"",""249592""
","""event"",""trial"",""time""
""fullscreenenter"",""1"",""1901""
","
","","","-1","","","13","5978","3496","&#9761;","elianto","#3366ff99","-1","-1","1","+10","[]","0","0","2","","","","","","","",""
"pit-trial","48","474105","0.0-2.0-11.2-1.2","battery-v0.2","","""event"",""trial"",""time""
""focus"",""0"",""2""
""fullscreenenter"",""1"",""1901""
""blur"",""19"",""249485""
""focus"",""19"",""249592""
","""event"",""trial"",""time""
""blur"",""19"",""249485""
","""event"",""trial"",""time""
""focus"",""0"",""2""
""focus"",""19"",""249592""
","""event"",""trial"",""time""
""fullscreenenter"",""1"",""1901""
","
","","","-1","","","13","5978","3496","&#9761;","elianto","#3366ff99","-1","-1","1","+10","[]","0","0","2","","","","","","","",""
"pit-trial","49","478976","0.0-2.0-11.2-2.2","battery-v0.2","","""event"",""trial"",""time""
""focus"",""0"",""2""
""fullscreenenter"",""1"",""1901""
""blur"",""19"",""249485""
""focus"",""19"",""249592""
","""event"",""trial"",""time""
""blur"",""19"",""249485""
","""event"",""trial"",""time""
""focus"",""0"",""2""
""focus"",""19"",""249592""
","""event"",""trial"",""time""
""fullscreenenter"",""1"",""1901""
","
","","","-1","","","13","5978","3496","&#9761;","elianto","#3366ff99","-1","-1","1","+10","[]","0","0","2","","","","","","","",""
"pit-trial","50","483853","0.0-2.0-11.2-3.2","battery-v0.2","","""event"",""trial"",""time""
""focus"",""0"",""2""
""fullscreenenter"",""1"",""1901""
""blur"",""19"",""249485""
""focus"",""19"",""249592""
","""event"",""trial"",""time""
""blur"",""19"",""249485""
","""event"",""trial"",""time""
""focus"",""0"",""2""
""focus"",""19"",""249592""
","""event"",""trial"",""time""
""fullscreenenter"",""1"",""1901""
","
","","","-1","","","13","5978","3496","&#9761;","elianto","#3366ff99","-1","-1","1","0","[]","0","0","2","","","","","","","",""
"pit-trial","51","488732","0.0-2.0-11.2-4.2","battery-v0.2","","""event"",""trial"",""time""
""focus"",""0"",""2""
""fullscreenenter"",""1"",""1901""
""blur"",""19"",""249485""
""focus"",""19"",""249592""
","""event"",""trial"",""time""
""blur"",""19"",""249485""
","""event"",""trial"",""time""
""focus"",""0"",""2""
""focus"",""19"",""249592""
","""event"",""trial"",""time""
""fullscreenenter"",""1"",""1901""
","
","","","-1","","","13","5978","3496","&#9761;","elianto","#3366ff99","-1","-1","1","+10","[]","0","0","2","","","","","","","",""
"pit-trial","52","493612","0.0-2.0-11.3-0.3","battery-v0.2","","""event"",""trial"",""time""
""focus"",""0"",""2""
""fullscreenenter"",""1"",""1901""
""blur"",""19"",""249485""
""focus"",""19"",""249592""
","""event"",""trial"",""time""
""blur"",""19"",""249485""
","""event"",""trial"",""time""
""focus"",""0"",""2""
""focus"",""19"",""249592""
","""event"",""trial"",""time""
""fullscreenenter"",""1"",""1901""
","
","","","-1","","","13","5978","3496","&#9761;","elianto","#3366ff99","-1","-1","1","+10","[]","0","0","2","","","","","","","",""
"pit-trial","53","498486","0.0-2.0-11.3-1.3","battery-v0.2","","""event"",""trial"",""time""
""focus"",""0"",""2""
""fullscreenenter"",""1"",""1901""
""blur"",""19"",""249485""
""focus"",""19"",""249592""
","""event"",""trial"",""time""
""blur"",""19"",""249485""
","""event"",""trial"",""time""
""focus"",""0"",""2""
""focus"",""19"",""249592""
","""event"",""trial"",""time""
""fullscreenenter"",""1"",""1901""
","
","","","-1","","","13","5978","3496","&#9761;","elianto","#3366ff99","-1","-1","1","+10","[]","0","0","2","","","","","","","",""
"pit-trial","54","503356","0.0-2.0-11.3-2.3","battery-v0.2","","""event"",""trial"",""time""
""focus"",""0"",""2""
""fullscreenenter"",""1"",""1901""
""blur"",""19"",""249485""
""focus"",""19"",""249592""
","""event"",""trial"",""time""
""blur"",""19"",""249485""
","""event"",""trial"",""time""
""focus"",""0"",""2""
""focus"",""19"",""249592""
","""event"",""trial"",""time""
""fullscreenenter"",""1"",""1901""
","
","","","-1","","","13","5978","3496","&#9761;","elianto","#3366ff99","-1","-1","1","+10","[]","0","0","2","","","","","","","",""
"pit-trial","55","508232","0.0-2.0-11.3-3.3","battery-v0.2","","""event"",""trial"",""time""
""focus"",""0"",""2""
""fullscreenenter"",""1"",""1901""
""blur"",""19"",""249485""
""focus"",""19"",""249592""
","""event"",""trial"",""time""
""blur"",""19"",""249485""
","""event"",""trial"",""time""
""focus"",""0"",""2""
""focus"",""19"",""249592""
","""event"",""trial"",""time""
""fullscreenenter"",""1"",""1901""
","
","","","-1","","","13","5978","3496","&#9761;","elianto","#3366ff99","-1","-1","1","0","[]","0","0","2","","","","","","","",""
"pit-trial","56","513106","0.0-2.0-11.3-4.3","battery-v0.2","","""event"",""trial"",""time""
""focus"",""0"",""2""
""fullscreenenter"",""1"",""1901""
""blur"",""19"",""249485""
""focus"",""19"",""249592""
","""event"",""trial"",""time""
""blur"",""19"",""249485""
","""event"",""trial"",""time""
""focus"",""0"",""2""
""focus"",""19"",""249592""
","""event"",""trial"",""time""
""fullscreenenter"",""1"",""1901""
","
","","","-1","","","13","5978","3496","&#9761;","elianto","#3366ff99","-1","-1","1","+10","[]","0","0","2","","","","","","","",""
"call-function","57","513109","0.0-2.0-12.0","battery-v0.2","","""event"",""trial"",""time""
""focus"",""0"",""2""
""fullscreenenter"",""1"",""1901""
""blur"",""19"",""249485""
""focus"",""19"",""249592""
","""event"",""trial"",""time""
""blur"",""19"",""249485""
","""event"",""trial"",""time""
""focus"",""0"",""2""
""focus"",""19"",""249592""
","""event"",""trial"",""time""
""fullscreenenter"",""1"",""1901""
","
","","","","","","","","","","","","","","","","","","","","","","","","","","",""
"pit-instructions","58","572705","0.0-2.0-13.0","battery-v0.2","","""event"",""trial"",""time""
""focus"",""0"",""2""
""fullscreenenter"",""1"",""1901""
""blur"",""19"",""249485""
""focus"",""19"",""249592""
","""event"",""trial"",""time""
""blur"",""19"",""249485""
","""event"",""trial"",""time""
""focus"",""0"",""2""
""focus"",""19"",""249592""
","""event"",""trial"",""time""
""fullscreenenter"",""1"",""1901""
","
","","[{""page_index"":0,""viewing_time"":28995},{""page_index"":1,""viewing_time"":7392},{""page_index"":2,""viewing_time"":7143},{""page_index"":3,""viewing_time"":10737},{""page_index"":4,""viewing_time"":5328}]","59595","","","","","","","","","","","","","","","","","","","","","","","",""
"pit-trial","59","576330","0.0-2.0-14.0-0.0","battery-v0.2","","""event"",""trial"",""time""
""focus"",""0"",""2""
""fullscreenenter"",""1"",""1901""
""blur"",""19"",""249485""
""focus"",""19"",""249592""
","""event"",""trial"",""time""
""blur"",""19"",""249485""
","""event"",""trial"",""time""
""focus"",""0"",""2""
""focus"",""19"",""249592""
","""event"",""trial"",""time""
""fullscreenenter"",""1"",""1901""
","
","","","767","","","13","5978","3496","&#9826;","elianto","#f73b6a7A","-1"," ","0","-10","[1620]","1","0","3","","","","","","","",""
"pit-trial","60","581201","0.0-2.0-14.0-1.0","battery-v0.2","","""event"",""trial"",""time""
""focus"",""0"",""2""
""fullscreenenter"",""1"",""1901""
""blur"",""19"",""249485""
""focus"",""19"",""249592""
","""event"",""trial"",""time""
""blur"",""19"",""249485""
","""event"",""trial"",""time""
""focus"",""0"",""2""
""focus"",""19"",""249592""
","""event"",""trial"",""time""
""fullscreenenter"",""1"",""1901""
","
","","","-1","","","13","5978","3496","&#9826;","elianto","#f73b6a7A","-1","-1","1","0","[]","0","0","3","","","","","","","",""
"pit-trial","61","586066","0.0-2.0-14.0-2.0","battery-v0.2","","""event"",""trial"",""time""
""focus"",""0"",""2""
""fullscreenenter"",""1"",""1901""
""blur"",""19"",""249485""
""focus"",""19"",""249592""
","""event"",""trial"",""time""
""blur"",""19"",""249485""
","""event"",""trial"",""time""
""focus"",""0"",""2""
""focus"",""19"",""249592""
","""event"",""trial"",""time""
""fullscreenenter"",""1"",""1901""
","
","","","-1","","","13","5978","3496","&#9826;","elianto","#f73b6a7A","-1","-1","1","0","[]","0","0","3","","","","","","","",""
"pit-trial","62","590948","0.0-2.0-14.0-3.0","battery-v0.2","","""event"",""trial"",""time""
""focus"",""0"",""2""
""fullscreenenter"",""1"",""1901""
""blur"",""19"",""249485""
""focus"",""19"",""249592""
","""event"",""trial"",""time""
""blur"",""19"",""249485""
","""event"",""trial"",""time""
""focus"",""0"",""2""
""focus"",""19"",""249592""
","""event"",""trial"",""time""
""fullscreenenter"",""1"",""1901""
","
","","","-1","","","13","5978","3496","&#9826;","elianto","#f73b6a7A","-1","-1","1","-10","[]","0","0","3","","","","","","","",""
"pit-trial","63","595821","0.0-2.0-14.0-4.0","battery-v0.2","","""event"",""trial"",""time""
""focus"",""0"",""2""
""fullscreenenter"",""1"",""1901""
""blur"",""19"",""249485""
""focus"",""19"",""249592""
","""event"",""trial"",""time""
""blur"",""19"",""249485""
","""event"",""trial"",""time""
""focus"",""0"",""2""
""focus"",""19"",""249592""
","""event"",""trial"",""time""
""fullscreenenter"",""1"",""1901""
","
","","","-1","","","13","5978","3496","&#9826;","elianto","#f73b6a7A","-1","-1","1","0","[]","0","0","3","","","","","","","",""
"pit-trial","64","600696","0.0-2.0-14.1-0.1","battery-v0.2","","""event"",""trial"",""time""
""focus"",""0"",""2""
""fullscreenenter"",""1"",""1901""
""blur"",""19"",""249485""
""focus"",""19"",""249592""
","""event"",""trial"",""time""
""blur"",""19"",""249485""
","""event"",""trial"",""time""
""focus"",""0"",""2""
""focus"",""19"",""249592""
","""event"",""trial"",""time""
""fullscreenenter"",""1"",""1901""
","
","","","-1","","","13","5978","3496","&#9826;","elianto","#f73b6a7A","-1","-1","1","0","[]","0","0","3","","","","","","","",""
"pit-trial","65","605556","0.0-2.0-14.1-1.1","battery-v0.2","","""event"",""trial"",""time""
""focus"",""0"",""2""
""fullscreenenter"",""1"",""1901""
""blur"",""19"",""249485""
""focus"",""19"",""249592""
","""event"",""trial"",""time""
""blur"",""19"",""249485""
","""event"",""trial"",""time""
""focus"",""0"",""2""
""focus"",""19"",""249592""
","""event"",""trial"",""time""
""fullscreenenter"",""1"",""1901""
","
","","","-1","","","13","5978","3496","&#9826;","elianto","#f73b6a7A","-1","-1","1","0","[]","0","0","3","","","","","","","",""
"pit-trial","66","610436","0.0-2.0-14.1-2.1","battery-v0.2","","""event"",""trial"",""time""
""focus"",""0"",""2""
""fullscreenenter"",""1"",""1901""
""blur"",""19"",""249485""
""focus"",""19"",""249592""
","""event"",""trial"",""time""
""blur"",""19"",""249485""
","""event"",""trial"",""time""
""focus"",""0"",""2""
""focus"",""19"",""249592""
","""event"",""trial"",""time""
""fullscreenenter"",""1"",""1901""
","
","","","-1","","","13","5978","3496","&#9826;","elianto","#f73b6a7A","-1","-1","1","0","[]","0","0","3","","","","","","","",""
"pit-trial","67","615306","0.0-2.0-14.1-3.1","battery-v0.2","","""event"",""trial"",""time""
""focus"",""0"",""2""
""fullscreenenter"",""1"",""1901""
""blur"",""19"",""249485""
""focus"",""19"",""249592""
","""event"",""trial"",""time""
""blur"",""19"",""249485""
","""event"",""trial"",""time""
""focus"",""0"",""2""
""focus"",""19"",""249592""
","""event"",""trial"",""time""
""fullscreenenter"",""1"",""1901""
","
","","","-1","","","13","5978","3496","&#9826;","elianto","#f73b6a7A","-1","-1","1","-10","[]","0","0","3","","","","","","","",""
"pit-trial","68","620176","0.0-2.0-14.1-4.1","battery-v0.2","","""event"",""trial"",""time""
""focus"",""0"",""2""
""fullscreenenter"",""1"",""1901""
""blur"",""19"",""249485""
""focus"",""19"",""249592""
","""event"",""trial"",""time""
""blur"",""19"",""249485""
","""event"",""trial"",""time""
""focus"",""0"",""2""
""focus"",""19"",""249592""
","""event"",""trial"",""time""
""fullscreenenter"",""1"",""1901""
","
","","","-1","","","13","5978","3496","&#9826;","elianto","#f73b6a7A","-1","-1","1","0","[]","0","0","3","","","","","","","",""
"pit-trial","69","625041","0.0-2.0-14.2-0.2","battery-v0.2","","""event"",""trial"",""time""
""focus"",""0"",""2""
""fullscreenenter"",""1"",""1901""
""blur"",""19"",""249485""
""focus"",""19"",""249592""
","""event"",""trial"",""time""
""blur"",""19"",""249485""
","""event"",""trial"",""time""
""focus"",""0"",""2""
""focus"",""19"",""249592""
","""event"",""trial"",""time""
""fullscreenenter"",""1"",""1901""
","
","","","-1","","","13","5978","3496","&#9826;","elianto","#f73b6a7A","-1","-1","1","0","[]","0","0","3","","","","","","","",""
"pit-trial","70","629911","0.0-2.0-14.2-1.2","battery-v0.2","","""event"",""trial"",""time""
""focus"",""0"",""2""
""fullscreenenter"",""1"",""1901""
""blur"",""19"",""249485""
""focus"",""19"",""249592""
","""event"",""trial"",""time""
""blur"",""19"",""249485""
","""event"",""trial"",""time""
""focus"",""0"",""2""
""focus"",""19"",""249592""
","""event"",""trial"",""time""
""fullscreenenter"",""1"",""1901""
","
","","","-1","","","13","5978","3496","&#9826;","elianto","#f73b6a7A","-1","-1","1","0","[]","0","0","3","","","","","","","",""
"pit-trial","71","634791","0.0-2.0-14.2-2.2","battery-v0.2","","""event"",""trial"",""time""
""focus"",""0"",""2""
""fullscreenenter"",""1"",""1901""
""blur"",""19"",""249485""
""focus"",""19"",""249592""
","""event"",""trial"",""time""
""blur"",""19"",""249485""
","""event"",""trial"",""time""
""focus"",""0"",""2""
""focus"",""19"",""249592""
","""event"",""trial"",""time""
""fullscreenenter"",""1"",""1901""
","
","","","-1","","","13","5978","3496","&#9826;","elianto","#f73b6a7A","-1","-1","1","0","[]","0","0","3","","","","","","","",""
"pit-trial","72","639665","0.0-2.0-14.2-3.2","battery-v0.2","","""event"",""trial"",""time""
""focus"",""0"",""2""
""fullscreenenter"",""1"",""1901""
""blur"",""19"",""249485""
""focus"",""19"",""249592""
","""event"",""trial"",""time""
""blur"",""19"",""249485""
","""event"",""trial"",""time""
""focus"",""0"",""2""
""focus"",""19"",""249592""
","""event"",""trial"",""time""
""fullscreenenter"",""1"",""1901""
","
","","","-1","","","13","5978","3496","&#9826;","elianto","#f73b6a7A","-1","-1","1","-10","[]","0","0","3","","","","","","","",""
"pit-trial","73","644542","0.0-2.0-14.2-4.2","battery-v0.2","","""event"",""trial"",""time""
""focus"",""0"",""2""
""fullscreenenter"",""1"",""1901""
""blur"",""19"",""249485""
""focus"",""19"",""249592""
","""event"",""trial"",""time""
""blur"",""19"",""249485""
","""event"",""trial"",""time""
""focus"",""0"",""2""
""focus"",""19"",""249592""
","""event"",""trial"",""time""
""fullscreenenter"",""1"",""1901""
","
","","","-1","","","13","5978","3496","&#9826;","elianto","#f73b6a7A","-1","-1","1","0","[]","0","0","3","","","","","","","",""
"pit-trial","74","649415","0.0-2.0-14.3-0.3","battery-v0.2","","""event"",""trial"",""time""
""focus"",""0"",""2""
""fullscreenenter"",""1"",""1901""
""blur"",""19"",""249485""
""focus"",""19"",""249592""
","""event"",""trial"",""time""
""blur"",""19"",""249485""
","""event"",""trial"",""time""
""focus"",""0"",""2""
""focus"",""19"",""249592""
","""event"",""trial"",""time""
""fullscreenenter"",""1"",""1901""
","
","","","-1","","","13","5978","3496","&#9826;","elianto","#f73b6a7A","-1","-1","1","0","[]","0","0","3","","","","","","","",""
"pit-trial","75","654291","0.0-2.0-14.3-1.3","battery-v0.2","","""event"",""trial"",""time""
""focus"",""0"",""2""
""fullscreenenter"",""1"",""1901""
""blur"",""19"",""249485""
""focus"",""19"",""249592""
","""event"",""trial"",""time""
""blur"",""19"",""249485""
","""event"",""trial"",""time""
""focus"",""0"",""2""
""focus"",""19"",""249592""
","""event"",""trial"",""time""
""fullscreenenter"",""1"",""1901""
","
","","","-1","","","13","5978","3496","&#9826;","elianto","#f73b6a7A","-1","-1","1","0","[]","0","0","3","","","","","","","",""
"pit-trial","76","659171","0.0-2.0-14.3-2.3","battery-v0.2","","""event"",""trial"",""time""
""focus"",""0"",""2""
""fullscreenenter"",""1"",""1901""
""blur"",""19"",""249485""
""focus"",""19"",""249592""
","""event"",""trial"",""time""
""blur"",""19"",""249485""
","""event"",""trial"",""time""
""focus"",""0"",""2""
""focus"",""19"",""249592""
","""event"",""trial"",""time""
""fullscreenenter"",""1"",""1901""
","
","","","-1","","","13","5978","3496","&#9826;","elianto","#f73b6a7A","-1","-1","1","0","[]","0","0","3","","","","","","","",""
"pit-trial","77","664035","0.0-2.0-14.3-3.3","battery-v0.2","","""event"",""trial"",""time""
""focus"",""0"",""2""
""fullscreenenter"",""1"",""1901""
""blur"",""19"",""249485""
""focus"",""19"",""249592""
","""event"",""trial"",""time""
""blur"",""19"",""249485""
","""event"",""trial"",""time""
""focus"",""0"",""2""
""focus"",""19"",""249592""
","""event"",""trial"",""time""
""fullscreenenter"",""1"",""1901""
","
","","","-1","","","13","5978","3496","&#9826;","elianto","#f73b6a7A","-1","-1","1","-10","[]","0","0","3","","","","","","","",""
"pit-trial","78","668906","0.0-2.0-14.3-4.3","battery-v0.2","","""event"",""trial"",""time""
""focus"",""0"",""2""
""fullscreenenter"",""1"",""1901""
""blur"",""19"",""249485""
""focus"",""19"",""249592""
","""event"",""trial"",""time""
""blur"",""19"",""249485""
","""event"",""trial"",""time""
""focus"",""0"",""2""
""focus"",""19"",""249592""
","""event"",""trial"",""time""
""fullscreenenter"",""1"",""1901""
","
","","","-1","","","13","5978","3496","&#9826;","elianto","#f73b6a7A","-1","-1","1","0","[]","0","0","3","","","","","","","",""
"call-function","79","668908","0.0-2.0-15.0","battery-v0.2","","""event"",""trial"",""time""
""focus"",""0"",""2""
""fullscreenenter"",""1"",""1901""
""blur"",""19"",""249485""
""focus"",""19"",""249592""
","""event"",""trial"",""time""
""blur"",""19"",""249485""
","""event"",""trial"",""time""
""focus"",""0"",""2""
""focus"",""19"",""249592""
","""event"",""trial"",""time""
""fullscreenenter"",""1"",""1901""
","
","","","","","","","","","","","","","","","","","","","","","","","","","","",""
"pit-instructions","80","694625","0.0-2.0-16.0","battery-v0.2","","""event"",""trial"",""time""
""focus"",""0"",""2""
""fullscreenenter"",""1"",""1901""
""blur"",""19"",""249485""
""focus"",""19"",""249592""
","""event"",""trial"",""time""
""blur"",""19"",""249485""
","""event"",""trial"",""time""
""focus"",""0"",""2""
""focus"",""19"",""249592""
","""event"",""trial"",""time""
""fullscreenenter"",""1"",""1901""
","
","","[{""page_index"":0,""viewing_time"":6569},{""page_index"":1,""viewing_time"":8529},{""page_index"":2,""viewing_time"":5096},{""page_index"":3,""viewing_time"":5520}]","25715","","","","","","","","","","","","","","","","","","","","","","","",""
"pit-trial","81","699490","0.0-2.0-17.0-0.0","battery-v0.2","","""event"",""trial"",""time""
""focus"",""0"",""2""
""fullscreenenter"",""1"",""1901""
""blur"",""19"",""249485""
""focus"",""19"",""249592""
","""event"",""trial"",""time""
""blur"",""19"",""249485""
","""event"",""trial"",""time""
""focus"",""0"",""2""
""focus"",""19"",""249592""
","""event"",""trial"",""time""
""fullscreenenter"",""1"",""1901""
","
","","","-1","","","13","5978","3496","&#9789;","elianto","#f73b6a7A"," ","-1","0","-10","[]","0","0","4","","","","","","","",""
"pit-trial","82","702580","0.0-2.0-17.0-1.0","battery-v0.2","","""event"",""trial"",""time""
""focus"",""0"",""2""
""fullscreenenter"",""1"",""1901""
""blur"",""19"",""249485""
""focus"",""19"",""249592""
","""event"",""trial"",""time""
""blur"",""19"",""249485""
","""event"",""trial"",""time""
""focus"",""0"",""2""
""focus"",""19"",""249592""
","""event"",""trial"",""time""
""fullscreenenter"",""1"",""1901""
","
","","","223","","","13","5978","3496","&#9789;","elianto","#f73b6a7A"," "," ","1","0","[1071,2345]","2","0","4","","","","","","","",""
"pit-trial","83","705650","0.0-2.0-17.0-2.0","battery-v0.2","","""event"",""trial"",""time""
""focus"",""0"",""2""
""fullscreenenter"",""1"",""1901""
""blur"",""19"",""249485""
""focus"",""19"",""249592""
","""event"",""trial"",""time""
""blur"",""19"",""249485""
","""event"",""trial"",""time""
""focus"",""0"",""2""
""focus"",""19"",""249592""
","""event"",""trial"",""time""
""fullscreenenter"",""1"",""1901""
","
","","","197","","","13","5978","3496","&#9789;","elianto","#f73b6a7A"," "," ","1","0","[1063]","1","0","4","","","","","","","",""
"pit-trial","84","708645","0.0-2.0-17.0-3.0","battery-v0.2","","""event"",""trial"",""time""
""focus"",""0"",""2""
""fullscreenenter"",""1"",""1901""
""blur"",""19"",""249485""
""focus"",""19"",""249592""
","""event"",""trial"",""time""
""blur"",""19"",""249485""
","""event"",""trial"",""time""
""focus"",""0"",""2""
""focus"",""19"",""249592""
","""event"",""trial"",""time""
""fullscreenenter"",""1"",""1901""
","
","","","118","","","13","5978","3496","&#9789;","elianto","#f73b6a7A"," "," ","1","-10","[980]","1","0","4","","","","","","","",""
"pit-trial","85","711767","0.0-2.0-17.0-4.0","battery-v0.2","","""event"",""trial"",""time""
""focus"",""0"",""2""
""fullscreenenter"",""1"",""1901""
""blur"",""19"",""249485""
""focus"",""19"",""249592""
","""event"",""trial"",""time""
""blur"",""19"",""249485""
","""event"",""trial"",""time""
""focus"",""0"",""2""
""focus"",""19"",""249592""
","""event"",""trial"",""time""
""fullscreenenter"",""1"",""1901""
","
","","","247","","","13","5978","3496","&#9789;","elianto","#f73b6a7A"," "," ","1","0","[1101]","1","0","4","","","","","","","",""
"pit-trial","86","715050","0.0-2.0-17.1-0.1","battery-v0.2","","""event"",""trial"",""time""
""focus"",""0"",""2""
""fullscreenenter"",""1"",""1901""
""blur"",""19"",""249485""
""focus"",""19"",""249592""
","""event"",""trial"",""time""
""blur"",""19"",""249485""
","""event"",""trial"",""time""
""focus"",""0"",""2""
""focus"",""19"",""249592""
","""event"",""trial"",""time""
""fullscreenenter"",""1"",""1901""
","
","","","412","","","13","5978","3496","&#9789;","elianto","#f73b6a7A"," "," ","1","0","[1265]","1","0","4","","","","","","","",""
"pit-trial","87","719921","0.0-2.0-17.1-1.1","battery-v0.2","","""event"",""trial"",""time""
""focus"",""0"",""2""
""fullscreenenter"",""1"",""1901""
""blur"",""19"",""249485""
""focus"",""19"",""249592""
","""event"",""trial"",""time""
""blur"",""19"",""249485""
","""event"",""trial"",""time""
""focus"",""0"",""2""
""focus"",""19"",""249592""
","""event"",""trial"",""time""
""fullscreenenter"",""1"",""1901""
","
","","","-1","","","13","5978","3496","&#9789;","elianto","#f73b6a7A"," ","-1","0","-10","[640]","1","0","4","","","","","","","",""
"pit-trial","88","723011","0.0-2.0-17.1-2.1","battery-v0.2","","""event"",""trial"",""time""
""focus"",""0"",""2""
""fullscreenenter"",""1"",""1901""
""blur"",""19"",""249485""
""focus"",""19"",""249592""
","""event"",""trial"",""time""
""blur"",""19"",""249485""
","""event"",""trial"",""time""
""focus"",""0"",""2""
""focus"",""19"",""249592""
","""event"",""trial"",""time""
""fullscreenenter"",""1"",""1901""
","
","","","213","","","13","5978","3496","&#9789;","elianto","#f73b6a7A"," "," ","1","0","[1082]","1","0","4","","","","","","","",""
"pit-trial","89","726260","0.0-2.0-17.1-3.1","battery-v0.2","","""event"",""trial"",""time""
""focus"",""0"",""2""
""fullscreenenter"",""1"",""1901""
""blur"",""19"",""249485""
""focus"",""19"",""249592""
","""event"",""trial"",""time""
""blur"",""19"",""249485""
","""event"",""trial"",""time""
""focus"",""0"",""2""
""focus"",""19"",""249592""
","""event"",""trial"",""time""
""fullscreenenter"",""1"",""1901""
","
","","","380","","","13","5978","3496","&#9789;","elianto","#f73b6a7A"," "," ","1","-10","[697,1240]","2","0","4","","","","","","","",""
"pit-trial","90","729440","0.0-2.0-17.1-4.1","battery-v0.2","","""event"",""trial"",""time""
""focus"",""0"",""2""
""fullscreenenter"",""1"",""1901""
""blur"",""19"",""249485""
""focus"",""19"",""249592""
","""event"",""trial"",""time""
""blur"",""19"",""249485""
","""event"",""trial"",""time""
""focus"",""0"",""2""
""focus"",""19"",""249592""
","""event"",""trial"",""time""
""fullscreenenter"",""1"",""1901""
","
","","","318","","","13","5978","3496","&#9789;","elianto","#f73b6a7A"," "," ","1","0","[1175]","1","0","4","","","","","","","",""
"pit-trial","91","732885","0.0-2.0-17.2-0.2","battery-v0.2","","""event"",""trial"",""time""
""focus"",""0"",""2""
""fullscreenenter"",""1"",""1901""
""blur"",""19"",""249485""
""focus"",""19"",""249592""
","""event"",""trial"",""time""
""blur"",""19"",""249485""
","""event"",""trial"",""time""
""focus"",""0"",""2""
""focus"",""19"",""249592""
","""event"",""trial"",""time""
""fullscreenenter"",""1"",""1901""
","
","","","576","","","13","5978","3496","&#9789;","elianto","#f73b6a7A"," "," ","1","0","[1427]","1","0","4","","","","","","","",""
"pit-trial","92","737755","0.0-2.0-17.2-1.2","battery-v0.2","","""event"",""trial"",""time""
""focus"",""0"",""2""
""fullscreenenter"",""1"",""1901""
""blur"",""19"",""249485""
""focus"",""19"",""249592""
","""event"",""trial"",""time""
""blur"",""19"",""249485""
","""event"",""trial"",""time""
""focus"",""0"",""2""
""focus"",""19"",""249592""
","""event"",""trial"",""time""
""fullscreenenter"",""1"",""1901""
","
","","","-1","","","13","5978","3496","&#9789;","elianto","#f73b6a7A"," ","-1","0","-10","[]","0","0","4","","","","","","","",""
"pit-trial","93","740931","0.0-2.0-17.2-2.2","battery-v0.2","","""event"",""trial"",""time""
""focus"",""0"",""2""
""fullscreenenter"",""1"",""1901""
""blur"",""19"",""249485""
""focus"",""19"",""249592""
","""event"",""trial"",""time""
""blur"",""19"",""249485""
","""event"",""trial"",""time""
""focus"",""0"",""2""
""focus"",""19"",""249592""
","""event"",""trial"",""time""
""fullscreenenter"",""1"",""1901""
","
","","","302","","","13","5978","3496","&#9789;","elianto","#f73b6a7A"," "," ","1","0","[1153]","1","0","4","","","","","","","",""
"pit-trial","94","744180","0.0-2.0-17.2-3.2","battery-v0.2","","""event"",""trial"",""time""
""focus"",""0"",""2""
""fullscreenenter"",""1"",""1901""
""blur"",""19"",""249485""
""focus"",""19"",""249592""
","""event"",""trial"",""time""
""blur"",""19"",""249485""
","""event"",""trial"",""time""
""focus"",""0"",""2""
""focus"",""19"",""249592""
","""event"",""trial"",""time""
""fullscreenenter"",""1"",""1901""
","
","","","368","","","13","5978","3496","&#9789;","elianto","#f73b6a7A"," "," ","1","-10","[1232]","1","0","4","","","","","","","",""
"pit-trial","95","747355","0.0-2.0-17.2-4.2","battery-v0.2","","""event"",""trial"",""time""
""focus"",""0"",""2""
""fullscreenenter"",""1"",""1901""
""blur"",""19"",""249485""
""focus"",""19"",""249592""
","""event"",""trial"",""time""
""blur"",""19"",""249485""
","""event"",""trial"",""time""
""focus"",""0"",""2""
""focus"",""19"",""249592""
","""event"",""trial"",""time""
""fullscreenenter"",""1"",""1901""
","
","","","302","","","13","5978","3496","&#9789;","elianto","#f73b6a7A"," "," ","1","0","[1158]","1","0","4","","","","","","","",""
"pit-trial","96","752226","0.0-2.0-17.3-0.3","battery-v0.2","","""event"",""trial"",""time""
""focus"",""0"",""2""
""fullscreenenter"",""1"",""1901""
""blur"",""19"",""249485""
""focus"",""19"",""249592""
","""event"",""trial"",""time""
""blur"",""19"",""249485""
","""event"",""trial"",""time""
""focus"",""0"",""2""
""focus"",""19"",""249592""
","""event"",""trial"",""time""
""fullscreenenter"",""1"",""1901""
","
","","","-1","","","13","5978","3496","&#9789;","elianto","#f73b6a7A"," ","-1","0","-10","[4143,4782]","2","0","4","","","","","","","",""
"pit-trial","97","755215","0.0-2.0-17.3-1.3","battery-v0.2","","""event"",""trial"",""time""
""focus"",""0"",""2""
""fullscreenenter"",""1"",""1901""
""blur"",""19"",""249485""
""focus"",""19"",""249592""
","""event"",""trial"",""time""
""blur"",""19"",""249485""
","""event"",""trial"",""time""
""focus"",""0"",""2""
""focus"",""19"",""249592""
","""event"",""trial"",""time""
""fullscreenenter"",""1"",""1901""
","
","","","127","","","13","5978","3496","&#9789;","elianto","#f73b6a7A"," "," ","1","0","[475,978,1474,2210]","4","0","4","","","","","","","",""
"pit-trial","98","758730","0.0-2.0-17.3-2.3","battery-v0.2","","""event"",""trial"",""time""
""focus"",""0"",""2""
""fullscreenenter"",""1"",""1901""
""blur"",""19"",""249485""
""focus"",""19"",""249592""
","""event"",""trial"",""time""
""blur"",""19"",""249485""
","""event"",""trial"",""time""
""focus"",""0"",""2""
""focus"",""19"",""249592""
","""event"",""trial"",""time""
""fullscreenenter"",""1"",""1901""
","
","","","648","","","13","5978","3496","&#9789;","elianto","#f73b6a7A"," "," ","1","0","[1499]","1","0","4","","","","","","","",""
"pit-trial","99","761989","0.0-2.0-17.3-3.3","battery-v0.2","","""event"",""trial"",""time""
""focus"",""0"",""2""
""fullscreenenter"",""1"",""1901""
""blur"",""19"",""249485""
""focus"",""19"",""249592""
","""event"",""trial"",""time""
""blur"",""19"",""249485""
","""event"",""trial"",""time""
""focus"",""0"",""2""
""focus"",""19"",""249592""
","""event"",""trial"",""time""
""fullscreenenter"",""1"",""1901""
","
","","","391","","","13","5978","3496","&#9789;","elianto","#f73b6a7A"," "," ","1","-10","[1241]","1","0","4","","","","","","","",""
"pit-trial","100","765175","0.0-2.0-17.3-4.3","battery-v0.2","","""event"",""trial"",""time""
""focus"",""0"",""2""
""fullscreenenter"",""1"",""1901""
""blur"",""19"",""249485""
""focus"",""19"",""249592""
","""event"",""trial"",""time""
""blur"",""19"",""249485""
","""event"",""trial"",""time""
""focus"",""0"",""2""
""focus"",""19"",""249592""
","""event"",""trial"",""time""
""fullscreenenter"",""1"",""1901""
","
","","","322","","","13","5978","3496","&#9789;","elianto","#f73b6a7A"," "," ","1","0","[1174]","1","0","4","","","","","","","",""
"call-function","101","765177","0.0-2.0-18.0","battery-v0.2","","""event"",""trial"",""time""
""focus"",""0"",""2""
""fullscreenenter"",""1"",""1901""
""blur"",""19"",""249485""
""focus"",""19"",""249592""
","""event"",""trial"",""time""
""blur"",""19"",""249485""
","""event"",""trial"",""time""
""focus"",""0"",""2""
""focus"",""19"",""249592""
","""event"",""trial"",""time""
""fullscreenenter"",""1"",""1901""
","
","","","","","","","","","","","","","","","","","","","","","","","","","","",""
"pit-instructions","102","838119","0.0-2.0-19.0","battery-v0.2","","""event"",""trial"",""time""
""focus"",""0"",""2""
""fullscreenenter"",""1"",""1901""
""blur"",""19"",""249485""
""focus"",""19"",""249592""
","""event"",""trial"",""time""
""blur"",""19"",""249485""
","""event"",""trial"",""time""
""focus"",""0"",""2""
""focus"",""19"",""249592""
","""event"",""trial"",""time""
""fullscreenenter"",""1"",""1901""
","
","","[{""page_index"":0,""viewing_time"":8901},{""page_index"":1,""viewing_time"":6167},{""page_index"":2,""viewing_time"":13561},{""page_index"":3,""viewing_time"":7159},{""page_index"":4,""viewing_time"":8216},{""page_index"":5,""viewing_time"":10240},{""page_index"":6,""viewing_time"":8552},{""page_index"":7,""viewing_time"":6040},{""page_index"":8,""viewing_time"":4105}]","72941","","","","","","","","","","","","","","","","","","","","","","","",""
"pit-comprehension","103","845122","0.0-2.0-20.0-0.0","battery-v0.2","","""event"",""trial"",""time""
""focus"",""0"",""2""
""fullscreenenter"",""1"",""1901""
""blur"",""19"",""249485""
""focus"",""19"",""249592""
","""event"",""trial"",""time""
""blur"",""19"",""249485""
","""event"",""trial"",""time""
""focus"",""0"",""2""
""focus"",""19"",""249592""
","""event"",""trial"",""time""
""fullscreenenter"",""1"",""1901""
","
","","","6996","[""SPACE""]","0","13","5978","3496","","","","","","","","","","","","","","","","","","",""
"pit-instructions","104","852895","0.0-2.0-20.0-1.0","battery-v0.2","","""event"",""trial"",""time""
""focus"",""0"",""2""
""fullscreenenter"",""1"",""1901""
""blur"",""19"",""249485""
""focus"",""19"",""249592""
","""event"",""trial"",""time""
""blur"",""19"",""249485""
","""event"",""trial"",""time""
""focus"",""0"",""2""
""focus"",""19"",""249592""
","""event"",""trial"",""time""
""fullscreenenter"",""1"",""1901""
","
","","[{""page_index"":0,""viewing_time"":7692}]","7692","","","","","","","","","","","","","","","","","","","","","","","",""
"pit-comprehension","105","859377","0.0-2.0-21.0-0.0","battery-v0.2","","""event"",""trial"",""time""
""focus"",""0"",""2""
""fullscreenenter"",""1"",""1901""
""blur"",""19"",""249485""
""focus"",""19"",""249592""
","""event"",""trial"",""time""
""blur"",""19"",""249485""
","""event"",""trial"",""time""
""focus"",""0"",""2""
""focus"",""19"",""249592""
","""event"",""trial"",""time""
""fullscreenenter"",""1"",""1901""
","
","","","6476","[""10""]","0","13","5978","3496","","","","","","","","","","","","","","","","","","",""
"pit-instructions","106","861071","0.0-2.0-21.0-1.0","battery-v0.2","","""event"",""trial"",""time""
""focus"",""0"",""2""
""fullscreenenter"",""1"",""1901""
""blur"",""19"",""249485""
""focus"",""19"",""249592""
","""event"",""trial"",""time""
""blur"",""19"",""249485""
","""event"",""trial"",""time""
""focus"",""0"",""2""
""focus"",""19"",""249592""
","""event"",""trial"",""time""
""fullscreenenter"",""1"",""1901""
","
","","[{""page_index"":0,""viewing_time"":1619}]","1619","","","","","","","","","","","","","","","","","","","","","","","",""
"pit-comprehension","107","869472","0.0-2.0-22.0-0.0","battery-v0.2","","""event"",""trial"",""time""
""focus"",""0"",""2""
""fullscreenenter"",""1"",""1901""
""blur"",""19"",""249485""
""focus"",""19"",""249592""
","""event"",""trial"",""time""
""blur"",""19"",""249485""
","""event"",""trial"",""time""
""focus"",""0"",""2""
""focus"",""19"",""249592""
","""event"",""trial"",""time""
""fullscreenenter"",""1"",""1901""
","
","","","8398","[""0""]","0","13","5978","3496","","","","","","","","","","","","","","","","","","",""
"pit-instructions","108","871263","0.0-2.0-22.0-1.0","battery-v0.2","","""event"",""trial"",""time""
""focus"",""0"",""2""
""fullscreenenter"",""1"",""1901""
""blur"",""19"",""249485""
""focus"",""19"",""249592""
","""event"",""trial"",""time""
""blur"",""19"",""249485""
","""event"",""trial"",""time""
""focus"",""0"",""2""
""focus"",""19"",""249592""
","""event"",""trial"",""time""
""fullscreenenter"",""1"",""1901""
","
","","[{""page_index"":0,""viewing_time"":1712}]","1713","","","","","","","","","","","","","","","","","","","","","","","",""
"pit-comprehension","109","882129","0.0-2.0-23.0-0.0","battery-v0.2","","""event"",""trial"",""time""
""focus"",""0"",""2""
""fullscreenenter"",""1"",""1901""
""blur"",""19"",""249485""
""focus"",""19"",""249592""
","""event"",""trial"",""time""
""blur"",""19"",""249485""
","""event"",""trial"",""time""
""focus"",""0"",""2""
""focus"",""19"",""249592""
","""event"",""trial"",""time""
""fullscreenenter"",""1"",""1901""
","
","","","10861","[""False""]","1","13","5978","3496","","","","","","","","","","","","","","","","","","",""
"pit-instructions","110","889336","0.0-2.0-23.0-1.0","battery-v0.2","","""event"",""trial"",""time""
""focus"",""0"",""2""
""fullscreenenter"",""1"",""1901""
""blur"",""19"",""249485""
""focus"",""19"",""249592""
","""event"",""trial"",""time""
""blur"",""19"",""249485""
","""event"",""trial"",""time""
""focus"",""0"",""2""
""focus"",""19"",""249592""
","""event"",""trial"",""time""
""fullscreenenter"",""1"",""1901""
","
","","[{""page_index"":0,""viewing_time"":7130}]","7130","","","","","","","","","","","","","","","","","","","","","","","",""
"pit-instructions","111","893231","0.0-2.0-23.0-2.0-0.0","battery-v0.2","","""event"",""trial"",""time""
""focus"",""0"",""2""
""fullscreenenter"",""1"",""1901""
""blur"",""19"",""249485""
""focus"",""19"",""249592""
","""event"",""trial"",""time""
""blur"",""19"",""249485""
","""event"",""trial"",""time""
""focus"",""0"",""2""
""focus"",""19"",""249592""
","""event"",""trial"",""time""
""fullscreenenter"",""1"",""1901""
","
","","[{""page_index"":0,""viewing_time"":3892}]","3892","","","","","","","","","","","","","","","","","","","","","","","",""
"pit-comprehension","112","901648","0.0-2.0-23.1-0.1","battery-v0.2","","""event"",""trial"",""time""
""focus"",""0"",""2""
""fullscreenenter"",""1"",""1901""
""blur"",""19"",""249485""
""focus"",""19"",""249592""
","""event"",""trial"",""time""
""blur"",""19"",""249485""
","""event"",""trial"",""time""
""focus"",""0"",""2""
""focus"",""19"",""249592""
","""event"",""trial"",""time""
""fullscreenenter"",""1"",""1901""
","
","","","8413","[""True""]","0","13","5978","3496","","","","","","","","","","","","","","","","","","",""
"pit-instructions","113","903463","0.0-2.0-23.1-1.1","battery-v0.2","","""event"",""trial"",""time""
""focus"",""0"",""2""
""fullscreenenter"",""1"",""1901""
""blur"",""19"",""249485""
""focus"",""19"",""249592""
","""event"",""trial"",""time""
""blur"",""19"",""249485""
","""event"",""trial"",""time""
""focus"",""0"",""2""
""focus"",""19"",""249592""
","""event"",""trial"",""time""
""fullscreenenter"",""1"",""1901""
","
","","[{""page_index"":0,""viewing_time"":1732}]","1732","","","","","","","","","","","","","","","","","","","","","","","",""
"pit-comprehension","114","911112","0.0-2.0-24.0-0.0","battery-v0.2","","""event"",""trial"",""time""
""focus"",""0"",""2""
""fullscreenenter"",""1"",""1901""
""blur"",""19"",""249485""
""focus"",""19"",""249592""
","""event"",""trial"",""time""
""blur"",""19"",""249485""
","""event"",""trial"",""time""
""focus"",""0"",""2""
""focus"",""19"",""249592""
","""event"",""trial"",""time""
""fullscreenenter"",""1"",""1901""
","
","","","7644","[""True""]","0","13","5978","3496","","","","","","","","","","","","","","","","","","",""
"pit-instructions","115","912823","0.0-2.0-24.0-1.0","battery-v0.2","","""event"",""trial"",""time""
""focus"",""0"",""2""
""fullscreenenter"",""1"",""1901""
""blur"",""19"",""249485""
""focus"",""19"",""249592""
","""event"",""trial"",""time""
""blur"",""19"",""249485""
","""event"",""trial"",""time""
""focus"",""0"",""2""
""focus"",""19"",""249592""
","""event"",""trial"",""time""
""fullscreenenter"",""1"",""1901""
","
","","[{""page_index"":0,""viewing_time"":1632}]","1632","","","","","","","","","","","","","","","","","","","","","","","",""
"pit-comprehension","116","919440","0.0-2.0-25.0-0.0","battery-v0.2","","""event"",""trial"",""time""
""focus"",""0"",""2""
""fullscreenenter"",""1"",""1901""
""blur"",""19"",""249485""
""focus"",""19"",""249592""
","""event"",""trial"",""time""
""blur"",""19"",""249485""
","""event"",""trial"",""time""
""focus"",""0"",""2""
""focus"",""19"",""249592""
","""event"",""trial"",""time""
""fullscreenenter"",""1"",""1901""
","
","","","6613","[""True""]","0","13","5978","3496","","","","","","","","","","","","","","","","","","",""
"pit-instructions","117","921911","0.0-2.0-25.0-1.0","battery-v0.2","","""event"",""trial"",""time""
""focus"",""0"",""2""
""fullscreenenter"",""1"",""1901""
""blur"",""19"",""249485""
""focus"",""19"",""249592""
","""event"",""trial"",""time""
""blur"",""19"",""249485""
","""event"",""trial"",""time""
""focus"",""0"",""2""
""focus"",""19"",""249592""
","""event"",""trial"",""time""
""fullscreenenter"",""1"",""1901""
","
","","[{""page_index"":0,""viewing_time"":2390}]","2391","","","","","","","","","","","","","","","","","","","","","","","",""
"pit-comprehension","118","926896","0.0-2.0-26.0-0.0","battery-v0.2","","""event"",""trial"",""time""
""focus"",""0"",""2""
""fullscreenenter"",""1"",""1901""
""blur"",""19"",""249485""
""focus"",""19"",""249592""
","""event"",""trial"",""time""
""blur"",""19"",""249485""
","""event"",""trial"",""time""
""focus"",""0"",""2""
""focus"",""19"",""249592""
","""event"",""trial"",""time""
""fullscreenenter"",""1"",""1901""
","
","","","4979","[""False""]","0","13","5978","3496","","","","","","","","","","","","","","","","","","",""
"pit-instructions","119","928510","0.0-2.0-26.0-1.0","battery-v0.2","","""event"",""trial"",""time""
""focus"",""0"",""2""
""fullscreenenter"",""1"",""1901""
""blur"",""19"",""249485""
""focus"",""19"",""249592""
","""event"",""trial"",""time""
""blur"",""19"",""249485""
","""event"",""trial"",""time""
""focus"",""0"",""2""
""focus"",""19"",""249592""
","""event"",""trial"",""time""
""fullscreenenter"",""1"",""1901""
","
","","[{""page_index"":0,""viewing_time"":1527}]","1527","","","","","","","","","","","","","","","","","","","","","","","",""
"pit-instructions","120","944031","0.0-3.0","battery-v0.2","","""event"",""trial"",""time""
""focus"",""0"",""2""
""fullscreenenter"",""1"",""1901""
""blur"",""19"",""249485""
""focus"",""19"",""249592""
","""event"",""trial"",""time""
""blur"",""19"",""249485""
","""event"",""trial"",""time""
""focus"",""0"",""2""
""focus"",""19"",""249592""
","""event"",""trial"",""time""
""fullscreenenter"",""1"",""1901""
","
","","[{""page_index"":0,""viewing_time"":3636},{""page_index"":1,""viewing_time"":5209},{""page_index"":2,""viewing_time"":6671}]","15516","","","","","","","","","","","","","","","","","","","","","","","",""
"pit-trial","121","947474","0.0-4.0","battery-v0.2","","""event"",""trial"",""time""
""focus"",""0"",""2""
""fullscreenenter"",""1"",""1901""
""blur"",""19"",""249485""
""focus"",""19"",""249592""
","""event"",""trial"",""time""
""blur"",""19"",""249485""
","""event"",""trial"",""time""
""focus"",""0"",""2""
""focus"",""19"",""249592""
","""event"",""trial"",""time""
""fullscreenenter"",""1"",""1901""
","
","","","577","","","13","5978","3496","&#9730;","elianto","#3366ff99"," "," ","1","0","[1432]","1","1","","","5978","1","1","1","win","go","1"
"pit-trial","122","951313","0.0-5.0","battery-v0.2","","""event"",""trial"",""time""
""focus"",""0"",""2""
""fullscreenenter"",""1"",""1901""
""blur"",""19"",""249485""
""focus"",""19"",""249592""
","""event"",""trial"",""time""
""blur"",""19"",""249485""
","""event"",""trial"",""time""
""focus"",""0"",""2""
""focus"",""19"",""249592""
","""event"",""trial"",""time""
""fullscreenenter"",""1"",""1901""
","
","","","978","","","13","5978","3496","&#9752;","elianto","#f73b6a7A"," "," ","1","0","[1832]","1","1","","","5978","2","3","3","lose","go","0"
"pit-trial","123","955264","0.0-6.0","battery-v0.2","","""event"",""trial"",""time""
""focus"",""0"",""2""
""fullscreenenter"",""1"",""1901""
""blur"",""19"",""249485""
""focus"",""19"",""249592""
","""event"",""trial"",""time""
""blur"",""19"",""249485""
","""event"",""trial"",""time""
""focus"",""0"",""2""
""focus"",""19"",""249592""
","""event"",""trial"",""time""
""fullscreenenter"",""1"",""1901""
","
","","","1088","","","13","5978","3496","&#9728;","elianto","#f73b6a7A","-1"," ","0","-10","[1945]","1","1","","","5978","3","0","4","lose","no-go","0"
"pit-trial","124","959144","0.0-7.0","battery-v0.2","","""event"",""trial"",""time""
""focus"",""0"",""2""
""fullscreenenter"",""1"",""1901""
""blur"",""19"",""249485""
""focus"",""19"",""249592""
","""event"",""trial"",""time""
""blur"",""19"",""249485""
","""event"",""trial"",""time""
""focus"",""0"",""2""
""focus"",""19"",""249592""
","""event"",""trial"",""time""
""fullscreenenter"",""1"",""1901""
","
","","","1013","","","13","5978","3496","&#9733;","elianto","#3366ff99","-1"," ","0","+10","[1874]","1","1","","","5978","4","2","2","win","no-go","1"
"pit-trial","125","963148","0.0-8.0","battery-v0.2","","""event"",""trial"",""time""
""focus"",""0"",""2""
""fullscreenenter"",""1"",""1901""
""blur"",""19"",""249485""
""focus"",""19"",""249592""
","""event"",""trial"",""time""
""blur"",""19"",""249485""
","""event"",""trial"",""time""
""focus"",""0"",""2""
""focus"",""19"",""249592""
","""event"",""trial"",""time""
""fullscreenenter"",""1"",""1901""
","
","","","1128","","","13","5978","3496","&#9752;","elianto","#f73b6a7A"," "," ","1","-10","[1985]","1","1","","","5978","5","3","3","lose","go","1"
"pit-trial","126","966774","0.0-9.0","battery-v0.2","","""event"",""trial"",""time""
""focus"",""0"",""2""
""fullscreenenter"",""1"",""1901""
""blur"",""19"",""249485""
""focus"",""19"",""249592""
","""event"",""trial"",""time""
""blur"",""19"",""249485""
","""event"",""trial"",""time""
""focus"",""0"",""2""
""focus"",""19"",""249592""
","""event"",""trial"",""time""
""fullscreenenter"",""1"",""1901""
","
","","","754","","","13","5978","3496","&#9733;","elianto","#3366ff99","-1"," ","0","0","[1605]","1","1","","","5978","6","2","2","win","no-go","0"
"pit-trial","127","970894","0.0-10.0","battery-v0.2","","""event"",""trial"",""time""
""focus"",""0"",""2""
""fullscreenenter"",""1"",""1901""
""blur"",""19"",""249485""
""focus"",""19"",""249592""
","""event"",""trial"",""time""
""blur"",""19"",""249485""
","""event"",""trial"",""time""
""focus"",""0"",""2""
""focus"",""19"",""249592""
","""event"",""trial"",""time""
""fullscreenenter"",""1"",""1901""
","
","","","1260","","","13","5978","3496","&#9728;","elianto","#f73b6a7A","-1"," ","0","-10","[2117]","1","1","","","5978","7","0","4","lose","no-go","0"
"pit-trial","128","974849","0.0-11.0","battery-v0.2","","""event"",""trial"",""time""
""focus"",""0"",""2""
""fullscreenenter"",""1"",""1901""
""blur"",""19"",""249485""
""focus"",""19"",""249592""
","""event"",""trial"",""time""
""blur"",""19"",""249485""
","""event"",""trial"",""time""
""focus"",""0"",""2""
""focus"",""19"",""249592""
","""event"",""trial"",""time""
""fullscreenenter"",""1"",""1901""
","
","","","1082","","","13","5978","3496","&#9730;","elianto","#3366ff99"," "," ","1","+10","[1949]","1","1","","","5978","8","1","1","win","go","0"
"pit-trial","129","978593","0.0-12.0","battery-v0.2","","""event"",""trial"",""time""
""focus"",""0"",""2""
""fullscreenenter"",""1"",""1901""
""blur"",""19"",""249485""
""focus"",""19"",""249592""
","""event"",""trial"",""time""
""blur"",""19"",""249485""
","""event"",""trial"",""time""
""focus"",""0"",""2""
""focus"",""19"",""249592""
","""event"",""trial"",""time""
""fullscreenenter"",""1"",""1901""
","
","","","865","","","13","5978","3496","&#9730;","elianto","#3366ff99"," "," ","1","+10","[1730]","1","1","","","5978","9","1","1","win","go","0"
"pit-trial","130","983475","0.0-13.0","battery-v0.2","","""event"",""trial"",""time""
""focus"",""0"",""2""
""fullscreenenter"",""1"",""1901""
""blur"",""19"",""249485""
""focus"",""19"",""249592""
","""event"",""trial"",""time""
""blur"",""19"",""249485""
","""event"",""trial"",""time""
""focus"",""0"",""2""
""focus"",""19"",""249592""
","""event"",""trial"",""time""
""fullscreenenter"",""1"",""1901""
","
","","","-1","","","13","5978","3496","&#9752;","elianto","#f73b6a7A"," ","-1","0","-10","[]","0","1","","","5978","10","3","3","lose","go","0"
"pit-trial","131","987901","0.0-14.0","battery-v0.2","","""event"",""trial"",""time""
""focus"",""0"",""2""
""fullscreenenter"",""1"",""1901""
""blur"",""19"",""249485""
""focus"",""19"",""249592""
","""event"",""trial"",""time""
""blur"",""19"",""249485""
","""event"",""trial"",""time""
""focus"",""0"",""2""
""focus"",""19"",""249592""
","""event"",""trial"",""time""
""fullscreenenter"",""1"",""1901""
","
","","","1555","","","13","5978","3496","&#9728;","elianto","#f73b6a7A","-1"," ","0","-10","[2415]","1","1","","","5978","11","0","4","lose","no-go","0"
"pit-trial","132","991494","0.0-15.0","battery-v0.2","","""event"",""trial"",""time""
""focus"",""0"",""2""
""fullscreenenter"",""1"",""1901""
""blur"",""19"",""249485""
""focus"",""19"",""249592""
","""event"",""trial"",""time""
""blur"",""19"",""249485""
","""event"",""trial"",""time""
""focus"",""0"",""2""
""focus"",""19"",""249592""
","""event"",""trial"",""time""
""fullscreenenter"",""1"",""1901""
","
","","","736","","","13","5978","3496","&#9733;","elianto","#3366ff99","-1"," ","0","0","[1590,3207]","2","1","","","5978","12","2","2","win","no-go","0"
"pit-trial","133","995790","0.0-16.0","battery-v0.2","","""event"",""trial"",""time""
""focus"",""0"",""2""
""fullscreenenter"",""1"",""1901""
""blur"",""19"",""249485""
""focus"",""19"",""249592""
","""event"",""trial"",""time""
""blur"",""19"",""249485""
","""event"",""trial"",""time""
""focus"",""0"",""2""
""focus"",""19"",""249592""
","""event"",""trial"",""time""
""fullscreenenter"",""1"",""1901""
","
","","","1429","","","13","5978","3496","&#9730;","elianto","#3366ff99"," "," ","1","+10","[2284]","1","1","","","5978","13","1","1","win","go","0"
"pit-trial","134","1000660","0.0-17.0","battery-v0.2","","""event"",""trial"",""time""
""focus"",""0"",""2""
""fullscreenenter"",""1"",""1901""
""blur"",""19"",""249485""
""focus"",""19"",""249592""
","""event"",""trial"",""time""
""blur"",""19"",""249485""
","""event"",""trial"",""time""
""focus"",""0"",""2""
""focus"",""19"",""249592""
","""event"",""trial"",""time""
""fullscreenenter"",""1"",""1901""
","
","","","-1","","","13","5978","3496","&#9728;","elianto","#f73b6a7A","-1","-1","1","0","[]","0","1","","","5978","14","0","4","lose","no-go","0"
"pit-trial","135","1003944","0.0-18.0","battery-v0.2","","""event"",""trial"",""time""
""focus"",""0"",""2""
""fullscreenenter"",""1"",""1901""
""blur"",""19"",""249485""
""focus"",""19"",""249592""
","""event"",""trial"",""time""
""blur"",""19"",""249485""
","""event"",""trial"",""time""
""focus"",""0"",""2""
""focus"",""19"",""249592""
","""event"",""trial"",""time""
""fullscreenenter"",""1"",""1901""
","
","","","400","","","13","5978","3496","&#9733;","elianto","#3366ff99","-1"," ","0","0","[1270]","1","1","","","5978","15","2","2","win","no-go","0"
"pit-trial","136","1008820","0.0-19.0","battery-v0.2","","""event"",""trial"",""time""
""focus"",""0"",""2""
""fullscreenenter"",""1"",""1901""
""blur"",""19"",""249485""
""focus"",""19"",""249592""
","""event"",""trial"",""time""
""blur"",""19"",""249485""
","""event"",""trial"",""time""
""focus"",""0"",""2""
""focus"",""19"",""249592""
","""event"",""trial"",""time""
""fullscreenenter"",""1"",""1901""
","
","","","-1","","","13","5978","3496","&#9752;","elianto","#f73b6a7A"," ","-1","0","-10","[]","0","1","","","5978","16","3","3","lose","go","0"
"pit-trial","137","1012624","0.0-20.0","battery-v0.2","","""event"",""trial"",""time""
""focus"",""0"",""2""
""fullscreenenter"",""1"",""1901""
""blur"",""19"",""249485""
""focus"",""19"",""249592""
","""event"",""trial"",""time""
""blur"",""19"",""249485""
","""event"",""trial"",""time""
""focus"",""0"",""2""
""focus"",""19"",""249592""
","""event"",""trial"",""time""
""fullscreenenter"",""1"",""1901""
","
","","","924","","","13","5978","3496","&#9730;","elianto","#3366ff99"," "," ","1","+10","[1782]","1","1","","","5978","17","1","1","win","go","0"
"pit-trial","138","1017489","0.0-21.0","battery-v0.2","","""event"",""trial"",""time""
""focus"",""0"",""2""
""fullscreenenter"",""1"",""1901""
""blur"",""19"",""249485""
""focus"",""19"",""249592""
","""event"",""trial"",""time""
""blur"",""19"",""249485""
","""event"",""trial"",""time""
""focus"",""0"",""2""
""focus"",""19"",""249592""
","""event"",""trial"",""time""
""fullscreenenter"",""1"",""1901""
","
","","","-1","","","13","5978","3496","&#9752;","elianto","#f73b6a7A"," ","-1","0","-10","[]","0","1","","","5978","18","3","3","lose","go","0"
"pit-trial","139","1022350","0.0-22.0","battery-v0.2","","""event"",""trial"",""time""
""focus"",""0"",""2""
""fullscreenenter"",""1"",""1901""
""blur"",""19"",""249485""
""focus"",""19"",""249592""
","""event"",""trial"",""time""
""blur"",""19"",""249485""
","""event"",""trial"",""time""
""focus"",""0"",""2""
""focus"",""19"",""249592""
","""event"",""trial"",""time""
""fullscreenenter"",""1"",""1901""
","
","","","-1","","","13","5978","3496","&#9728;","elianto","#f73b6a7A","-1","-1","1","0","[]","0","1","","","5978","19","0","4","lose","no-go","0"
"pit-trial","140","1026449","0.0-23.0","battery-v0.2","","""event"",""trial"",""time""
""focus"",""0"",""2""
""fullscreenenter"",""1"",""1901""
""blur"",""19"",""249485""
""focus"",""19"",""249592""
","""event"",""trial"",""time""
""blur"",""19"",""249485""
","""event"",""trial"",""time""
""focus"",""0"",""2""
""focus"",""19"",""249592""
","""event"",""trial"",""time""
""fullscreenenter"",""1"",""1901""
","
","","","1225","","","13","5978","3496","&#9733;","elianto","#3366ff99","-1"," ","0","0","[2092]","1","1","","","5978","20","2","2","win","no-go","0"
"pit-instructions","141","1038623","0.0-24.0","battery-v0.2","","""event"",""trial"",""time""
""focus"",""0"",""2""
""fullscreenenter"",""1"",""1901""
""blur"",""19"",""249485""
""focus"",""19"",""249592""
","""event"",""trial"",""time""
""blur"",""19"",""249485""
","""event"",""trial"",""time""
""focus"",""0"",""2""
""focus"",""19"",""249592""
","""event"",""trial"",""time""
""fullscreenenter"",""1"",""1901""
","
","","[{""page_index"":0,""viewing_time"":5548},{""page_index"":1,""viewing_time"":6622}]","12171","","","","","","","","","","","","","","","","","","","","","","","",""
"pit-trial","142","1042079","0.0-25.0","battery-v0.2","","""event"",""trial"",""time""
""focus"",""0"",""2""
""fullscreenenter"",""1"",""1901""
""blur"",""19"",""249485""
""focus"",""19"",""249592""
","""event"",""trial"",""time""
""blur"",""19"",""249485""
","""event"",""trial"",""time""
""focus"",""0"",""2""
""focus"",""19"",""249592""
","""event"",""trial"",""time""
""fullscreenenter"",""1"",""1901""
","
","","","577","","","13","5978","3496","h","elianto","#f73b6a7A","-1"," ","0","-10","[1440]","1","2","","","5978","21","3","4","lose","no-go","0"
"pit-trial","143","1045933","0.0-26.0","battery-v0.2","","""event"",""trial"",""time""
""focus"",""0"",""2""
""fullscreenenter"",""1"",""1901""
""blur"",""19"",""249485""
""focus"",""19"",""249592""
","""event"",""trial"",""time""
""blur"",""19"",""249485""
","""event"",""trial"",""time""
""focus"",""0"",""2""
""focus"",""19"",""249592""
","""event"",""trial"",""time""
""fullscreenenter"",""1"",""1901""
","
","","","982","","","13","5978","3496","r","elianto","#3366ff99","-1"," ","0","0","[1842,2330]","2","2","","","5978","22","1","2","win","no-go","0"
"pit-trial","144","1049738","0.0-27.0","battery-v0.2","","""event"",""trial"",""time""
""focus"",""0"",""2""
""fullscreenenter"",""1"",""1901""
""blur"",""19"",""249485""
""focus"",""19"",""249592""
","""event"",""trial"",""time""
""blur"",""19"",""249485""
","""event"",""trial"",""time""
""focus"",""0"",""2""
""focus"",""19"",""249592""
","""event"",""trial"",""time""
""fullscreenenter"",""1"",""1901""
","
","","","934","","","13","5978","3496","m","elianto","#f73b6a7A"," "," ","1","0","[1796]","1","2","","","5978","23","0","3","lose","go","0"
"pit-trial","145","1053478","0.0-28.0","battery-v0.2","","""event"",""trial"",""time""
""focus"",""0"",""2""
""fullscreenenter"",""1"",""1901""
""blur"",""19"",""249485""
""focus"",""19"",""249592""
","""event"",""trial"",""time""
""blur"",""19"",""249485""
","""event"",""trial"",""time""
""focus"",""0"",""2""
""focus"",""19"",""249592""
","""event"",""trial"",""time""
""fullscreenenter"",""1"",""1901""
","
","","","868","","","13","5978","3496","y","elianto","#f73b6a7A"," "," ","1","-10","[1719]","1","2","","","5978","24","2","3","lose","go","1"
"pit-trial","146","1058334","0.0-29.0","battery-v0.2","","""event"",""trial"",""time""
""focus"",""0"",""2""
""fullscreenenter"",""1"",""1901""
""blur"",""19"",""249485""
""focus"",""19"",""249592""
","""event"",""trial"",""time""
""blur"",""19"",""249485""
","""event"",""trial"",""time""
""focus"",""0"",""2""
""focus"",""19"",""249592""
","""event"",""trial"",""time""
""fullscreenenter"",""1"",""1901""
","
","","","-1","","","13","5978","3496","y","elianto","#f73b6a7A"," ","-1","0","-10","[]","0","2","","","5978","25","2","3","lose","go","0"
"pit-trial","147","1063203","0.0-30.0","battery-v0.2","","""event"",""trial"",""time""
""focus"",""0"",""2""
""fullscreenenter"",""1"",""1901""
""blur"",""19"",""249485""
""focus"",""19"",""249592""
","""event"",""trial"",""time""
""blur"",""19"",""249485""
","""event"",""trial"",""time""
""focus"",""0"",""2""
""focus"",""19"",""249592""
","""event"",""trial"",""time""
""fullscreenenter"",""1"",""1901""
","
","","","-1","","","13","5978","3496","m","elianto","#f73b6a7A"," ","-1","0","0","[]","0","2","","","5978","26","0","3","lose","go","1"
"pit-trial","148","1068069","0.0-31.0","battery-v0.2","","""event"",""trial"",""time""
""focus"",""0"",""2""
""fullscreenenter"",""1"",""1901""
""blur"",""19"",""249485""
""focus"",""19"",""249592""
","""event"",""trial"",""time""
""blur"",""19"",""249485""
","""event"",""trial"",""time""
""focus"",""0"",""2""
""focus"",""19"",""249592""
","""event"",""trial"",""time""
""fullscreenenter"",""1"",""1901""
","
","","","-1","","","13","5978","3496","h","elianto","#f73b6a7A","-1","-1","1","0","[]","0","2","","","5978","27","3","4","lose","no-go","0"
"pit-trial","149","1071647","0.0-32.0","battery-v0.2","","""event"",""trial"",""time""
""focus"",""0"",""2""
""fullscreenenter"",""1"",""1901""
""blur"",""19"",""249485""
""focus"",""19"",""249592""
","""event"",""trial"",""time""
""blur"",""19"",""249485""
","""event"",""trial"",""time""
""focus"",""0"",""2""
""focus"",""19"",""249592""
","""event"",""trial"",""time""
""fullscreenenter"",""1"",""1901""
","
","","","714","","","13","5978","3496","r","elianto","#3366ff99","-1"," ","0","0","[1565]","1","2","","","5978","28","1","2","win","no-go","0"
"pit-trial","150","1076514","0.0-33.0","battery-v0.2","","""event"",""trial"",""time""
""focus"",""0"",""2""
""fullscreenenter"",""1"",""1901""
""blur"",""19"",""249485""
""focus"",""19"",""249592""
","""event"",""trial"",""time""
""blur"",""19"",""249485""
","""event"",""trial"",""time""
""focus"",""0"",""2""
""focus"",""19"",""249592""
","""event"",""trial"",""time""
""fullscreenenter"",""1"",""1901""
","
","","","-1","","","13","5978","3496","h","elianto","#f73b6a7A","-1","-1","1","0","[]","0","2","","","5978","29","3","4","lose","no-go","0"
"pit-trial","151","1080229","0.0-34.0","battery-v0.2","","""event"",""trial"",""time""
""focus"",""0"",""2""
""fullscreenenter"",""1"",""1901""
""blur"",""19"",""249485""
""focus"",""19"",""249592""
","""event"",""trial"",""time""
""blur"",""19"",""249485""
","""event"",""trial"",""time""
""focus"",""0"",""2""
""focus"",""19"",""249592""
","""event"",""trial"",""time""
""fullscreenenter"",""1"",""1901""
","
","","","839","","","13","5978","3496","r","elianto","#3366ff99","-1"," ","0","+10","[1695]","1","2","","","5978","30","1","2","win","no-go","1"
"pit-trial","152","1085089","0.0-35.0","battery-v0.2","","""event"",""trial"",""time""
""focus"",""0"",""2""
""fullscreenenter"",""1"",""1901""
""blur"",""19"",""249485""
""focus"",""19"",""249592""
","""event"",""trial"",""time""
""blur"",""19"",""249485""
","""event"",""trial"",""time""
""focus"",""0"",""2""
""focus"",""19"",""249592""
","""event"",""trial"",""time""
""fullscreenenter"",""1"",""1901""
","
","","","-1","","","13","5978","3496","y","elianto","#f73b6a7A"," ","-1","0","0","[]","0","2","","","5978","31","2","3","lose","go","1"
"pit-trial","153","1089949","0.0-36.0","battery-v0.2","","""event"",""trial"",""time""
""focus"",""0"",""2""
""fullscreenenter"",""1"",""1901""
""blur"",""19"",""249485""
""focus"",""19"",""249592""
","""event"",""trial"",""time""
""blur"",""19"",""249485""
","""event"",""trial"",""time""
""focus"",""0"",""2""
""focus"",""19"",""249592""
","""event"",""trial"",""time""
""fullscreenenter"",""1"",""1901""
","
","","","-1","","","13","5978","3496","m","elianto","#f73b6a7A"," ","-1","0","-10","[]","0","2","","","5978","32","0","3","lose","go","0"
"pit-trial","154","1094834","0.0-37.0","battery-v0.2","","""event"",""trial"",""time""
""focus"",""0"",""2""
""fullscreenenter"",""1"",""1901""
""blur"",""19"",""249485""
""focus"",""19"",""249592""
","""event"",""trial"",""time""
""blur"",""19"",""249485""
","""event"",""trial"",""time""
""focus"",""0"",""2""
""focus"",""19"",""249592""
","""event"",""trial"",""time""
""fullscreenenter"",""1"",""1901""
","
","","","-1","","","13","5978","3496","h","elianto","#f73b6a7A","-1","-1","1","0","[]","0","2","","","5978","33","3","4","lose","no-go","0"
"pit-trial","155","1099698","0.0-38.0","battery-v0.2","","""event"",""trial"",""time""
""focus"",""0"",""2""
""fullscreenenter"",""1"",""1901""
""blur"",""19"",""249485""
""focus"",""19"",""249592""
","""event"",""trial"",""time""
""blur"",""19"",""249485""
","""event"",""trial"",""time""
""focus"",""0"",""2""
""focus"",""19"",""249592""
","""event"",""trial"",""time""
""fullscreenenter"",""1"",""1901""
","
","","","-1","","","13","5978","3496","y","elianto","#f73b6a7A"," ","-1","0","-10","[]","0","2","","","5978","34","2","3","lose","go","0"
"pit-trial","156","1103239","0.0-39.0","battery-v0.2","","""event"",""trial"",""time""
""focus"",""0"",""2""
""fullscreenenter"",""1"",""1901""
""blur"",""19"",""249485""
""focus"",""19"",""249592""
","""event"",""trial"",""time""
""blur"",""19"",""249485""
","""event"",""trial"",""time""
""focus"",""0"",""2""
""focus"",""19"",""249592""
","""event"",""trial"",""time""
""fullscreenenter"",""1"",""1901""
","
","","","672","","","13","5978","3496","r","elianto","#3366ff99","-1"," ","0","+10","[1536]","1","2","","","5978","35","1","2","win","no-go","1"
"pit-trial","157","1108104","0.0-40.0","battery-v0.2","","""event"",""trial"",""time""
""focus"",""0"",""2""
""fullscreenenter"",""1"",""1901""
""blur"",""19"",""249485""
""focus"",""19"",""249592""
","""event"",""trial"",""time""
""blur"",""19"",""249485""
","""event"",""trial"",""time""
""focus"",""0"",""2""
""focus"",""19"",""249592""
","""event"",""trial"",""time""
""fullscreenenter"",""1"",""1901""
","
","","","-1","","","13","5978","3496","m","elianto","#f73b6a7A"," ","-1","0","-10","[]","0","2","","","5978","36","0","3","lose","go","0"
"pit-trial","158","1112980","0.0-41.0","battery-v0.2","","""event"",""trial"",""time""
""focus"",""0"",""2""
""fullscreenenter"",""1"",""1901""
""blur"",""19"",""249485""
""focus"",""19"",""249592""
","""event"",""trial"",""time""
""blur"",""19"",""249485""
","""event"",""trial"",""time""
""focus"",""0"",""2""
""focus"",""19"",""249592""
","""event"",""trial"",""time""
""fullscreenenter"",""1"",""1901""
","
","","","-1","","","13","5978","3496","m","elianto","#f73b6a7A"," ","-1","0","-10","[]","0","2","","","5978","37","0","3","lose","go","0"
"pit-trial","159","1117654","0.0-42.0","battery-v0.2","","""event"",""trial"",""time""
""focus"",""0"",""2""
""fullscreenenter"",""1"",""1901""
""blur"",""19"",""249485""
""focus"",""19"",""249592""
","""event"",""trial"",""time""
""blur"",""19"",""249485""
","""event"",""trial"",""time""
""focus"",""0"",""2""
""focus"",""19"",""249592""
","""event"",""trial"",""time""
""fullscreenenter"",""1"",""1901""
","
","","","1803","","","13","5978","3496","r","elianto","#3366ff99","-1"," ","0","+10","[2663]","1","2","","","5978","38","1","2","win","no-go","1"
"pit-trial","160","1121208","0.0-43.0","battery-v0.2","","""event"",""trial"",""time""
""focus"",""0"",""2""
""fullscreenenter"",""1"",""1901""
""blur"",""19"",""249485""
""focus"",""19"",""249592""
","""event"",""trial"",""time""
""blur"",""19"",""249485""
","""event"",""trial"",""time""
""focus"",""0"",""2""
""focus"",""19"",""249592""
","""event"",""trial"",""time""
""fullscreenenter"",""1"",""1901""
","
","","","687","","","13","5978","3496","h","elianto","#f73b6a7A","-1"," ","0","-10","[1549]","1","2","","","5978","39","3","4","lose","no-go","0"
"pit-trial","161","1124688","0.0-44.0","battery-v0.2","","""event"",""trial"",""time""
""focus"",""0"",""2""
""fullscreenenter"",""1"",""1901""
""blur"",""19"",""249485""
""focus"",""19"",""249592""
","""event"",""trial"",""time""
""blur"",""19"",""249485""
","""event"",""trial"",""time""
""focus"",""0"",""2""
""focus"",""19"",""249592""
","""event"",""trial"",""time""
""fullscreenenter"",""1"",""1901""
","
","","","616","","","13","5978","3496","y","elianto","#f73b6a7A"," "," ","1","0","[1474]","1","2","","","5978","40","2","3","lose","go","0"
"pit-trial","162","1129359","0.0-45.0","battery-v0.2","","""event"",""trial"",""time""
""focus"",""0"",""2""
""fullscreenenter"",""1"",""1901""
""blur"",""19"",""249485""
""focus"",""19"",""249592""
","""event"",""trial"",""time""
""blur"",""19"",""249485""
","""event"",""trial"",""time""
""focus"",""0"",""2""
""focus"",""19"",""249592""
","""event"",""trial"",""time""
""fullscreenenter"",""1"",""1901""
","
","","","1804","","","13","5978","3496","r","elianto","#3366ff99","-1"," ","0","0","[2665]","1","2","","","5978","41","1","2","win","no-go","0"
"pit-trial","163","1133103","0.0-46.0","battery-v0.2","","""event"",""trial"",""time""
""focus"",""0"",""2""
""fullscreenenter"",""1"",""1901""
""blur"",""19"",""249485""
""focus"",""19"",""249592""
","""event"",""trial"",""time""
""blur"",""19"",""249485""
","""event"",""trial"",""time""
""focus"",""0"",""2""
""focus"",""19"",""249592""
","""event"",""trial"",""time""
""fullscreenenter"",""1"",""1901""
","
","","","870","","","13","5978","3496","y","elianto","#f73b6a7A"," "," ","1","0","[1730]","1","2","","","5978","42","2","3","lose","go","0"
"pit-trial","164","1136588","0.0-47.0","battery-v0.2","","""event"",""trial"",""time""
""focus"",""0"",""2""
""fullscreenenter"",""1"",""1901""
""blur"",""19"",""249485""
""focus"",""19"",""249592""
","""event"",""trial"",""time""
""blur"",""19"",""249485""
","""event"",""trial"",""time""
""focus"",""0"",""2""
""focus"",""19"",""249592""
","""event"",""trial"",""time""
""fullscreenenter"",""1"",""1901""
","
","","","613","","","13","5978","3496","m","elianto","#f73b6a7A"," "," ","1","0","[1474]","1","2","","","5978","43","0","3","lose","go","0"
"pit-trial","165","1141469","0.0-48.0","battery-v0.2","","""event"",""trial"",""time""
""focus"",""0"",""2""
""fullscreenenter"",""1"",""1901""
""blur"",""19"",""249485""
""focus"",""19"",""249592""
","""event"",""trial"",""time""
""blur"",""19"",""249485""
","""event"",""trial"",""time""
""focus"",""0"",""2""
""focus"",""19"",""249592""
","""event"",""trial"",""time""
""fullscreenenter"",""1"",""1901""
","
","","","-1","","","13","5978","3496","h","elianto","#f73b6a7A","-1","-1","1","-10","[]","0","2","","","5978","44","3","4","lose","no-go","1"
"pit-trial","166","1145217","0.0-49.0","battery-v0.2","","""event"",""trial"",""time""
""focus"",""0"",""2""
""fullscreenenter"",""1"",""1901""
""blur"",""19"",""249485""
""focus"",""19"",""249592""
","""event"",""trial"",""time""
""blur"",""19"",""249485""
","""event"",""trial"",""time""
""focus"",""0"",""2""
""focus"",""19"",""249592""
","""event"",""trial"",""time""
""fullscreenenter"",""1"",""1901""
","
","","","875","","","13","5978","3496","r","elianto","#3366ff99","-1"," ","0","0","[1740]","1","2","","","5978","45","1","2","win","no-go","0"
"pit-trial","167","1150098","0.0-50.0","battery-v0.2","","""event"",""trial"",""time""
""focus"",""0"",""2""
""fullscreenenter"",""1"",""1901""
""blur"",""19"",""249485""
""focus"",""19"",""249592""
","""event"",""trial"",""time""
""blur"",""19"",""249485""
","""event"",""trial"",""time""
""focus"",""0"",""2""
""focus"",""19"",""249592""
","""event"",""trial"",""time""
""fullscreenenter"",""1"",""1901""
","
","","","-1","","","13","5978","3496","m","elianto","#f73b6a7A"," ","-1","0","-10","[616]","1","2","","","5978","46","0","3","lose","go","0"
"pit-trial","168","1153749","0.0-51.0","battery-v0.2","","""event"",""trial"",""time""
""focus"",""0"",""2""
""fullscreenenter"",""1"",""1901""
""blur"",""19"",""249485""
""focus"",""19"",""249592""
","""event"",""trial"",""time""
""blur"",""19"",""249485""
","""event"",""trial"",""time""
""focus"",""0"",""2""
""focus"",""19"",""249592""
","""event"",""trial"",""time""
""fullscreenenter"",""1"",""1901""
","
","","","766","","","13","5978","3496","h","elianto","#f73b6a7A","-1"," ","0","0","[1631]","1","2","","","5978","47","3","4","lose","no-go","1"
"pit-trial","169","1157538","0.0-52.0","battery-v0.2","","""event"",""trial"",""time""
""focus"",""0"",""2""
""fullscreenenter"",""1"",""1901""
""blur"",""19"",""249485""
""focus"",""19"",""249592""
","""event"",""trial"",""time""
""blur"",""19"",""249485""
","""event"",""trial"",""time""
""focus"",""0"",""2""
""focus"",""19"",""249592""
","""event"",""trial"",""time""
""fullscreenenter"",""1"",""1901""
","
","","","925","","","13","5978","3496","y","elianto","#f73b6a7A"," "," ","1","-10","[1780]","1","2","","","5978","48","2","3","lose","go","1"
"pit-trial","170","1161248","0.0-53.0","battery-v0.2","","""event"",""trial"",""time""
""focus"",""0"",""2""
""fullscreenenter"",""1"",""1901""
""blur"",""19"",""249485""
""focus"",""19"",""249592""
","""event"",""trial"",""time""
""blur"",""19"",""249485""
","""event"",""trial"",""time""
""focus"",""0"",""2""
""focus"",""19"",""249592""
","""event"",""trial"",""time""
""fullscreenenter"",""1"",""1901""
","
","","","831","","","13","5978","3496","h","elianto","#f73b6a7A","-1"," ","0","-10","[1695]","1","2","","","5978","49","3","4","lose","no-go","0"
"pit-trial","171","1164948","0.0-54.0","battery-v0.2","","""event"",""trial"",""time""
""focus"",""0"",""2""
""fullscreenenter"",""1"",""1901""
""blur"",""19"",""249485""
""focus"",""19"",""249592""
","""event"",""trial"",""time""
""blur"",""19"",""249485""
","""event"",""trial"",""time""
""focus"",""0"",""2""
""focus"",""19"",""249592""
","""event"",""trial"",""time""
""fullscreenenter"",""1"",""1901""
","
","","","829","","","13","5978","3496","y","elianto","#f73b6a7A"," "," ","1","0","[1689]","1","2","","","5978","50","2","3","lose","go","0"
"pit-trial","172","1168622","0.0-55.0","battery-v0.2","","""event"",""trial"",""time""
""focus"",""0"",""2""
""fullscreenenter"",""1"",""1901""
""blur"",""19"",""249485""
""focus"",""19"",""249592""
","""event"",""trial"",""time""
""blur"",""19"",""249485""
","""event"",""trial"",""time""
""focus"",""0"",""2""
""focus"",""19"",""249592""
","""event"",""trial"",""time""
""fullscreenenter"",""1"",""1901""
","
","","","808","","","13","5978","3496","r","elianto","#3366ff99","-1"," ","0","0","[1669]","1","2","","","5978","51","1","2","win","no-go","0"
"pit-trial","173","1172393","0.0-56.0","battery-v0.2","","""event"",""trial"",""time""
""focus"",""0"",""2""
""fullscreenenter"",""1"",""1901""
""blur"",""19"",""249485""
""focus"",""19"",""249592""
","""event"",""trial"",""time""
""blur"",""19"",""249485""
","""event"",""trial"",""time""
""focus"",""0"",""2""
""focus"",""19"",""249592""
","""event"",""trial"",""time""
""fullscreenenter"",""1"",""1901""
","
","","","903","","","13","5978","3496","m","elianto","#f73b6a7A"," "," ","1","0","[1754]","1","2","","","5978","52","0","3","lose","go","0"
"pit-trial","174","1176248","0.0-57.0","battery-v0.2","","""event"",""trial"",""time""
""focus"",""0"",""2""
""fullscreenenter"",""1"",""1901""
""blur"",""19"",""249485""
""focus"",""19"",""249592""
","""event"",""trial"",""time""
""blur"",""19"",""249485""
","""event"",""trial"",""time""
""focus"",""0"",""2""
""focus"",""19"",""249592""
","""event"",""trial"",""time""
""fullscreenenter"",""1"",""1901""
","
","","","982","","","13","5978","3496","y","elianto","#f73b6a7A"," "," ","1","0","[1847,3343]","2","2","","","5978","53","2","3","lose","go","0"
"pit-trial","175","1180199","0.0-58.0","battery-v0.2","","""event"",""trial"",""time""
""focus"",""0"",""2""
""fullscreenenter"",""1"",""1901""
""blur"",""19"",""249485""
""focus"",""19"",""249592""
","""event"",""trial"",""time""
""blur"",""19"",""249485""
","""event"",""trial"",""time""
""focus"",""0"",""2""
""focus"",""19"",""249592""
","""event"",""trial"",""time""
""fullscreenenter"",""1"",""1901""
","
","","","1081","","","13","5978","3496","h","elianto","#f73b6a7A","-1"," ","0","-10","[1938]","1","2","","","5978","54","3","4","lose","no-go","0"
"pit-trial","176","1185078","0.0-59.0","battery-v0.2","","""event"",""trial"",""time""
""focus"",""0"",""2""
""fullscreenenter"",""1"",""1901""
""blur"",""19"",""249485""
""focus"",""19"",""249592""
","""event"",""trial"",""time""
""blur"",""19"",""249485""
","""event"",""trial"",""time""
""focus"",""0"",""2""
""focus"",""19"",""249592""
","""event"",""trial"",""time""
""fullscreenenter"",""1"",""1901""
","
","","","-1","","","13","5978","3496","m","elianto","#f73b6a7A"," ","-1","0","-10","[]","0","2","","","5978","55","0","3","lose","go","0"
"pit-trial","177","1188752","0.0-60.0","battery-v0.2","","""event"",""trial"",""time""
""focus"",""0"",""2""
""fullscreenenter"",""1"",""1901""
""blur"",""19"",""249485""
""focus"",""19"",""249592""
","""event"",""trial"",""time""
""blur"",""19"",""249485""
","""event"",""trial"",""time""
