"trial_type","trial_index","time_elapsed","internal_node_id","task_version","subject_id","interactions","blur_events","focus_events","fullscreenenter_events","fullscreenexit_events","success","view_history","rt","responses","num_errors","age","subject","participantId","rune","rune_set","hex","correct","choice","accuracy","outcome","keys","total_keys","block","practice","value","sub","trial","stimulus","robot","valence","action","sham"
"pavlovia","0","8","0.0-0.0","battery-v0.2","","""event"",""trial"",""time""
""fullscreenenter"",""1"",""24906""
","
","
","""event"",""trial"",""time""
""fullscreenenter"",""1"",""24906""
","
","","","","","","","","","","","","","","","","","","","","","","","","","","",""
"fullscreen","1","25883","0.0-1.0","battery-v0.2","","""event"",""trial"",""time""
""fullscreenenter"",""1"",""24906""
""fullscreenexit"",""2"",""94895""
","
","
","""event"",""trial"",""time""
""fullscreenenter"",""1"",""24906""
","""event"",""trial"",""time""
""fullscreenexit"",""2"",""94895""
","true","","","","","","","","","","","","","","","","","","","","","","","","","",""
"pit-instructions","2","144675","0.0-2.0-0.0","battery-v0.2","","""event"",""trial"",""time""
""fullscreenenter"",""1"",""24906""
""fullscreenexit"",""2"",""94895""
","
","
","""event"",""trial"",""time""
""fullscreenenter"",""1"",""24906""
","""event"",""trial"",""time""
""fullscreenexit"",""2"",""94895""
","","[{""page_index"":0,""viewing_time"":118800.20000004768}]","118800.79999995232","","","","","","","","","","","","","","","","","","","","","","","",""
"pit-comprehension","3","147782","0.0-2.0-1.0-0.0","battery-v0.2","","""event"",""trial"",""time""
""fullscreenenter"",""1"",""24906""
""fullscreenexit"",""2"",""94895""
","
","
","""event"",""trial"",""time""
""fullscreenenter"",""1"",""24906""
","""event"",""trial"",""time""
""fullscreenexit"",""2"",""94895""
","","","3101.2999999523163","[""shark""]","0","17","6469","3387","","","","","","","","","","","","","","","","","","",""
"pit-instructions","4","149719","0.0-2.0-1.0-1.0","battery-v0.2","","""event"",""trial"",""time""
""fullscreenenter"",""1"",""24906""
""fullscreenexit"",""2"",""94895""
","
","
","""event"",""trial"",""time""
""fullscreenenter"",""1"",""24906""
","""event"",""trial"",""time""
""fullscreenexit"",""2"",""94895""
","","[{""page_index"":0,""viewing_time"":1893.8000000715256}]","1894.3999999761581","","","","","","","","","","","","","","","","","","","","","","","",""
"pit-comprehension","5","152515","0.0-2.0-2.0-0.0","battery-v0.2","","""event"",""trial"",""time""
""fullscreenenter"",""1"",""24906""
""fullscreenexit"",""2"",""94895""
","
","
","""event"",""trial"",""time""
""fullscreenenter"",""1"",""24906""
","""event"",""trial"",""time""
""fullscreenexit"",""2"",""94895""
","","","2791.2999999523163","[""tiger""]","0","17","6469","3387","","","","","","","","","","","","","","","","","","",""
"pit-instructions","6","154135","0.0-2.0-2.0-1.0","battery-v0.2","","""event"",""trial"",""time""
""fullscreenenter"",""1"",""24906""
""fullscreenexit"",""2"",""94895""
""blur"",""7"",""172613""
""focus"",""7"",""179989""
","""event"",""trial"",""time""
""blur"",""7"",""172613""
","""event"",""trial"",""time""
""focus"",""7"",""179989""
","""event"",""trial"",""time""
""fullscreenenter"",""1"",""24906""
","""event"",""trial"",""time""
""fullscreenexit"",""2"",""94895""
","","[{""page_index"":0,""viewing_time"":1613.6000000238419}]","1614.1000000238419","","","","","","","","","","","","","","","","","","","","","","","",""
"pit-instructions","7","261491","0.0-2.0-3.0","battery-v0.2","","""event"",""trial"",""time""
""fullscreenenter"",""1"",""24906""
""fullscreenexit"",""2"",""94895""
""blur"",""7"",""172613""
""focus"",""7"",""179989""
","""event"",""trial"",""time""
""blur"",""7"",""172613""
","""event"",""trial"",""time""
""focus"",""7"",""179989""
","""event"",""trial"",""time""
""fullscreenenter"",""1"",""24906""
","""event"",""trial"",""time""
""fullscreenexit"",""2"",""94895""
","","[{""page_index"":0,""viewing_time"":7887.700000047684},{""page_index"":1,""viewing_time"":6223.199999928474},{""page_index"":2,""viewing_time"":13291.400000095367},{""page_index"":3,""viewing_time"":5217},{""page_index"":4,""viewing_time"":5895},{""page_index"":5,""viewing_time"":5716.699999928474},{""page_index"":6,""viewing_time"":7336.5},{""page_index"":7,""viewing_time"":7344},{""page_index"":8,""viewing_time"":8007.899999976158},{""page_index"":9,""viewing_time"":8160.200000047684},{""page_index"":10,""viewing_time"":7903.5},{""page_index"":11,""viewing_time"":11996.600000023842},{""page_index"":12,""viewing_time"":7852.100000023842},{""page_index"":13,""viewing_time"":4507.599999904633}]","107339.80000007153","","","","","","","","","","","","","","","","","","","","","","","",""
"pit-trial","8","264452","0.0-2.0-4.0-0.0","battery-v0.2","","""event"",""trial"",""time""
""fullscreenenter"",""1"",""24906""
""fullscreenexit"",""2"",""94895""
""blur"",""7"",""172613""
""focus"",""7"",""179989""
","""event"",""trial"",""time""
""blur"",""7"",""172613""
","""event"",""trial"",""time""
""focus"",""7"",""179989""
","""event"",""trial"",""time""
""fullscreenenter"",""1"",""24906""
","""event"",""trial"",""time""
""fullscreenexit"",""2"",""94895""
","","","107","","","17","6469","3387","&#9784;","elianto","#FFFFF080"," "," ","1","&#10004","[957]","1","0","0","","","","","","","",""
"pit-trial","9","269306","0.0-2.0-4.1-0.1","battery-v0.2","","""event"",""trial"",""time""
""fullscreenenter"",""1"",""24906""
""fullscreenexit"",""2"",""94895""
""blur"",""7"",""172613""
""focus"",""7"",""179989""
","""event"",""trial"",""time""
""blur"",""7"",""172613""
","""event"",""trial"",""time""
""focus"",""7"",""179989""
","""event"",""trial"",""time""
""fullscreenenter"",""1"",""24906""
","""event"",""trial"",""time""
""fullscreenexit"",""2"",""94895""
","","","-1","","","17","6469","3387","&#9784;","elianto","#FFFFF080"," ","-1","0","&#10060","[3056.899999976158]","1","0","0","","","","","","","",""
"pit-trial","10","272323","0.0-2.0-4.2-0.2","battery-v0.2","","""event"",""trial"",""time""
""fullscreenenter"",""1"",""24906""
""fullscreenexit"",""2"",""94895""
""blur"",""7"",""172613""
""focus"",""7"",""179989""
","""event"",""trial"",""time""
""blur"",""7"",""172613""
","""event"",""trial"",""time""
""focus"",""7"",""179989""
","""event"",""trial"",""time""
""fullscreenenter"",""1"",""24906""
","""event"",""trial"",""time""
""fullscreenexit"",""2"",""94895""
","","","162.09999990463257","","","17","6469","3387","&#9784;","elianto","#FFFFF080"," "," ","1","&#10004","[1012.1999999284744]","1","0","0","","","","","","","",""
"pit-trial","11","277178","0.0-2.0-4.3-0.3","battery-v0.2","","""event"",""trial"",""time""
""fullscreenenter"",""1"",""24906""
""fullscreenexit"",""2"",""94895""
""blur"",""7"",""172613""
""focus"",""7"",""179989""
","""event"",""trial"",""time""
""blur"",""7"",""172613""
","""event"",""trial"",""time""
""focus"",""7"",""179989""
","""event"",""trial"",""time""
""fullscreenenter"",""1"",""24906""
","""event"",""trial"",""time""
""fullscreenexit"",""2"",""94895""
","","","-1","","","17","6469","3387","&#9784;","elianto","#FFFFF080"," ","-1","0","&#10060","[]","0","0","0","","","","","","","",""
"pit-trial","12","280418","0.0-2.0-4.4-0.4","battery-v0.2","","""event"",""trial"",""time""
""fullscreenenter"",""1"",""24906""
""fullscreenexit"",""2"",""94895""
""blur"",""7"",""172613""
""focus"",""7"",""179989""
","""event"",""trial"",""time""
""blur"",""7"",""172613""
","""event"",""trial"",""time""
""focus"",""7"",""179989""
","""event"",""trial"",""time""
""fullscreenenter"",""1"",""24906""
","""event"",""trial"",""time""
""fullscreenexit"",""2"",""94895""
","","","384.40000009536743","","","17","6469","3387","&#9784;","elianto","#FFFFF080"," "," ","1","&#10004","[1235.2000000476837]","1","0","0","","","","","","","",""
"pit-trial","13","283321","0.0-2.0-4.5-0.5","battery-v0.2","","""event"",""trial"",""time""
""fullscreenenter"",""1"",""24906""
""fullscreenexit"",""2"",""94895""
""blur"",""7"",""172613""
""focus"",""7"",""179989""
","""event"",""trial"",""time""
""blur"",""7"",""172613""
","""event"",""trial"",""time""
""focus"",""7"",""179989""
","""event"",""trial"",""time""
""fullscreenenter"",""1"",""24906""
","""event"",""trial"",""time""
""fullscreenexit"",""2"",""94895""
","","","49.199999928474426","","","17","6469","3387","&#9784;","elianto","#FFFFF080"," "," ","1","&#10004","[899.1999999284744]","1","0","0","","","","","","","",""
"pit-trial","14","286195","0.0-2.0-4.6-0.6","battery-v0.2","","""event"",""trial"",""time""
""fullscreenenter"",""1"",""24906""
""fullscreenexit"",""2"",""94895""
""blur"",""7"",""172613""
""focus"",""7"",""179989""
","""event"",""trial"",""time""
""blur"",""7"",""172613""
","""event"",""trial"",""time""
""focus"",""7"",""179989""
","""event"",""trial"",""time""
""fullscreenenter"",""1"",""24906""
","""event"",""trial"",""time""
""fullscreenexit"",""2"",""94895""
","","","17.199999928474426","","","17","6469","3387","&#9784;","elianto","#FFFFF080"," "," ","1","&#10004","[867.6999999284744]","1","0","0","","","","","","","",""
"pit-instructions","15","300711","0.0-2.0-4.6-1.6-0.6","battery-v0.2","","""event"",""trial"",""time""
""fullscreenenter"",""1"",""24906""
""fullscreenexit"",""2"",""94895""
""blur"",""7"",""172613""
""focus"",""7"",""179989""
","""event"",""trial"",""time""
""blur"",""7"",""172613""
","""event"",""trial"",""time""
""focus"",""7"",""179989""
","""event"",""trial"",""time""
""fullscreenenter"",""1"",""24906""
","""event"",""trial"",""time""
""fullscreenexit"",""2"",""94895""
","","[{""page_index"":0,""viewing_time"":5896.799999952316},{""page_index"":1,""viewing_time"":8616.299999952316}]","14513.599999904633","","","","","","","","","","","","","","","","","","","","","","","",""
"pit-instructions","16","323106","0.0-2.0-5.0","battery-v0.2","","""event"",""trial"",""time""
""fullscreenenter"",""1"",""24906""
""fullscreenexit"",""2"",""94895""
""blur"",""7"",""172613""
""focus"",""7"",""179989""
","""event"",""trial"",""time""
""blur"",""7"",""172613""
","""event"",""trial"",""time""
""focus"",""7"",""179989""
","""event"",""trial"",""time""
""fullscreenenter"",""1"",""24906""
","""event"",""trial"",""time""
""fullscreenexit"",""2"",""94895""
","","[{""page_index"":0,""viewing_time"":5287.600000023842},{""page_index"":1,""viewing_time"":5243.899999976158},{""page_index"":2,""viewing_time"":4736.200000047684},{""page_index"":3,""viewing_time"":7123.700000047684}]","22391.900000095367","","","","","","","","","","","","","","","","","","","","","","","",""
"pit-trial","17","327960","0.0-2.0-6.0-0.0","battery-v0.2","","""event"",""trial"",""time""
""fullscreenenter"",""1"",""24906""
""fullscreenexit"",""2"",""94895""
""blur"",""7"",""172613""
""focus"",""7"",""179989""
","""event"",""trial"",""time""
""blur"",""7"",""172613""
","""event"",""trial"",""time""
""focus"",""7"",""179989""
","""event"",""trial"",""time""
""fullscreenenter"",""1"",""24906""
","""event"",""trial"",""time""
""fullscreenexit"",""2"",""94895""
","","","-1","","","17","6469","3387","&#9854;","elianto","#FFFFF080","-1","-1","1","&#10004","[]","0","0","1","","","","","","","",""
"pit-trial","18","332814","0.0-2.0-6.1-0.1","battery-v0.2","","""event"",""trial"",""time""
""fullscreenenter"",""1"",""24906""
""fullscreenexit"",""2"",""94895""
""blur"",""7"",""172613""
""focus"",""7"",""179989""
","""event"",""trial"",""time""
""blur"",""7"",""172613""
","""event"",""trial"",""time""
""focus"",""7"",""179989""
","""event"",""trial"",""time""
""fullscreenenter"",""1"",""24906""
","""event"",""trial"",""time""
""fullscreenexit"",""2"",""94895""
","","","-1","","","17","6469","3387","&#9854;","elianto","#FFFFF080","-1","-1","1","&#10004","[]","0","0","1","","","","","","","",""
"pit-trial","19","337669","0.0-2.0-6.2-0.2","battery-v0.2","","""event"",""trial"",""time""
""fullscreenenter"",""1"",""24906""
""fullscreenexit"",""2"",""94895""
""blur"",""7"",""172613""
""focus"",""7"",""179989""
","""event"",""trial"",""time""
""blur"",""7"",""172613""
","""event"",""trial"",""time""
""focus"",""7"",""179989""
","""event"",""trial"",""time""
""fullscreenenter"",""1"",""24906""
","""event"",""trial"",""time""
""fullscreenexit"",""2"",""94895""
","","","-1","","","17","6469","3387","&#9854;","elianto","#FFFFF080","-1","-1","1","&#10004","[]","0","0","1","","","","","","","",""
"pit-trial","20","342523","0.0-2.0-6.3-0.3","battery-v0.2","","""event"",""trial"",""time""
""fullscreenenter"",""1"",""24906""
""fullscreenexit"",""2"",""94895""
""blur"",""7"",""172613""
""focus"",""7"",""179989""
","""event"",""trial"",""time""
""blur"",""7"",""172613""
","""event"",""trial"",""time""
""focus"",""7"",""179989""
","""event"",""trial"",""time""
""fullscreenenter"",""1"",""24906""
","""event"",""trial"",""time""
""fullscreenexit"",""2"",""94895""
","","","-1","","","17","6469","3387","&#9854;","elianto","#FFFFF080","-1","-1","1","&#10004","[]","0","0","1","","","","","","","",""
"pit-trial","21","347379","0.0-2.0-6.4-0.4","battery-v0.2","","""event"",""trial"",""time""
""fullscreenenter"",""1"",""24906""
""fullscreenexit"",""2"",""94895""
""blur"",""7"",""172613""
""focus"",""7"",""179989""
","""event"",""trial"",""time""
""blur"",""7"",""172613""
","""event"",""trial"",""time""
""focus"",""7"",""179989""
","""event"",""trial"",""time""
""fullscreenenter"",""1"",""24906""
","""event"",""trial"",""time""
""fullscreenexit"",""2"",""94895""
","","","-1","","","17","6469","3387","&#9854;","elianto","#FFFFF080","-1","-1","1","&#10004","[]","0","0","1","","","","","","","",""
"pit-instructions","22","515027","0.0-2.0-7.0","battery-v0.2","","""event"",""trial"",""time""
""fullscreenenter"",""1"",""24906""
""fullscreenexit"",""2"",""94895""
""blur"",""7"",""172613""
""focus"",""7"",""179989""
","""event"",""trial"",""time""
""blur"",""7"",""172613""
","""event"",""trial"",""time""
""focus"",""7"",""179989""
","""event"",""trial"",""time""
""fullscreenenter"",""1"",""24906""
","""event"",""trial"",""time""
""fullscreenexit"",""2"",""94895""
","","[{""page_index"":0,""viewing_time"":22722.5},{""page_index"":1,""viewing_time"":14007.5},{""page_index"":2,""viewing_time"":8715.699999928474},{""page_index"":3,""viewing_time"":8059.700000047684},{""page_index"":4,""viewing_time"":9607.199999928474},{""page_index"":5,""viewing_time"":7585.200000047684},{""page_index"":6,""viewing_time"":7967.700000047684},{""page_index"":7,""viewing_time"":11252.799999952316},{""page_index"":8,""viewing_time"":9042.5},{""page_index"":9,""viewing_time"":7357},{""page_index"":10,""viewing_time"":6263.799999952316},{""page_index"":11,""viewing_time"":4939.800000071526},{""page_index"":12,""viewing_time"":9500.100000023842},{""page_index"":13,""viewing_time"":7228.199999928474},{""page_index"":14,""viewing_time"":9251.200000047684},{""page_index"":15,""viewing_time"":9545.299999952316},{""page_index"":16,""viewing_time"":7631.5},{""page_index"":17,""viewing_time"":6963.899999976158}]","167642.29999995232","","","","","","","","","","","","","","","","","","","","","","","",""
"pit-trial","23","517923","0.0-2.0-8.0-0.0","battery-v0.2","","""event"",""trial"",""time""
""fullscreenenter"",""1"",""24906""
""fullscreenexit"",""2"",""94895""
""blur"",""7"",""172613""
""focus"",""7"",""179989""
","""event"",""trial"",""time""
""blur"",""7"",""172613""
","""event"",""trial"",""time""
""focus"",""7"",""179989""
","""event"",""trial"",""time""
""fullscreenenter"",""1"",""24906""
","""event"",""trial"",""time""
""fullscreenexit"",""2"",""94895""
","","","41.799999952316284","","","17","6469","3387","&#9776;","elianto","#3366ff99"," "," ","1","+10","[892.8999999761581]","1","0","1","","","","","","","",""
"pit-trial","24","520820","0.0-2.0-8.0-1.0","battery-v0.2","","""event"",""trial"",""time""
""fullscreenenter"",""1"",""24906""
""fullscreenexit"",""2"",""94895""
""blur"",""7"",""172613""
""focus"",""7"",""179989""
","""event"",""trial"",""time""
""blur"",""7"",""172613""
","""event"",""trial"",""time""
""focus"",""7"",""179989""
","""event"",""trial"",""time""
""fullscreenenter"",""1"",""24906""
","""event"",""trial"",""time""
""fullscreenexit"",""2"",""94895""
","","","42.700000047683716","","","17","6469","3387","&#9776;","elianto","#3366ff99"," "," ","1","+10","[893.3000000715256]","1","0","1","","","","","","","",""
"pit-trial","25","525674","0.0-2.0-8.0-2.0","battery-v0.2","","""event"",""trial"",""time""
""fullscreenenter"",""1"",""24906""
""fullscreenexit"",""2"",""94895""
""blur"",""7"",""172613""
""focus"",""7"",""179989""
","""event"",""trial"",""time""
""blur"",""7"",""172613""
","""event"",""trial"",""time""
""focus"",""7"",""179989""
","""event"",""trial"",""time""
""fullscreenenter"",""1"",""24906""
","""event"",""trial"",""time""
""fullscreenexit"",""2"",""94895""
","","","-1","","","17","6469","3387","&#9776;","elianto","#3366ff99"," ","-1","0","0","[799.6000000238419]","1","0","1","","","","","","","",""
"pit-trial","26","528589","0.0-2.0-8.0-3.0","battery-v0.2","","""event"",""trial"",""time""
""fullscreenenter"",""1"",""24906""
""fullscreenexit"",""2"",""94895""
""blur"",""7"",""172613""
""focus"",""7"",""179989""
","""event"",""trial"",""time""
""blur"",""7"",""172613""
","""event"",""trial"",""time""
""focus"",""7"",""179989""
","""event"",""trial"",""time""
""fullscreenenter"",""1"",""24906""
","""event"",""trial"",""time""
""fullscreenexit"",""2"",""94895""
","","","63","","","17","6469","3387","&#9776;","elianto","#3366ff99"," "," ","1","0","[913.1000000238419]","1","0","1","","","","","","","",""
"pit-trial","27","533441","0.0-2.0-8.0-4.0","battery-v0.2","","""event"",""trial"",""time""
""fullscreenenter"",""1"",""24906""
""fullscreenexit"",""2"",""94895""
""blur"",""7"",""172613""
""focus"",""7"",""179989""
","""event"",""trial"",""time""
""blur"",""7"",""172613""
","""event"",""trial"",""time""
""focus"",""7"",""179989""
","""event"",""trial"",""time""
""fullscreenenter"",""1"",""24906""
","""event"",""trial"",""time""
""fullscreenexit"",""2"",""94895""
","","","-1","","","17","6469","3387","&#9776;","elianto","#3366ff99"," ","-1","0","0","[]","0","0","1","","","","","","","",""
"pit-trial","28","536334","0.0-2.0-8.1-0.1","battery-v0.2","","""event"",""trial"",""time""
""fullscreenenter"",""1"",""24906""
""fullscreenexit"",""2"",""94895""
""blur"",""7"",""172613""
""focus"",""7"",""179989""
","""event"",""trial"",""time""
""blur"",""7"",""172613""
","""event"",""trial"",""time""
""focus"",""7"",""179989""
","""event"",""trial"",""time""
""fullscreenenter"",""1"",""24906""
","""event"",""trial"",""time""
""fullscreenexit"",""2"",""94895""
","","","38.5","","","17","6469","3387","&#9776;","elianto","#3366ff99"," "," ","1","+10","[889.3000000715256]","1","0","1","","","","","","","",""
"pit-trial","29","539421","0.0-2.0-8.1-1.1","battery-v0.2","","""event"",""trial"",""time""
""fullscreenenter"",""1"",""24906""
""fullscreenexit"",""2"",""94895""
""blur"",""7"",""172613""
""focus"",""7"",""179989""
","""event"",""trial"",""time""
""blur"",""7"",""172613""
","""event"",""trial"",""time""
""focus"",""7"",""179989""
","""event"",""trial"",""time""
""fullscreenenter"",""1"",""24906""
","""event"",""trial"",""time""
""fullscreenexit"",""2"",""94895""
","","","231.80000007152557","","","17","6469","3387","&#9776;","elianto","#3366ff99"," "," ","1","+10","[1083.7000000476837]","1","0","1","","","","","","","",""
"pit-trial","30","544275","0.0-2.0-8.1-2.1","battery-v0.2","","""event"",""trial"",""time""
""fullscreenenter"",""1"",""24906""
""fullscreenexit"",""2"",""94895""
""blur"",""7"",""172613""
""focus"",""7"",""179989""
","""event"",""trial"",""time""
""blur"",""7"",""172613""
","""event"",""trial"",""time""
""focus"",""7"",""179989""
","""event"",""trial"",""time""
""fullscreenenter"",""1"",""24906""
","""event"",""trial"",""time""
""fullscreenexit"",""2"",""94895""
","","","-1","","","17","6469","3387","&#9776;","elianto","#3366ff99"," ","-1","0","0","[848.2999999523163]","1","0","1","","","","","","","",""
"pit-trial","31","549131","0.0-2.0-8.1-3.1","battery-v0.2","","""event"",""trial"",""time""
""fullscreenenter"",""1"",""24906""
""fullscreenexit"",""2"",""94895""
""blur"",""7"",""172613""
""focus"",""7"",""179989""
","""event"",""trial"",""time""
""blur"",""7"",""172613""
","""event"",""trial"",""time""
""focus"",""7"",""179989""
","""event"",""trial"",""time""
""fullscreenenter"",""1"",""24906""
","""event"",""trial"",""time""
""fullscreenexit"",""2"",""94895""
","","","-1","","","17","6469","3387","&#9776;","elianto","#3366ff99"," ","-1","0","+10","[]","0","0","1","","","","","","","",""
"pit-trial","32","552553","0.0-2.0-8.1-4.1","battery-v0.2","","""event"",""trial"",""time""
""fullscreenenter"",""1"",""24906""
""fullscreenexit"",""2"",""94895""
""blur"",""7"",""172613""
""focus"",""7"",""179989""
","""event"",""trial"",""time""
""blur"",""7"",""172613""
","""event"",""trial"",""time""
""focus"",""7"",""179989""
","""event"",""trial"",""time""
""fullscreenenter"",""1"",""24906""
","""event"",""trial"",""time""
""fullscreenexit"",""2"",""94895""
","","","566.6000000238419","","","17","6469","3387","&#9776;","elianto","#3366ff99"," "," ","1","+10","[1417.8000000715256]","1","0","1","","","","","","","",""
"pit-trial","33","557409","0.0-2.0-8.2-0.2","battery-v0.2","","""event"",""trial"",""time""
""fullscreenenter"",""1"",""24906""
""fullscreenexit"",""2"",""94895""
""blur"",""7"",""172613""
""focus"",""7"",""179989""
","""event"",""trial"",""time""
""blur"",""7"",""172613""
","""event"",""trial"",""time""
""focus"",""7"",""179989""
","""event"",""trial"",""time""
""fullscreenenter"",""1"",""24906""
","""event"",""trial"",""time""
""fullscreenexit"",""2"",""94895""
","","","-1","","","17","6469","3387","&#9776;","elianto","#3366ff99"," ","-1","0","0","[778.6000000238419]","1","0","1","","","","","","","",""
"pit-trial","34","560273","0.0-2.0-8.2-1.2","battery-v0.2","","""event"",""trial"",""time""
""fullscreenenter"",""1"",""24906""
""fullscreenexit"",""2"",""94895""
""blur"",""7"",""172613""
""focus"",""7"",""179989""
","""event"",""trial"",""time""
""blur"",""7"",""172613""
","""event"",""trial"",""time""
""focus"",""7"",""179989""
","""event"",""trial"",""time""
""fullscreenenter"",""1"",""24906""
","""event"",""trial"",""time""
""fullscreenexit"",""2"",""94895""
","","","10","","","17","6469","3387","&#9776;","elianto","#3366ff99"," "," ","1","+10","[860.6000000238419]","1","0","1","","","","","","","",""
"pit-trial","35","563188","0.0-2.0-8.2-2.2","battery-v0.2","","""event"",""trial"",""time""
""fullscreenenter"",""1"",""24906""
""fullscreenexit"",""2"",""94895""
""blur"",""7"",""172613""
""focus"",""7"",""179989""
","""event"",""trial"",""time""
""blur"",""7"",""172613""
","""event"",""trial"",""time""
""focus"",""7"",""179989""
","""event"",""trial"",""time""
""fullscreenenter"",""1"",""24906""
","""event"",""trial"",""time""
""fullscreenexit"",""2"",""94895""
","","","59.799999952316284","","","17","6469","3387","&#9776;","elianto","#3366ff99"," "," ","1","+10","[910.7999999523163]","1","0","1","","","","","","","",""
"pit-trial","36","568043","0.0-2.0-8.2-3.2","battery-v0.2","","""event"",""trial"",""time""
""fullscreenenter"",""1"",""24906""
""fullscreenexit"",""2"",""94895""
""blur"",""7"",""172613""
""focus"",""7"",""179989""
","""event"",""trial"",""time""
""blur"",""7"",""172613""
","""event"",""trial"",""time""
""focus"",""7"",""179989""
","""event"",""trial"",""time""
""fullscreenenter"",""1"",""24906""
","""event"",""trial"",""time""
""fullscreenexit"",""2"",""94895""
","","","-1","","","17","6469","3387","&#9776;","elianto","#3366ff99"," ","-1","0","+10","[838.0999999046326]","1","0","1","","","","","","","",""
"pit-trial","37","570904","0.0-2.0-8.2-4.2","battery-v0.2","","""event"",""trial"",""time""
""fullscreenenter"",""1"",""24906""
""fullscreenexit"",""2"",""94895""
""blur"",""7"",""172613""
""focus"",""7"",""179989""
","""event"",""trial"",""time""
""blur"",""7"",""172613""
","""event"",""trial"",""time""
""focus"",""7"",""179989""
","""event"",""trial"",""time""
""fullscreenenter"",""1"",""24906""
","""event"",""trial"",""time""
""fullscreenexit"",""2"",""94895""
","","","5.799999952316284","","","17","6469","3387","&#9776;","elianto","#3366ff99"," "," ","1","+10","[856.7999999523163]","1","0","1","","","","","","","",""
"call-function","38","570907","0.0-2.0-9.0","battery-v0.2","","""event"",""trial"",""time""
""fullscreenenter"",""1"",""24906""
""fullscreenexit"",""2"",""94895""
""blur"",""7"",""172613""
""focus"",""7"",""179989""
","""event"",""trial"",""time""
""blur"",""7"",""172613""
","""event"",""trial"",""time""
""focus"",""7"",""179989""
","""event"",""trial"",""time""
""fullscreenenter"",""1"",""24906""
","""event"",""trial"",""time""
""fullscreenexit"",""2"",""94895""
","","","","","","","","","","","","","","","","","","","","","","","","","","",""
"pit-instructions","39","679487","0.0-2.0-10.0","battery-v0.2","","""event"",""trial"",""time""
""fullscreenenter"",""1"",""24906""
""fullscreenexit"",""2"",""94895""
""blur"",""7"",""172613""
""focus"",""7"",""179989""
","""event"",""trial"",""time""
""blur"",""7"",""172613""
","""event"",""trial"",""time""
""focus"",""7"",""179989""
","""event"",""trial"",""time""
""fullscreenenter"",""1"",""24906""
","""event"",""trial"",""time""
""fullscreenexit"",""2"",""94895""
","","[{""page_index"":0,""viewing_time"":5883.200000047684},{""page_index"":1,""viewing_time"":6679.5},{""page_index"":2,""viewing_time"":13968.299999952316},{""page_index"":3,""viewing_time"":62472.60000002384},{""page_index"":4,""viewing_time"":19576.399999976158}]","108580.60000002384","","","","","","","","","","","","","","","","","","","","","","","",""
"pit-trial","40","684340","0.0-2.0-11.0-0.0","battery-v0.2","","""event"",""trial"",""time""
""fullscreenenter"",""1"",""24906""
""fullscreenexit"",""2"",""94895""
""blur"",""7"",""172613""
""focus"",""7"",""179989""
","""event"",""trial"",""time""
""blur"",""7"",""172613""
","""event"",""trial"",""time""
""focus"",""7"",""179989""
","""event"",""trial"",""time""
""fullscreenenter"",""1"",""24906""
","""event"",""trial"",""time""
""fullscreenexit"",""2"",""94895""
","","","-1","","","17","6469","3387","&#9761;","elianto","#3366ff99","-1","-1","1","+10","[]","0","0","2","","","","","","","",""
"pit-trial","41","689196","0.0-2.0-11.0-1.0","battery-v0.2","","""event"",""trial"",""time""
""fullscreenenter"",""1"",""24906""
""fullscreenexit"",""2"",""94895""
""blur"",""7"",""172613""
""focus"",""7"",""179989""
","""event"",""trial"",""time""
""blur"",""7"",""172613""
","""event"",""trial"",""time""
""focus"",""7"",""179989""
","""event"",""trial"",""time""
""fullscreenenter"",""1"",""24906""
","""event"",""trial"",""time""
""fullscreenexit"",""2"",""94895""
","","","-1","","","17","6469","3387","&#9761;","elianto","#3366ff99","-1","-1","1","+10","[]","0","0","2","","","","","","","",""
"pit-trial","42","694051","0.0-2.0-11.0-2.0","battery-v0.2","","""event"",""trial"",""time""
""fullscreenenter"",""1"",""24906""
""fullscreenexit"",""2"",""94895""
""blur"",""7"",""172613""
""focus"",""7"",""179989""
","""event"",""trial"",""time""
""blur"",""7"",""172613""
","""event"",""trial"",""time""
""focus"",""7"",""179989""
","""event"",""trial"",""time""
""fullscreenenter"",""1"",""24906""
","""event"",""trial"",""time""
""fullscreenexit"",""2"",""94895""
","","","-1","","","17","6469","3387","&#9761;","elianto","#3366ff99","-1","-1","1","+10","[]","0","0","2","","","","","","","",""
"pit-trial","43","698906","0.0-2.0-11.0-3.0","battery-v0.2","","""event"",""trial"",""time""
""fullscreenenter"",""1"",""24906""
""fullscreenexit"",""2"",""94895""
""blur"",""7"",""172613""
""focus"",""7"",""179989""
","""event"",""trial"",""time""
""blur"",""7"",""172613""
","""event"",""trial"",""time""
""focus"",""7"",""179989""
","""event"",""trial"",""time""
""fullscreenenter"",""1"",""24906""
","""event"",""trial"",""time""
""fullscreenexit"",""2"",""94895""
","","","-1","","","17","6469","3387","&#9761;","elianto","#3366ff99","-1","-1","1","0","[]","0","0","2","","","","","","","",""
"pit-trial","44","703761","0.0-2.0-11.0-4.0","battery-v0.2","","""event"",""trial"",""time""
""fullscreenenter"",""1"",""24906""
""fullscreenexit"",""2"",""94895""
""blur"",""7"",""172613""
""focus"",""7"",""179989""
","""event"",""trial"",""time""
""blur"",""7"",""172613""
","""event"",""trial"",""time""
""focus"",""7"",""179989""
","""event"",""trial"",""time""
""fullscreenenter"",""1"",""24906""
","""event"",""trial"",""time""
""fullscreenexit"",""2"",""94895""
","","","-1","","","17","6469","3387","&#9761;","elianto","#3366ff99","-1","-1","1","+10","[]","0","0","2","","","","","","","",""
"pit-trial","45","708618","0.0-2.0-11.1-0.1","battery-v0.2","","""event"",""trial"",""time""
""fullscreenenter"",""1"",""24906""
""fullscreenexit"",""2"",""94895""
""blur"",""7"",""172613""
""focus"",""7"",""179989""
","""event"",""trial"",""time""
""blur"",""7"",""172613""
","""event"",""trial"",""time""
""focus"",""7"",""179989""
","""event"",""trial"",""time""
""fullscreenenter"",""1"",""24906""
","""event"",""trial"",""time""
""fullscreenexit"",""2"",""94895""
","","","-1","","","17","6469","3387","&#9761;","elianto","#3366ff99","-1","-1","1","+10","[]","0","0","2","","","","","","","",""
"pit-trial","46","713472","0.0-2.0-11.1-1.1","battery-v0.2","","""event"",""trial"",""time""
""fullscreenenter"",""1"",""24906""
""fullscreenexit"",""2"",""94895""
""blur"",""7"",""172613""
""focus"",""7"",""179989""
","""event"",""trial"",""time""
""blur"",""7"",""172613""
","""event"",""trial"",""time""
""focus"",""7"",""179989""
","""event"",""trial"",""time""
""fullscreenenter"",""1"",""24906""
","""event"",""trial"",""time""
""fullscreenexit"",""2"",""94895""
","","","-1","","","17","6469","3387","&#9761;","elianto","#3366ff99","-1","-1","1","+10","[]","0","0","2","","","","","","","",""
"pit-trial","47","718327","0.0-2.0-11.1-2.1","battery-v0.2","","""event"",""trial"",""time""
""fullscreenenter"",""1"",""24906""
""fullscreenexit"",""2"",""94895""
""blur"",""7"",""172613""
""focus"",""7"",""179989""
","""event"",""trial"",""time""
""blur"",""7"",""172613""
","""event"",""trial"",""time""
""focus"",""7"",""179989""
","""event"",""trial"",""time""
""fullscreenenter"",""1"",""24906""
","""event"",""trial"",""time""
""fullscreenexit"",""2"",""94895""
","","","-1","","","17","6469","3387","&#9761;","elianto","#3366ff99","-1","-1","1","+10","[]","0","0","2","","","","","","","",""
"pit-trial","48","723180","0.0-2.0-11.1-3.1","battery-v0.2","","""event"",""trial"",""time""
""fullscreenenter"",""1"",""24906""
""fullscreenexit"",""2"",""94895""
""blur"",""7"",""172613""
""focus"",""7"",""179989""
","""event"",""trial"",""time""
""blur"",""7"",""172613""
","""event"",""trial"",""time""
""focus"",""7"",""179989""
","""event"",""trial"",""time""
""fullscreenenter"",""1"",""24906""
","""event"",""trial"",""time""
""fullscreenexit"",""2"",""94895""
","","","-1","","","17","6469","3387","&#9761;","elianto","#3366ff99","-1","-1","1","0","[]","0","0","2","","","","","","","",""
"pit-trial","49","728034","0.0-2.0-11.1-4.1","battery-v0.2","","""event"",""trial"",""time""
""fullscreenenter"",""1"",""24906""
""fullscreenexit"",""2"",""94895""
""blur"",""7"",""172613""
""focus"",""7"",""179989""
","""event"",""trial"",""time""
""blur"",""7"",""172613""
","""event"",""trial"",""time""
""focus"",""7"",""179989""
","""event"",""trial"",""time""
""fullscreenenter"",""1"",""24906""
","""event"",""trial"",""time""
""fullscreenexit"",""2"",""94895""
","","","-1","","","17","6469","3387","&#9761;","elianto","#3366ff99","-1","-1","1","+10","[]","0","0","2","","","","","","","",""
"pit-trial","50","732891","0.0-2.0-11.2-0.2","battery-v0.2","","""event"",""trial"",""time""
""fullscreenenter"",""1"",""24906""
""fullscreenexit"",""2"",""94895""
""blur"",""7"",""172613""
""focus"",""7"",""179989""
","""event"",""trial"",""time""
""blur"",""7"",""172613""
","""event"",""trial"",""time""
""focus"",""7"",""179989""
","""event"",""trial"",""time""
""fullscreenenter"",""1"",""24906""
","""event"",""trial"",""time""
""fullscreenexit"",""2"",""94895""
","","","-1","","","17","6469","3387","&#9761;","elianto","#3366ff99","-1","-1","1","+10","[]","0","0","2","","","","","","","",""
"pit-trial","51","737746","0.0-2.0-11.2-1.2","battery-v0.2","","""event"",""trial"",""time""
""fullscreenenter"",""1"",""24906""
""fullscreenexit"",""2"",""94895""
""blur"",""7"",""172613""
""focus"",""7"",""179989""
","""event"",""trial"",""time""
""blur"",""7"",""172613""
","""event"",""trial"",""time""
""focus"",""7"",""179989""
","""event"",""trial"",""time""
""fullscreenenter"",""1"",""24906""
","""event"",""trial"",""time""
""fullscreenexit"",""2"",""94895""
","","","-1","","","17","6469","3387","&#9761;","elianto","#3366ff99","-1","-1","1","+10","[]","0","0","2","","","","","","","",""
"pit-trial","52","742602","0.0-2.0-11.2-2.2","battery-v0.2","","""event"",""trial"",""time""
""fullscreenenter"",""1"",""24906""
""fullscreenexit"",""2"",""94895""
""blur"",""7"",""172613""
""focus"",""7"",""179989""
","""event"",""trial"",""time""
""blur"",""7"",""172613""
","""event"",""trial"",""time""
""focus"",""7"",""179989""
","""event"",""trial"",""time""
""fullscreenenter"",""1"",""24906""
","""event"",""trial"",""time""
""fullscreenexit"",""2"",""94895""
","","","-1","","","17","6469","3387","&#9761;","elianto","#3366ff99","-1","-1","1","+10","[]","0","0","2","","","","","","","",""
"pit-trial","53","747456","0.0-2.0-11.2-3.2","battery-v0.2","","""event"",""trial"",""time""
""fullscreenenter"",""1"",""24906""
""fullscreenexit"",""2"",""94895""
""blur"",""7"",""172613""
""focus"",""7"",""179989""
","""event"",""trial"",""time""
""blur"",""7"",""172613""
","""event"",""trial"",""time""
""focus"",""7"",""179989""
","""event"",""trial"",""time""
""fullscreenenter"",""1"",""24906""
","""event"",""trial"",""time""
""fullscreenexit"",""2"",""94895""
","","","-1","","","17","6469","3387","&#9761;","elianto","#3366ff99","-1","-1","1","0","[]","0","0","2","","","","","","","",""
"pit-trial","54","752311","0.0-2.0-11.2-4.2","battery-v0.2","","""event"",""trial"",""time""
""fullscreenenter"",""1"",""24906""
""fullscreenexit"",""2"",""94895""
""blur"",""7"",""172613""
""focus"",""7"",""179989""
","""event"",""trial"",""time""
""blur"",""7"",""172613""
","""event"",""trial"",""time""
""focus"",""7"",""179989""
","""event"",""trial"",""time""
""fullscreenenter"",""1"",""24906""
","""event"",""trial"",""time""
""fullscreenexit"",""2"",""94895""
","","","-1","","","17","6469","3387","&#9761;","elianto","#3366ff99","-1","-1","1","+10","[]","0","0","2","","","","","","","",""
"pit-trial","55","757166","0.0-2.0-11.3-0.3","battery-v0.2","","""event"",""trial"",""time""
""fullscreenenter"",""1"",""24906""
""fullscreenexit"",""2"",""94895""
""blur"",""7"",""172613""
""focus"",""7"",""179989""
","""event"",""trial"",""time""
""blur"",""7"",""172613""
","""event"",""trial"",""time""
""focus"",""7"",""179989""
","""event"",""trial"",""time""
""fullscreenenter"",""1"",""24906""
","""event"",""trial"",""time""
""fullscreenexit"",""2"",""94895""
","","","-1","","","17","6469","3387","&#9761;","elianto","#3366ff99","-1","-1","1","+10","[]","0","0","2","","","","","","","",""
"pit-trial","56","762021","0.0-2.0-11.3-1.3","battery-v0.2","","""event"",""trial"",""time""
""fullscreenenter"",""1"",""24906""
""fullscreenexit"",""2"",""94895""
""blur"",""7"",""172613""
""focus"",""7"",""179989""
","""event"",""trial"",""time""
""blur"",""7"",""172613""
","""event"",""trial"",""time""
""focus"",""7"",""179989""
","""event"",""trial"",""time""
""fullscreenenter"",""1"",""24906""
","""event"",""trial"",""time""
""fullscreenexit"",""2"",""94895""
","","","-1","","","17","6469","3387","&#9761;","elianto","#3366ff99","-1","-1","1","+10","[]","0","0","2","","","","","","","",""
"pit-trial","57","766875","0.0-2.0-11.3-2.3","battery-v0.2","","""event"",""trial"",""time""
""fullscreenenter"",""1"",""24906""
""fullscreenexit"",""2"",""94895""
""blur"",""7"",""172613""
""focus"",""7"",""179989""
","""event"",""trial"",""time""
""blur"",""7"",""172613""
","""event"",""trial"",""time""
""focus"",""7"",""179989""
","""event"",""trial"",""time""
""fullscreenenter"",""1"",""24906""
","""event"",""trial"",""time""
""fullscreenexit"",""2"",""94895""
","","","-1","","","17","6469","3387","&#9761;","elianto","#3366ff99","-1","-1","1","+10","[]","0","0","2","","","","","","","",""
"pit-trial","58","771729","0.0-2.0-11.3-3.3","battery-v0.2","","""event"",""trial"",""time""
""fullscreenenter"",""1"",""24906""
""fullscreenexit"",""2"",""94895""
""blur"",""7"",""172613""
""focus"",""7"",""179989""
","""event"",""trial"",""time""
""blur"",""7"",""172613""
","""event"",""trial"",""time""
""focus"",""7"",""179989""
","""event"",""trial"",""time""
""fullscreenenter"",""1"",""24906""
","""event"",""trial"",""time""
""fullscreenexit"",""2"",""94895""
","","","-1","","","17","6469","3387","&#9761;","elianto","#3366ff99","-1","-1","1","0","[]","0","0","2","","","","","","","",""
"pit-trial","59","776582","0.0-2.0-11.3-4.3","battery-v0.2","","""event"",""trial"",""time""
""fullscreenenter"",""1"",""24906""
""fullscreenexit"",""2"",""94895""
""blur"",""7"",""172613""
""focus"",""7"",""179989""
","""event"",""trial"",""time""
""blur"",""7"",""172613""
","""event"",""trial"",""time""
""focus"",""7"",""179989""
","""event"",""trial"",""time""
""fullscreenenter"",""1"",""24906""
","""event"",""trial"",""time""
""fullscreenexit"",""2"",""94895""
","","","-1","","","17","6469","3387","&#9761;","elianto","#3366ff99","-1","-1","1","+10","[]","0","0","2","","","","","","","",""
"call-function","60","776585","0.0-2.0-12.0","battery-v0.2","","""event"",""trial"",""time""
""fullscreenenter"",""1"",""24906""
""fullscreenexit"",""2"",""94895""
""blur"",""7"",""172613""
""focus"",""7"",""179989""
","""event"",""trial"",""time""
""blur"",""7"",""172613""
","""event"",""trial"",""time""
""focus"",""7"",""179989""
","""event"",""trial"",""time""
""fullscreenenter"",""1"",""24906""
","""event"",""trial"",""time""
""fullscreenexit"",""2"",""94895""
","","","","","","","","","","","","","","","","","","","","","","","","","","",""
"pit-instructions","61","809742","0.0-2.0-13.0","battery-v0.2","","""event"",""trial"",""time""
""fullscreenenter"",""1"",""24906""
""fullscreenexit"",""2"",""94895""
""blur"",""7"",""172613""
""focus"",""7"",""179989""
","""event"",""trial"",""time""
""blur"",""7"",""172613""
","""event"",""trial"",""time""
""focus"",""7"",""179989""
","""event"",""trial"",""time""
""fullscreenenter"",""1"",""24906""
","""event"",""trial"",""time""
""fullscreenexit"",""2"",""94895""
","","[{""page_index"":0,""viewing_time"":5339.399999976158},{""page_index"":1,""viewing_time"":7623.899999976158},{""page_index"":2,""viewing_time"":3955.5},{""page_index"":3,""viewing_time"":11439.900000095367},{""page_index"":4,""viewing_time"":4796.299999952316}]","33155.5","","","","","","","","","","","","","","","","","","","","","","","",""
"pit-trial","62","812854","0.0-2.0-14.0-0.0","battery-v0.2","","""event"",""trial"",""time""
""fullscreenenter"",""1"",""24906""
""fullscreenexit"",""2"",""94895""
""blur"",""7"",""172613""
""focus"",""7"",""179989""
","""event"",""trial"",""time""
""blur"",""7"",""172613""
","""event"",""trial"",""time""
""focus"",""7"",""179989""
","""event"",""trial"",""time""
""fullscreenenter"",""1"",""24906""
","""event"",""trial"",""time""
""fullscreenexit"",""2"",""94895""
","","","258.6999999284744","","","17","6469","3387","&#9826;","elianto","#f73b6a7A","-1"," ","0","-10","[1109.1999999284744]","1","0","3","","","","","","","",""
"pit-trial","63","817707","0.0-2.0-14.0-1.0","battery-v0.2","","""event"",""trial"",""time""
""fullscreenenter"",""1"",""24906""
""fullscreenexit"",""2"",""94895""
""blur"",""7"",""172613""
""focus"",""7"",""179989""
","""event"",""trial"",""time""
""blur"",""7"",""172613""
","""event"",""trial"",""time""
""focus"",""7"",""179989""
","""event"",""trial"",""time""
""fullscreenenter"",""1"",""24906""
","""event"",""trial"",""time""
""fullscreenexit"",""2"",""94895""
","","","-1","","","17","6469","3387","&#9826;","elianto","#f73b6a7A","-1","-1","1","0","[818.5]","1","0","3","","","","","","","",""
"pit-trial","64","822562","0.0-2.0-14.0-2.0","battery-v0.2","","""event"",""trial"",""time""
""fullscreenenter"",""1"",""24906""
""fullscreenexit"",""2"",""94895""
""blur"",""7"",""172613""
""focus"",""7"",""179989""
","""event"",""trial"",""time""
""blur"",""7"",""172613""
","""event"",""trial"",""time""
""focus"",""7"",""179989""
","""event"",""trial"",""time""
""fullscreenenter"",""1"",""24906""
","""event"",""trial"",""time""
""fullscreenexit"",""2"",""94895""
","","","-1","","","17","6469","3387","&#9826;","elianto","#f73b6a7A","-1","-1","1","0","[]","0","0","3","","","","","","","",""
"pit-trial","65","827415","0.0-2.0-14.0-3.0","battery-v0.2","","""event"",""trial"",""time""
""fullscreenenter"",""1"",""24906""
""fullscreenexit"",""2"",""94895""
""blur"",""7"",""172613""
""focus"",""7"",""179989""
","""event"",""trial"",""time""
""blur"",""7"",""172613""
","""event"",""trial"",""time""
""focus"",""7"",""179989""
","""event"",""trial"",""time""
""fullscreenenter"",""1"",""24906""
","""event"",""trial"",""time""
""fullscreenexit"",""2"",""94895""
","","","-1","","","17","6469","3387","&#9826;","elianto","#f73b6a7A","-1","-1","1","-10","[]","0","0","3","","","","","","","",""
"pit-trial","66","832269","0.0-2.0-14.0-4.0","battery-v0.2","","""event"",""trial"",""time""
""fullscreenenter"",""1"",""24906""
""fullscreenexit"",""2"",""94895""
""blur"",""7"",""172613""
""focus"",""7"",""179989""
","""event"",""trial"",""time""
""blur"",""7"",""172613""
","""event"",""trial"",""time""
""focus"",""7"",""179989""
","""event"",""trial"",""time""
""fullscreenenter"",""1"",""24906""
","""event"",""trial"",""time""
""fullscreenexit"",""2"",""94895""
","","","-1","","","17","6469","3387","&#9826;","elianto","#f73b6a7A","-1","-1","1","0","[]","0","0","3","","","","","","","",""
"pit-trial","67","835493","0.0-2.0-14.1-0.1","battery-v0.2","","""event"",""trial"",""time""
""fullscreenenter"",""1"",""24906""
""fullscreenexit"",""2"",""94895""
""blur"",""7"",""172613""
""focus"",""7"",""179989""
","""event"",""trial"",""time""
""blur"",""7"",""172613""
","""event"",""trial"",""time""
""focus"",""7"",""179989""
","""event"",""trial"",""time""
""fullscreenenter"",""1"",""24906""
","""event"",""trial"",""time""
""fullscreenexit"",""2"",""94895""
","","","366.5","","","17","6469","3387","&#9826;","elianto","#f73b6a7A","-1"," ","0","-10","[1217.2999999523163]","1","0","3","","","","","","","",""
"pit-trial","68","840348","0.0-2.0-14.1-1.1","battery-v0.2","","""event"",""trial"",""time""
""fullscreenenter"",""1"",""24906""
""fullscreenexit"",""2"",""94895""
""blur"",""7"",""172613""
""focus"",""7"",""179989""
","""event"",""trial"",""time""
""blur"",""7"",""172613""
","""event"",""trial"",""time""
""focus"",""7"",""179989""
","""event"",""trial"",""time""
""fullscreenenter"",""1"",""24906""
","""event"",""trial"",""time""
""fullscreenexit"",""2"",""94895""
","","","-1","","","17","6469","3387","&#9826;","elianto","#f73b6a7A","-1","-1","1","0","[]","0","0","3","","","","","","","",""
"pit-trial","69","845202","0.0-2.0-14.1-2.1","battery-v0.2","","""event"",""trial"",""time""
""fullscreenenter"",""1"",""24906""
""fullscreenexit"",""2"",""94895""
""blur"",""7"",""172613""
""focus"",""7"",""179989""
","""event"",""trial"",""time""
""blur"",""7"",""172613""
","""event"",""trial"",""time""
""focus"",""7"",""179989""
","""event"",""trial"",""time""
""fullscreenenter"",""1"",""24906""
","""event"",""trial"",""time""
""fullscreenexit"",""2"",""94895""
","","","-1","","","17","6469","3387","&#9826;","elianto","#f73b6a7A","-1","-1","1","0","[]","0","0","3","","","","","","","",""
"pit-trial","70","850056","0.0-2.0-14.1-3.1","battery-v0.2","","""event"",""trial"",""time""
""fullscreenenter"",""1"",""24906""
""fullscreenexit"",""2"",""94895""
""blur"",""7"",""172613""
""focus"",""7"",""179989""
","""event"",""trial"",""time""
""blur"",""7"",""172613""
","""event"",""trial"",""time""
""focus"",""7"",""179989""
","""event"",""trial"",""time""
""fullscreenenter"",""1"",""24906""
","""event"",""trial"",""time""
""fullscreenexit"",""2"",""94895""
","","","-1","","","17","6469","3387","&#9826;","elianto","#f73b6a7A","-1","-1","1","-10","[]","0","0","3","","","","","","","",""
"pit-trial","71","854910","0.0-2.0-14.1-4.1","battery-v0.2","","""event"",""trial"",""time""
""fullscreenenter"",""1"",""24906""
""fullscreenexit"",""2"",""94895""
""blur"",""7"",""172613""
""focus"",""7"",""179989""
","""event"",""trial"",""time""
""blur"",""7"",""172613""
","""event"",""trial"",""time""
""focus"",""7"",""179989""
","""event"",""trial"",""time""
""fullscreenenter"",""1"",""24906""
","""event"",""trial"",""time""
""fullscreenexit"",""2"",""94895""
","","","-1","","","17","6469","3387","&#9826;","elianto","#f73b6a7A","-1","-1","1","0","[]","0","0","3","","","","","","","",""
"pit-trial","72","859767","0.0-2.0-14.2-0.2","battery-v0.2","","""event"",""trial"",""time""
""fullscreenenter"",""1"",""24906""
""fullscreenexit"",""2"",""94895""
""blur"",""7"",""172613""
""focus"",""7"",""179989""
","""event"",""trial"",""time""
""blur"",""7"",""172613""
","""event"",""trial"",""time""
""focus"",""7"",""179989""
","""event"",""trial"",""time""
""fullscreenenter"",""1"",""24906""
","""event"",""trial"",""time""
""fullscreenexit"",""2"",""94895""
","","","-1","","","17","6469","3387","&#9826;","elianto","#f73b6a7A","-1","-1","1","0","[]","0","0","3","","","","","","","",""
"pit-trial","73","864622","0.0-2.0-14.2-1.2","battery-v0.2","","""event"",""trial"",""time""
""fullscreenenter"",""1"",""24906""
""fullscreenexit"",""2"",""94895""
""blur"",""7"",""172613""
""focus"",""7"",""179989""
","""event"",""trial"",""time""
""blur"",""7"",""172613""
","""event"",""trial"",""time""
""focus"",""7"",""179989""
","""event"",""trial"",""time""
""fullscreenenter"",""1"",""24906""
","""event"",""trial"",""time""
""fullscreenexit"",""2"",""94895""
","","","-1","","","17","6469","3387","&#9826;","elianto","#f73b6a7A","-1","-1","1","0","[]","0","0","3","","","","","","","",""
"pit-trial","74","869476","0.0-2.0-14.2-2.2","battery-v0.2","","""event"",""trial"",""time""
""fullscreenenter"",""1"",""24906""
""fullscreenexit"",""2"",""94895""
""blur"",""7"",""172613""
""focus"",""7"",""179989""
","""event"",""trial"",""time""
""blur"",""7"",""172613""
","""event"",""trial"",""time""
""focus"",""7"",""179989""
","""event"",""trial"",""time""
""fullscreenenter"",""1"",""24906""
","""event"",""trial"",""time""
""fullscreenexit"",""2"",""94895""
","","","-1","","","17","6469","3387","&#9826;","elianto","#f73b6a7A","-1","-1","1","0","[]","0","0","3","","","","","","","",""
"pit-trial","75","874331","0.0-2.0-14.2-3.2","battery-v0.2","","""event"",""trial"",""time""
""fullscreenenter"",""1"",""24906""
""fullscreenexit"",""2"",""94895""
""blur"",""7"",""172613""
""focus"",""7"",""179989""
","""event"",""trial"",""time""
""blur"",""7"",""172613""
","""event"",""trial"",""time""
""focus"",""7"",""179989""
","""event"",""trial"",""time""
""fullscreenenter"",""1"",""24906""
","""event"",""trial"",""time""
""fullscreenexit"",""2"",""94895""
","","","-1","","","17","6469","3387","&#9826;","elianto","#f73b6a7A","-1","-1","1","-10","[]","0","0","3","","","","","","","",""
"pit-trial","76","879187","0.0-2.0-14.2-4.2","battery-v0.2","","""event"",""trial"",""time""
""fullscreenenter"",""1"",""24906""
""fullscreenexit"",""2"",""94895""
""blur"",""7"",""172613""
""focus"",""7"",""179989""
","""event"",""trial"",""time""
""blur"",""7"",""172613""
","""event"",""trial"",""time""
""focus"",""7"",""179989""
","""event"",""trial"",""time""
""fullscreenenter"",""1"",""24906""
","""event"",""trial"",""time""
""fullscreenexit"",""2"",""94895""
","","","-1","","","17","6469","3387","&#9826;","elianto","#f73b6a7A","-1","-1","1","0","[]","0","0","3","","","","","","","",""
"pit-trial","77","884043","0.0-2.0-14.3-0.3","battery-v0.2","","""event"",""trial"",""time""
""fullscreenenter"",""1"",""24906""
""fullscreenexit"",""2"",""94895""
""blur"",""7"",""172613""
""focus"",""7"",""179989""
","""event"",""trial"",""time""
""blur"",""7"",""172613""
","""event"",""trial"",""time""
""focus"",""7"",""179989""
","""event"",""trial"",""time""
""fullscreenenter"",""1"",""24906""
","""event"",""trial"",""time""
""fullscreenexit"",""2"",""94895""
","","","-1","","","17","6469","3387","&#9826;","elianto","#f73b6a7A","-1","-1","1","0","[]","0","0","3","","","","","","","",""
"pit-trial","78","888899","0.0-2.0-14.3-1.3","battery-v0.2","","""event"",""trial"",""time""
""fullscreenenter"",""1"",""24906""
""fullscreenexit"",""2"",""94895""
""blur"",""7"",""172613""
""focus"",""7"",""179989""
","""event"",""trial"",""time""
""blur"",""7"",""172613""
","""event"",""trial"",""time""
""focus"",""7"",""179989""
","""event"",""trial"",""time""
""fullscreenenter"",""1"",""24906""
","""event"",""trial"",""time""
""fullscreenexit"",""2"",""94895""
","","","-1","","","17","6469","3387","&#9826;","elianto","#f73b6a7A","-1","-1","1","0","[]","0","0","3","","","","","","","",""
"pit-trial","79","893754","0.0-2.0-14.3-2.3","battery-v0.2","","""event"",""trial"",""time""
""fullscreenenter"",""1"",""24906""
""fullscreenexit"",""2"",""94895""
""blur"",""7"",""172613""
""focus"",""7"",""179989""
","""event"",""trial"",""time""
""blur"",""7"",""172613""
","""event"",""trial"",""time""
""focus"",""7"",""179989""
","""event"",""trial"",""time""
""fullscreenenter"",""1"",""24906""
","""event"",""trial"",""time""
""fullscreenexit"",""2"",""94895""
","","","-1","","","17","6469","3387","&#9826;","elianto","#f73b6a7A","-1","-1","1","0","[]","0","0","3","","","","","","","",""
"pit-trial","80","898608","0.0-2.0-14.3-3.3","battery-v0.2","","""event"",""trial"",""time""
""fullscreenenter"",""1"",""24906""
""fullscreenexit"",""2"",""94895""
""blur"",""7"",""172613""
""focus"",""7"",""179989""
","""event"",""trial"",""time""
""blur"",""7"",""172613""
","""event"",""trial"",""time""
""focus"",""7"",""179989""
","""event"",""trial"",""time""
""fullscreenenter"",""1"",""24906""
","""event"",""trial"",""time""
""fullscreenexit"",""2"",""94895""
","","","-1","","","17","6469","3387","&#9826;","elianto","#f73b6a7A","-1","-1","1","-10","[]","0","0","3","","","","","","","",""
"pit-trial","81","903462","0.0-2.0-14.3-4.3","battery-v0.2","","""event"",""trial"",""time""
""fullscreenenter"",""1"",""24906""
""fullscreenexit"",""2"",""94895""
""blur"",""7"",""172613""
""focus"",""7"",""179989""
","""event"",""trial"",""time""
""blur"",""7"",""172613""
","""event"",""trial"",""time""
""focus"",""7"",""179989""
","""event"",""trial"",""time""
""fullscreenenter"",""1"",""24906""
","""event"",""trial"",""time""
""fullscreenexit"",""2"",""94895""
","","","-1","","","17","6469","3387","&#9826;","elianto","#f73b6a7A","-1","-1","1","0","[]","0","0","3","","","","","","","",""
"call-function","82","903466","0.0-2.0-15.0","battery-v0.2","","""event"",""trial"",""time""
""fullscreenenter"",""1"",""24906""
""fullscreenexit"",""2"",""94895""
""blur"",""7"",""172613""
""focus"",""7"",""179989""
","""event"",""trial"",""time""
""blur"",""7"",""172613""
","""event"",""trial"",""time""
""focus"",""7"",""179989""
","""event"",""trial"",""time""
""fullscreenenter"",""1"",""24906""
","""event"",""trial"",""time""
""fullscreenexit"",""2"",""94895""
","","","","","","","","","","","","","","","","","","","","","","","","","","",""
"pit-instructions","83","931367","0.0-2.0-16.0","battery-v0.2","","""event"",""trial"",""time""
""fullscreenenter"",""1"",""24906""
""fullscreenexit"",""2"",""94895""
""blur"",""7"",""172613""
""focus"",""7"",""179989""
","""event"",""trial"",""time""
""blur"",""7"",""172613""
","""event"",""trial"",""time""
""focus"",""7"",""179989""
","""event"",""trial"",""time""
""fullscreenenter"",""1"",""24906""
","""event"",""trial"",""time""
""fullscreenexit"",""2"",""94895""
","","[{""page_index"":0,""viewing_time"":6843.600000023842},{""page_index"":1,""viewing_time"":11652.100000023842},{""page_index"":2,""viewing_time"":4367.199999928474},{""page_index"":3,""viewing_time"":5036.700000047684}]","27899.800000071526","","","","","","","","","","","","","","","","","","","","","","","",""
"pit-trial","84","934340","0.0-2.0-17.0-0.0","battery-v0.2","","""event"",""trial"",""time""
""fullscreenenter"",""1"",""24906""
""fullscreenexit"",""2"",""94895""
""blur"",""7"",""172613""
""focus"",""7"",""179989""
","""event"",""trial"",""time""
""blur"",""7"",""172613""
","""event"",""trial"",""time""
""focus"",""7"",""179989""
","""event"",""trial"",""time""
""fullscreenenter"",""1"",""24906""
","""event"",""trial"",""time""
""fullscreenexit"",""2"",""94895""
","","","120.70000004768372","","","17","6469","3387","&#9789;","elianto","#f73b6a7A"," "," ","1","0","[971.5]","1","0","4","","","","","","","",""
"pit-trial","85","939193","0.0-2.0-17.0-1.0","battery-v0.2","","""event"",""trial"",""time""
""fullscreenenter"",""1"",""24906""
""fullscreenexit"",""2"",""94895""
""blur"",""7"",""172613""
""focus"",""7"",""179989""
","""event"",""trial"",""time""
""blur"",""7"",""172613""
","""event"",""trial"",""time""
""focus"",""7"",""179989""
","""event"",""trial"",""time""
""fullscreenenter"",""1"",""24906""
","""event"",""trial"",""time""
""fullscreenexit"",""2"",""94895""
","","","-1","","","17","6469","3387","&#9789;","elianto","#f73b6a7A"," ","-1","0","-10","[]","0","0","4","","","","","","","",""
"pit-trial","86","944048","0.0-2.0-17.0-2.0","battery-v0.2","","""event"",""trial"",""time""
""fullscreenenter"",""1"",""24906""
""fullscreenexit"",""2"",""94895""
""blur"",""7"",""172613""
""focus"",""7"",""179989""
","""event"",""trial"",""time""
""blur"",""7"",""172613""
","""event"",""trial"",""time""
""focus"",""7"",""179989""
","""event"",""trial"",""time""
""fullscreenenter"",""1"",""24906""
","""event"",""trial"",""time""
""fullscreenexit"",""2"",""94895""
","","","-1","","","17","6469","3387","&#9789;","elianto","#f73b6a7A"," ","-1","0","-10","[]","0","0","4","","","","","","","",""
"pit-trial","87","948901","0.0-2.0-17.0-3.0","battery-v0.2","","""event"",""trial"",""time""
""fullscreenenter"",""1"",""24906""
""fullscreenexit"",""2"",""94895""
""blur"",""7"",""172613""
""focus"",""7"",""179989""
","""event"",""trial"",""time""
""blur"",""7"",""172613""
","""event"",""trial"",""time""
""focus"",""7"",""179989""
","""event"",""trial"",""time""
""fullscreenenter"",""1"",""24906""
","""event"",""trial"",""time""
""fullscreenexit"",""2"",""94895""
","","","-1","","","17","6469","3387","&#9789;","elianto","#f73b6a7A"," ","-1","0","0","[]","0","0","4","","","","","","","",""
"pit-trial","88","953755","0.0-2.0-17.0-4.0","battery-v0.2","","""event"",""trial"",""time""
""fullscreenenter"",""1"",""24906""
""fullscreenexit"",""2"",""94895""
""blur"",""7"",""172613""
""focus"",""7"",""179989""
","""event"",""trial"",""time""
""blur"",""7"",""172613""
","""event"",""trial"",""time""
""focus"",""7"",""179989""
","""event"",""trial"",""time""
""fullscreenenter"",""1"",""24906""
","""event"",""trial"",""time""
""fullscreenexit"",""2"",""94895""
","","","-1","","","17","6469","3387","&#9789;","elianto","#f73b6a7A"," ","-1","0","-10","[]","0","0","4","","","","","","","",""
"pit-trial","89","958610","0.0-2.0-17.1-0.1","battery-v0.2","","""event"",""trial"",""time""
""fullscreenenter"",""1"",""24906""
""fullscreenexit"",""2"",""94895""
""blur"",""7"",""172613""
""focus"",""7"",""179989""
","""event"",""trial"",""time""
""blur"",""7"",""172613""
","""event"",""trial"",""time""
""focus"",""7"",""179989""
","""event"",""trial"",""time""
""fullscreenenter"",""1"",""24906""
","""event"",""trial"",""time""
""fullscreenexit"",""2"",""94895""
","","","-1","","","17","6469","3387","&#9789;","elianto","#f73b6a7A"," ","-1","0","-10","[]","0","0","4","","","","","","","",""
"pit-trial","90","963464","0.0-2.0-17.1-1.1","battery-v0.2","","""event"",""trial"",""time""
""fullscreenenter"",""1"",""24906""
""fullscreenexit"",""2"",""94895""
""blur"",""7"",""172613""
""focus"",""7"",""179989""
","""event"",""trial"",""time""
""blur"",""7"",""172613""
","""event"",""trial"",""time""
""focus"",""7"",""179989""
","""event"",""trial"",""time""
""fullscreenenter"",""1"",""24906""
","""event"",""trial"",""time""
""fullscreenexit"",""2"",""94895""
","","","-1","","","17","6469","3387","&#9789;","elianto","#f73b6a7A"," ","-1","0","-10","[]","0","0","4","","","","","","","",""
"pit-trial","91","968319","0.0-2.0-17.1-2.1","battery-v0.2","","""event"",""trial"",""time""
""fullscreenenter"",""1"",""24906""
""fullscreenexit"",""2"",""94895""
""blur"",""7"",""172613""
""focus"",""7"",""179989""
","""event"",""trial"",""time""
""blur"",""7"",""172613""
","""event"",""trial"",""time""
""focus"",""7"",""179989""
","""event"",""trial"",""time""
""fullscreenenter"",""1"",""24906""
","""event"",""trial"",""time""
""fullscreenexit"",""2"",""94895""
","","","-1","","","17","6469","3387","&#9789;","elianto","#f73b6a7A"," ","-1","0","-10","[]","0","0","4","","","","","","","",""
"pit-trial","92","973175","0.0-2.0-17.1-3.1","battery-v0.2","","""event"",""trial"",""time""
""fullscreenenter"",""1"",""24906""
""fullscreenexit"",""2"",""94895""
""blur"",""7"",""172613""
""focus"",""7"",""179989""
","""event"",""trial"",""time""
""blur"",""7"",""172613""
","""event"",""trial"",""time""
""focus"",""7"",""179989""
","""event"",""trial"",""time""
""fullscreenenter"",""1"",""24906""
","""event"",""trial"",""time""
""fullscreenexit"",""2"",""94895""
","","","-1","","","17","6469","3387","&#9789;","elianto","#f73b6a7A"," ","-1","0","0","[]","0","0","4","","","","","","","",""
"pit-trial","93","978029","0.0-2.0-17.1-4.1","battery-v0.2","","""event"",""trial"",""time""
""fullscreenenter"",""1"",""24906""
""fullscreenexit"",""2"",""94895""
""blur"",""7"",""172613""
""focus"",""7"",""179989""
","""event"",""trial"",""time""
""blur"",""7"",""172613""
","""event"",""trial"",""time""
""focus"",""7"",""179989""
","""event"",""trial"",""time""
""fullscreenenter"",""1"",""24906""
","""event"",""trial"",""time""
""fullscreenexit"",""2"",""94895""
","","","-1","","","17","6469","3387","&#9789;","elianto","#f73b6a7A"," ","-1","0","-10","[]","0","0","4","","","","","","","",""
"pit-trial","94","982883","0.0-2.0-17.2-0.2","battery-v0.2","","""event"",""trial"",""time""
""fullscreenenter"",""1"",""24906""
""fullscreenexit"",""2"",""94895""
""blur"",""7"",""172613""
""focus"",""7"",""179989""
","""event"",""trial"",""time""
""blur"",""7"",""172613""
","""event"",""trial"",""time""
""focus"",""7"",""179989""
","""event"",""trial"",""time""
""fullscreenenter"",""1"",""24906""
","""event"",""trial"",""time""
""fullscreenexit"",""2"",""94895""
","","","-1","","","17","6469","3387","&#9789;","elianto","#f73b6a7A"," ","-1","0","-10","[]","0","0","4","","","","","","","",""
"pit-trial","95","987738","0.0-2.0-17.2-1.2","battery-v0.2","","""event"",""trial"",""time""
""fullscreenenter"",""1"",""24906""
""fullscreenexit"",""2"",""94895""
""blur"",""7"",""172613""
""focus"",""7"",""179989""
","""event"",""trial"",""time""
""blur"",""7"",""172613""
","""event"",""trial"",""time""
""focus"",""7"",""179989""
","""event"",""trial"",""time""
""fullscreenenter"",""1"",""24906""
","""event"",""trial"",""time""
""fullscreenexit"",""2"",""94895""
","","","-1","","","17","6469","3387","&#9789;","elianto","#f73b6a7A"," ","-1","0","-10","[]","0","0","4","","","","","","","",""
"pit-trial","96","992593","0.0-2.0-17.2-2.2","battery-v0.2","","""event"",""trial"",""time""
""fullscreenenter"",""1"",""24906""
""fullscreenexit"",""2"",""94895""
""blur"",""7"",""172613""
""focus"",""7"",""179989""
","""event"",""trial"",""time""
""blur"",""7"",""172613""
","""event"",""trial"",""time""
""focus"",""7"",""179989""
","""event"",""trial"",""time""
""fullscreenenter"",""1"",""24906""
","""event"",""trial"",""time""
""fullscreenexit"",""2"",""94895""
","","","-1","","","17","6469","3387","&#9789;","elianto","#f73b6a7A"," ","-1","0","-10","[]","0","0","4","","","","","","","",""
"pit-trial","97","997448","0.0-2.0-17.2-3.2","battery-v0.2","","""event"",""trial"",""time""
""fullscreenenter"",""1"",""24906""
""fullscreenexit"",""2"",""94895""
""blur"",""7"",""172613""
""focus"",""7"",""179989""
","""event"",""trial"",""time""
""blur"",""7"",""172613""
","""event"",""trial"",""time""
""focus"",""7"",""179989""
","""event"",""trial"",""time""
""fullscreenenter"",""1"",""24906""
","""event"",""trial"",""time""
""fullscreenexit"",""2"",""94895""
","","","-1","","","17","6469","3387","&#9789;","elianto","#f73b6a7A"," ","-1","0","0","[]","0","0","4","","","","","","","",""
"pit-trial","98","1002302","0.0-2.0-17.2-4.2","battery-v0.2","","""event"",""trial"",""time""
""fullscreenenter"",""1"",""24906""
""fullscreenexit"",""2"",""94895""
""blur"",""7"",""172613""
""focus"",""7"",""179989""
","""event"",""trial"",""time""
""blur"",""7"",""172613""
","""event"",""trial"",""time""
""focus"",""7"",""179989""
","""event"",""trial"",""time""
""fullscreenenter"",""1"",""24906""
","""event"",""trial"",""time""
""fullscreenexit"",""2"",""94895""
","","","-1","","","17","6469","3387","&#9789;","elianto","#f73b6a7A"," ","-1","0","-10","[]","0","0","4","","","","","","","",""
"pit-trial","99","1007159","0.0-2.0-17.3-0.3","battery-v0.2","","""event"",""trial"",""time""
""fullscreenenter"",""1"",""24906""
""fullscreenexit"",""2"",""94895""
""blur"",""7"",""172613""
""focus"",""7"",""179989""
","""event"",""trial"",""time""
""blur"",""7"",""172613""
","""event"",""trial"",""time""
""focus"",""7"",""179989""
","""event"",""trial"",""time""
""fullscreenenter"",""1"",""24906""
","""event"",""trial"",""time""
""fullscreenexit"",""2"",""94895""
","","","-1","","","17","6469","3387","&#9789;","elianto","#f73b6a7A"," ","-1","0","-10","[]","0","0","4","","","","","","","",""
"pit-trial","100","1012015","0.0-2.0-17.3-1.3","battery-v0.2","","""event"",""trial"",""time""
""fullscreenenter"",""1"",""24906""
""fullscreenexit"",""2"",""94895""
""blur"",""7"",""172613""
""focus"",""7"",""179989""
","""event"",""trial"",""time""
""blur"",""7"",""172613""
","""event"",""trial"",""time""
""focus"",""7"",""179989""
","""event"",""trial"",""time""
""fullscreenenter"",""1"",""24906""
","""event"",""trial"",""time""
""fullscreenexit"",""2"",""94895""
","","","-1","","","17","6469","3387","&#9789;","elianto","#f73b6a7A"," ","-1","0","-10","[]","0","0","4","","","","","","","",""
"pit-trial","101","1016869","0.0-2.0-17.3-2.3","battery-v0.2","","""event"",""trial"",""time""
""fullscreenenter"",""1"",""24906""
""fullscreenexit"",""2"",""94895""
""blur"",""7"",""172613""
""focus"",""7"",""179989""
","""event"",""trial"",""time""
""blur"",""7"",""172613""
","""event"",""trial"",""time""
""focus"",""7"",""179989""
","""event"",""trial"",""time""
""fullscreenenter"",""1"",""24906""
","""event"",""trial"",""time""
""fullscreenexit"",""2"",""94895""
","","","-1","","","17","6469","3387","&#9789;","elianto","#f73b6a7A"," ","-1","0","-10","[]","0","0","4","","","","","","","",""
"pit-trial","102","1021723","0.0-2.0-17.3-3.3","battery-v0.2","","""event"",""trial"",""time""
""fullscreenenter"",""1"",""24906""
""fullscreenexit"",""2"",""94895""
""blur"",""7"",""172613""
""focus"",""7"",""179989""
","""event"",""trial"",""time""
""blur"",""7"",""172613""
","""event"",""trial"",""time""
""focus"",""7"",""179989""
","""event"",""trial"",""time""
""fullscreenenter"",""1"",""24906""
","""event"",""trial"",""time""
""fullscreenexit"",""2"",""94895""
","","","-1","","","17","6469","3387","&#9789;","elianto","#f73b6a7A"," ","-1","0","0","[]","0","0","4","","","","","","","",""
"pit-trial","103","1026578","0.0-2.0-17.3-4.3","battery-v0.2","","""event"",""trial"",""time""
""fullscreenenter"",""1"",""24906""
""fullscreenexit"",""2"",""94895""
""blur"",""7"",""172613""
""focus"",""7"",""179989""
","""event"",""trial"",""time""
""blur"",""7"",""172613""
","""event"",""trial"",""time""
""focus"",""7"",""179989""
","""event"",""trial"",""time""
""fullscreenenter"",""1"",""24906""
","""event"",""trial"",""time""
""fullscreenexit"",""2"",""94895""
","","","-1","","","17","6469","3387","&#9789;","elianto","#f73b6a7A"," ","-1","0","-10","[]","0","0","4","","","","","","","",""
"call-function","104","1026579","0.0-2.0-18.0","battery-v0.2","","""event"",""trial"",""time""
""fullscreenenter"",""1"",""24906""
""fullscreenexit"",""2"",""94895""
""blur"",""7"",""172613""
""focus"",""7"",""179989""
""blur"",""105"",""1089727""
""focus"",""105"",""1090406""
""blur"",""105"",""1093998""
""focus"",""105"",""1101900""
","""event"",""trial"",""time""
""blur"",""7"",""172613""
""blur"",""105"",""1089727""
""blur"",""105"",""1093998""
","""event"",""trial"",""time""
""focus"",""7"",""179989""
""focus"",""105"",""1090406""
""focus"",""105"",""1101900""
","""event"",""trial"",""time""
""fullscreenenter"",""1"",""24906""
","""event"",""trial"",""time""
""fullscreenexit"",""2"",""94895""
","","","","","","","","","","","","","","","","","","","","","","","","","","",""
"pit-instructions","105","1132307","0.0-2.0-19.0","battery-v0.2","","""event"",""trial"",""time""
""fullscreenenter"",""1"",""24906""
""fullscreenexit"",""2"",""94895""
""blur"",""7"",""172613""
""focus"",""7"",""179989""
""blur"",""105"",""1089727""
""focus"",""105"",""1090406""
""blur"",""105"",""1093998""
""focus"",""105"",""1101900""
","""event"",""trial"",""time""
""blur"",""7"",""172613""
""blur"",""105"",""1089727""
""blur"",""105"",""1093998""
","""event"",""trial"",""time""
""focus"",""7"",""179989""
""focus"",""105"",""1090406""
""focus"",""105"",""1101900""
","""event"",""trial"",""time""
""fullscreenenter"",""1"",""24906""
","""event"",""trial"",""time""
""fullscreenexit"",""2"",""94895""
","","[{""page_index"":0,""viewing_time"":9199.5},{""page_index"":1,""viewing_time"":5995},{""page_index"":2,""viewing_time"":16296.299999952316},{""page_index"":3,""viewing_time"":11900.200000047684},{""page_index"":4,""viewing_time"":9892.600000023842},{""page_index"":5,""viewing_time"":11867.699999928474},{""page_index"":6,""viewing_time"":15275.800000071526},{""page_index"":7,""viewing_time"":18627.799999952316},{""page_index"":8,""viewing_time"":6672}]","105727.20000004768","","","","","","","","","","","","","","","","","","","","","","","",""
"pit-comprehension","106","1137396","0.0-2.0-20.0-0.0","battery-v0.2","","""event"",""trial"",""time""
""fullscreenenter"",""1"",""24906""
""fullscreenexit"",""2"",""94895""
""blur"",""7"",""172613""
""focus"",""7"",""179989""
""blur"",""105"",""1089727""
""focus"",""105"",""1090406""
""blur"",""105"",""1093998""
""focus"",""105"",""1101900""
","""event"",""trial"",""time""
""blur"",""7"",""172613""
""blur"",""105"",""1089727""
""blur"",""105"",""1093998""
","""event"",""trial"",""time""
""focus"",""7"",""179989""
""focus"",""105"",""1090406""
""focus"",""105"",""1101900""
","""event"",""trial"",""time""
""fullscreenenter"",""1"",""24906""
","""event"",""trial"",""time""
""fullscreenexit"",""2"",""94895""
","","","5086.100000023842","[""SPACE""]","0","17","6469","3387","","","","","","","","","","","","","","","","","","",""
"pit-instructions","107","1140343","0.0-2.0-20.0-1.0","battery-v0.2","","""event"",""trial"",""time""
""fullscreenenter"",""1"",""24906""
""fullscreenexit"",""2"",""94895""
""blur"",""7"",""172613""
""focus"",""7"",""179989""
""blur"",""105"",""1089727""
""focus"",""105"",""1090406""
""blur"",""105"",""1093998""
""focus"",""105"",""1101900""
","""event"",""trial"",""time""
""blur"",""7"",""172613""
""blur"",""105"",""1089727""
""blur"",""105"",""1093998""
","""event"",""trial"",""time""
""focus"",""7"",""179989""
""focus"",""105"",""1090406""
""focus"",""105"",""1101900""
","""event"",""trial"",""time""
""fullscreenenter"",""1"",""24906""
","""event"",""trial"",""time""
""fullscreenexit"",""2"",""94895""
","","[{""page_index"":0,""viewing_time"":2864}]","2864.399999976158","","","","","","","","","","","","","","","","","","","","","","","",""
"pit-comprehension","108","1146272","0.0-2.0-21.0-0.0","battery-v0.2","","""event"",""trial"",""time""
""fullscreenenter"",""1"",""24906""
""fullscreenexit"",""2"",""94895""
""blur"",""7"",""172613""
""focus"",""7"",""179989""
""blur"",""105"",""1089727""
""focus"",""105"",""1090406""
""blur"",""105"",""1093998""
""focus"",""105"",""1101900""
","""event"",""trial"",""time""
""blur"",""7"",""172613""
""blur"",""105"",""1089727""
""blur"",""105"",""1093998""
","""event"",""trial"",""time""
""focus"",""7"",""179989""
""focus"",""105"",""1090406""
""focus"",""105"",""1101900""
","""event"",""trial"",""time""
""fullscreenenter"",""1"",""24906""
","""event"",""trial"",""time""
""fullscreenexit"",""2"",""94895""
","","","5925.5","[""10""]","0","17","6469","3387","","","","","","","","","","","","","","","","","","",""
"pit-instructions","109","1148166","0.0-2.0-21.0-1.0","battery-v0.2","","""event"",""trial"",""time""
""fullscreenenter"",""1"",""24906""
""fullscreenexit"",""2"",""94895""
""blur"",""7"",""172613""
""focus"",""7"",""179989""
""blur"",""105"",""1089727""
""focus"",""105"",""1090406""
""blur"",""105"",""1093998""
""focus"",""105"",""1101900""
","""event"",""trial"",""time""
""blur"",""7"",""172613""
""blur"",""105"",""1089727""
""blur"",""105"",""1093998""
","""event"",""trial"",""time""
""focus"",""7"",""179989""
""focus"",""105"",""1090406""
""focus"",""105"",""1101900""
","""event"",""trial"",""time""
""fullscreenenter"",""1"",""24906""
","""event"",""trial"",""time""
""fullscreenexit"",""2"",""94895""
","","[{""page_index"":0,""viewing_time"":1847.3999999761581}]","1847.7000000476837","","","","","","","","","","","","","","","","","","","","","","","",""
"pit-comprehension","110","1156123","0.0-2.0-22.0-0.0","battery-v0.2","","""event"",""trial"",""time""
""fullscreenenter"",""1"",""24906""
""fullscreenexit"",""2"",""94895""
""blur"",""7"",""172613""
""focus"",""7"",""179989""
""blur"",""105"",""1089727""
""focus"",""105"",""1090406""
""blur"",""105"",""1093998""
""focus"",""105"",""1101900""
","""event"",""trial"",""time""
""blur"",""7"",""172613""
""blur"",""105"",""1089727""
""blur"",""105"",""1093998""
","""event"",""trial"",""time""
""focus"",""7"",""179989""
""focus"",""105"",""1090406""
""focus"",""105"",""1101900""
","""event"",""trial"",""time""
""fullscreenenter"",""1"",""24906""
","""event"",""trial"",""time""
""fullscreenexit"",""2"",""94895""
","","","7953.099999904633","[""0""]","0","17","6469","3387","","","","","","","","","","","","","","","","","","",""
"pit-instructions","111","1159591","0.0-2.0-22.0-1.0","battery-v0.2","","""event"",""trial"",""time""
""fullscreenenter"",""1"",""24906""
""fullscreenexit"",""2"",""94895""
""blur"",""7"",""172613""
""focus"",""7"",""179989""
""blur"",""105"",""1089727""
""focus"",""105"",""1090406""
""blur"",""105"",""1093998""
""focus"",""105"",""1101900""
","""event"",""trial"",""time""
""blur"",""7"",""172613""
""blur"",""105"",""1089727""
""blur"",""105"",""1093998""
","""event"",""trial"",""time""
""focus"",""7"",""179989""
""focus"",""105"",""1090406""
""focus"",""105"",""1101900""
","""event"",""trial"",""time""
""fullscreenenter"",""1"",""24906""
","""event"",""trial"",""time""
""fullscreenexit"",""2"",""94895""
","","[{""page_index"":0,""viewing_time"":3416}]","3416.5","","","","","","","","","","","","","","","","","","","","","","","",""
"pit-comprehension","112","1170694","0.0-2.0-23.0-0.0","battery-v0.2","","""event"",""trial"",""time""
""fullscreenenter"",""1"",""24906""
""fullscreenexit"",""2"",""94895""
""blur"",""7"",""172613""
""focus"",""7"",""179989""
""blur"",""105"",""1089727""
""focus"",""105"",""1090406""
""blur"",""105"",""1093998""
""focus"",""105"",""1101900""
","""event"",""trial"",""time""
""blur"",""7"",""172613""
""blur"",""105"",""1089727""
""blur"",""105"",""1093998""
","""event"",""trial"",""time""
""focus"",""7"",""179989""
""focus"",""105"",""1090406""
""focus"",""105"",""1101900""
","""event"",""trial"",""time""
""fullscreenenter"",""1"",""24906""
","""event"",""trial"",""time""
""fullscreenexit"",""2"",""94895""
","","","11099.600000023842","[""False""]","1","17","6469","3387","","","","","","","","","","","","","","","","","","",""
"pit-instructions","113","1177522","0.0-2.0-23.0-1.0","battery-v0.2","","""event"",""trial"",""time""
""fullscreenenter"",""1"",""24906""
""fullscreenexit"",""2"",""94895""
""blur"",""7"",""172613""
""focus"",""7"",""179989""
""blur"",""105"",""1089727""
""focus"",""105"",""1090406""
""blur"",""105"",""1093998""
""focus"",""105"",""1101900""
","""event"",""trial"",""time""
""blur"",""7"",""172613""
""blur"",""105"",""1089727""
""blur"",""105"",""1093998""
","""event"",""trial"",""time""
""focus"",""7"",""179989""
""focus"",""105"",""1090406""
""focus"",""105"",""1101900""
","""event"",""trial"",""time""
""fullscreenenter"",""1"",""24906""
","""event"",""trial"",""time""
""fullscreenexit"",""2"",""94895""
","","[{""page_index"":0,""viewing_time"":6780.199999928474}]","6780.399999976158","","","","","","","","","","","","","","","","","","","","","","","",""
"pit-instructions","114","1178855","0.0-2.0-23.0-2.0-0.0","battery-v0.2","","""event"",""trial"",""time""
""fullscreenenter"",""1"",""24906""
""fullscreenexit"",""2"",""94895""
""blur"",""7"",""172613""
""focus"",""7"",""179989""
""blur"",""105"",""1089727""
""focus"",""105"",""1090406""
""blur"",""105"",""1093998""
""focus"",""105"",""1101900""
","""event"",""trial"",""time""
""blur"",""7"",""172613""
""blur"",""105"",""1089727""
""blur"",""105"",""1093998""
","""event"",""trial"",""time""
""focus"",""7"",""179989""
""focus"",""105"",""1090406""
""focus"",""105"",""1101900""
","""event"",""trial"",""time""
""fullscreenenter"",""1"",""24906""
","""event"",""trial"",""time""
""fullscreenexit"",""2"",""94895""
","","[{""page_index"":0,""viewing_time"":1330.3000000715256}]","1330.7000000476837","","","","","","","","","","","","","","","","","","","","","","","",""
"pit-comprehension","115","1191082","0.0-2.0-23.1-0.1","battery-v0.2","","""event"",""trial"",""time""
""fullscreenenter"",""1"",""24906""
""fullscreenexit"",""2"",""94895""
""blur"",""7"",""172613""
""focus"",""7"",""179989""
""blur"",""105"",""1089727""
""focus"",""105"",""1090406""
""blur"",""105"",""1093998""
""focus"",""105"",""1101900""
","""event"",""trial"",""time""
""blur"",""7"",""172613""
""blur"",""105"",""1089727""
""blur"",""105"",""1093998""
","""event"",""trial"",""time""
""focus"",""7"",""179989""
""focus"",""105"",""1090406""
""focus"",""105"",""1101900""
","""event"",""trial"",""time""
""fullscreenenter"",""1"",""24906""
","""event"",""trial"",""time""
""fullscreenexit"",""2"",""94895""
","","","12223.200000047684","[""True""]","0","17","6469","3387","","","","","","","","","","","","","","","","","","",""
"pit-instructions","116","1197147","0.0-2.0-23.1-1.1","battery-v0.2","","""event"",""trial"",""time""
""fullscreenenter"",""1"",""24906""
""fullscreenexit"",""2"",""94895""
""blur"",""7"",""172613""
""focus"",""7"",""179989""
""blur"",""105"",""1089727""
""focus"",""105"",""1090406""
""blur"",""105"",""1093998""
""focus"",""105"",""1101900""
","""event"",""trial"",""time""
""blur"",""7"",""172613""
""blur"",""105"",""1089727""
""blur"",""105"",""1093998""
","""event"",""trial"",""time""
""focus"",""7"",""179989""
""focus"",""105"",""1090406""
""focus"",""105"",""1101900""
","""event"",""trial"",""time""
""fullscreenenter"",""1"",""24906""
","""event"",""trial"",""time""
""fullscreenexit"",""2"",""94895""
","","[{""page_index"":0,""viewing_time"":6008.899999976158}]","6009.299999952316","","","","","","","","","","","","","","","","","","","","","","","",""
"pit-comprehension","117","1207263","0.0-2.0-24.0-0.0","battery-v0.2","","""event"",""trial"",""time""
""fullscreenenter"",""1"",""24906""
""fullscreenexit"",""2"",""94895""
""blur"",""7"",""172613""
""focus"",""7"",""179989""
""blur"",""105"",""1089727""
""focus"",""105"",""1090406""
""blur"",""105"",""1093998""
""focus"",""105"",""1101900""
","""event"",""trial"",""time""
""blur"",""7"",""172613""
""blur"",""105"",""1089727""
""blur"",""105"",""1093998""
","""event"",""trial"",""time""
""focus"",""7"",""179989""
""focus"",""105"",""1090406""
""focus"",""105"",""1101900""
","""event"",""trial"",""time""
""fullscreenenter"",""1"",""24906""
","""event"",""trial"",""time""
""fullscreenexit"",""2"",""94895""
","","","10111.799999952316","[""True""]","0","17","6469","3387","","","","","","","","","","","","","","","","","","",""
"pit-instructions","118","1209644","0.0-2.0-24.0-1.0","battery-v0.2","","""event"",""trial"",""time""
""fullscreenenter"",""1"",""24906""
""fullscreenexit"",""2"",""94895""
""blur"",""7"",""172613""
""focus"",""7"",""179989""
""blur"",""105"",""1089727""
""focus"",""105"",""1090406""
""blur"",""105"",""1093998""
""focus"",""105"",""1101900""
","""event"",""trial"",""time""
""blur"",""7"",""172613""
""blur"",""105"",""1089727""
""blur"",""105"",""1093998""
","""event"",""trial"",""time""
""focus"",""7"",""179989""
""focus"",""105"",""1090406""
""focus"",""105"",""1101900""
","""event"",""trial"",""time""
""fullscreenenter"",""1"",""24906""
","""event"",""trial"",""time""
""fullscreenexit"",""2"",""94895""
","","[{""page_index"":0,""viewing_time"":2313.1999999284744}]","2313.6999999284744","","","","","","","","","","","","","","","","","","","","","","","",""
"pit-comprehension","119","1220727","0.0-2.0-25.0-0.0","battery-v0.2","","""event"",""trial"",""time""
""fullscreenenter"",""1"",""24906""
""fullscreenexit"",""2"",""94895""
""blur"",""7"",""172613""
""focus"",""7"",""179989""
""blur"",""105"",""1089727""
""focus"",""105"",""1090406""
""blur"",""105"",""1093998""
""focus"",""105"",""1101900""
","""event"",""trial"",""time""
""blur"",""7"",""172613""
""blur"",""105"",""1089727""
""blur"",""105"",""1093998""
","""event"",""trial"",""time""
""focus"",""7"",""179989""
""focus"",""105"",""1090406""
""focus"",""105"",""1101900""
","""event"",""trial"",""time""
""fullscreenenter"",""1"",""24906""
","""event"",""trial"",""time""
""fullscreenexit"",""2"",""94895""
","","","11079.600000023842","[""True""]","0","17","6469","3387","","","","","","","","","","","","","","","","","","",""
"pit-instructions","120","1223935","0.0-2.0-25.0-1.0","battery-v0.2","","""event"",""trial"",""time""
""fullscreenenter"",""1"",""24906""
""fullscreenexit"",""2"",""94895""
""blur"",""7"",""172613""
""focus"",""7"",""179989""
""blur"",""105"",""1089727""
""focus"",""105"",""1090406""
""blur"",""105"",""1093998""
""focus"",""105"",""1101900""
","""event"",""trial"",""time""
""blur"",""7"",""172613""
""blur"",""105"",""1089727""
""blur"",""105"",""1093998""
","""event"",""trial"",""time""
""focus"",""7"",""179989""
""focus"",""105"",""1090406""
""focus"",""105"",""1101900""
","""event"",""trial"",""time""
""fullscreenenter"",""1"",""24906""
","""event"",""trial"",""time""
""fullscreenexit"",""2"",""94895""
","","[{""page_index"":0,""viewing_time"":3147.7000000476837}]","3148.100000023842","","","","","","","","","","","","","","","","","","","","","","","",""
"pit-comprehension","121","1229355","0.0-2.0-26.0-0.0","battery-v0.2","","""event"",""trial"",""time""
""fullscreenenter"",""1"",""24906""
""fullscreenexit"",""2"",""94895""
""blur"",""7"",""172613""
""focus"",""7"",""179989""
""blur"",""105"",""1089727""
""focus"",""105"",""1090406""
""blur"",""105"",""1093998""
""focus"",""105"",""1101900""
","""event"",""trial"",""time""
""blur"",""7"",""172613""
""blur"",""105"",""1089727""
""blur"",""105"",""1093998""
","""event"",""trial"",""time""
""focus"",""7"",""179989""
""focus"",""105"",""1090406""
""focus"",""105"",""1101900""
","""event"",""trial"",""time""
""fullscreenenter"",""1"",""24906""
","""event"",""trial"",""time""
""fullscreenexit"",""2"",""94895""
","","","5415.700000047684","[""True""]","1","17","6469","3387","","","","","","","","","","","","","","","","","","",""
"pit-instructions","122","1236020","0.0-2.0-26.0-1.0","battery-v0.2","","""event"",""trial"",""time""
""fullscreenenter"",""1"",""24906""
""fullscreenexit"",""2"",""94895""
""blur"",""7"",""172613""
""focus"",""7"",""179989""
""blur"",""105"",""1089727""
""focus"",""105"",""1090406""
""blur"",""105"",""1093998""
""focus"",""105"",""1101900""
","""event"",""trial"",""time""
""blur"",""7"",""172613""
""blur"",""105"",""1089727""
""blur"",""105"",""1093998""
","""event"",""trial"",""time""
""focus"",""7"",""179989""
""focus"",""105"",""1090406""
""focus"",""105"",""1101900""
","""event"",""trial"",""time""
""fullscreenenter"",""1"",""24906""
","""event"",""trial"",""time""
""fullscreenexit"",""2"",""94895""
","","[{""page_index"":0,""viewing_time"":6596}]","6596.699999928474","","","","","","","","","","","","","","","","","","","","","","","",""
"pit-instructions","123","1237475","0.0-2.0-26.0-2.0-0.0","battery-v0.2","","""event"",""trial"",""time""
""fullscreenenter"",""1"",""24906""
""fullscreenexit"",""2"",""94895""
""blur"",""7"",""172613""
""focus"",""7"",""179989""
""blur"",""105"",""1089727""
""focus"",""105"",""1090406""
""blur"",""105"",""1093998""
""focus"",""105"",""1101900""
","""event"",""trial"",""time""
""blur"",""7"",""172613""
""blur"",""105"",""1089727""
""blur"",""105"",""1093998""
","""event"",""trial"",""time""
""focus"",""7"",""179989""
""focus"",""105"",""1090406""
""focus"",""105"",""1101900""
","""event"",""trial"",""time""
""fullscreenenter"",""1"",""24906""
","""event"",""trial"",""time""
""fullscreenexit"",""2"",""94895""
","","[{""page_index"":0,""viewing_time"":1452.7000000476837}]","1453","","","","","","","","","","","","","","","","","","","","","","","",""
"pit-comprehension","124","1242084","0.0-2.0-26.1-0.1","battery-v0.2","","""event"",""trial"",""time""
""fullscreenenter"",""1"",""24906""
""fullscreenexit"",""2"",""94895""
""blur"",""7"",""172613""
""focus"",""7"",""179989""
""blur"",""105"",""1089727""
""focus"",""105"",""1090406""
""blur"",""105"",""1093998""
""focus"",""105"",""1101900""
","""event"",""trial"",""time""
""blur"",""7"",""172613""
""blur"",""105"",""1089727""
""blur"",""105"",""1093998""
","""event"",""trial"",""time""
""focus"",""7"",""179989""
""focus"",""105"",""1090406""
""focus"",""105"",""1101900""
","""event"",""trial"",""time""
""fullscreenenter"",""1"",""24906""
","""event"",""trial"",""time""
""fullscreenexit"",""2"",""94895""
","","","4605","[""False""]","0","17","6469","3387","","","","","","","","","","","","","","","","","","",""
"pit-instructions","125","1244192","0.0-2.0-26.1-1.1","battery-v0.2","","""event"",""trial"",""time""
""fullscreenenter"",""1"",""24906""
""fullscreenexit"",""2"",""94895""
""blur"",""7"",""172613""
""focus"",""7"",""179989""
""blur"",""105"",""1089727""
""focus"",""105"",""1090406""
""blur"",""105"",""1093998""
""focus"",""105"",""1101900""
","""event"",""trial"",""time""
""blur"",""7"",""172613""
""blur"",""105"",""1089727""
""blur"",""105"",""1093998""
","""event"",""trial"",""time""
""focus"",""7"",""179989""
""focus"",""105"",""1090406""
""focus"",""105"",""1101900""
","""event"",""trial"",""time""
""fullscreenenter"",""1"",""24906""
","""event"",""trial"",""time""
""fullscreenexit"",""2"",""94895""
","","[{""page_index"":0,""viewing_time"":2044.2999999523163}]","2044.7999999523163","","","","","","","","","","","","","","","","","","","","","","","",""
"pit-instructions","126","1266963","0.0-3.0","battery-v0.2","","""event"",""trial"",""time""
""fullscreenenter"",""1"",""24906""
""fullscreenexit"",""2"",""94895""
""blur"",""7"",""172613""
""focus"",""7"",""179989""
""blur"",""105"",""1089727""
""focus"",""105"",""1090406""
""blur"",""105"",""1093998""
""focus"",""105"",""1101900""
","""event"",""trial"",""time""
""blur"",""7"",""172613""
""blur"",""105"",""1089727""
""blur"",""105"",""1093998""
","""event"",""trial"",""time""
""focus"",""7"",""179989""
""focus"",""105"",""1090406""
""focus"",""105"",""1101900""
","""event"",""trial"",""time""
""fullscreenenter"",""1"",""24906""
","""event"",""trial"",""time""
""fullscreenexit"",""2"",""94895""
","","[{""page_index"":0,""viewing_time"":8012.700000047684},{""page_index"":1,""viewing_time"":7387.199999928474},{""page_index"":2,""viewing_time"":7368.600000023842}]","22768.799999952316","","","","","","","","","","","","","","","","","","","","","","","",""
"pit-trial","127","1270480","0.0-4.0","battery-v0.2","","""event"",""trial"",""time""
""fullscreenenter"",""1"",""24906""
""fullscreenexit"",""2"",""94895""
""blur"",""7"",""172613""
""focus"",""7"",""179989""
""blur"",""105"",""1089727""
""focus"",""105"",""1090406""
""blur"",""105"",""1093998""
""focus"",""105"",""1101900""
","""event"",""trial"",""time""
""blur"",""7"",""172613""
""blur"",""105"",""1089727""
""blur"",""105"",""1093998""
","""event"",""trial"",""time""
""focus"",""7"",""179989""
""focus"",""105"",""1090406""
""focus"",""105"",""1101900""
","""event"",""trial"",""time""
""fullscreenenter"",""1"",""24906""
","""event"",""trial"",""time""
""fullscreenexit"",""2"",""94895""
","","","657.5","","","17","6469","3387","&#9733;","elianto","#3366ff99","-1"," ","0","+10","[1509.8999999761581]","1","1","","","6469","1","2","2","win","no-go","1"
"pit-trial","128","1273456","0.0-5.0","battery-v0.2","","""event"",""trial"",""time""
""fullscreenenter"",""1"",""24906""
""fullscreenexit"",""2"",""94895""
""blur"",""7"",""172613""
""focus"",""7"",""179989""
""blur"",""105"",""1089727""
""focus"",""105"",""1090406""
""blur"",""105"",""1093998""
""focus"",""105"",""1101900""
","""event"",""trial"",""time""
""blur"",""7"",""172613""
""blur"",""105"",""1089727""
""blur"",""105"",""1093998""
","""event"",""trial"",""time""
""focus"",""7"",""179989""
""focus"",""105"",""1090406""
""focus"",""105"",""1101900""
","""event"",""trial"",""time""
""fullscreenenter"",""1"",""24906""
","""event"",""trial"",""time""
""fullscreenexit"",""2"",""94895""
","","","123.29999995231628","","","17","6469","3387","&#9728;","elianto","#f73b6a7A","-1"," ","0","-10","[973.5999999046326]","1","1","","","6469","2","0","4","lose","no-go","0"
"pit-trial","129","1278310","0.0-6.0","battery-v0.2","","""event"",""trial"",""time""
""fullscreenenter"",""1"",""24906""
""fullscreenexit"",""2"",""94895""
""blur"",""7"",""172613""
""focus"",""7"",""179989""
""blur"",""105"",""1089727""
""focus"",""105"",""1090406""
""blur"",""105"",""1093998""
""focus"",""105"",""1101900""
","""event"",""trial"",""time""
""blur"",""7"",""172613""
""blur"",""105"",""1089727""
""blur"",""105"",""1093998""
","""event"",""trial"",""time""
""focus"",""7"",""179989""
""focus"",""105"",""1090406""
""focus"",""105"",""1101900""
","""event"",""trial"",""time""
""fullscreenenter"",""1"",""24906""
","""event"",""trial"",""time""
""fullscreenexit"",""2"",""94895""
","","","-1","","","17","6469","3387","&#9730;","elianto","#3366ff99"," ","-1","0","+10","[791.2999999523163]","1","1","","","6469","3","1","1","win","go","1"
"pit-trial","130","1281201","0.0-7.0","battery-v0.2","","""event"",""trial"",""time""
""fullscreenenter"",""1"",""24906""
""fullscreenexit"",""2"",""94895""
""blur"",""7"",""172613""
""focus"",""7"",""179989""
""blur"",""105"",""1089727""
""focus"",""105"",""1090406""
""blur"",""105"",""1093998""
""focus"",""105"",""1101900""
","""event"",""trial"",""time""
""blur"",""7"",""172613""
""blur"",""105"",""1089727""
""blur"",""105"",""1093998""
","""event"",""trial"",""time""
""focus"",""7"",""179989""
""focus"",""105"",""1090406""
""focus"",""105"",""1101900""
","""event"",""trial"",""time""
""fullscreenenter"",""1"",""24906""
","""event"",""trial"",""time""
""fullscreenexit"",""2"",""94895""
","","","38.199999928474426","","","17","6469","3387","&#9752;","elianto","#f73b6a7A"," "," ","1","0","[888.6000000238419]","1","1","","","6469","4","3","3","lose","go","0"
"pit-trial","131","1284087","0.0-8.0","battery-v0.2","","""event"",""trial"",""time""
""fullscreenenter"",""1"",""24906""
""fullscreenexit"",""2"",""94895""
""blur"",""7"",""172613""
""focus"",""7"",""179989""
""blur"",""105"",""1089727""
""focus"",""105"",""1090406""
""blur"",""105"",""1093998""
""focus"",""105"",""1101900""
","""event"",""trial"",""time""
""blur"",""7"",""172613""
""blur"",""105"",""1089727""
""blur"",""105"",""1093998""
","""event"",""trial"",""time""
""focus"",""7"",""179989""
""focus"",""105"",""1090406""
""focus"",""105"",""1101900""
","""event"",""trial"",""time""
""fullscreenenter"",""1"",""24906""
","""event"",""trial"",""time""
""fullscreenexit"",""2"",""94895""
","","","33.10000002384186","","","17","6469","3387","&#9752;","elianto","#f73b6a7A"," "," ","1","0","[883.6000000238419]","1","1","","","6469","5","3","3","lose","go","0"
"pit-trial","132","1287043","0.0-9.0","battery-v0.2","","""event"",""trial"",""time""
""fullscreenenter"",""1"",""24906""
""fullscreenexit"",""2"",""94895""
""blur"",""7"",""172613""
""focus"",""7"",""179989""
""blur"",""105"",""1089727""
""focus"",""105"",""1090406""
""blur"",""105"",""1093998""
""focus"",""105"",""1101900""
","""event"",""trial"",""time""
""blur"",""7"",""172613""
""blur"",""105"",""1089727""
""blur"",""105"",""1093998""
","""event"",""trial"",""time""
""focus"",""7"",""179989""
""focus"",""105"",""1090406""
""focus"",""105"",""1101900""
","""event"",""trial"",""time""
""fullscreenenter"",""1"",""24906""
","""event"",""trial"",""time""
""fullscreenexit"",""2"",""94895""
","","","103.5","","","17","6469","3387","&#9733;","elianto","#3366ff99","-1"," ","0","0","[953.7999999523163]","1","1","","","6469","6","2","2","win","no-go","0"
"pit-trial","133","1289908","0.0-10.0","battery-v0.2","","""event"",""trial"",""time""
""fullscreenenter"",""1"",""24906""
""fullscreenexit"",""2"",""94895""
""blur"",""7"",""172613""
""focus"",""7"",""179989""
""blur"",""105"",""1089727""
""focus"",""105"",""1090406""
""blur"",""105"",""1093998""
""focus"",""105"",""1101900""
","""event"",""trial"",""time""
""blur"",""7"",""172613""
""blur"",""105"",""1089727""
""blur"",""105"",""1093998""
","""event"",""trial"",""time""
""focus"",""7"",""179989""
""focus"",""105"",""1090406""
""focus"",""105"",""1101900""
","""event"",""trial"",""time""
""fullscreenenter"",""1"",""24906""
","""event"",""trial"",""time""
""fullscreenexit"",""2"",""94895""
","","","12.399999976158142","","","17","6469","3387","&#9728;","elianto","#f73b6a7A","-1"," ","0","0","[862.7000000476837]","1","1","","","6469","7","0","4","lose","no-go","1"
"pit-trial","134","1294763","0.0-11.0","battery-v0.2","","""event"",""trial"",""time""
""fullscreenenter"",""1"",""24906""
""fullscreenexit"",""2"",""94895""
""blur"",""7"",""172613""
""focus"",""7"",""179989""
""blur"",""105"",""1089727""
""focus"",""105"",""1090406""
""blur"",""105"",""1093998""
""focus"",""105"",""1101900""
","""event"",""trial"",""time""
""blur"",""7"",""172613""
""blur"",""105"",""1089727""
""blur"",""105"",""1093998""
","""event"",""trial"",""time""
""focus"",""7"",""179989""
""focus"",""105"",""1090406""
""focus"",""105"",""1101900""
","""event"",""trial"",""time""
""fullscreenenter"",""1"",""24906""
","""event"",""trial"",""time""
""fullscreenexit"",""2"",""94895""
","","","-1","","","17","6469","3387","&#9730;","elianto","#3366ff99"," ","-1","0","0","[]","0","1","","","6469","8","1","1","win","go","0"
"pit-trial","135","1299615","0.0-12.0","battery-v0.2","","""event"",""trial"",""time""
""fullscreenenter"",""1"",""24906""
""fullscreenexit"",""2"",""94895""
""blur"",""7"",""172613""
""focus"",""7"",""179989""
""blur"",""105"",""1089727""
""focus"",""105"",""1090406""
""blur"",""105"",""1093998""
""focus"",""105"",""1101900""
","""event"",""trial"",""time""
""blur"",""7"",""172613""
""blur"",""105"",""1089727""
""blur"",""105"",""1093998""
","""event"",""trial"",""time""
""focus"",""7"",""179989""
""focus"",""105"",""1090406""
""focus"",""105"",""1101900""
","""event"",""trial"",""time""
""fullscreenenter"",""1"",""24906""
","""event"",""trial"",""time""
""fullscreenexit"",""2"",""94895""
","","","-1","","","17","6469","3387","&#9728;","elianto","#f73b6a7A","-1","-1","1","0","[836.8000000715256]","1","1","","","6469","9","0","4","lose","no-go","0"
"pit-trial","136","1302577","0.0-13.0","battery-v0.2","","""event"",""trial"",""time""
""fullscreenenter"",""1"",""24906""
""fullscreenexit"",""2"",""94895""
""blur"",""7"",""172613""
""focus"",""7"",""179989""
""blur"",""105"",""1089727""
""focus"",""105"",""1090406""
""blur"",""105"",""1093998""
""focus"",""105"",""1101900""
","""event"",""trial"",""time""
""blur"",""7"",""172613""
""blur"",""105"",""1089727""
""blur"",""105"",""1093998""
","""event"",""trial"",""time""
""focus"",""7"",""179989""
""focus"",""105"",""1090406""
""focus"",""105"",""1101900""
","""event"",""trial"",""time""
""fullscreenenter"",""1"",""24906""
","""event"",""trial"",""time""
""fullscreenexit"",""2"",""94895""
","","","106.89999997615814","","","17","6469","3387","&#9752;","elianto","#f73b6a7A"," "," ","1","0","[957.2999999523163,2673.100000023842]","2","1","","","6469","10","3","3","lose","go","0"
"pit-trial","137","1305467","0.0-14.0","battery-v0.2","","""event"",""trial"",""time""
""fullscreenenter"",""1"",""24906""
""fullscreenexit"",""2"",""94895""
""blur"",""7"",""172613""
""focus"",""7"",""179989""
""blur"",""105"",""1089727""
""focus"",""105"",""1090406""
""blur"",""105"",""1093998""
""focus"",""105"",""1101900""
","""event"",""trial"",""time""
""blur"",""7"",""172613""
""blur"",""105"",""1089727""
""blur"",""105"",""1093998""
","""event"",""trial"",""time""
""focus"",""7"",""179989""
""focus"",""105"",""1090406""
""focus"",""105"",""1101900""
","""event"",""trial"",""time""
""fullscreenenter"",""1"",""24906""
","""event"",""trial"",""time""
""fullscreenexit"",""2"",""94895""
","","","34.200000047683716","","","17","6469","3387","&#9733;","elianto","#3366ff99","-1"," ","0","0","[885.7000000476837]","1","1","","","6469","11","2","2","win","no-go","0"
"pit-trial","138","1308406","0.0-15.0","battery-v0.2","","""event"",""trial"",""time""
""fullscreenenter"",""1"",""24906""
""fullscreenexit"",""2"",""94895""
""blur"",""7"",""172613""
""focus"",""7"",""179989""
""blur"",""105"",""1089727""
""focus"",""105"",""1090406""
""blur"",""105"",""1093998""
""focus"",""105"",""1101900""
","""event"",""trial"",""time""
""blur"",""7"",""172613""
""blur"",""105"",""1089727""
""blur"",""105"",""1093998""
","""event"",""trial"",""time""
""focus"",""7"",""179989""
""focus"",""105"",""1090406""
""focus"",""105"",""1101900""
","""event"",""trial"",""time""
""fullscreenenter"",""1"",""24906""
","""event"",""trial"",""time""
""fullscreenexit"",""2"",""94895""
","","","84.39999997615814","","","17","6469","3387","&#9730;","elianto","#3366ff99"," "," ","1","+10","[934.6999999284744]","1","1","","","6469","12","1","1","win","go","0"
"pit-trial","139","1311394","0.0-16.0","battery-v0.2","","""event"",""trial"",""time""
""fullscreenenter"",""1"",""24906""
""fullscreenexit"",""2"",""94895""
""blur"",""7"",""172613""
""focus"",""7"",""179989""
""blur"",""105"",""1089727""
""focus"",""105"",""1090406""
""blur"",""105"",""1093998""
""focus"",""105"",""1101900""
","""event"",""trial"",""time""
""blur"",""7"",""172613""
""blur"",""105"",""1089727""
""blur"",""105"",""1093998""
","""event"",""trial"",""time""
""focus"",""7"",""179989""
""focus"",""105"",""1090406""
""focus"",""105"",""1101900""
","""event"",""trial"",""time""
""fullscreenenter"",""1"",""24906""
","""event"",""trial"",""time""
""fullscreenexit"",""2"",""94895""
","","","133.79999995231628","","","17","6469","3387","&#9728;","elianto","#f73b6a7A","-1"," ","0","0","[984.6000000238419]","1","1","","","6469","13","0","4","lose","no-go","1"
"pit-trial","140","1316247","0.0-17.0","battery-v0.2","","""event"",""trial"",""time""
""fullscreenenter"",""1"",""24906""
""fullscreenexit"",""2"",""94895""
""blur"",""7"",""172613""
""focus"",""7"",""179989""
""blur"",""105"",""1089727""
""focus"",""105"",""1090406""
""blur"",""105"",""1093998""
""focus"",""105"",""1101900""
","""event"",""trial"",""time""
""blur"",""7"",""172613""
""blur"",""105"",""1089727""
""blur"",""105"",""1093998""
","""event"",""trial"",""time""
""focus"",""7"",""179989""
""focus"",""105"",""1090406""
""focus"",""105"",""1101900""
","""event"",""trial"",""time""
""fullscreenenter"",""1"",""24906""
","""event"",""trial"",""time""
""fullscreenexit"",""2"",""94895""
","","","-1","","","17","6469","3387","&#9752;","elianto","#f73b6a7A"," ","-1","0","-10","[823.8999999761581]","1","1","","","6469","14","3","3","lose","go","0"
"pit-trial","141","1321102","0.0-18.0","battery-v0.2","","""event"",""trial"",""time""
""fullscreenenter"",""1"",""24906""
""fullscreenexit"",""2"",""94895""
""blur"",""7"",""172613""
""focus"",""7"",""179989""
""blur"",""105"",""1089727""
""focus"",""105"",""1090406""
""blur"",""105"",""1093998""
""focus"",""105"",""1101900""
","""event"",""trial"",""time""
""blur"",""7"",""172613""
""blur"",""105"",""1089727""
""blur"",""105"",""1093998""
","""event"",""trial"",""time""
""focus"",""7"",""179989""
""focus"",""105"",""1090406""
""focus"",""105"",""1101900""
","""event"",""trial"",""time""
""fullscreenenter"",""1"",""24906""
","""event"",""trial"",""time""
""fullscreenexit"",""2"",""94895""
","","","-1","","","17","6469","3387","&#9730;","elianto","#3366ff99"," ","-1","0","0","[]","0","1","","","6469","15","1","1","win","go","0"
"pit-trial","142","1325956","0.0-19.0","battery-v0.2","","""event"",""trial"",""time""
""fullscreenenter"",""1"",""24906""
