"trial_type","trial_index","time_elapsed","internal_node_id","task_version","subject_id","interactions","blur_events","focus_events","fullscreenenter_events","fullscreenexit_events","success","view_history","rt","responses","num_errors","age","subject","participantId","rune","rune_set","hex","correct","choice","accuracy","outcome","keys","total_keys","block","practice","value","sub","trial","stimulus","robot","valence","action","sham"
"pavlovia","0","14","0.0-0.0","battery-v0.2","","""event"",""trial"",""time""
""fullscreenenter"",""1"",""2232""
","
","
","""event"",""trial"",""time""
""fullscreenenter"",""1"",""2232""
","
","","","","","","","","","","","","","","","","","","","","","","","","","","",""
"fullscreen","1","3206","0.0-1.0","battery-v0.2","","""event"",""trial"",""time""
""fullscreenenter"",""1"",""2232""
","
","
","""event"",""trial"",""time""
""fullscreenenter"",""1"",""2232""
","
","true","","","","","","","","","","","","","","","","","","","","","","","","","",""
"pit-instructions","2","11275","0.0-2.0-0.0","battery-v0.2","","""event"",""trial"",""time""
""fullscreenenter"",""1"",""2232""
","
","
","""event"",""trial"",""time""
""fullscreenenter"",""1"",""2232""
","
","","[{""page_index"":0,""viewing_time"":8065.599999904633}]","8066","","","","","","","","","","","","","","","","","","","","","","","",""
"pit-comprehension","3","14203","0.0-2.0-1.0-0.0","battery-v0.2","","""event"",""trial"",""time""
""fullscreenenter"",""1"",""2232""
","
","
","""event"",""trial"",""time""
""fullscreenenter"",""1"",""2232""
","
","","","2924.399999976158","[""shark""]","0","18","10099","4754","","","","","","","","","","","","","","","","","","",""
"pit-instructions","4","15932","0.0-2.0-1.0-1.0","battery-v0.2","","""event"",""trial"",""time""
""fullscreenenter"",""1"",""2232""
","
","
","""event"",""trial"",""time""
""fullscreenenter"",""1"",""2232""
","
","","[{""page_index"":0,""viewing_time"":1710.7000000476837}]","1711","","","","","","","","","","","","","","","","","","","","","","","",""
"pit-comprehension","5","19854","0.0-2.0-2.0-0.0","battery-v0.2","","""event"",""trial"",""time""
""fullscreenenter"",""1"",""2232""
","
","
","""event"",""trial"",""time""
""fullscreenenter"",""1"",""2232""
","
","","","3917.3000000715256","[""tiger""]","0","18","10099","4754","","","","","","","","","","","","","","","","","","",""
"pit-instructions","6","21203","0.0-2.0-2.0-1.0","battery-v0.2","","""event"",""trial"",""time""
""fullscreenenter"",""1"",""2232""
","
","
","""event"",""trial"",""time""
""fullscreenenter"",""1"",""2232""
","
","","[{""page_index"":0,""viewing_time"":1345.4000000953674}]","1346.1000000238419","","","","","","","","","","","","","","","","","","","","","","","",""
"pit-instructions","7","153543","0.0-2.0-3.0","battery-v0.2","","""event"",""trial"",""time""
""fullscreenenter"",""1"",""2232""
","
","
","""event"",""trial"",""time""
""fullscreenenter"",""1"",""2232""
","
","","[{""page_index"":0,""viewing_time"":9846.800000071526},{""page_index"":1,""viewing_time"":8860},{""page_index"":2,""viewing_time"":12180.799999952316},{""page_index"":3,""viewing_time"":8743.899999976158},{""page_index"":4,""viewing_time"":9955.300000071526},{""page_index"":5,""viewing_time"":8162.699999928474},{""page_index"":6,""viewing_time"":8707.600000023842},{""page_index"":7,""viewing_time"":8429.899999976158},{""page_index"":8,""viewing_time"":6712.300000071526},{""page_index"":9,""viewing_time"":9137.699999928474},{""page_index"":10,""viewing_time"":9539.900000095367},{""page_index"":11,""viewing_time"":7909.899999976158},{""page_index"":12,""viewing_time"":12941.299999952316},{""page_index"":13,""viewing_time"":11209.100000023842}]","132337.70000004768","","","","","","","","","","","","","","","","","","","","","","","",""
"pit-trial","8","157198","0.0-2.0-4.0-0.0","battery-v0.2","","""event"",""trial"",""time""
""fullscreenenter"",""1"",""2232""
","
","
","""event"",""trial"",""time""
""fullscreenenter"",""1"",""2232""
","
","","","782.8999999761581","","","18","10099","4754","&#9784;","elianto","#FFFFF080"," "," ","1","&#10004","[1640.1999999284744]","1","0","0","","","","","","","",""
"pit-trial","9","160982","0.0-2.0-4.1-0.1","battery-v0.2","","""event"",""trial"",""time""
""fullscreenenter"",""1"",""2232""
","
","
","""event"",""trial"",""time""
""fullscreenenter"",""1"",""2232""
","
","","","914.7000000476837","","","18","10099","4754","&#9784;","elianto","#FFFFF080"," "," ","1","&#10004","[1766.7999999523163]","1","0","0","","","","","","","",""
"pit-trial","10","164748","0.0-2.0-4.2-0.2","battery-v0.2","","""event"",""trial"",""time""
""fullscreenenter"",""1"",""2232""
","
","
","""event"",""trial"",""time""
""fullscreenenter"",""1"",""2232""
","
","","","893.8999999761581","","","18","10099","4754","&#9784;","elianto","#FFFFF080"," "," ","1","&#10004","[1749]","1","0","0","","","","","","","",""
"pit-trial","11","168614","0.0-2.0-4.3-0.3","battery-v0.2","","""event"",""trial"",""time""
""fullscreenenter"",""1"",""2232""
","
","
","""event"",""trial"",""time""
""fullscreenenter"",""1"",""2232""
","
","","","992.2000000476837","","","18","10099","4754","&#9784;","elianto","#FFFFF080"," "," ","1","&#10004","[1843.5]","1","0","0","","","","","","","",""
"pit-trial","12","172289","0.0-2.0-4.4-0.4","battery-v0.2","","""event"",""trial"",""time""
""fullscreenenter"",""1"",""2232""
","
","
","""event"",""trial"",""time""
""fullscreenenter"",""1"",""2232""
","
","","","805.3000000715256","","","18","10099","4754","&#9784;","elianto","#FFFFF080"," "," ","1","&#10004","[1655.5]","1","0","0","","","","","","","",""
"pit-instructions","13","198543","0.0-2.0-5.0","battery-v0.2","","""event"",""trial"",""time""
""fullscreenenter"",""1"",""2232""
","
","
","""event"",""trial"",""time""
""fullscreenenter"",""1"",""2232""
","
","","[{""page_index"":0,""viewing_time"":6728.5},{""page_index"":1,""viewing_time"":7340.799999952316},{""page_index"":2,""viewing_time"":5986},{""page_index"":3,""viewing_time"":6193.5}]","26249","","","","","","","","","","","","","","","","","","","","","","","",""
"pit-trial","14","203407","0.0-2.0-6.0-0.0","battery-v0.2","","""event"",""trial"",""time""
""fullscreenenter"",""1"",""2232""
","
","
","""event"",""trial"",""time""
""fullscreenenter"",""1"",""2232""
","
","","","-1","","","18","10099","4754","&#9854;","elianto","#FFFFF080","-1","-1","1","&#10004","[]","0","0","1","","","","","","","",""
"pit-trial","15","208262","0.0-2.0-6.1-0.1","battery-v0.2","","""event"",""trial"",""time""
""fullscreenenter"",""1"",""2232""
","
","
","""event"",""trial"",""time""
""fullscreenenter"",""1"",""2232""
","
","","","-1","","","18","10099","4754","&#9854;","elianto","#FFFFF080","-1","-1","1","&#10004","[]","0","0","1","","","","","","","",""
"pit-trial","16","213131","0.0-2.0-6.2-0.2","battery-v0.2","","""event"",""trial"",""time""
""fullscreenenter"",""1"",""2232""
","
","
","""event"",""trial"",""time""
""fullscreenenter"",""1"",""2232""
","
","","","-1","","","18","10099","4754","&#9854;","elianto","#FFFFF080","-1","-1","1","&#10004","[]","0","0","1","","","","","","","",""
"pit-trial","17","218007","0.0-2.0-6.3-0.3","battery-v0.2","","""event"",""trial"",""time""
""fullscreenenter"",""1"",""2232""
","
","
","""event"",""trial"",""time""
""fullscreenenter"",""1"",""2232""
","
","","","-1","","","18","10099","4754","&#9854;","elianto","#FFFFF080","-1","-1","1","&#10004","[]","0","0","1","","","","","","","",""
"pit-trial","18","222873","0.0-2.0-6.4-0.4","battery-v0.2","","""event"",""trial"",""time""
""fullscreenenter"",""1"",""2232""
","
","
","""event"",""trial"",""time""
""fullscreenenter"",""1"",""2232""
","
","","","-1","","","18","10099","4754","&#9854;","elianto","#FFFFF080","-1","-1","1","&#10004","[]","0","0","1","","","","","","","",""
"pit-instructions","19","361047","0.0-2.0-7.0","battery-v0.2","","""event"",""trial"",""time""
""fullscreenenter"",""1"",""2232""
","
","
","""event"",""trial"",""time""
""fullscreenenter"",""1"",""2232""
","
","","[{""page_index"":0,""viewing_time"":6173.5},{""page_index"":1,""viewing_time"":7150.600000023842},{""page_index"":2,""viewing_time"":7400.899999976158},{""page_index"":3,""viewing_time"":7837.5},{""page_index"":4,""viewing_time"":9045.799999952316},{""page_index"":5,""viewing_time"":6443.900000095367},{""page_index"":6,""viewing_time"":5672.699999928474},{""page_index"":7,""viewing_time"":12002.800000071526},{""page_index"":8,""viewing_time"":8537.5},{""page_index"":9,""viewing_time"":7178.699999928474},{""page_index"":10,""viewing_time"":6570.899999976158},{""page_index"":11,""viewing_time"":4689.5},{""page_index"":12,""viewing_time"":7728.800000071526},{""page_index"":13,""viewing_time"":8677.5},{""page_index"":14,""viewing_time"":9605},{""page_index"":15,""viewing_time"":8071.299999952316},{""page_index"":16,""viewing_time"":7540.300000071526},{""page_index"":17,""viewing_time"":7839.899999976158}]","138167.79999995232","","","","","","","","","","","","","","","","","","","","","","","",""
"pit-trial","20","364398","0.0-2.0-8.0-0.0","battery-v0.2","","""event"",""trial"",""time""
""fullscreenenter"",""1"",""2232""
","
","
","""event"",""trial"",""time""
""fullscreenenter"",""1"",""2232""
","
","","","479.39999997615814","","","18","10099","4754","&#9776;","elianto","#3366ff99"," "," ","1","+10","[1333.8999999761581]","1","0","1","","","","","","","",""
"pit-trial","21","367648","0.0-2.0-8.0-1.0","battery-v0.2","","""event"",""trial"",""time""
""fullscreenenter"",""1"",""2232""
","
","
","""event"",""trial"",""time""
""fullscreenenter"",""1"",""2232""
","
","","","380.59999990463257","","","18","10099","4754","&#9776;","elianto","#3366ff99"," "," ","1","+10","[1235.5]","1","0","1","","","","","","","",""
"pit-trial","22","370962","0.0-2.0-8.0-2.0","battery-v0.2","","""event"",""trial"",""time""
""fullscreenenter"",""1"",""2232""
","
","
","""event"",""trial"",""time""
""fullscreenenter"",""1"",""2232""
","
","","","440.59999990463257","","","18","10099","4754","&#9776;","elianto","#3366ff99"," "," ","1","+10","[1296.2000000476837]","1","0","1","","","","","","","",""
"pit-trial","23","374291","0.0-2.0-8.0-3.0","battery-v0.2","","""event"",""trial"",""time""
""fullscreenenter"",""1"",""2232""
","
","
","""event"",""trial"",""time""
""fullscreenenter"",""1"",""2232""
","
","","","460.60000002384186","","","18","10099","4754","&#9776;","elianto","#3366ff99"," "," ","1","0","[1312]","1","0","1","","","","","","","",""
"pit-trial","24","377738","0.0-2.0-8.0-4.0","battery-v0.2","","""event"",""trial"",""time""
""fullscreenenter"",""1"",""2232""
","
","
","""event"",""trial"",""time""
""fullscreenenter"",""1"",""2232""
","
","","","580.8999999761581","","","18","10099","4754","&#9776;","elianto","#3366ff99"," "," ","1","+10","[1436.3999999761581]","1","0","1","","","","","","","",""
"pit-trial","25","381081","0.0-2.0-8.1-0.1","battery-v0.2","","""event"",""trial"",""time""
""fullscreenenter"",""1"",""2232""
","
","
","""event"",""trial"",""time""
""fullscreenenter"",""1"",""2232""
","
","","","471.39999997615814","","","18","10099","4754","&#9776;","elianto","#3366ff99"," "," ","1","+10","[1324.6000000238419]","1","0","1","","","","","","","",""
"pit-trial","26","384499","0.0-2.0-8.1-1.1","battery-v0.2","","""event"",""trial"",""time""
""fullscreenenter"",""1"",""2232""
","
","
","""event"",""trial"",""time""
""fullscreenenter"",""1"",""2232""
","
","","","548","","","18","10099","4754","&#9776;","elianto","#3366ff99"," "," ","1","+10","[1401.6000000238419]","1","0","1","","","","","","","",""
"pit-trial","27","387817","0.0-2.0-8.1-2.1","battery-v0.2","","""event"",""trial"",""time""
""fullscreenenter"",""1"",""2232""
","
","
","""event"",""trial"",""time""
""fullscreenenter"",""1"",""2232""
","
","","","452.39999997615814","","","18","10099","4754","&#9776;","elianto","#3366ff99"," "," ","1","+10","[1306.2000000476837]","1","0","1","","","","","","","",""
"pit-trial","28","391130","0.0-2.0-8.1-3.1","battery-v0.2","","""event"",""trial"",""time""
""fullscreenenter"",""1"",""2232""
","
","
","""event"",""trial"",""time""
""fullscreenenter"",""1"",""2232""
","
","","","457.5","","","18","10099","4754","&#9776;","elianto","#3366ff99"," "," ","1","0","[1309.1999999284744]","1","0","1","","","","","","","",""
"pit-trial","29","394613","0.0-2.0-8.1-4.1","battery-v0.2","","""event"",""trial"",""time""
""fullscreenenter"",""1"",""2232""
","
","
","""event"",""trial"",""time""
""fullscreenenter"",""1"",""2232""
","
","","","622.8000000715256","","","18","10099","4754","&#9776;","elianto","#3366ff99"," "," ","1","+10","[1477.6000000238419]","1","0","1","","","","","","","",""
"pit-trial","30","398152","0.0-2.0-8.2-0.2","battery-v0.2","","""event"",""trial"",""time""
""fullscreenenter"",""1"",""2232""
","
","
","""event"",""trial"",""time""
""fullscreenenter"",""1"",""2232""
","
","","","678.1999999284744","","","18","10099","4754","&#9776;","elianto","#3366ff99"," "," ","1","+10","[1532.0999999046326]","1","0","1","","","","","","","",""
"pit-trial","31","401689","0.0-2.0-8.2-1.2","battery-v0.2","","""event"",""trial"",""time""
""fullscreenenter"",""1"",""2232""
","
","
","""event"",""trial"",""time""
""fullscreenenter"",""1"",""2232""
","
","","","681.1999999284744","","","18","10099","4754","&#9776;","elianto","#3366ff99"," "," ","1","+10","[1532.9000000953674]","1","0","1","","","","","","","",""
"pit-trial","32","405186","0.0-2.0-8.2-2.2","battery-v0.2","","""event"",""trial"",""time""
""fullscreenenter"",""1"",""2232""
","
","
","""event"",""trial"",""time""
""fullscreenenter"",""1"",""2232""
","
","","","642.5999999046326","","","18","10099","4754","&#9776;","elianto","#3366ff99"," "," ","1","+10","[1493.2000000476837]","1","0","1","","","","","","","",""
"pit-trial","33","408641","0.0-2.0-8.2-3.2","battery-v0.2","","""event"",""trial"",""time""
""fullscreenenter"",""1"",""2232""
","
","
","""event"",""trial"",""time""
""fullscreenenter"",""1"",""2232""
","
","","","601.7000000476837","","","18","10099","4754","&#9776;","elianto","#3366ff99"," "," ","1","0","[1451.7999999523163]","1","0","1","","","","","","","",""
"pit-trial","34","412277","0.0-2.0-8.2-4.2","battery-v0.2","","""event"",""trial"",""time""
""fullscreenenter"",""1"",""2232""
","
","
","""event"",""trial"",""time""
""fullscreenenter"",""1"",""2232""
","
","","","781.2999999523163","","","18","10099","4754","&#9776;","elianto","#3366ff99"," "," ","1","+10","[1632.2999999523163]","1","0","1","","","","","","","",""
"call-function","35","412280","0.0-2.0-9.0","battery-v0.2","","""event"",""trial"",""time""
""fullscreenenter"",""1"",""2232""
","
","
","""event"",""trial"",""time""
""fullscreenenter"",""1"",""2232""
","
","","","","","","","","","","","","","","","","","","","","","","","","","","",""
"pit-instructions","36","456325","0.0-2.0-10.0","battery-v0.2","","""event"",""trial"",""time""
""fullscreenenter"",""1"",""2232""
","
","
","""event"",""trial"",""time""
""fullscreenenter"",""1"",""2232""
","
","","[{""page_index"":0,""viewing_time"":6596.700000047684},{""page_index"":1,""viewing_time"":7906},{""page_index"":2,""viewing_time"":10458.799999952316},{""page_index"":3,""viewing_time"":10702.399999976158},{""page_index"":4,""viewing_time"":8377.600000023842}]","44042.89999997616","","","","","","","","","","","","","","","","","","","","","","","",""
"pit-trial","37","461193","0.0-2.0-11.0-0.0","battery-v0.2","","""event"",""trial"",""time""
""fullscreenenter"",""1"",""2232""
","
","
","""event"",""trial"",""time""
""fullscreenenter"",""1"",""2232""
","
","","","-1","","","18","10099","4754","&#9761;","elianto","#3366ff99","-1","-1","1","+10","[]","0","0","2","","","","","","","",""
"pit-trial","38","466068","0.0-2.0-11.0-1.0","battery-v0.2","","""event"",""trial"",""time""
""fullscreenenter"",""1"",""2232""
","
","
","""event"",""trial"",""time""
""fullscreenenter"",""1"",""2232""
","
","","","-1","","","18","10099","4754","&#9761;","elianto","#3366ff99","-1","-1","1","+10","[]","0","0","2","","","","","","","",""
"pit-trial","39","470942","0.0-2.0-11.0-2.0","battery-v0.2","","""event"",""trial"",""time""
""fullscreenenter"",""1"",""2232""
","
","
","""event"",""trial"",""time""
""fullscreenenter"",""1"",""2232""
","
","","","-1","","","18","10099","4754","&#9761;","elianto","#3366ff99","-1","-1","1","+10","[]","0","0","2","","","","","","","",""
"pit-trial","40","474371","0.0-2.0-11.0-3.0","battery-v0.2","","""event"",""trial"",""time""
""fullscreenenter"",""1"",""2232""
","
","
","""event"",""trial"",""time""
""fullscreenenter"",""1"",""2232""
","
","","","557.5","","","18","10099","4754","&#9761;","elianto","#3366ff99","-1"," ","0","+10","[1412.3000000715256]","1","0","2","","","","","","","",""
"pit-trial","41","479245","0.0-2.0-11.0-4.0","battery-v0.2","","""event"",""trial"",""time""
""fullscreenenter"",""1"",""2232""
","
","
","""event"",""trial"",""time""
""fullscreenenter"",""1"",""2232""
","
","","","-1","","","18","10099","4754","&#9761;","elianto","#3366ff99","-1","-1","1","+10","[]","0","0","2","","","","","","","",""
"pit-trial","42","484115","0.0-2.0-11.1-0.1","battery-v0.2","","""event"",""trial"",""time""
""fullscreenenter"",""1"",""2232""
","
","
","""event"",""trial"",""time""
""fullscreenenter"",""1"",""2232""
","
","","","-1","","","18","10099","4754","&#9761;","elianto","#3366ff99","-1","-1","1","+10","[]","0","0","2","","","","","","","",""
"pit-trial","43","488970","0.0-2.0-11.1-1.1","battery-v0.2","","""event"",""trial"",""time""
""fullscreenenter"",""1"",""2232""
","
","
","""event"",""trial"",""time""
""fullscreenenter"",""1"",""2232""
","
","","","-1","","","18","10099","4754","&#9761;","elianto","#3366ff99","-1","-1","1","+10","[]","0","0","2","","","","","","","",""
"pit-trial","44","492560","0.0-2.0-11.1-2.1","battery-v0.2","","""event"",""trial"",""time""
""fullscreenenter"",""1"",""2232""
","
","
","""event"",""trial"",""time""
""fullscreenenter"",""1"",""2232""
","
","","","734.7999999523163","","","18","10099","4754","&#9761;","elianto","#3366ff99","-1"," ","0","0","[1586.0999999046326]","1","0","2","","","","","","","",""
"pit-trial","45","497415","0.0-2.0-11.1-3.1","battery-v0.2","","""event"",""trial"",""time""
""fullscreenenter"",""1"",""2232""
","
","
","""event"",""trial"",""time""
""fullscreenenter"",""1"",""2232""
","
","","","-1","","","18","10099","4754","&#9761;","elianto","#3366ff99","-1","-1","1","0","[]","0","0","2","","","","","","","",""
"pit-trial","46","502270","0.0-2.0-11.1-4.1","battery-v0.2","","""event"",""trial"",""time""
""fullscreenenter"",""1"",""2232""
","
","
","""event"",""trial"",""time""
""fullscreenenter"",""1"",""2232""
","
","","","-1","","","18","10099","4754","&#9761;","elianto","#3366ff99","-1","-1","1","+10","[]","0","0","2","","","","","","","",""
"pit-trial","47","507126","0.0-2.0-11.2-0.2","battery-v0.2","","""event"",""trial"",""time""
""fullscreenenter"",""1"",""2232""
","
","
","""event"",""trial"",""time""
""fullscreenenter"",""1"",""2232""
","
","","","-1","","","18","10099","4754","&#9761;","elianto","#3366ff99","-1","-1","1","+10","[]","0","0","2","","","","","","","",""
"pit-trial","48","511982","0.0-2.0-11.2-1.2","battery-v0.2","","""event"",""trial"",""time""
""fullscreenenter"",""1"",""2232""
","
","
","""event"",""trial"",""time""
""fullscreenenter"",""1"",""2232""
","
","","","-1","","","18","10099","4754","&#9761;","elianto","#3366ff99","-1","-1","1","+10","[]","0","0","2","","","","","","","",""
"pit-trial","49","516851","0.0-2.0-11.2-2.2","battery-v0.2","","""event"",""trial"",""time""
""fullscreenenter"",""1"",""2232""
","
","
","""event"",""trial"",""time""
""fullscreenenter"",""1"",""2232""
","
","","","-1","","","18","10099","4754","&#9761;","elianto","#3366ff99","-1","-1","1","+10","[]","0","0","2","","","","","","","",""
"pit-trial","50","521706","0.0-2.0-11.2-3.2","battery-v0.2","","""event"",""trial"",""time""
""fullscreenenter"",""1"",""2232""
","
","
","""event"",""trial"",""time""
""fullscreenenter"",""1"",""2232""
","
","","","-1","","","18","10099","4754","&#9761;","elianto","#3366ff99","-1","-1","1","0","[]","0","0","2","","","","","","","",""
"pit-trial","51","526560","0.0-2.0-11.2-4.2","battery-v0.2","","""event"",""trial"",""time""
""fullscreenenter"",""1"",""2232""
","
","
","""event"",""trial"",""time""
""fullscreenenter"",""1"",""2232""
","
","","","-1","","","18","10099","4754","&#9761;","elianto","#3366ff99","-1","-1","1","+10","[]","0","0","2","","","","","","","",""
"pit-trial","52","531417","0.0-2.0-11.3-0.3","battery-v0.2","","""event"",""trial"",""time""
""fullscreenenter"",""1"",""2232""
","
","
","""event"",""trial"",""time""
""fullscreenenter"",""1"",""2232""
","
","","","-1","","","18","10099","4754","&#9761;","elianto","#3366ff99","-1","-1","1","+10","[]","0","0","2","","","","","","","",""
"pit-trial","53","536270","0.0-2.0-11.3-1.3","battery-v0.2","","""event"",""trial"",""time""
""fullscreenenter"",""1"",""2232""
","
","
","""event"",""trial"",""time""
""fullscreenenter"",""1"",""2232""
","
","","","-1","","","18","10099","4754","&#9761;","elianto","#3366ff99","-1","-1","1","+10","[]","0","0","2","","","","","","","",""
"pit-trial","54","541125","0.0-2.0-11.3-2.3","battery-v0.2","","""event"",""trial"",""time""
""fullscreenenter"",""1"",""2232""
","
","
","""event"",""trial"",""time""
""fullscreenenter"",""1"",""2232""
","
","","","-1","","","18","10099","4754","&#9761;","elianto","#3366ff99","-1","-1","1","+10","[]","0","0","2","","","","","","","",""
"pit-trial","55","545120","0.0-2.0-11.3-3.3","battery-v0.2","","""event"",""trial"",""time""
""fullscreenenter"",""1"",""2232""
","
","
","""event"",""trial"",""time""
""fullscreenenter"",""1"",""2232""
","
","","","1140.2000000476837","","","18","10099","4754","&#9761;","elianto","#3366ff99","-1"," ","0","+10","[1990.8999999761581]","1","0","2","","","","","","","",""
"pit-trial","56","549973","0.0-2.0-11.3-4.3","battery-v0.2","","""event"",""trial"",""time""
""fullscreenenter"",""1"",""2232""
","
","
","""event"",""trial"",""time""
""fullscreenenter"",""1"",""2232""
","
","","","-1","","","18","10099","4754","&#9761;","elianto","#3366ff99","-1","-1","1","+10","[]","0","0","2","","","","","","","",""
"call-function","57","549977","0.0-2.0-12.0","battery-v0.2","","""event"",""trial"",""time""
""fullscreenenter"",""1"",""2232""
","
","
","""event"",""trial"",""time""
""fullscreenenter"",""1"",""2232""
","
","","","","","","","","","","","","","","","","","","","","","","","","","","",""
"pit-instructions","58","587785","0.0-2.0-13.0","battery-v0.2","","""event"",""trial"",""time""
""fullscreenenter"",""1"",""2232""
","
","
","""event"",""trial"",""time""
""fullscreenenter"",""1"",""2232""
","
","","[{""page_index"":0,""viewing_time"":6049.5},{""page_index"":1,""viewing_time"":8728.399999976158},{""page_index"":2,""viewing_time"":4012.9000000953674},{""page_index"":3,""viewing_time"":11458.5},{""page_index"":4,""viewing_time"":7557.599999904633}]","37807.800000071526","","","","","","","","","","","","","","","","","","","","","","","",""
"pit-trial","59","591219","0.0-2.0-14.0-0.0","battery-v0.2","","""event"",""trial"",""time""
""fullscreenenter"",""1"",""2232""
","
","
","""event"",""trial"",""time""
""fullscreenenter"",""1"",""2232""
","
","","","566.3999999761581","","","18","10099","4754","&#9826;","elianto","#f73b6a7A","-1"," ","0","-10","[1425.2999999523163]","1","0","3","","","","","","","",""
"pit-trial","60","596095","0.0-2.0-14.0-1.0","battery-v0.2","","""event"",""trial"",""time""
""fullscreenenter"",""1"",""2232""
","
","
","""event"",""trial"",""time""
""fullscreenenter"",""1"",""2232""
","
","","","-1","","","18","10099","4754","&#9826;","elianto","#f73b6a7A","-1","-1","1","0","[]","0","0","3","","","","","","","",""
"pit-trial","61","600957","0.0-2.0-14.0-2.0","battery-v0.2","","""event"",""trial"",""time""
""fullscreenenter"",""1"",""2232""
","
","
","""event"",""trial"",""time""
""fullscreenenter"",""1"",""2232""
","
","","","-1","","","18","10099","4754","&#9826;","elianto","#f73b6a7A","-1","-1","1","0","[]","0","0","3","","","","","","","",""
"pit-trial","62","605823","0.0-2.0-14.0-3.0","battery-v0.2","","""event"",""trial"",""time""
""fullscreenenter"",""1"",""2232""
","
","
","""event"",""trial"",""time""
""fullscreenenter"",""1"",""2232""
","
","","","-1","","","18","10099","4754","&#9826;","elianto","#f73b6a7A","-1","-1","1","-10","[]","0","0","3","","","","","","","",""
"pit-trial","63","610696","0.0-2.0-14.0-4.0","battery-v0.2","","""event"",""trial"",""time""
""fullscreenenter"",""1"",""2232""
","
","
","""event"",""trial"",""time""
""fullscreenenter"",""1"",""2232""
","
","","","-1","","","18","10099","4754","&#9826;","elianto","#f73b6a7A","-1","-1","1","0","[]","0","0","3","","","","","","","",""
"pit-trial","64","615555","0.0-2.0-14.1-0.1","battery-v0.2","","""event"",""trial"",""time""
""fullscreenenter"",""1"",""2232""
","
","
","""event"",""trial"",""time""
""fullscreenenter"",""1"",""2232""
","
","","","-1","","","18","10099","4754","&#9826;","elianto","#f73b6a7A","-1","-1","1","0","[]","0","0","3","","","","","","","",""
"pit-trial","65","620411","0.0-2.0-14.1-1.1","battery-v0.2","","""event"",""trial"",""time""
""fullscreenenter"",""1"",""2232""
","
","
","""event"",""trial"",""time""
""fullscreenenter"",""1"",""2232""
","
","","","-1","","","18","10099","4754","&#9826;","elianto","#f73b6a7A","-1","-1","1","0","[]","0","0","3","","","","","","","",""
"pit-trial","66","624331","0.0-2.0-14.1-2.1","battery-v0.2","","""event"",""trial"",""time""
""fullscreenenter"",""1"",""2232""
","
","
","""event"",""trial"",""time""
""fullscreenenter"",""1"",""2232""
","
","","","1064.8999999761581","","","18","10099","4754","&#9826;","elianto","#f73b6a7A","-1"," ","0","-10","[1915.3999999761581]","1","0","3","","","","","","","",""
"pit-trial","67","627931","0.0-2.0-14.1-3.1","battery-v0.2","","""event"",""trial"",""time""
""fullscreenenter"",""1"",""2232""
","
","
","""event"",""trial"",""time""
""fullscreenenter"",""1"",""2232""
","
","","","744.5","","","18","10099","4754","&#9826;","elianto","#f73b6a7A","-1"," ","0","0","[1597.8999999761581]","1","0","3","","","","","","","",""
"pit-trial","68","632786","0.0-2.0-14.1-4.1","battery-v0.2","","""event"",""trial"",""time""
""fullscreenenter"",""1"",""2232""
","
","
","""event"",""trial"",""time""
""fullscreenenter"",""1"",""2232""
","
","","","-1","","","18","10099","4754","&#9826;","elianto","#f73b6a7A","-1","-1","1","0","[]","0","0","3","","","","","","","",""
"pit-trial","69","637642","0.0-2.0-14.2-0.2","battery-v0.2","","""event"",""trial"",""time""
""fullscreenenter"",""1"",""2232""
","
","
","""event"",""trial"",""time""
""fullscreenenter"",""1"",""2232""
","
","","","-1","","","18","10099","4754","&#9826;","elianto","#f73b6a7A","-1","-1","1","0","[]","0","0","3","","","","","","","",""
"pit-trial","70","642496","0.0-2.0-14.2-1.2","battery-v0.2","","""event"",""trial"",""time""
""fullscreenenter"",""1"",""2232""
","
","
","""event"",""trial"",""time""
""fullscreenenter"",""1"",""2232""
","
","","","-1","","","18","10099","4754","&#9826;","elianto","#f73b6a7A","-1","-1","1","0","[]","0","0","3","","","","","","","",""
"pit-trial","71","647351","0.0-2.0-14.2-2.2","battery-v0.2","","""event"",""trial"",""time""
""fullscreenenter"",""1"",""2232""
","
","
","""event"",""trial"",""time""
""fullscreenenter"",""1"",""2232""
","
","","","-1","","","18","10099","4754","&#9826;","elianto","#f73b6a7A","-1","-1","1","0","[]","0","0","3","","","","","","","",""
"pit-trial","72","650979","0.0-2.0-14.2-3.2","battery-v0.2","","""event"",""trial"",""time""
""fullscreenenter"",""1"",""2232""
","
","
","""event"",""trial"",""time""
""fullscreenenter"",""1"",""2232""
","
","","","772.6999999284744","","","18","10099","4754","&#9826;","elianto","#f73b6a7A","-1"," ","0","0","[1624.1000000238419]","1","0","3","","","","","","","",""
"pit-trial","73","655833","0.0-2.0-14.2-4.2","battery-v0.2","","""event"",""trial"",""time""
""fullscreenenter"",""1"",""2232""
","
","
","""event"",""trial"",""time""
""fullscreenenter"",""1"",""2232""
","
","","","-1","","","18","10099","4754","&#9826;","elianto","#f73b6a7A","-1","-1","1","0","[]","0","0","3","","","","","","","",""
"pit-trial","74","660690","0.0-2.0-14.3-0.3","battery-v0.2","","""event"",""trial"",""time""
""fullscreenenter"",""1"",""2232""
","
","
","""event"",""trial"",""time""
""fullscreenenter"",""1"",""2232""
","
","","","-1","","","18","10099","4754","&#9826;","elianto","#f73b6a7A","-1","-1","1","0","[]","0","0","3","","","","","","","",""
"pit-trial","75","665544","0.0-2.0-14.3-1.3","battery-v0.2","","""event"",""trial"",""time""
""fullscreenenter"",""1"",""2232""
","
","
","""event"",""trial"",""time""
""fullscreenenter"",""1"",""2232""
","
","","","-1","","","18","10099","4754","&#9826;","elianto","#f73b6a7A","-1","-1","1","0","[]","0","0","3","","","","","","","",""
"pit-trial","76","670401","0.0-2.0-14.3-2.3","battery-v0.2","","""event"",""trial"",""time""
""fullscreenenter"",""1"",""2232""
","
","
","""event"",""trial"",""time""
""fullscreenenter"",""1"",""2232""
","
","","","-1","","","18","10099","4754","&#9826;","elianto","#f73b6a7A","-1","-1","1","0","[]","0","0","3","","","","","","","",""
"pit-trial","77","675257","0.0-2.0-14.3-3.3","battery-v0.2","","""event"",""trial"",""time""
""fullscreenenter"",""1"",""2232""
","
","
","""event"",""trial"",""time""
""fullscreenenter"",""1"",""2232""
","
","","","-1","","","18","10099","4754","&#9826;","elianto","#f73b6a7A","-1","-1","1","-10","[]","0","0","3","","","","","","","",""
"pit-trial","78","680111","0.0-2.0-14.3-4.3","battery-v0.2","","""event"",""trial"",""time""
""fullscreenenter"",""1"",""2232""
","
","
","""event"",""trial"",""time""
""fullscreenenter"",""1"",""2232""
","
","","","-1","","","18","10099","4754","&#9826;","elianto","#f73b6a7A","-1","-1","1","0","[]","0","0","3","","","","","","","",""
"call-function","79","680115","0.0-2.0-15.0","battery-v0.2","","""event"",""trial"",""time""
""fullscreenenter"",""1"",""2232""
","
","
","""event"",""trial"",""time""
""fullscreenenter"",""1"",""2232""
","
","","","","","","","","","","","","","","","","","","","","","","","","","","",""
"pit-instructions","80","707274","0.0-2.0-16.0","battery-v0.2","","""event"",""trial"",""time""
""fullscreenenter"",""1"",""2232""
","
","
","""event"",""trial"",""time""
""fullscreenenter"",""1"",""2232""
","
","","[{""page_index"":0,""viewing_time"":7116.300000071526},{""page_index"":1,""viewing_time"":9474.899999976158},{""page_index"":2,""viewing_time"":5150.100000023842},{""page_index"":3,""viewing_time"":5416.099999904633}]","27158.300000071526","","","","","","","","","","","","","","","","","","","","","","","",""
"pit-trial","81","710855","0.0-2.0-17.0-0.0","battery-v0.2","","""event"",""trial"",""time""
""fullscreenenter"",""1"",""2232""
","
","
","""event"",""trial"",""time""
""fullscreenenter"",""1"",""2232""
","
","","","722.5","","","18","10099","4754","&#9789;","elianto","#f73b6a7A"," "," ","1","0","[1575.2999999523163]","1","0","4","","","","","","","",""
"pit-trial","82","714426","0.0-2.0-17.0-1.0","battery-v0.2","","""event"",""trial"",""time""
""fullscreenenter"",""1"",""2232""
","
","
","""event"",""trial"",""time""
""fullscreenenter"",""1"",""2232""
","
","","","706.7999999523163","","","18","10099","4754","&#9789;","elianto","#f73b6a7A"," "," ","1","0","[1563.3999999761581]","1","0","4","","","","","","","",""
"pit-trial","83","717850","0.0-2.0-17.0-2.0","battery-v0.2","","""event"",""trial"",""time""
""fullscreenenter"",""1"",""2232""
","
","
","""event"",""trial"",""time""
""fullscreenenter"",""1"",""2232""
","
","","","566.6000000238419","","","18","10099","4754","&#9789;","elianto","#f73b6a7A"," "," ","1","0","[1419.2000000476837]","1","0","4","","","","","","","",""
"pit-trial","84","722711","0.0-2.0-17.0-3.0","battery-v0.2","","""event"",""trial"",""time""
""fullscreenenter"",""1"",""2232""
","
","
","""event"",""trial"",""time""
""fullscreenenter"",""1"",""2232""
","
","","","-1","","","18","10099","4754","&#9789;","elianto","#f73b6a7A"," ","-1","0","0","[]","0","0","4","","","","","","","",""
"pit-trial","85","726236","0.0-2.0-17.0-4.0","battery-v0.2","","""event"",""trial"",""time""
""fullscreenenter"",""1"",""2232""
","
","
","""event"",""trial"",""time""
""fullscreenenter"",""1"",""2232""
","
","","","662.1999999284744","","","18","10099","4754","&#9789;","elianto","#f73b6a7A"," "," ","1","0","[1512.2999999523163]","1","0","4","","","","","","","",""
"pit-trial","86","729665","0.0-2.0-17.1-0.1","battery-v0.2","","""event"",""trial"",""time""
""fullscreenenter"",""1"",""2232""
","
","
","""event"",""trial"",""time""
""fullscreenenter"",""1"",""2232""
","
","","","565.8000000715256","","","18","10099","4754","&#9789;","elianto","#f73b6a7A"," "," ","1","0","[1416.3999999761581]","1","0","4","","","","","","","",""
"pit-trial","87","733107","0.0-2.0-17.1-1.1","battery-v0.2","","""event"",""trial"",""time""
""fullscreenenter"",""1"",""2232""
","
","
","""event"",""trial"",""time""
""fullscreenenter"",""1"",""2232""
","
","","","574.8000000715256","","","18","10099","4754","&#9789;","elianto","#f73b6a7A"," "," ","1","0","[1426.3000000715256]","1","0","4","","","","","","","",""
"pit-trial","88","736564","0.0-2.0-17.1-2.1","battery-v0.2","","""event"",""trial"",""time""
""fullscreenenter"",""1"",""2232""
","
","
","""event"",""trial"",""time""
""fullscreenenter"",""1"",""2232""
","
","","","589.7999999523163","","","18","10099","4754","&#9789;","elianto","#f73b6a7A"," "," ","1","0","[1443.0999999046326]","1","0","4","","","","","","","",""
"pit-trial","89","741419","0.0-2.0-17.1-3.1","battery-v0.2","","""event"",""trial"",""time""
""fullscreenenter"",""1"",""2232""
","
","
","""event"",""trial"",""time""
""fullscreenenter"",""1"",""2232""
","
","","","-1","","","18","10099","4754","&#9789;","elianto","#f73b6a7A"," ","-1","0","0","[]","0","0","4","","","","","","","",""
"pit-trial","90","745177","0.0-2.0-17.1-4.1","battery-v0.2","","""event"",""trial"",""time""
""fullscreenenter"",""1"",""2232""
","
","
","""event"",""trial"",""time""
""fullscreenenter"",""1"",""2232""
","
","","","902.6999999284744","","","18","10099","4754","&#9789;","elianto","#f73b6a7A"," "," ","1","0","[1753.5]","1","0","4","","","","","","","",""
"pit-trial","91","748627","0.0-2.0-17.2-0.2","battery-v0.2","","""event"",""trial"",""time""
""fullscreenenter"",""1"",""2232""
","
","
","""event"",""trial"",""time""
""fullscreenenter"",""1"",""2232""
","
","","","589.3000000715256","","","18","10099","4754","&#9789;","elianto","#f73b6a7A"," "," ","1","0","[1444.5]","1","0","4","","","","","","","",""
"pit-trial","92","752074","0.0-2.0-17.2-1.2","battery-v0.2","","""event"",""trial"",""time""
""fullscreenenter"",""1"",""2232""
","
","
","""event"",""trial"",""time""
""fullscreenenter"",""1"",""2232""
","
","","","592.3999999761581","","","18","10099","4754","&#9789;","elianto","#f73b6a7A"," "," ","1","0","[1442.5]","1","0","4","","","","","","","",""
"pit-trial","93","755467","0.0-2.0-17.2-2.2","battery-v0.2","","""event"",""trial"",""time""
""fullscreenenter"",""1"",""2232""
","
","
","""event"",""trial"",""time""
""fullscreenenter"",""1"",""2232""
","
","","","539.7999999523163","","","18","10099","4754","&#9789;","elianto","#f73b6a7A"," "," ","1","0","[1390.1000000238419]","1","0","4","","","","","","","",""
"pit-trial","94","758950","0.0-2.0-17.2-3.2","battery-v0.2","","""event"",""trial"",""time""
""fullscreenenter"",""1"",""2232""
","
","
","""event"",""trial"",""time""
""fullscreenenter"",""1"",""2232""
","
","","","628","","","18","10099","4754","&#9789;","elianto","#f73b6a7A"," "," ","1","-10","[1478.6999999284744]","1","0","4","","","","","","","",""
"pit-trial","95","762597","0.0-2.0-17.2-4.2","battery-v0.2","","""event"",""trial"",""time""
""fullscreenenter"",""1"",""2232""
","
","
","""event"",""trial"",""time""
""fullscreenenter"",""1"",""2232""
","
","","","792.8999999761581","","","18","10099","4754","&#9789;","elianto","#f73b6a7A"," "," ","1","0","[1643.3999999761581]","1","0","4","","","","","","","",""
"pit-trial","96","766090","0.0-2.0-17.3-0.3","battery-v0.2","","""event"",""trial"",""time""
""fullscreenenter"",""1"",""2232""
","
","
","""event"",""trial"",""time""
""fullscreenenter"",""1"",""2232""
","
","","","635.8999999761581","","","18","10099","4754","&#9789;","elianto","#f73b6a7A"," "," ","1","0","[1487.7000000476837]","1","0","4","","","","","","","",""
"pit-trial","97","769640","0.0-2.0-17.3-1.3","battery-v0.2","","""event"",""trial"",""time""
""fullscreenenter"",""1"",""2232""
","
","
","""event"",""trial"",""time""
""fullscreenenter"",""1"",""2232""
","
","","","694","","","18","10099","4754","&#9789;","elianto","#f73b6a7A"," "," ","1","0","[1545.7999999523163]","1","0","4","","","","","","","",""
"pit-trial","98","774495","0.0-2.0-17.3-2.3","battery-v0.2","","""event"",""trial"",""time""
""fullscreenenter"",""1"",""2232""
","
","
","""event"",""trial"",""time""
""fullscreenenter"",""1"",""2232""
","
","","","-1","","","18","10099","4754","&#9789;","elianto","#f73b6a7A"," ","-1","0","-10","[]","0","0","4","","","","","","","",""
"pit-trial","99","779349","0.0-2.0-17.3-3.3","battery-v0.2","","""event"",""trial"",""time""
""fullscreenenter"",""1"",""2232""
","
","
","""event"",""trial"",""time""
""fullscreenenter"",""1"",""2232""
","
","","","-1","","","18","10099","4754","&#9789;","elianto","#f73b6a7A"," ","-1","0","0","[]","0","0","4","","","","","","","",""
"pit-trial","100","782907","0.0-2.0-17.3-4.3","battery-v0.2","","""event"",""trial"",""time""
""fullscreenenter"",""1"",""2232""
","
","
","""event"",""trial"",""time""
""fullscreenenter"",""1"",""2232""
","
","","","703.3000000715256","","","18","10099","4754","&#9789;","elianto","#f73b6a7A"," "," ","1","0","[1554.5]","1","0","4","","","","","","","",""
"call-function","101","782910","0.0-2.0-18.0","battery-v0.2","","""event"",""trial"",""time""
""fullscreenenter"",""1"",""2232""
","
","
","""event"",""trial"",""time""
""fullscreenenter"",""1"",""2232""
","
","","","","","","","","","","","","","","","","","","","","","","","","","","",""
"pit-instructions","102","864466","0.0-2.0-19.0","battery-v0.2","","""event"",""trial"",""time""
""fullscreenenter"",""1"",""2232""
","
","
","""event"",""trial"",""time""
""fullscreenenter"",""1"",""2232""
","
","","[{""page_index"":0,""viewing_time"":7155.899999976158},{""page_index"":1,""viewing_time"":7952.899999976158},{""page_index"":2,""viewing_time"":15536.899999976158},{""page_index"":3,""viewing_time"":9452.800000071526},{""page_index"":4,""viewing_time"":9621.100000023842},{""page_index"":5,""viewing_time"":11734.399999976158},{""page_index"":6,""viewing_time"":8830.299999952316},{""page_index"":7,""viewing_time"":6829.899999976158},{""page_index"":8,""viewing_time"":4441.400000095367}]","81555.79999995232","","","","","","","","","","","","","","","","","","","","","","","",""
"pit-comprehension","103","868926","0.0-2.0-20.0-0.0","battery-v0.2","","""event"",""trial"",""time""
""fullscreenenter"",""1"",""2232""
","
","
","""event"",""trial"",""time""
""fullscreenenter"",""1"",""2232""
","
","","","4455.900000095367","[""SPACE""]","0","18","10099","4754","","","","","","","","","","","","","","","","","","",""
"pit-instructions","104","871625","0.0-2.0-20.0-1.0","battery-v0.2","","""event"",""trial"",""time""
""fullscreenenter"",""1"",""2232""
","
","
","""event"",""trial"",""time""
""fullscreenenter"",""1"",""2232""
","
","","[{""page_index"":0,""viewing_time"":2648.2999999523163}]","2648.6999999284744","","","","","","","","","","","","","","","","","","","","","","","",""
"pit-comprehension","105","879418","0.0-2.0-21.0-0.0","battery-v0.2","","""event"",""trial"",""time""
""fullscreenenter"",""1"",""2232""
","
","
","""event"",""trial"",""time""
""fullscreenenter"",""1"",""2232""
","
","","","7789.599999904633","[""10""]","0","18","10099","4754","","","","","","","","","","","","","","","","","","",""
"pit-instructions","106","881625","0.0-2.0-21.0-1.0","battery-v0.2","","""event"",""trial"",""time""
""fullscreenenter"",""1"",""2232""
","
","
","""event"",""trial"",""time""
""fullscreenenter"",""1"",""2232""
","
","","[{""page_index"":0,""viewing_time"":2162.399999976158}]","2162.7000000476837","","","","","","","","","","","","","","","","","","","","","","","",""
"pit-comprehension","107","889048","0.0-2.0-22.0-0.0","battery-v0.2","","""event"",""trial"",""time""
""fullscreenenter"",""1"",""2232""
","
","
","""event"",""trial"",""time""
""fullscreenenter"",""1"",""2232""
","
","","","7418.699999928474","[""-10""]","1","18","10099","4754","","","","","","","","","","","","","","","","","","",""
"pit-instructions","108","893728","0.0-2.0-22.0-1.0","battery-v0.2","","""event"",""trial"",""time""
""fullscreenenter"",""1"",""2232""
","
","
","""event"",""trial"",""time""
""fullscreenenter"",""1"",""2232""
","
","","[{""page_index"":0,""viewing_time"":4636.899999976158}]","4637.200000047684","","","","","","","","","","","","","","","","","","","","","","","",""
"pit-instructions","109","895025","0.0-2.0-22.0-2.0-0.0","battery-v0.2","","""event"",""trial"",""time""
""fullscreenenter"",""1"",""2232""
","
","
","""event"",""trial"",""time""
""fullscreenenter"",""1"",""2232""
","
","","[{""page_index"":0,""viewing_time"":1295.1000000238419}]","1295.3999999761581","","","","","","","","","","","","","","","","","","","","","","","",""
"pit-comprehension","110","901537","0.0-2.0-22.1-0.1","battery-v0.2","","""event"",""trial"",""time""
""fullscreenenter"",""1"",""2232""
","
","
","""event"",""trial"",""time""
""fullscreenenter"",""1"",""2232""
","
","","","6509.300000071526","[""0""]","0","18","10099","4754","","","","","","","","","","","","","","","","","","",""
"pit-instructions","111","903286","0.0-2.0-22.1-1.1","battery-v0.2","","""event"",""trial"",""time""
""fullscreenenter"",""1"",""2232""
","
","
","""event"",""trial"",""time""
""fullscreenenter"",""1"",""2232""
","
","","[{""page_index"":0,""viewing_time"":1704.0999999046326}]","1704.3999999761581","","","","","","","","","","","","","","","","","","","","","","","",""
"pit-comprehension","112","911856","0.0-2.0-23.0-0.0","battery-v0.2","","""event"",""trial"",""time""
""fullscreenenter"",""1"",""2232""
","
","
","""event"",""trial"",""time""
""fullscreenenter"",""1"",""2232""
","
","","","8567.399999976158","[""True""]","0","18","10099","4754","","","","","","","","","","","","","","","","","","",""
"pit-instructions","113","913846","0.0-2.0-23.0-1.0","battery-v0.2","","""event"",""trial"",""time""
""fullscreenenter"",""1"",""2232""
","
","
","""event"",""trial"",""time""
""fullscreenenter"",""1"",""2232""
","
","","[{""page_index"":0,""viewing_time"":1940.1999999284744}]","1940.3999999761581","","","","","","","","","","","","","","","","","","","","","","","",""
"pit-comprehension","114","921947","0.0-2.0-24.0-0.0","battery-v0.2","","""event"",""trial"",""time""
""fullscreenenter"",""1"",""2232""
","
","
","""event"",""trial"",""time""
""fullscreenenter"",""1"",""2232""
","
","","","8097.899999976158","[""True""]","0","18","10099","4754","","","","","","","","","","","","","","","","","","",""
"pit-instructions","115","923756","0.0-2.0-24.0-1.0","battery-v0.2","","""event"",""trial"",""time""
""fullscreenenter"",""1"",""2232""
","
","
","""event"",""trial"",""time""
""fullscreenenter"",""1"",""2232""
","
","","[{""page_index"":0,""viewing_time"":1763.5}]","1763.7999999523163","","","","","","","","","","","","","","","","","","","","","","","",""
"pit-comprehension","116","930406","0.0-2.0-25.0-0.0","battery-v0.2","","""event"",""trial"",""time""
""fullscreenenter"",""1"",""2232""
","
","
","""event"",""trial"",""time""
""fullscreenenter"",""1"",""2232""
","
","","","6647.199999928474","[""True""]","0","18","10099","4754","","","","","","","","","","","","","","","","","","",""
"pit-instructions","117","932596","0.0-2.0-25.0-1.0","battery-v0.2","","""event"",""trial"",""time""
""fullscreenenter"",""1"",""2232""
","
","
","""event"",""trial"",""time""
""fullscreenenter"",""1"",""2232""
","
","","[{""page_index"":0,""viewing_time"":2142.7999999523163}]","2143","","","","","","","","","","","","","","","","","","","","","","","",""
"pit-comprehension","118","937527","0.0-2.0-26.0-0.0","battery-v0.2","","""event"",""trial"",""time""
""fullscreenenter"",""1"",""2232""
","
","
","""event"",""trial"",""time""
""fullscreenenter"",""1"",""2232""
","
","","","4928.299999952316","[""False""]","0","18","10099","4754","","","","","","","","","","","","","","","","","","",""
"pit-instructions","119","939527","0.0-2.0-26.0-1.0","battery-v0.2","","""event"",""trial"",""time""
""fullscreenenter"",""1"",""2232""
","
","
","""event"",""trial"",""time""
""fullscreenenter"",""1"",""2232""
","
","","[{""page_index"":0,""viewing_time"":1953}]","1953.2999999523163","","","","","","","","","","","","","","","","","","","","","","","",""
"pit-instructions","120","958799","0.0-3.0","battery-v0.2","","""event"",""trial"",""time""
""fullscreenenter"",""1"",""2232""
","
","
","""event"",""trial"",""time""
""fullscreenenter"",""1"",""2232""
","
","","[{""page_index"":0,""viewing_time"":5397.799999952316},{""page_index"":1,""viewing_time"":5988.200000047684},{""page_index"":2,""viewing_time"":7883.199999928474}]","19269.399999976158","","","","","","","","","","","","","","","","","","","","","","","",""
"pit-trial","121","962267","0.0-4.0","battery-v0.2","","""event"",""trial"",""time""
""fullscreenenter"",""1"",""2232""
","
","
","""event"",""trial"",""time""
""fullscreenenter"",""1"",""2232""
","
","","","611","","","18","10099","4754","&#9730;","elianto","#3366ff99"," "," ","1","+10","[1461.8999999761581]","1","1","","","10099","1","1","1","win","go","0"
"pit-trial","122","965898","0.0-5.0","battery-v0.2","","""event"",""trial"",""time""
""fullscreenenter"",""1"",""2232""
","
","
","""event"",""trial"",""time""
""fullscreenenter"",""1"",""2232""
","
","","","761.7000000476837","","","18","10099","4754","&#9733;","elianto","#3366ff99","-1"," ","0","0","[1612.3999999761581]","1","1","","","10099","2","2","2","win","no-go","0"
"pit-trial","123","969722","0.0-6.0","battery-v0.2","","""event"",""trial"",""time""
""fullscreenenter"",""1"",""2232""
","
","
","""event"",""trial"",""time""
""fullscreenenter"",""1"",""2232""
","
","","","964.5","","","18","10099","4754","&#9752;","elianto","#f73b6a7A"," "," ","1","-10","[1815.2000000476837]","1","1","","","10099","3","3","3","lose","go","1"
"pit-trial","124","974589","0.0-7.0","battery-v0.2","","""event"",""trial"",""time""
""fullscreenenter"",""1"",""2232""
","
","
","""event"",""trial"",""time""
""fullscreenenter"",""1"",""2232""
","
","","","-1","","","18","10099","4754","&#9728;","elianto","#f73b6a7A","-1","-1","1","0","[]","0","1","","","10099","4","0","4","lose","no-go","0"
"pit-trial","125","978323","0.0-8.0","battery-v0.2","","""event"",""trial"",""time""
""fullscreenenter"",""1"",""2232""
","
","
","""event"",""trial"",""time""
""fullscreenenter"",""1"",""2232""
","
","","","864.7999999523163","","","18","10099","4754","&#9730;","elianto","#3366ff99"," "," ","1","0","[1716.1999999284744]","1","1","","","10099","5","1","1","win","go","1"
"pit-trial","126","983191","0.0-9.0","battery-v0.2","","""event"",""trial"",""time""
""fullscreenenter"",""1"",""2232""
","
","
","""event"",""trial"",""time""
""fullscreenenter"",""1"",""2232""
","
","","","-1","","","18","10099","4754","&#9752;","elianto","#f73b6a7A"," ","-1","0","-10","[]","0","1","","","10099","6","3","3","lose","go","0"
"pit-trial","127","988052","0.0-10.0","battery-v0.2","","""event"",""trial"",""time""
""fullscreenenter"",""1"",""2232""
","
","
","""event"",""trial"",""time""
""fullscreenenter"",""1"",""2232""
","
","","","-1","","","18","10099","4754","&#9733;","elianto","#3366ff99","-1","-1","1","+10","[]","0","1","","","10099","7","2","2","win","no-go","0"
"pit-trial","128","992905","0.0-11.0","battery-v0.2","","""event"",""trial"",""time""
""fullscreenenter"",""1"",""2232""
","
","
","""event"",""trial"",""time""
""fullscreenenter"",""1"",""2232""
","
","","","-1","","","18","10099","4754","&#9728;","elianto","#f73b6a7A","-1","-1","1","0","[]","0","1","","","10099","8","0","4","lose","no-go","0"
"pit-trial","129","997760","0.0-12.0","battery-v0.2","","""event"",""trial"",""time""
""fullscreenenter"",""1"",""2232""
","
","
","""event"",""trial"",""time""
""fullscreenenter"",""1"",""2232""
","
","","","-1","","","18","10099","4754","&#9728;","elianto","#f73b6a7A","-1","-1","1","0","[]","0","1","","","10099","9","0","4","lose","no-go","0"
"pit-trial","130","1001635","0.0-13.0","battery-v0.2","","""event"",""trial"",""time""
""fullscreenenter"",""1"",""2232""
","
","
","""event"",""trial"",""time""
""fullscreenenter"",""1"",""2232""
","
","","","1017.3999999761581","","","18","10099","4754","&#9730;","elianto","#3366ff99"," "," ","1","+10","[1870.9000000953674]","1","1","","","10099","10","1","1","win","go","0"
"pit-trial","131","1006490","0.0-14.0","battery-v0.2","","""event"",""trial"",""time""
""fullscreenenter"",""1"",""2232""
","
","
","""event"",""trial"",""time""
""fullscreenenter"",""1"",""2232""
","
","","","-1","","","18","10099","4754","&#9733;","elianto","#3366ff99","-1","-1","1","+10","[]","0","1","","","10099","11","2","2","win","no-go","0"
"pit-trial","132","1010045","0.0-15.0","battery-v0.2","","""event"",""trial"",""time""
""fullscreenenter"",""1"",""2232""
","
","
","""event"",""trial"",""time""
""fullscreenenter"",""1"",""2232""
","
","","","700.2000000476837","","","18","10099","4754","&#9752;","elianto","#f73b6a7A"," "," ","1","0","[1550.8000000715256]","1","1","","","10099","12","3","3","lose","go","0"
"pit-trial","133","1013765","0.0-16.0","battery-v0.2","","""event"",""trial"",""time""
""fullscreenenter"",""1"",""2232""
","
","
","""event"",""trial"",""time""
""fullscreenenter"",""1"",""2232""
","
","","","864.3999999761581","","","18","10099","4754","&#9730;","elianto","#3366ff99"," "," ","1","+10","[1716]","1","1","","","10099","13","1","1","win","go","0"
"pit-trial","134","1018620","0.0-17.0","battery-v0.2","","""event"",""trial"",""time""
""fullscreenenter"",""1"",""2232""
","
","
","""event"",""trial"",""time""
""fullscreenenter"",""1"",""2232""
","
","","","-1","","","18","10099","4754","&#9728;","elianto","#f73b6a7A","-1","-1","1","0","[]","0","1","","","10099","14","0","4","lose","no-go","0"
"pit-trial","135","1022575","0.0-18.0","battery-v0.2","","""event"",""trial"",""time""
""fullscreenenter"",""1"",""2232""
","
","
","""event"",""trial"",""time""
""fullscreenenter"",""1"",""2232""
","
","","","1099.2000000476837","","","18","10099","4754","&#9752;","elianto","#f73b6a7A"," "," ","1","-10","[1950.2999999523163]","1","1","","","10099","15","3","3","lose","go","1"
"pit-trial","136","1027431","0.0-19.0","battery-v0.2","","""event"",""trial"",""time""
""fullscreenenter"",""1"",""2232""
","
","
","""event"",""trial"",""time""
""fullscreenenter"",""1"",""2232""
","
","","","-1","","","18","10099","4754","&#9733;","elianto","#3366ff99","-1","-1","1","0","[]","0","1","","","10099","16","2","2","win","no-go","1"
"pit-trial","137","1032285","0.0-20.0","battery-v0.2","","""event"",""trial"",""time""
""fullscreenenter"",""1"",""2232""
","
","
","""event"",""trial"",""time""
""fullscreenenter"",""1"",""2232""
","
","","","-1","","","18","10099","4754","&#9733;","elianto","#3366ff99","-1","-1","1","0","[]","0","1","","","10099","17","2","2","win","no-go","1"
"pit-trial","138","1035906","0.0-21.0","battery-v0.2","","""event"",""trial"",""time""
""fullscreenenter"",""1"",""2232""
","
","
","""event"",""trial"",""time""
""fullscreenenter"",""1"",""2232""
","
","","","766.6000000238419","","","18","10099","4754","&#9730;","elianto","#3366ff99"," "," ","1","+10","[1617.1000000238419]","1","1","","","10099","18","1","1","win","go","0"
"pit-trial","139","1040775","0.0-22.0","battery-v0.2","","""event"",""trial"",""time""
""fullscreenenter"",""1"",""2232""
","
","
","""event"",""trial"",""time""
""fullscreenenter"",""1"",""2232""
","
","","","-1","","","18","10099","4754","&#9728;","elianto","#f73b6a7A","-1","-1","1","0","[]","0","1","","","10099","19","0","4","lose","no-go","0"
"pit-trial","140","1045101","0.0-23.0","battery-v0.2","","""event"",""trial"",""time""
""fullscreenenter"",""1"",""2232""
","
","
","""event"",""trial"",""time""
""fullscreenenter"",""1"",""2232""
","
","","","1461.3999999761581","","","18","10099","4754","&#9752;","elianto","#f73b6a7A"," "," ","1","0","[2320.7999999523163]","1","1","","","10099","20","3","3","lose","go","0"
"pit-instructions","141","1058643","0.0-24.0","battery-v0.2","","""event"",""trial"",""time""
""fullscreenenter"",""1"",""2232""
","
","
","""event"",""trial"",""time""
""fullscreenenter"",""1"",""2232""
","
","","[{""page_index"":0,""viewing_time"":5923.600000023842},{""page_index"":1,""viewing_time"":7614.200000047684}]","13538","","","","","","","","","","","","","","","","","","","","","","","",""
"pit-trial","142","1062177","0.0-25.0","battery-v0.2","","""event"",""trial"",""time""
""fullscreenenter"",""1"",""2232""
","
","
","""event"",""trial"",""time""
""fullscreenenter"",""1"",""2232""
","
","","","667.6000000238419","","","18","10099","4754","r","elianto","#3366ff99"," "," ","1","+10","[1521.8000000715256]","1","2","","","10099","21","1","1","win","go","0"
"pit-trial","143","1066366","0.0-26.0","battery-v0.2","","""event"",""trial"",""time""
""fullscreenenter"",""1"",""2232""
","
","
","""event"",""trial"",""time""
""fullscreenenter"",""1"",""2232""
","
","","","1327.8000000715256","","","18","10099","4754","y","elianto","#f73b6a7A","-1"," ","0","-10","[2179.7000000476837]","1","2","","","10099","22","2","4","lose","no-go","0"
"pit-trial","144","1070309","0.0-27.0","battery-v0.2","","""event"",""trial"",""time""
""fullscreenenter"",""1"",""2232""
","
","
","""event"",""trial"",""time""
""fullscreenenter"",""1"",""2232""
","
","","","1071.5","","","18","10099","4754","m","elianto","#f73b6a7A","-1"," ","0","0","[1926.3000000715256]","1","2","","","10099","23","0","4","lose","no-go","1"
"pit-trial","145","1075166","0.0-28.0","battery-v0.2","","""event"",""trial"",""time""
""fullscreenenter"",""1"",""2232""
","
","
","""event"",""trial"",""time""
""fullscreenenter"",""1"",""2232""
","
","","","-1","","","18","10099","4754","h","elianto","#f73b6a7A"," ","-1","0","-10","[]","0","2","","","10099","24","3","3","lose","go","0"
"pit-trial","146","1079036","0.0-29.0","battery-v0.2","","""event"",""trial"",""time""
""fullscreenenter"",""1"",""2232""
","
","
","""event"",""trial"",""time""
""fullscreenenter"",""1"",""2232""
","
","","","997.2999999523163","","","18","10099","4754","h","elianto","#f73b6a7A"," "," ","1","0","[1853.1999999284744]","1","2","","","10099","25","3","3","lose","go","0"
"pit-trial","147","1083277","0.0-30.0","battery-v0.2","","""event"",""trial"",""time""
""fullscreenenter"",""1"",""2232""
","
","
","""event"",""trial"",""time""
""fullscreenenter"",""1"",""2232""
","
","","","1369.7999999523163","","","18","10099","4754","m","elianto","#f73b6a7A","-1"," ","0","0","[2223]","1","2","","","10099","26","0","4","lose","no-go","1"
"pit-trial","148","1088135","0.0-31.0","battery-v0.2","","""event"",""trial"",""time""
""fullscreenenter"",""1"",""2232""
","
","
","""event"",""trial"",""time""
""fullscreenenter"",""1"",""2232""
","
","","","-1","","","18","10099","4754","y","elianto","#f73b6a7A","-1","-1","1","0","[]","0","2","","","10099","27","2","4","lose","no-go","0"
"pit-trial","149","1091649","0.0-32.0","battery-v0.2","","""event"",""trial"",""time""
""fullscreenenter"",""1"",""2232""
","
","
","""event"",""trial"",""time""
""fullscreenenter"",""1"",""2232""
","
","","","660","","","18","10099","4754","r","elianto","#3366ff99"," "," ","1","+10","[1510.1999999284744]","1","2","","","10099","28","1","1","win","go","0"
"pit-trial","150","1095863","0.0-33.0","battery-v0.2","","""event"",""trial"",""time""
""fullscreenenter"",""1"",""2232""
","
","
","""event"",""trial"",""time""
""fullscreenenter"",""1"",""2232""
","
","","","1357.6000000238419","","","18","10099","4754","m","elianto","#f73b6a7A","-1"," ","0","-10","[2209.5]","1","2","","","10099","29","0","4","lose","no-go","0"
"pit-trial","151","1099578","0.0-34.0","battery-v0.2","","""event"",""trial"",""time""
""fullscreenenter"",""1"",""2232""
","
","
","""event"",""trial"",""time""
""fullscreenenter"",""1"",""2232""
","
","","","859.8999999761581","","","18","10099","4754","r","elianto","#3366ff99"," "," ","1","0","[1710.6000000238419]","1","2","","","10099","30","1","1","win","go","1"
"pit-trial","152","1104434","0.0-35.0","battery-v0.2","","""event"",""trial"",""time""
""fullscreenenter"",""1"",""2232""
","
","
","""event"",""trial"",""time""
""fullscreenenter"",""1"",""2232""
","
","","","-1","","","18","10099","4754","y","elianto","#f73b6a7A","-1","-1","1","0","[]","0","2","","","10099","31","2","4","lose","no-go","0"
"pit-trial","153","1108474","0.0-36.0","battery-v0.2","","""event"",""trial"",""time""
""fullscreenenter"",""1"",""2232""
","
","
","""event"",""trial"",""time""
""fullscreenenter"",""1"",""2232""
","
","","","1185.2000000476837","","","18","10099","4754","h","elianto","#f73b6a7A"," "," ","1","0","[2035.7999999523163]","1","2","","","10099","32","3","3","lose","go","0"
"pit-trial","154","1112483","0.0-37.0","battery-v0.2","","""event"",""trial"",""time""
""fullscreenenter"",""1"",""2232""
","
","
","""event"",""trial"",""time""
""fullscreenenter"",""1"",""2232""
","
","","","1151.2999999523163","","","18","10099","4754","h","elianto","#f73b6a7A"," "," ","1","0","[2005.1000000238419]","1","2","","","10099","33","3","3","lose","go","0"
"pit-trial","155","1117338","0.0-38.0","battery-v0.2","","""event"",""trial"",""time""
""fullscreenenter"",""1"",""2232""
","
","
","""event"",""trial"",""time""
""fullscreenenter"",""1"",""2232""
","
","","","-1","","","18","10099","4754","y","elianto","#f73b6a7A","-1","-1","1","0","[]","0","2","","","10099","34","2","4","lose","no-go","0"
"pit-trial","156","1121329","0.0-39.0","battery-v0.2","","""event"",""trial"",""time""
""fullscreenenter"",""1"",""2232""
","
","
","""event"",""trial"",""time""
""fullscreenenter"",""1"",""2232""
","
","","","1136.1999999284744","","","18","10099","4754","m","elianto","#f73b6a7A","-1"," ","0","-10","[1987.2999999523163]","1","2","","","10099","35","0","4","lose","no-go","0"
"pit-trial","157","1125017","0.0-40.0","battery-v0.2","","""event"",""trial"",""time""
""fullscreenenter"",""1"",""2232""
","
","
","""event"",""trial"",""time""
""fullscreenenter"",""1"",""2232""
","
","","","833.2999999523163","","","18","10099","4754","r","elianto","#3366ff99"," "," ","1","+10","[1684]","1","2","","","10099","36","1","1","win","go","0"
"pit-trial","158","1128839","0.0-41.0","battery-v0.2","","""event"",""trial"",""time""
""fullscreenenter"",""1"",""2232""
","
","
","""event"",""trial"",""time""
""fullscreenenter"",""1"",""2232""
","
","","","964.8999999761581","","","18","10099","4754","h","elianto","#f73b6a7A"," "," ","1","0","[1816.6000000238419]","1","2","","","10099","37","3","3","lose","go","0"
"pit-trial","159","1133693","0.0-42.0","battery-v0.2","","""event"",""trial"",""time""
""fullscreenenter"",""1"",""2232""
","
","
","""event"",""trial"",""time""
""fullscreenenter"",""1"",""2232""
","
","","","-1","","","18","10099","4754","y","elianto","#f73b6a7A","-1","-1","1","-10","[]","0","2","","","10099","38","2","4","lose","no-go","1"
"pit-trial","160","1137177","0.0-43.0","battery-v0.2","","""event"",""trial"",""time""
""fullscreenenter"",""1"",""2232""
","
","
","""event"",""trial"",""time""
""fullscreenenter"",""1"",""2232""
","
","","","629.6000000238419","","","18","10099","4754","r","elianto","#3366ff99"," "," ","1","+10","[1479.6000000238419]","1","2","","","10099","39","1","1","win","go","0"
"pit-trial","161","1142032","0.0-44.0","battery-v0.2","","""event"",""trial"",""time""
""fullscreenenter"",""1"",""2232""
","
","
","""event"",""trial"",""time""
""fullscreenenter"",""1"",""2232""
","
","","","-1","","","18","10099","4754","m","elianto","#f73b6a7A","-1","-1","1","0","[]","0","2","","","10099","40","0","4","lose","no-go","0"
"pit-trial","162","1145716","0.0-45.0","battery-v0.2","","""event"",""trial"",""time""
""fullscreenenter"",""1"",""2232""
","
","
","""event"",""trial"",""time""
""fullscreenenter"",""1"",""2232""
","
","","","830","","","18","10099","4754","h","elianto","#f73b6a7A"," "," ","1","0","[1680.2999999523163]","1","2","","","10099","41","3","3","lose","go","0"
"pit-trial","163","1150570","0.0-46.0","battery-v0.2","","""event"",""trial"",""time""
""fullscreenenter"",""1"",""2232""
","
","
","""event"",""trial"",""time""
""fullscreenenter"",""1"",""2232""
","
","","","-1","","","18","10099","4754","m","elianto","#f73b6a7A","-1","-1","1","0","[]","0","2","","","10099","42","0","4","lose","no-go","0"
"pit-trial","164","1154045","0.0-47.0","battery-v0.2","","""event"",""trial"",""time""
""fullscreenenter"",""1"",""2232""
","
","
","""event"",""trial"",""time""
""fullscreenenter"",""1"",""2232""
","
","","","619.7999999523163","","","18","10099","4754","r","elianto","#3366ff99"," "," ","1","+10","[1470.5]","1","2","","","10099","43","1","1","win","go","0"
"pit-trial","165","1157537","0.0-48.0","battery-v0.2","","""event"",""trial"",""time""
""fullscreenenter"",""1"",""2232""
","
","
","""event"",""trial"",""time""
""fullscreenenter"",""1"",""2232""
","
","","","631.8000000715256","","","18","10099","4754","y","elianto","#f73b6a7A","-1"," ","0","-10","[1481.8999999761581]","1","2","","","10099","44","2","4","lose","no-go","0"
"pit-trial","166","1161229","0.0-49.0","battery-v0.2","","""event"",""trial"",""time""
""fullscreenenter"",""1"",""2232""
","
","
","""event"",""trial"",""time""
""fullscreenenter"",""1"",""2232""
","
","","","837.4000000953674","","","18","10099","4754","h","elianto","#f73b6a7A"," "," ","1","0","[1688]","1","2","","","10099","45","3","3","lose","go","0"
"pit-trial","167","1165399","0.0-50.0","battery-v0.2","","""event"",""trial"",""time""
""fullscreenenter"",""1"",""2232""
","
","
","""event"",""trial"",""time""
""fullscreenenter"",""1"",""2232""
","
","","","1313.5","","","18","10099","4754","y","elianto","#f73b6a7A","-1"," ","0","-10","[2165]","1","2","","","10099","46","2","4","lose","no-go","0"
"pit-trial","168","1170253","0.0-51.0","battery-v0.2","","""event"",""trial"",""time""
""fullscreenenter"",""1"",""2232""
","
","
","""event"",""trial"",""time""
""fullscreenenter"",""1"",""2232""
","
","","","-1","","","18","10099","4754","z","elianto","#3366ff99","-1","-1","1","+10","[]","0","2","","","10099","47","4","2","win","no-go","0"
"pit-trial","169","1175107","0.0-52.0","battery-v0.2","","""event"",""trial"",""time""
""fullscreenenter"",""1"",""2232""
","
","
","""event"",""trial"",""time""
""fullscreenenter"",""1"",""2232""
","
","","","-1","","","18","10099","4754","m","elianto","#f73b6a7A","-1","-1","1","-10","[]","0","2","","","10099","48","0","4","lose","no-go","1"
"pit-trial","170","1179182","0.0-53.0","battery-v0.2","","""event"",""trial"",""time""
""fullscreenenter"",""1"",""2232""
","
","
","""event"",""trial"",""time""
""fullscreenenter"",""1"",""2232""
","
","","","1216.5","","","18","10099","4754","h","elianto","#f73b6a7A"," "," ","1","0","[2069.2000000476837]","1","2","","","10099","49","3","3","lose","go","0"
"pit-trial","171","1183293","0.0-54.0","battery-v0.2","","""event"",""trial"",""time""
""fullscreenenter"",""1"",""2232""
","
","
","""event"",""trial"",""time""
""fullscreenenter"",""1"",""2232""
","
","","","1249.7000000476837","","","18","10099","4754","m","elianto","#f73b6a7A","-1"," ","0","-10","[2107.399999976158]","1","2","","","10099","50","0","4","lose","no-go","0"
"pit-trial","172","1186914","0.0-55.0","battery-v0.2","","""event"",""trial"",""time""
""fullscreenenter"",""1"",""2232""
","
","
","""event"",""trial"",""time""
""fullscreenenter"",""1"",""2232""
","
","","","765.7000000476837","","","18","10099","4754","z","elianto","#3366ff99","-1"," ","0","0","[1617.3000000715256]","1","2","","","10099","51","4","2","win","no-go","0"
"pit-trial","173","1190761","0.0-56.0","battery-v0.2","","""event"",""trial"",""time""
""fullscreenenter"",""1"",""2232""
","
","
","""event"",""trial"",""time""
""fullscreenenter"",""1"",""2232""
","
","","","993.6999999284744","","","18","10099","4754","r","elianto","#3366ff99"," "," ","1","0","[1844]","1","2","","","10099","52","1","1","win","go","1"
"pit-trial","174","1194403","0.0-57.0","battery-v0.2","","""event"",""trial"",""time""
""fullscreenenter"",""1"",""2232""
","
","
","""event"",""trial"",""time""
""fullscreenenter"",""1"",""2232""
","
","","","787.3999999761581","","","18","10099","4754","r","elianto","#3366ff99"," "," ","1","+10","[1637.5999999046326]","1","2","","","10099","53","1","1","win","go","0"
"pit-trial","175","1199257","0.0-58.0","battery-v0.2","","""event"",""trial"",""time""
""fullscreenenter"",""1"",""2232""
","
","
","""event"",""trial"",""time""
""fullscreenenter"",""1"",""2232""
","
","","","-1","","","18","10099","4754","z","elianto","#3366ff99","-1","-1","1","+10","[]","0","2","","","10099","54","4","2","win","no-go","0"
"pit-trial","176","1203715","0.0-59.0","battery-v0.2","","""event"",""trial"",""time""
""fullscreenenter"",""1"",""2232""
","
","
","""event"",""trial"",""time""
""fullscreenenter"",""1"",""2232""
","
","","","1600.3000000715256","","","18","10099","4754","y","elianto","#f73b6a7A","-1"," ","0","-10","[2454.2000000476837]","1","2","","","10099","55","2","4","lose","no-go","0"
"pit-trial","177","1208568","0.0-60.0","battery-v0.2","","""event"",""trial"",""time""
""fullscreenenter"",""1"",""2232""
","
","
","""event"",""trial"",""time""
""fullscreenenter"",""1"",""2232""
","
","","","-1","","","18","10099","4754","m","elianto","#f73b6a7A","-1","-1","1","0","[]","0","2","","","10099","56","0","4","lose","no-go","0"
"pit-trial","178","1212520","0.0-61.0","battery-v0.2","","""event"",""trial"",""time""
""fullscreenenter"",""1"",""2232""
","
","
","""event"",""trial"",""time""
""fullscreenenter"",""1"",""2232""
","
","","","1096.7999999523163","","","18","10099","4754","r","elianto","#3366ff99"," "," ","1","0","[1947.1000000238419]","1","2","","","10099","57","1","1","win","go","1"
"pit-trial","179","1217376","0.0-62.0","battery-v0.2","","""event"",""trial"",""time""
""fullscreenenter"",""1"",""2232""
","
","
","""event"",""trial"",""time""
""fullscreenenter"",""1"",""2232""
","
","","","-1","","","18","10099","4754","z","elianto","#3366ff99","-1","-1","1","+10","[]","0","2","","","10099","58","4","2","win","no-go","0"
"pit-trial","180","1222231","0.0-63.0","battery-v0.2","","""event"",""trial"",""time""
""fullscreenenter"",""1"",""2232""
","
","
","""event"",""trial"",""time""
""fullscreenenter"",""1"",""2232""
","
","","","-1","","","18","10099","4754","m","elianto","#f73b6a7A","-1","-1","1","0","[]","0","2","","","10099","59","0","4","lose","no-go","0"
"pit-trial","181","1225928","0.0-64.0","battery-v0.2","","""event"",""trial"",""time""
""fullscreenenter"",""1"",""2232""
","
","
","""event"",""trial"",""time""
""fullscreenenter"",""1"",""2232""
","
","","","842.8000000715256","","","18","10099","4754","h","elianto","#f73b6a7A"," "," ","1","0","[1693.5]","1","2","","","10099","60","3","3","lose","go","0"
"pit-trial","182","1229739","0.0-65.0","battery-v0.2","","""event"",""trial"",""time""
""fullscreenenter"",""1"",""2232""
","
","
","""event"",""trial"",""time""
""fullscreenenter"",""1"",""2232""
","
","","","956.5","","","18","10099","4754","r","elianto","#3366ff99"," "," ","1","+10","[1806.7000000476837]","1","2","","","10099","61","1","1","win","go","0"
"pit-trial","183","1234595","0.0-66.0","battery-v0.2","","""event"",""trial"",""time""
""fullscreenenter"",""1"",""2232""
","
","
","""event"",""trial"",""time""
""fullscreenenter"",""1"",""2232""
","
","","","-1","","","18","10099","4754","h","elianto","#f73b6a7A"," ","-1","0","-10","[]","0","2","","","10099","62","3","3","lose","go","0"
"pit-trial","184","1239451","0.0-67.0","battery-v0.2","","""event"",""trial"",""time""
""fullscreenenter"",""1"",""2232""
","
","
","""event"",""trial"",""time""
""fullscreenenter"",""1"",""2232""
","
","","","-1","","","18","10099","4754","y","elianto","#f73b6a7A","-1","-1","1","0","[]","0","2","","","10099","63","2","4","lose","no-go","0"
"pit-trial","185","1244306","0.0-68.0","battery-v0.2","","""event"",""trial"",""time""
""fullscreenenter"",""1"",""2232""
","
","
","""event"",""trial"",""time""
""fullscreenenter"",""1"",""2232""
","
","","","-1","","","18","10099","4754","z","elianto","#3366ff99","-1","-1","1","+10","[]","0","2","","","10099","64","4","2","win","no-go","0"
"pit-trial","186","1249162","0.0-69.0","battery-v0.2","","""event"",""trial"",""time""
""fullscreenenter"",""1"",""2232""
","
","
","""event"",""trial"",""time""
""fullscreenenter"",""1"",""2232""
","
","","","-1","","","18","10099","4754","y","elianto","#f73b6a7A","-1","-1","1","0","[]","0","2","","","10099","65","2","4","lose","no-go","0"
"pit-trial","187","1253027","0.0-70.0","battery-v0.2","","""event"",""trial"",""time""
""fullscreenenter"",""1"",""2232""
","
","
","""event"",""trial"",""time""
""fullscreenenter"",""1"",""2232""
","
","","","1009","","","18","10099","4754","r","elianto","#3366ff99"," "," ","1","+10","[1859.8999999761581]","1","2","","","10099","66","1","1","win","go","0"
"pit-trial","188","1256693","0.0-71.0","battery-v0.2","","""event"",""trial"",""time""
""fullscreenenter"",""1"",""2232""
","
","
","""event"",""trial"",""time""
""fullscreenenter"",""1"",""2232""
","
","","","811","","","18","10099","4754","h","elianto","#f73b6a7A"," "," ","1","0","[1661.4000000953674]","1","2","","","10099","67","3","3","lose","go","0"
"pit-trial","189","1261547","0.0-72.0","battery-v0.2","","""event"",""trial"",""time""
""fullscreenenter"",""1"",""2232""
","
","
","""event"",""trial"",""time""
""fullscreenenter"",""1"",""2232""
","
","","","-1","","","18","10099","4754","z","elianto","#3366ff99","-1","-1","1","+10","[]","0","2","","","10099","68","4","2","win","no-go","0"
"pit-trial","190","1265369","0.0-73.0","battery-v0.2","","""event"",""trial"",""time""
""fullscreenenter"",""1"",""2232""
","
","
","""event"",""trial"",""time""
""fullscreenenter"",""1"",""2232""
","
","","","967.3999999761581","","","18","10099","4754","r","elianto","#3366ff99"," "," ","1","+10","[1818]","1","2","","","10099","69","1","1","win","go","0"
"pit-trial","191","1269373","0.0-74.0","battery-v0.2","","""event"",""trial"",""time""
""fullscreenenter"",""1"",""2232""
","
","
","""event"",""trial"",""time""
""fullscreenenter"",""1"",""2232""
","
","","","1148.5","","","18","10099","4754","h","elianto","#f73b6a7A"," "," ","1","0","[1998.8999999761581]","1","2","","","10099","70","3","3","lose","go","0"
"pit-trial","192","1274228","0.0-75.0","battery-v0.2","","""event"",""trial"",""time""
""fullscreenenter"",""1"",""2232""
","
","
","""event"",""trial"",""time""
""fullscreenenter"",""1"",""2232""
","
","","","-1","","","18","10099","4754","c","elianto","#3366ff99"," ","-1","0","+10","[]","0","2","","","10099","71","5","1","win","go","1"
"pit-trial","193","1279082","0.0-76.0","battery-v0.2","","""event"",""trial"",""time""
""fullscreenenter"",""1"",""2232""
","
","
","""event"",""trial"",""time""
""fullscreenenter"",""1"",""2232""
","
","","","-1","","","18","10099","4754","z","elianto","#3366ff99","-1","-1","1","+10","[]","0","2","","","10099","72","4","2","win","no-go","0"
"pit-trial","194","1283937","0.0-77.0","battery-v0.2","","""event"",""trial"",""time""
""fullscreenenter"",""1"",""2232""
","
","
","""event"",""trial"",""time""
""fullscreenenter"",""1"",""2232""
","
","","","-1","","","18","10099","4754","z","elianto","#3366ff99","-1","-1","1","+10","[]","0","2","","","10099","73","4","2","win","no-go","0"
"pit-trial","195","1287892","0.0-78.0","battery-v0.2","","""event"",""trial"",""time""
""fullscreenenter"",""1"",""2232""
","
","
","""event"",""trial"",""time""
""fullscreenenter"",""1"",""2232""
","
","","","1100.6000000238419","","","18","10099","4754","h","elianto","#f73b6a7A"," "," ","1","0","[1951.2999999523163]","1","2","","","10099","74","3","3","lose","go","0"
"pit-trial","196","1292747","0.0-79.0","battery-v0.2","","""event"",""trial"",""time""
""fullscreenenter"",""1"",""2232""
","
","
","""event"",""trial"",""time""
""fullscreenenter"",""1"",""2232""
","
","","","-1","","","18","10099","4754","c","elianto","#3366ff99"," ","-1","0","+10","[]","0","2","","","10099","75","5","1","win","go","1"
"pit-trial","197","1296672","0.0-80.0","battery-v0.2","","""event"",""trial"",""time""
""fullscreenenter"",""1"",""2232""
","
","
","""event"",""trial"",""time""
""fullscreenenter"",""1"",""2232""
","
","","","1068.0999999046326","","","18","10099","4754","r","elianto","#3366ff99"," "," ","1","+10","[1919.2999999523163]","1","2","","","10099","76","1","1","win","go","0"
"pit-trial","198","1300863","0.0-81.0","battery-v0.2","","""event"",""trial"",""time""
""fullscreenenter"",""1"",""2232""
","
","
","""event"",""trial"",""time""
""fullscreenenter"",""1"",""2232""
","
","","","1331.3999999761581","","","18","10099","4754","b","elianto","#f73b6a7A","-1"," ","0","-10","[2186.1999999284744]","1","2","","","10099","77","6","4","lose","no-go","0"
"pit-trial","199","1305717","0.0-82.0","battery-v0.2","","""event"",""trial"",""time""
""fullscreenenter"",""1"",""2232""
","
","
","""event"",""trial"",""time""
""fullscreenenter"",""1"",""2232""
","
","","","-1","","","18","10099","4754","z","elianto","#3366ff99","-1","-1","1","+10","[]","0","2","","","10099","78","4","2","win","no-go","0"
"pit-trial","200","1309634","0.0-83.0","battery-v0.2","","""event"",""trial"",""time""
""fullscreenenter"",""1"",""2232""
","
","
","""event"",""trial"",""time""
""fullscreenenter"",""1"",""2232""
","
","","","1062.7000000476837","","","18","10099","4754","h","elianto","#f73b6a7A"," "," ","1","0","[1912.6000000238419]","1","2","","","10099","79","3","3","lose","go","0"
"pit-trial","201","1314489","0.0-84.0","battery-v0.2","","""event"",""trial"",""time""
""fullscreenenter"",""1"",""2232""
","
","
","""event"",""trial"",""time""
""fullscreenenter"",""1"",""2232""
","
","","","-1","","","18","10099","4754","c","elianto","#3366ff99"," ","-1","0","+10","[]","0","2","","","10099","80","5","1","win","go","1"
"pit-trial","202","1319346","0.0-85.0","battery-v0.2","","""event"",""trial"",""time""
""fullscreenenter"",""1"",""2232""
","
","
","""event"",""trial"",""time""
""fullscreenenter"",""1"",""2232""
","
","","","-1","","","18","10099","4754","b","elianto","#f73b6a7A","-1","-1","1","0","[]","0","2","","","10099","81","6","4","lose","no-go","0"
"pit-trial","203","1324201","0.0-86.0","battery-v0.2","","""event"",""trial"",""time""
""fullscreenenter"",""1"",""2232""
","
","
","""event"",""trial"",""time""
""fullscreenenter"",""1"",""2232""
","
","","","-1","","","18","10099","4754","c","elianto","#3366ff99"," ","-1","0","0","[]","0","2","","","10099","82","5","1","win","go","0"
"pit-trial","204","1328626","0.0-87.0","battery-v0.2","","""event"",""trial"",""time""
""fullscreenenter"",""1"",""2232""
","
","
","""event"",""trial"",""time""
""fullscreenenter"",""1"",""2232""
","
","","","1568.2000000476837","","","18","10099","4754","t","elianto","#f73b6a7A"," "," ","1","0","[2419]","1","2","","","10099","83","7","3","lose","go","0"
"pit-trial","205","1333496","0.0-88.0","battery-v0.2","","""event"",""trial"",""time""
""fullscreenenter"",""1"",""2232""
","
","
","""event"",""trial"",""time""
""fullscreenenter"",""1"",""2232""
","
","","","-1","","","18","10099","4754","z","elianto","#3366ff99","-1","-1","1","+10","[]","0","2","","","10099","84","4","2","win","no-go","0"
"pit-trial","206","1338005","0.0-89.0","battery-v0.2","","""event"",""trial"",""time""
""fullscreenenter"",""1"",""2232""
","
","
","""event"",""trial"",""time""
""fullscreenenter"",""1"",""2232""
","
","","","1653.7000000476837","","","18","10099","4754","t","elianto","#f73b6a7A"," "," ","1","-10","[2504.399999976158]","1","2","","","10099","85","7","3","lose","go","1"
"pit-trial","207","1342861","0.0-90.0","battery-v0.2","","""event"",""trial"",""time""
""fullscreenenter"",""1"",""2232""
","
","
","""event"",""trial"",""time""
""fullscreenenter"",""1"",""2232""
","
","","","-1","","","18","10099","4754","z","elianto","#3366ff99","-1","-1","1","0","[]","0","2","","","10099","86","4","2","win","no-go","1"
"pit-trial","208","1347715","0.0-91.0","battery-v0.2","","""event"",""trial"",""time""
""fullscreenenter"",""1"",""2232""
","
","
","""event"",""trial"",""time""
""fullscreenenter"",""1"",""2232""
","
","","","-1","","","18","10099","4754","b","elianto","#f73b6a7A","-1","-1","1","0","[]","0","2","","","10099","87","6","4","lose","no-go","0"
"pit-trial","209","1352578","0.0-92.0","battery-v0.2","","""event"",""trial"",""time""
""fullscreenenter"",""1"",""2232""
","
","
","""event"",""trial"",""time""
""fullscreenenter"",""1"",""2232""
","
","","","-1","","","18","10099","4754","c","elianto","#3366ff99"," ","-1","0","0","[]","0","2","","","10099","88","5","1","win","go","0"
"pit-trial","210","1357433","0.0-93.0","battery-v0.2","","""event"",""trial"",""time""
""fullscreenenter"",""1"",""2232""
","
","
","""event"",""trial"",""time""
""fullscreenenter"",""1"",""2232""
","
","","","-1","","","18","10099","4754","c","elianto","#3366ff99"," ","-1","0","0","[3686.1999999284744]","1","2","","","10099","89","5","1","win","go","0"
"pit-trial","211","1362289","0.0-94.0","battery-v0.2","","""event"",""trial"",""time""
""fullscreenenter"",""1"",""2232""
","
","
","""event"",""trial"",""time""
""fullscreenenter"",""1"",""2232""
","
","","","-1","","","18","10099","4754","t","elianto","#f73b6a7A"," ","-1","0","-10","[]","0","2","","","10099","90","7","3","lose","go","0"
"pit-trial","212","1366093","0.0-95.0","battery-v0.2","","""event"",""trial"",""time""
""fullscreenenter"",""1"",""2232""
","
","
","""event"",""trial"",""time""
""fullscreenenter"",""1"",""2232""
","
","","","947.6999999284744","","","18","10099","4754","z","elianto","#3366ff99","-1"," ","0","+10","[1801]","1","2","","","10099","91","4","2","win","no-go","1"
"pit-trial","213","1370949","0.0-96.0","battery-v0.2","","""event"",""trial"",""time""
""fullscreenenter"",""1"",""2232""
","
","
","""event"",""trial"",""time""
""fullscreenenter"",""1"",""2232""
","
","","","-1","","","18","10099","4754","b","elianto","#f73b6a7A","-1","-1","1","0","[]","0","2","","","10099","92","6","4","lose","no-go","0"
"pit-trial","214","1374551","0.0-97.0","battery-v0.2","","""event"",""trial"",""time""
""fullscreenenter"",""1"",""2232""
","
","
","""event"",""trial"",""time""
""fullscreenenter"",""1"",""2232""
","
","","","747.1000000238419","","","18","10099","4754","c","elianto","#3366ff99"," "," ","1","+10","[1597.2999999523163]","1","2","","","10099","93","5","1","win","go","0"
"pit-trial","215","1379405","0.0-98.0","battery-v0.2","","""event"",""trial"",""time""
""fullscreenenter"",""1"",""2232""
","
","
","""event"",""trial"",""time""
""fullscreenenter"",""1"",""2232""
","
","","","-1","","","18","10099","4754","b","elianto","#f73b6a7A","-1","-1","1","0","[]","0","2","","","10099","94","6","4","lose","no-go","0"
"pit-trial","216","1384258","0.0-99.0","battery-v0.2","","""event"",""trial"",""time""
""fullscreenenter"",""1"",""2232""
","
","
","""event"",""trial"",""time""
""fullscreenenter"",""1"",""2232""
","
","","","-1","","","18","10099","4754","t","elianto","#f73b6a7A"," ","-1","0","-10","[]","0","2","","","10099","95","7","3","lose","go","0"
"pit-trial","217","1389112","0.0-100.0","battery-v0.2","","""event"",""trial"",""time""
""fullscreenenter"",""1"",""2232""
","
","
","""event"",""trial"",""time""
""fullscreenenter"",""1"",""2232""
","
","","","-1","","","18","10099","4754","f","elianto","#3366ff99","-1","-1","1","+10","[]","0","2","","","10099","96","8","2","win","no-go","0"
"pit-trial","218","1392747","0.0-101.0","battery-v0.2","","""event"",""trial"",""time""
""fullscreenenter"",""1"",""2232""
","
","
","""event"",""trial"",""time""
""fullscreenenter"",""1"",""2232""
","
","","","780","","","18","10099","4754","c","elianto","#3366ff99"," "," ","1","0","[1630.3999999761581]","1","2","","","10099","97","5","1","win","go","1"
"pit-trial","219","1397602","0.0-102.0","battery-v0.2","","""event"",""trial"",""time""
""fullscreenenter"",""1"",""2232""
","
","
","""event"",""trial"",""time""
""fullscreenenter"",""1"",""2232""
","
","","","-1","","","18","10099","4754","t","elianto","#f73b6a7A"," ","-1","0","0","[]","0","2","","","10099","98","7","3","lose","go","1"
"pit-trial","220","1402458","0.0-103.0","battery-v0.2","","""event"",""trial"",""time""
""fullscreenenter"",""1"",""2232""
","
","
","""event"",""trial"",""time""
""fullscreenenter"",""1"",""2232""
","
","","","-1","","","18","10099","4754","b","elianto","#f73b6a7A","-1","-1","1","0","[]","0","2","","","10099","99","6","4","lose","no-go","0"
"pit-trial","221","1407313","0.0-104.0","battery-v0.2","","""event"",""trial"",""time""
""fullscreenenter"",""1"",""2232""
","
","
","""event"",""trial"",""time""
""fullscreenenter"",""1"",""2232""
","
","","","-1","","","18","10099","4754","f","elianto","#3366ff99","-1","-1","1","+10","[]","0","2","","","10099","100","8","2","win","no-go","0"
"pit-trial","222","1412169","0.0-105.0","battery-v0.2","","""event"",""trial"",""time""
""fullscreenenter"",""1"",""2232""
","
","
","""event"",""trial"",""time""
""fullscreenenter"",""1"",""2232""
","
","","","-1","","","18","10099","4754","b","elianto","#f73b6a7A","-1","-1","1","0","[]","0","2","","","10099","101","6","4","lose","no-go","0"
"pit-trial","223","1417024","0.0-106.0","battery-v0.2","","""event"",""trial"",""time""
""fullscreenenter"",""1"",""2232""
","
","
","""event"",""trial"",""time""
""fullscreenenter"",""1"",""2232""
","
","","","-1","","","18","10099","4754","f","elianto","#3366ff99","-1","-1","1","+10","[]","0","2","","","10099","102","8","2","win","no-go","0"
"pit-trial","224","1421263","0.0-107.0","battery-v0.2","","""event"",""trial"",""time""
""fullscreenenter"",""1"",""2232""
","
","
","""event"",""trial"",""time""
""fullscreenenter"",""1"",""2232""
","
","","","1384","","","18","10099","4754","n","elianto","#3366ff99","-1"," ","0","0","[2234.7000000476837]","1","2","","","10099","103","9","2","win","no-go","0"
"pit-trial","225","1426118","0.0-108.0","battery-v0.2","","""event"",""trial"",""time""
""fullscreenenter"",""1"",""2232""
","
","
","""event"",""trial"",""time""
""fullscreenenter"",""1"",""2232""
","
","","","-1","","","18","10099","4754","c","elianto","#3366ff99"," ","-1","0","0","[]","0","2","","","10099","104","5","1","win","go","0"
"pit-trial","226","1430266","0.0-109.0","battery-v0.2","","""event"",""trial"",""time""
""fullscreenenter"",""1"",""2232""
","
","
","""event"",""trial"",""time""
""fullscreenenter"",""1"",""2232""
","
","","","1292.6000000238419","","","18","10099","4754","c","elianto","#3366ff99"," "," ","1","0","[2144.2000000476837]","1","2","","","10099","105","5","1","win","go","1"
"pit-trial","227","1434914","0.0-110.0","battery-v0.2","","""event"",""trial"",""time""
""fullscreenenter"",""1"",""2232""
","
","
","""event"",""trial"",""time""
""fullscreenenter"",""1"",""2232""
","
","","","1792.1999999284744","","","18","10099","4754","n","elianto","#3366ff99","-1"," ","0","0","[2643.899999976158]","1","2","","","10099","106","9","2","win","no-go","0"
"pit-trial","228","1439769","0.0-111.0","battery-v0.2","","""event"",""trial"",""time""
""fullscreenenter"",""1"",""2232""
","
","
","""event"",""trial"",""time""
""fullscreenenter"",""1"",""2232""
","
","","","-1","","","18","10099","4754","b","elianto","#f73b6a7A","-1","-1","1","0","[]","0","2","","","10099","107","6","4","lose","no-go","0"
"pit-trial","229","1444623","0.0-112.0","battery-v0.2","","""event"",""trial"",""time""
""fullscreenenter"",""1"",""2232""
","
","
","""event"",""trial"",""time""
""fullscreenenter"",""1"",""2232""
","
","","","-1","","","18","10099","4754","f","elianto","#3366ff99","-1","-1","1","0","[]","0","2","","","10099","108","8","2","win","no-go","1"
"pit-trial","230","1449478","0.0-113.0","battery-v0.2","","""event"",""trial"",""time""
""fullscreenenter"",""1"",""2232""
","
","
","""event"",""trial"",""time""
""fullscreenenter"",""1"",""2232""
","
","","","-1","","","18","10099","4754","f","elianto","#3366ff99","-1","-1","1","+10","[]","0","2","","","10099","109","8","2","win","no-go","0"
"pit-trial","231","1454332","0.0-114.0","battery-v0.2","","""event"",""trial"",""time""
""fullscreenenter"",""1"",""2232""
","
","
","""event"",""trial"",""time""
""fullscreenenter"",""1"",""2232""
","
","","","-1","","","18","10099","4754","b","elianto","#f73b6a7A","-1","-1","1","0","[]","0","2","","","10099","110","6","4","lose","no-go","0"
"pit-trial","232","1458387","0.0-115.0","battery-v0.2","","""event"",""trial"",""time""
""fullscreenenter"",""1"",""2232""
","
","
","""event"",""trial"",""time""
""fullscreenenter"",""1"",""2232""
","
","","","1198.9000000953674","","","18","10099","4754","c","elianto","#3366ff99"," "," ","1","+10","[2049.5]","1","2","","","10099","111","5","1","win","go","0"
"pit-trial","233","1463243","0.0-116.0","battery-v0.2","","""event"",""trial"",""time""
""fullscreenenter"",""1"",""2232""
","
","
","""event"",""trial"",""time""
""fullscreenenter"",""1"",""2232""
","
","","","-1","","","18","10099","4754","n","elianto","#3366ff99","-1","-1","1","+10","[]","0","2","","","10099","112","9","2","win","no-go","0"
"pit-trial","234","1468098","0.0-117.0","battery-v0.2","","""event"",""trial"",""time""
""fullscreenenter"",""1"",""2232""
","
","
","""event"",""trial"",""time""
""fullscreenenter"",""1"",""2232""
","
","","","-1","","","18","10099","4754","f","elianto","#3366ff99","-1","-1","1","+10","[]","0","2","","","10099","113","8","2","win","no-go","0"
"pit-trial","235","1471801","0.0-118.0","battery-v0.2","","""event"",""trial"",""time""
""fullscreenenter"",""1"",""2232""
","
","
","""event"",""trial"",""time""
""fullscreenenter"",""1"",""2232""
","
","","","847.5","","","18","10099","4754","n","elianto","#3366ff99","-1"," ","0","+10","[1698.1000000238419]","1","2","","","10099","114","9","2","win","no-go","1"
"pit-trial","236","1476248","0.0-119.0","battery-v0.2","","""event"",""trial"",""time""
""fullscreenenter"",""1"",""2232""
","
","
","""event"",""trial"",""time""
""fullscreenenter"",""1"",""2232""
","
","","","1592.5","","","18","10099","4754","c","elianto","#3366ff99"," "," ","1","+10","[2443.5999999046326]","1","2","","","10099","115","5","1","win","go","0"
"pit-trial","237","1481103","0.0-120.0","battery-v0.2","","""event"",""trial"",""time""
""fullscreenenter"",""1"",""2232""
","
","
","""event"",""trial"",""time""
""fullscreenenter"",""1"",""2232""
","
","","","-1","","","18","10099","4754","t","elianto","#f73b6a7A"," ","-1","0","-10","[]","0","2","","","10099","116","7","3","lose","go","0"
"pit-trial","238","1485959","0.0-121.0","battery-v0.2","","""event"",""trial"",""time""
""fullscreenenter"",""1"",""2232""
","
","
","""event"",""trial"",""time""
""fullscreenenter"",""1"",""2232""
","
","","","-1","","","18","10099","4754","f","elianto","#3366ff99","-1","-1","1","+10","[]","0","2","","","10099","117","8","2","win","no-go","0"
"pit-trial","239","1489574","0.0-122.0","battery-v0.2","","""event"",""trial"",""time""
""fullscreenenter"",""1"",""2232""
","
","
","""event"",""trial"",""time""
""fullscreenenter"",""1"",""2232""
","
","","","760.5","","","18","10099","4754","n","elianto","#3366ff99","-1"," ","0","0","[1610.3999999761581]","1","2","","","10099","118","9","2","win","no-go","0"
"pit-trial","240","1494430","0.0-123.0","battery-v0.2","","""event"",""trial"",""time""
""fullscreenenter"",""1"",""2232""
","
","
","""event"",""trial"",""time""
""fullscreenenter"",""1"",""2232""
","
","","","-1","","","18","10099","4754","b","elianto","#f73b6a7A","-1","-1","1","-10","[]","0","2","","","10099","119","6","4","lose","no-go","1"
"pit-trial","241","1498965","0.0-124.0","battery-v0.2","","""event"",""trial"",""time""
""fullscreenenter"",""1"",""2232""
","
","
","""event"",""trial"",""time""
""fullscreenenter"",""1"",""2232""
","
","","","1679.3000000715256","","","18","10099","4754","c","elianto","#3366ff99"," "," ","1","+10","[2530.5]","1","2","","","10099","120","5","1","win","go","0"
"pit-trial","242","1503819","0.0-125.0","battery-v0.2","","""event"",""trial"",""time""
""fullscreenenter"",""1"",""2232""
","
","
","""event"",""trial"",""time""
""fullscreenenter"",""1"",""2232""
","
","","","-1","","","18","10099","4754","t","elianto","#f73b6a7A"," ","-1","0","-10","[]","0","2","","","10099","121","7","3","lose","go","0"
"pit-trial","243","1508674","0.0-126.0","battery-v0.2","","""event"",""trial"",""time""
""fullscreenenter"",""1"",""2232""
","
","
","""event"",""trial"",""time""
""fullscreenenter"",""1"",""2232""
","
","","","-1","","","18","10099","4754","n","elianto","#3366ff99","-1","-1","1","+10","[]","0","2","","","10099","122","9","2","win","no-go","0"
"pit-trial","244","1512924","0.0-127.0","battery-v0.2","","""event"",""trial"",""time""
""fullscreenenter"",""1"",""2232""
","
","
","""event"",""trial"",""time""
""fullscreenenter"",""1"",""2232""
","
","","","1394.1999999284744","","","18","10099","4754","c","elianto","#3366ff99"," "," ","1","+10","[2245.7999999523163]","1","2","","","10099","123","5","1","win","go","0"
"pit-trial","245","1517778","0.0-128.0","battery-v0.2","","""event"",""trial"",""time""
""fullscreenenter"",""1"",""2232""
","
","
","""event"",""trial"",""time""
""fullscreenenter"",""1"",""2232""
","
","","","-1","","","18","10099","4754","f","elianto","#3366ff99","-1","-1","1","+10","[]","0","2","","","10099","124","8","2","win","no-go","0"
"pit-trial","246","1522632","0.0-129.0","battery-v0.2","","""event"",""trial"",""time""
""fullscreenenter"",""1"",""2232""
","
","
","""event"",""trial"",""time""
""fullscreenenter"",""1"",""2232""
","
","","","-1","","","18","10099","4754","b","elianto","#f73b6a7A","-1","-1","1","0","[]","0","2","","","10099","125","6","4","lose","no-go","0"
"pit-trial","247","1526558","0.0-130.0","battery-v0.2","","""event"",""trial"",""time""
""fullscreenenter"",""1"",""2232""
","
","
","""event"",""trial"",""time""
""fullscreenenter"",""1"",""2232""
","
","","","1072.5999999046326","","","18","10099","4754","t","elianto","#f73b6a7A"," "," ","1","0","[1922.6999999284744]","1","2","","","10099","126","7","3","lose","go","0"
"pit-trial","248","1531414","0.0-131.0","battery-v0.2","","""event"",""trial"",""time""
""fullscreenenter"",""1"",""2232""
","
","
","""event"",""trial"",""time""
""fullscreenenter"",""1"",""2232""
","
","","","-1","","","18","10099","4754","f","elianto","#3366ff99","-1","-1","1","+10","[]","0","2","","","10099","127","8","2","win","no-go","0"
"pit-trial","249","1535328","0.0-132.0","battery-v0.2","","""event"",""trial"",""time""
""fullscreenenter"",""1"",""2232""
","
","
","""event"",""trial"",""time""
""fullscreenenter"",""1"",""2232""
","
","","","1059","","","18","10099","4754","n","elianto","#3366ff99","-1"," ","0","0","[1909.6000000238419]","1","2","","","10099","128","9","2","win","no-go","0"
"pit-trial","250","1540185","0.0-133.0","battery-v0.2","","""event"",""trial"",""time""
""fullscreenenter"",""1"",""2232""
","
","
","""event"",""trial"",""time""
""fullscreenenter"",""1"",""2232""
","
","","","-1","","","18","10099","4754","f","elianto","#3366ff99","-1","-1","1","+10","[]","0","2","","","10099","129","8","2","win","no-go","0"
"pit-trial","251","1545038","0.0-134.0","battery-v0.2","","""event"",""trial"",""time""
""fullscreenenter"",""1"",""2232""
","
","
","""event"",""trial"",""time""
""fullscreenenter"",""1"",""2232""
","
","","","-1","","","18","10099","4754","b","elianto","#f73b6a7A","-1","-1","1","0","[]","0","2","","","10099","130","6","4","lose","no-go","0"
"pit-trial","252","1548821","0.0-135.0","battery-v0.2","","""event"",""trial"",""time""
""fullscreenenter"",""1"",""2232""
","
","
","""event"",""trial"",""time""
""fullscreenenter"",""1"",""2232""
","
","","","925.5999999046326","","","18","10099","4754","t","elianto","#f73b6a7A"," "," ","1","0","[1778.2999999523163]","1","2","","","10099","131","7","3","lose","go","0"
"pit-trial","253","1553676","0.0-136.0","battery-v0.2","","""event"",""trial"",""time""
""fullscreenenter"",""1"",""2232""
","
","
","""event"",""trial"",""time""
""fullscreenenter"",""1"",""2232""
","
","","","-1","","","18","10099","4754","n","elianto","#3366ff99","-1","-1","1","+10","[]","0","2","","","10099","132","9","2","win","no-go","0"
"pit-trial","254","1558530","0.0-137.0","battery-v0.2","","""event"",""trial"",""time""
""fullscreenenter"",""1"",""2232""
","
","
","""event"",""trial"",""time""
""fullscreenenter"",""1"",""2232""
","
","","","-1","","","18","10099","4754","f","elianto","#3366ff99","-1","-1","1","+10","[]","0","2","","","10099","133","8","2","win","no-go","0"
"pit-trial","255","1562480","0.0-138.0","battery-v0.2","","""event"",""trial"",""time""
""fullscreenenter"",""1"",""2232""
","
","
","""event"",""trial"",""time""
""fullscreenenter"",""1"",""2232""
","
","","","1092.8000000715256","","","18","10099","4754","t","elianto","#f73b6a7A"," "," ","1","0","[1944]","1","2","","","10099","134","7","3","lose","go","0"
"pit-trial","256","1567335","0.0-139.0","battery-v0.2","","""event"",""trial"",""time""
""fullscreenenter"",""1"",""2232""
","
","
","""event"",""trial"",""time""
""fullscreenenter"",""1"",""2232""
","
","","","-1","","","18","10099","4754","n","elianto","#3366ff99","-1","-1","1","+10","[]","0","2","","","10099","135","9","2","win","no-go","0"
"pit-trial","257","1572189","0.0-140.0","battery-v0.2","","""event"",""trial"",""time""
""fullscreenenter"",""1"",""2232""
","
","
","""event"",""trial"",""time""
""fullscreenenter"",""1"",""2232""
","
","","","-1","","","18","10099","4754","b","elianto","#f73b6a7A","-1","-1","1","0","[]","0","2","","","10099","136","6","4","lose","no-go","0"
"pit-trial","258","1576148","0.0-141.0","battery-v0.2","","""event"",""trial"",""time""
""fullscreenenter"",""1"",""2232""
","
","
","""event"",""trial"",""time""
""fullscreenenter"",""1"",""2232""
","
","","","1103.7000000476837","","","18","10099","4754","t","elianto","#f73b6a7A"," "," ","1","0","[1955.2999999523163]","1","2","","","10099","137","7","3","lose","go","0"
"pit-trial","259","1581003","0.0-142.0","battery-v0.2","","""event"",""trial"",""time""
""fullscreenenter"",""1"",""2232""
","
","
","""event"",""trial"",""time""
""fullscreenenter"",""1"",""2232""
","
","","","-1","","","18","10099","4754","b","elianto","#f73b6a7A","-1","-1","1","0","[]","0","2","","","10099","138","6","4","lose","no-go","0"
"pit-trial","260","1585858","0.0-143.0","battery-v0.2","","""event"",""trial"",""time""
""fullscreenenter"",""1"",""2232""
","
","
","""event"",""trial"",""time""
""fullscreenenter"",""1"",""2232""
","
","","","-1","","","18","10099","4754","f","elianto","#3366ff99","-1","-1","1","+10","[]","0","2","","","10099","139","8","2","win","no-go","0"
"pit-trial","261","1590713","0.0-144.0","battery-v0.2","","""event"",""trial"",""time""
""fullscreenenter"",""1"",""2232""
","
","
","""event"",""trial"",""time""
""fullscreenenter"",""1"",""2232""
","
","","","-1","","","18","10099","4754","n","elianto","#3366ff99","-1","-1","1","+10","[]","0","2","","","10099","140","9","2","win","no-go","0"
"pit-instructions","262","1612257","0.0-145.0","battery-v0.2","","""event"",""trial"",""time""
""fullscreenenter"",""1"",""2232""
","
","
","""event"",""trial"",""time""
""fullscreenenter"",""1"",""2232""
","
","","[{""page_index"":0,""viewing_time"":12890.200000047684},{""page_index"":1,""viewing_time"":8649.899999976158}]","21541.100000023842","","","","","","","","","","","","","","","","","","","","","","","",""
"pit-trial","263","1617122","0.0-146.0","battery-v0.2","","""event"",""trial"",""time""
""fullscreenenter"",""1"",""2232""
","
","
","""event"",""trial"",""time""
""fullscreenenter"",""1"",""2232""
","
","","","-1","","","18","10099","4754","g","elianto","#f73b6a7A","-1","-1","1","0","[]","0","3","","","10099","141","3","4","lose","no-go","0"
"pit-trial","264","1621649","0.0-147.0","battery-v0.2","","""event"",""trial"",""time""
""fullscreenenter"",""1"",""2232""
","
","
","""event"",""trial"",""time""
""fullscreenenter"",""1"",""2232""
","
","","","1658.8999999761581","","","18","10099","4754","a","elianto","#f73b6a7A"," "," ","1","0","[2510.2000000476837]","1","3","","","10099","142","2","3","lose","go","0"
"pit-trial","265","1626519","0.0-148.0","battery-v0.2","","""event"",""trial"",""time""
""fullscreenenter"",""1"",""2232""
","
","
","""event"",""trial"",""time""
""fullscreenenter"",""1"",""2232""
","
","","","-1","","","18","10099","4754","l","elianto","#3366ff99","-1","-1","1","+10","[]","0","3","","","10099","143","1","2","win","no-go","0"
"pit-trial","266","1631390","0.0-149.0","battery-v0.2","","""event"",""trial"",""time""
""fullscreenenter"",""1"",""2232""
","
","
","""event"",""trial"",""time""
""fullscreenenter"",""1"",""2232""
","
","","","-1","","","18","10099","4754","u","elianto","#f73b6a7A"," ","-1","0","-10","[]","0","3","","","10099","144","0","3","lose","go","0"
"pit-trial","267","1635242","0.0-150.0","battery-v0.2","","""event"",""trial"",""time""
""fullscreenenter"",""1"",""2232""
","
","
","""event"",""trial"",""time""
""fullscreenenter"",""1"",""2232""
","
","","","989.5","","","18","10099","4754","u","elianto","#f73b6a7A"," "," ","1","0","[1845.3000000715256]","1","3","","","10099","145","0","3","lose","go","0"
