"trial_type","trial_index","time_elapsed","internal_node_id","task_version","subject_id","interactions","blur_events","focus_events","fullscreenenter_events","fullscreenexit_events","success","view_history","rt","responses","num_errors","age","subject","participantId","rune","rune_set","hex","correct","choice","accuracy","outcome","keys","total_keys","block","practice","value","sub","trial","stimulus","robot","valence","action","sham"
"pavlovia","0","10","0.0-0.0","battery-v0.2","","""event"",""trial"",""time""
""fullscreenenter"",""1"",""8134""
","
","
","""event"",""trial"",""time""
""fullscreenenter"",""1"",""8134""
","
","","","","","","","","","","","","","","","","","","","","","","","","","","",""
"fullscreen","1","9111","0.0-1.0","battery-v0.2","","""event"",""trial"",""time""
""fullscreenenter"",""1"",""8134""
","
","
","""event"",""trial"",""time""
""fullscreenenter"",""1"",""8134""
","
","true","","","","","","","","","","","","","","","","","","","","","","","","","",""
"pit-instructions","2","14356","0.0-2.0-0.0","battery-v0.2","","""event"",""trial"",""time""
""fullscreenenter"",""1"",""8134""
","
","
","""event"",""trial"",""time""
""fullscreenenter"",""1"",""8134""
","
","","[{""page_index"":0,""viewing_time"":5241.400000035763}]","5241.600000023842","","","","","","","","","","","","","","","","","","","","","","","",""
"pit-comprehension","3","16397","0.0-2.0-1.0-0.0","battery-v0.2","","""event"",""trial"",""time""
""fullscreenenter"",""1"",""8134""
","
","
","""event"",""trial"",""time""
""fullscreenenter"",""1"",""8134""
","
","","","2036.9000000357628","[""shark""]","0","24","14660","135","","","","","","","","","","","","","","","","","","",""
"pit-instructions","4","18831","0.0-2.0-1.0-1.0","battery-v0.2","","""event"",""trial"",""time""
""fullscreenenter"",""1"",""8134""
","
","
","""event"",""trial"",""time""
""fullscreenenter"",""1"",""8134""
","
","","[{""page_index"":0,""viewing_time"":2419.399999976158}]","2419.699999988079","","","","","","","","","","","","","","","","","","","","","","","",""
"pit-comprehension","5","20369","0.0-2.0-2.0-0.0","battery-v0.2","","""event"",""trial"",""time""
""fullscreenenter"",""1"",""8134""
","
","
","""event"",""trial"",""time""
""fullscreenenter"",""1"",""8134""
","
","","","1534.300000011921","[""tiger""]","0","24","14660","135","","","","","","","","","","","","","","","","","","",""
"pit-instructions","6","21091","0.0-2.0-2.0-1.0","battery-v0.2","","""event"",""trial"",""time""
""fullscreenenter"",""1"",""8134""
","
","
","""event"",""trial"",""time""
""fullscreenenter"",""1"",""8134""
","
","","[{""page_index"":0,""viewing_time"":719}]","719.3000000119209","","","","","","","","","","","","","","","","","","","","","","","",""
"pit-instructions","7","118856","0.0-2.0-3.0","battery-v0.2","","""event"",""trial"",""time""
""fullscreenenter"",""1"",""8134""
","
","
","""event"",""trial"",""time""
""fullscreenenter"",""1"",""8134""
","
","","[{""page_index"":0,""viewing_time"":7839.899999976158},{""page_index"":1,""viewing_time"":5444.199999988079},{""page_index"":2,""viewing_time"":6085.900000035763},{""page_index"":3,""viewing_time"":5029.5},{""page_index"":4,""viewing_time"":5199.800000011921},{""page_index"":5,""viewing_time"":5170.299999952316},{""page_index"":6,""viewing_time"":6352.200000047684},{""page_index"":7,""viewing_time"":11543.599999964237},{""page_index"":8,""viewing_time"":6817.600000023842},{""page_index"":9,""viewing_time"":10388.899999976158},{""page_index"":10,""viewing_time"":7279.400000035763},{""page_index"":11,""viewing_time"":9380.199999988079},{""page_index"":12,""viewing_time"":6175.599999964237},{""page_index"":13,""viewing_time"":5054.200000047684}]","97762.30000001192","","","","","","","","","","","","","","","","","","","","","","","",""
"pit-trial","8","122335","0.0-2.0-4.0-0.0","battery-v0.2","","""event"",""trial"",""time""
""fullscreenenter"",""1"",""8134""
","
","
","""event"",""trial"",""time""
""fullscreenenter"",""1"",""8134""
","
","","","611","","","24","14660","135","&#9784;","elianto","#FFFFF080"," "," ","1","&#10004","[1461.5]","1","0","0","","","","","","","",""
"pit-trial","9","125690","0.0-2.0-4.1-0.1","battery-v0.2","","""event"",""trial"",""time""
""fullscreenenter"",""1"",""8134""
","
","
","""event"",""trial"",""time""
""fullscreenenter"",""1"",""8134""
","
","","","492.60000002384186","","","24","14660","135","&#9784;","elianto","#FFFFF080"," "," ","1","&#10004","[1345.5999999642372]","1","0","0","","","","","","","",""
"pit-trial","10","128917","0.0-2.0-4.2-0.2","battery-v0.2","","""event"",""trial"",""time""
""fullscreenenter"",""1"",""8134""
","
","
","""event"",""trial"",""time""
""fullscreenenter"",""1"",""8134""
","
","","","366.39999997615814","","","24","14660","135","&#9784;","elianto","#FFFFF080"," "," ","1","&#10004","[1218.7000000476837]","1","0","0","","","","","","","",""
"pit-trial","11","132195","0.0-2.0-4.3-0.3","battery-v0.2","","""event"",""trial"",""time""
""fullscreenenter"",""1"",""8134""
","
","
","""event"",""trial"",""time""
""fullscreenenter"",""1"",""8134""
","
","","","407.19999998807907","","","24","14660","135","&#9784;","elianto","#FFFFF080"," "," ","1","&#10004","[1258.5]","1","0","0","","","","","","","",""
"pit-trial","12","135456","0.0-2.0-4.4-0.4","battery-v0.2","","""event"",""trial"",""time""
""fullscreenenter"",""1"",""8134""
","
","
","""event"",""trial"",""time""
""fullscreenenter"",""1"",""8134""
","
","","","399.5","","","24","14660","135","&#9784;","elianto","#FFFFF080"," "," ","1","&#10004","[1253.1000000238419]","1","0","0","","","","","","","",""
"pit-instructions","13","155656","0.0-2.0-5.0","battery-v0.2","","""event"",""trial"",""time""
""fullscreenenter"",""1"",""8134""
","
","
","""event"",""trial"",""time""
""fullscreenenter"",""1"",""8134""
","
","","[{""page_index"":0,""viewing_time"":5171.799999952316},{""page_index"":1,""viewing_time"":5226.400000035763},{""page_index"":2,""viewing_time"":4268.300000011921},{""page_index"":3,""viewing_time"":5525.899999976158}]","20193","","","","","","","","","","","","","","","","","","","","","","","",""
"pit-trial","14","160523","0.0-2.0-6.0-0.0","battery-v0.2","","""event"",""trial"",""time""
""fullscreenenter"",""1"",""8134""
","
","
","""event"",""trial"",""time""
""fullscreenenter"",""1"",""8134""
","
","","","-1","","","24","14660","135","&#9854;","elianto","#FFFFF080","-1","-1","1","&#10004","[]","0","0","1","","","","","","","",""
"pit-trial","15","165396","0.0-2.0-6.1-0.1","battery-v0.2","","""event"",""trial"",""time""
""fullscreenenter"",""1"",""8134""
","
","
","""event"",""trial"",""time""
""fullscreenenter"",""1"",""8134""
","
","","","-1","","","24","14660","135","&#9854;","elianto","#FFFFF080","-1","-1","1","&#10004","[]","0","0","1","","","","","","","",""
"pit-trial","16","170272","0.0-2.0-6.2-0.2","battery-v0.2","","""event"",""trial"",""time""
""fullscreenenter"",""1"",""8134""
","
","
","""event"",""trial"",""time""
""fullscreenenter"",""1"",""8134""
","
","","","-1","","","24","14660","135","&#9854;","elianto","#FFFFF080","-1","-1","1","&#10004","[]","0","0","1","","","","","","","",""
"pit-trial","17","175143","0.0-2.0-6.3-0.3","battery-v0.2","","""event"",""trial"",""time""
""fullscreenenter"",""1"",""8134""
","
","
","""event"",""trial"",""time""
""fullscreenenter"",""1"",""8134""
","
","","","-1","","","24","14660","135","&#9854;","elianto","#FFFFF080","-1","-1","1","&#10004","[]","0","0","1","","","","","","","",""
"pit-trial","18","180022","0.0-2.0-6.4-0.4","battery-v0.2","","""event"",""trial"",""time""
""fullscreenenter"",""1"",""8134""
","
","
","""event"",""trial"",""time""
""fullscreenenter"",""1"",""8134""
","
","","","-1","","","24","14660","135","&#9854;","elianto","#FFFFF080","-1","-1","1","&#10004","[]","0","0","1","","","","","","","",""
"pit-instructions","19","296172","0.0-2.0-7.0","battery-v0.2","","""event"",""trial"",""time""
""fullscreenenter"",""1"",""8134""
","
","
","""event"",""trial"",""time""
""fullscreenenter"",""1"",""8134""
","
","","[{""page_index"":0,""viewing_time"":5984.600000023842},{""page_index"":1,""viewing_time"":6476.699999988079},{""page_index"":2,""viewing_time"":5603.699999988079},{""page_index"":3,""viewing_time"":5849.900000035763},{""page_index"":4,""viewing_time"":5007.199999988079},{""page_index"":5,""viewing_time"":5476.699999988079},{""page_index"":6,""viewing_time"":4552.400000035763},{""page_index"":7,""viewing_time"":7459.799999952316},{""page_index"":8,""viewing_time"":6294},{""page_index"":9,""viewing_time"":5835.800000011921},{""page_index"":10,""viewing_time"":13513.900000035763},{""page_index"":11,""viewing_time"":4182.299999952316},{""page_index"":12,""viewing_time"":6744.200000047684},{""page_index"":13,""viewing_time"":6873.399999976158},{""page_index"":14,""viewing_time"":6900.399999976158},{""page_index"":15,""viewing_time"":6192},{""page_index"":16,""viewing_time"":6213.900000035763},{""page_index"":17,""viewing_time"":6984.099999964237}]","116145.60000002384","","","","","","","","","","","","","","","","","","","","","","","",""
"pit-trial","20","299537","0.0-2.0-8.0-0.0","battery-v0.2","","""event"",""trial"",""time""
""fullscreenenter"",""1"",""8134""
","
","
","""event"",""trial"",""time""
""fullscreenenter"",""1"",""8134""
","
","","","490.0999999642372","","","24","14660","135","&#9776;","elianto","#3366ff99"," "," ","1","+10","[1351.7000000476837]","1","0","1","","","","","","","",""
"pit-trial","21","302969","0.0-2.0-8.0-1.0","battery-v0.2","","""event"",""trial"",""time""
""fullscreenenter"",""1"",""8134""
","
","
","""event"",""trial"",""time""
""fullscreenenter"",""1"",""8134""
","
","","","562.8000000119209","","","24","14660","135","&#9776;","elianto","#3366ff99"," "," ","1","+10","[1415.800000011921]","1","0","1","","","","","","","",""
"pit-trial","22","306250","0.0-2.0-8.0-2.0","battery-v0.2","","""event"",""trial"",""time""
""fullscreenenter"",""1"",""8134""
","
","
","""event"",""trial"",""time""
""fullscreenenter"",""1"",""8134""
","
","","","420.5","","","24","14660","135","&#9776;","elianto","#3366ff99"," "," ","1","+10","[1274.199999988079]","1","0","1","","","","","","","",""
"pit-trial","23","309454","0.0-2.0-8.0-3.0","battery-v0.2","","""event"",""trial"",""time""
""fullscreenenter"",""1"",""8134""
","
","
","""event"",""trial"",""time""
""fullscreenenter"",""1"",""8134""
","
","","","339.69999998807907","","","24","14660","135","&#9776;","elianto","#3366ff99"," "," ","1","0","[1191.3999999761581]","1","0","1","","","","","","","",""
"pit-trial","24","312624","0.0-2.0-8.0-4.0","battery-v0.2","","""event"",""trial"",""time""
""fullscreenenter"",""1"",""8134""
","
","
","""event"",""trial"",""time""
""fullscreenenter"",""1"",""8134""
","
","","","309.10000002384186","","","24","14660","135","&#9776;","elianto","#3366ff99"," "," ","1","+10","[1164.300000011921]","1","0","1","","","","","","","",""
"pit-trial","25","315852","0.0-2.0-8.1-0.1","battery-v0.2","","""event"",""trial"",""time""
""fullscreenenter"",""1"",""8134""
","
","
","""event"",""trial"",""time""
""fullscreenenter"",""1"",""8134""
","
","","","367.19999998807907","","","24","14660","135","&#9776;","elianto","#3366ff99"," "," ","1","+10","[1217.199999988079]","1","0","1","","","","","","","",""
"pit-trial","26","319078","0.0-2.0-8.1-1.1","battery-v0.2","","""event"",""trial"",""time""
""fullscreenenter"",""1"",""8134""
","
","
","""event"",""trial"",""time""
""fullscreenenter"",""1"",""8134""
","
","","","360.10000002384186","","","24","14660","135","&#9776;","elianto","#3366ff99"," "," ","1","+10","[1214.199999988079]","1","0","1","","","","","","","",""
"pit-trial","27","322391","0.0-2.0-8.1-2.1","battery-v0.2","","""event"",""trial"",""time""
""fullscreenenter"",""1"",""8134""
","
","
","""event"",""trial"",""time""
""fullscreenenter"",""1"",""8134""
","
","","","451.9000000357628","","","24","14660","135","&#9776;","elianto","#3366ff99"," "," ","1","+10","[1305.800000011921]","1","0","1","","","","","","","",""
"pit-trial","28","325622","0.0-2.0-8.1-3.1","battery-v0.2","","""event"",""trial"",""time""
""fullscreenenter"",""1"",""8134""
","
","
","""event"",""trial"",""time""
""fullscreenenter"",""1"",""8134""
","
","","","369.19999998807907","","","24","14660","135","&#9776;","elianto","#3366ff99"," "," ","1","0","[1221.300000011921]","1","0","1","","","","","","","",""
"pit-trial","29","328819","0.0-2.0-8.1-4.1","battery-v0.2","","""event"",""trial"",""time""
""fullscreenenter"",""1"",""8134""
","
","
","""event"",""trial"",""time""
""fullscreenenter"",""1"",""8134""
","
","","","340.19999998807907","","","24","14660","135","&#9776;","elianto","#3366ff99"," "," ","1","+10","[1190.3999999761581]","1","0","1","","","","","","","",""
"pit-trial","30","332039","0.0-2.0-8.2-0.2","battery-v0.2","","""event"",""trial"",""time""
""fullscreenenter"",""1"",""8134""
","
","
","""event"",""trial"",""time""
""fullscreenenter"",""1"",""8134""
","
","","","362.5","","","24","14660","135","&#9776;","elianto","#3366ff99"," "," ","1","+10","[1212.8999999761581]","1","0","1","","","","","","","",""
"pit-trial","31","335284","0.0-2.0-8.2-1.2","battery-v0.2","","""event"",""trial"",""time""
""fullscreenenter"",""1"",""8134""
","
","
","""event"",""trial"",""time""
""fullscreenenter"",""1"",""8134""
","
","","","389.30000001192093","","","24","14660","135","&#9776;","elianto","#3366ff99"," "," ","1","+10","[1240.6000000238419]","1","0","1","","","","","","","",""
"pit-trial","32","338472","0.0-2.0-8.2-2.2","battery-v0.2","","""event"",""trial"",""time""
""fullscreenenter"",""1"",""8134""
","
","
","""event"",""trial"",""time""
""fullscreenenter"",""1"",""8134""
","
","","","333.19999998807907","","","24","14660","135","&#9776;","elianto","#3366ff99"," "," ","1","+10","[1184]","1","0","1","","","","","","","",""
"pit-trial","33","343329","0.0-2.0-8.2-3.2","battery-v0.2","","""event"",""trial"",""time""
""fullscreenenter"",""1"",""8134""
","
","
","""event"",""trial"",""time""
""fullscreenenter"",""1"",""8134""
","
","","","-1","","","24","14660","135","&#9776;","elianto","#3366ff99"," ","-1","0","+10","[]","0","0","1","","","","","","","",""
"pit-trial","34","346612","0.0-2.0-8.2-4.2","battery-v0.2","","""event"",""trial"",""time""
""fullscreenenter"",""1"",""8134""
","
","
","""event"",""trial"",""time""
""fullscreenenter"",""1"",""8134""
","
","","","427.80000001192093","","","24","14660","135","&#9776;","elianto","#3366ff99"," "," ","1","+10","[1278.2000000476837]","1","0","1","","","","","","","",""
"call-function","35","346616","0.0-2.0-9.0","battery-v0.2","","""event"",""trial"",""time""
""fullscreenenter"",""1"",""8134""
","
","
","""event"",""trial"",""time""
""fullscreenenter"",""1"",""8134""
","
","","","","","","","","","","","","","","","","","","","","","","","","","","",""
"pit-instructions","36","387218","0.0-2.0-10.0","battery-v0.2","","""event"",""trial"",""time""
""fullscreenenter"",""1"",""8134""
","
","
","""event"",""trial"",""time""
""fullscreenenter"",""1"",""8134""
","
","","[{""page_index"":0,""viewing_time"":5849.100000023842},{""page_index"":1,""viewing_time"":6857.699999988079},{""page_index"":2,""viewing_time"":9628.5},{""page_index"":3,""viewing_time"":10732.300000011921},{""page_index"":4,""viewing_time"":7533.300000011921}]","40602","","","","","","","","","","","","","","","","","","","","","","","",""
"pit-trial","37","390560","0.0-2.0-11.0-0.0","battery-v0.2","","""event"",""trial"",""time""
""fullscreenenter"",""1"",""8134""
","
","
","""event"",""trial"",""time""
""fullscreenenter"",""1"",""8134""
","
","","","473.5","","","24","14660","135","&#9761;","elianto","#3366ff99","-1"," ","0","0","[1324]","1","0","2","","","","","","","",""
"pit-trial","38","395438","0.0-2.0-11.0-1.0","battery-v0.2","","""event"",""trial"",""time""
""fullscreenenter"",""1"",""8134""
","
","
","""event"",""trial"",""time""
""fullscreenenter"",""1"",""8134""
","
","","","-1","","","24","14660","135","&#9761;","elianto","#3366ff99","-1","-1","1","+10","[]","0","0","2","","","","","","","",""
"pit-trial","39","400313","0.0-2.0-11.0-2.0","battery-v0.2","","""event"",""trial"",""time""
""fullscreenenter"",""1"",""8134""
","
","
","""event"",""trial"",""time""
""fullscreenenter"",""1"",""8134""
","
","","","-1","","","24","14660","135","&#9761;","elianto","#3366ff99","-1","-1","1","+10","[]","0","0","2","","","","","","","",""
"pit-trial","40","405182","0.0-2.0-11.0-3.0","battery-v0.2","","""event"",""trial"",""time""
""fullscreenenter"",""1"",""8134""
","
","
","""event"",""trial"",""time""
""fullscreenenter"",""1"",""8134""
","
","","","-1","","","24","14660","135","&#9761;","elianto","#3366ff99","-1","-1","1","0","[]","0","0","2","","","","","","","",""
"pit-trial","41","410056","0.0-2.0-11.0-4.0","battery-v0.2","","""event"",""trial"",""time""
""fullscreenenter"",""1"",""8134""
","
","
","""event"",""trial"",""time""
""fullscreenenter"",""1"",""8134""
","
","","","-1","","","24","14660","135","&#9761;","elianto","#3366ff99","-1","-1","1","+10","[]","0","0","2","","","","","","","",""
"pit-trial","42","414928","0.0-2.0-11.1-0.1","battery-v0.2","","""event"",""trial"",""time""
""fullscreenenter"",""1"",""8134""
","
","
","""event"",""trial"",""time""
""fullscreenenter"",""1"",""8134""
","
","","","-1","","","24","14660","135","&#9761;","elianto","#3366ff99","-1","-1","1","+10","[]","0","0","2","","","","","","","",""
"pit-trial","43","419784","0.0-2.0-11.1-1.1","battery-v0.2","","""event"",""trial"",""time""
""fullscreenenter"",""1"",""8134""
","
","
","""event"",""trial"",""time""
""fullscreenenter"",""1"",""8134""
","
","","","-1","","","24","14660","135","&#9761;","elianto","#3366ff99","-1","-1","1","+10","[]","0","0","2","","","","","","","",""
"pit-trial","44","424640","0.0-2.0-11.1-2.1","battery-v0.2","","""event"",""trial"",""time""
""fullscreenenter"",""1"",""8134""
","
","
","""event"",""trial"",""time""
""fullscreenenter"",""1"",""8134""
","
","","","-1","","","24","14660","135","&#9761;","elianto","#3366ff99","-1","-1","1","+10","[]","0","0","2","","","","","","","",""
"pit-trial","45","428043","0.0-2.0-11.1-3.1","battery-v0.2","","""event"",""trial"",""time""
""fullscreenenter"",""1"",""8134""
","
","
","""event"",""trial"",""time""
""fullscreenenter"",""1"",""8134""
","
","","","545.7999999523163","","","24","14660","135","&#9761;","elianto","#3366ff99","-1"," ","0","+10","[1400.199999988079]","1","0","2","","","","","","","",""
"pit-trial","46","432898","0.0-2.0-11.1-4.1","battery-v0.2","","""event"",""trial"",""time""
""fullscreenenter"",""1"",""8134""
","
","
","""event"",""trial"",""time""
""fullscreenenter"",""1"",""8134""
","
","","","-1","","","24","14660","135","&#9761;","elianto","#3366ff99","-1","-1","1","+10","[]","0","0","2","","","","","","","",""
"pit-trial","47","437753","0.0-2.0-11.2-0.2","battery-v0.2","","""event"",""trial"",""time""
""fullscreenenter"",""1"",""8134""
","
","
","""event"",""trial"",""time""
""fullscreenenter"",""1"",""8134""
","
","","","-1","","","24","14660","135","&#9761;","elianto","#3366ff99","-1","-1","1","+10","[]","0","0","2","","","","","","","",""
"pit-trial","48","442609","0.0-2.0-11.2-1.2","battery-v0.2","","""event"",""trial"",""time""
""fullscreenenter"",""1"",""8134""
","
","
","""event"",""trial"",""time""
""fullscreenenter"",""1"",""8134""
","
","","","-1","","","24","14660","135","&#9761;","elianto","#3366ff99","-1","-1","1","+10","[]","0","0","2","","","","","","","",""
"pit-trial","49","446022","0.0-2.0-11.2-2.2","battery-v0.2","","""event"",""trial"",""time""
""fullscreenenter"",""1"",""8134""
","
","
","""event"",""trial"",""time""
""fullscreenenter"",""1"",""8134""
","
","","","557.5","","","24","14660","135","&#9761;","elianto","#3366ff99","-1"," ","0","0","[1408.9000000357628]","1","0","2","","","","","","","",""
"pit-trial","50","450879","0.0-2.0-11.2-3.2","battery-v0.2","","""event"",""trial"",""time""
""fullscreenenter"",""1"",""8134""
","
","
","""event"",""trial"",""time""
""fullscreenenter"",""1"",""8134""
","
","","","-1","","","24","14660","135","&#9761;","elianto","#3366ff99","-1","-1","1","0","[]","0","0","2","","","","","","","",""
"pit-trial","51","455734","0.0-2.0-11.2-4.2","battery-v0.2","","""event"",""trial"",""time""
""fullscreenenter"",""1"",""8134""
","
","
","""event"",""trial"",""time""
""fullscreenenter"",""1"",""8134""
","
","","","-1","","","24","14660","135","&#9761;","elianto","#3366ff99","-1","-1","1","+10","[]","0","0","2","","","","","","","",""
"pit-trial","52","460593","0.0-2.0-11.3-0.3","battery-v0.2","","""event"",""trial"",""time""
""fullscreenenter"",""1"",""8134""
","
","
","""event"",""trial"",""time""
""fullscreenenter"",""1"",""8134""
","
","","","-1","","","24","14660","135","&#9761;","elianto","#3366ff99","-1","-1","1","+10","[]","0","0","2","","","","","","","",""
"pit-trial","53","465450","0.0-2.0-11.3-1.3","battery-v0.2","","""event"",""trial"",""time""
""fullscreenenter"",""1"",""8134""
","
","
","""event"",""trial"",""time""
""fullscreenenter"",""1"",""8134""
","
","","","-1","","","24","14660","135","&#9761;","elianto","#3366ff99","-1","-1","1","+10","[]","0","0","2","","","","","","","",""
"pit-trial","54","470307","0.0-2.0-11.3-2.3","battery-v0.2","","""event"",""trial"",""time""
""fullscreenenter"",""1"",""8134""
","
","
","""event"",""trial"",""time""
""fullscreenenter"",""1"",""8134""
","
","","","-1","","","24","14660","135","&#9761;","elianto","#3366ff99","-1","-1","1","+10","[]","0","0","2","","","","","","","",""
"pit-trial","55","473857","0.0-2.0-11.3-3.3","battery-v0.2","","""event"",""trial"",""time""
""fullscreenenter"",""1"",""8134""
","
","
","""event"",""trial"",""time""
""fullscreenenter"",""1"",""8134""
","
","","","695.3000000119209","","","24","14660","135","&#9761;","elianto","#3366ff99","-1"," ","0","+10","[1546.7000000476837]","1","0","2","","","","","","","",""
"pit-trial","56","478714","0.0-2.0-11.3-4.3","battery-v0.2","","""event"",""trial"",""time""
""fullscreenenter"",""1"",""8134""
","
","
","""event"",""trial"",""time""
""fullscreenenter"",""1"",""8134""
","
","","","-1","","","24","14660","135","&#9761;","elianto","#3366ff99","-1","-1","1","+10","[]","0","0","2","","","","","","","",""
"call-function","57","478715","0.0-2.0-12.0","battery-v0.2","","""event"",""trial"",""time""
""fullscreenenter"",""1"",""8134""
","
","
","""event"",""trial"",""time""
""fullscreenenter"",""1"",""8134""
","
","","","","","","","","","","","","","","","","","","","","","","","","","","",""
"pit-instructions","58","556889","0.0-2.0-13.0","battery-v0.2","","""event"",""trial"",""time""
""fullscreenenter"",""1"",""8134""
","
","
","""event"",""trial"",""time""
""fullscreenenter"",""1"",""8134""
","
","","[{""page_index"":0,""viewing_time"":6376.299999952316},{""page_index"":1,""viewing_time"":6813.600000023842},{""page_index"":2,""viewing_time"":3242},{""page_index"":3,""viewing_time"":57072.80000001192},{""page_index"":4,""viewing_time"":4668.699999988079}]","78174.29999995232","","","","","","","","","","","","","","","","","","","","","","","",""
"pit-trial","59","560157","0.0-2.0-14.0-0.0","battery-v0.2","","""event"",""trial"",""time""
""fullscreenenter"",""1"",""8134""
","
","
","""event"",""trial"",""time""
""fullscreenenter"",""1"",""8134""
","
","","","397.2999999523163","","","24","14660","135","&#9826;","elianto","#f73b6a7A","-1"," ","0","-10","[1256.3999999761581]","1","0","3","","","","","","","",""
"pit-trial","60","565025","0.0-2.0-14.0-1.0","battery-v0.2","","""event"",""trial"",""time""
""fullscreenenter"",""1"",""8134""
","
","
","""event"",""trial"",""time""
""fullscreenenter"",""1"",""8134""
","
","","","-1","","","24","14660","135","&#9826;","elianto","#f73b6a7A","-1","-1","1","0","[]","0","0","3","","","","","","","",""
"pit-trial","61","569895","0.0-2.0-14.0-2.0","battery-v0.2","","""event"",""trial"",""time""
""fullscreenenter"",""1"",""8134""
","
","
","""event"",""trial"",""time""
""fullscreenenter"",""1"",""8134""
","
","","","-1","","","24","14660","135","&#9826;","elianto","#f73b6a7A","-1","-1","1","0","[]","0","0","3","","","","","","","",""
"pit-trial","62","573248","0.0-2.0-14.0-3.0","battery-v0.2","","""event"",""trial"",""time""
""fullscreenenter"",""1"",""8134""
","
","
","""event"",""trial"",""time""
""fullscreenenter"",""1"",""8134""
","
","","","492.80000001192093","","","24","14660","135","&#9826;","elianto","#f73b6a7A","-1"," ","0","0","[1343.5999999642372]","1","0","3","","","","","","","",""
"pit-trial","63","578123","0.0-2.0-14.0-4.0","battery-v0.2","","""event"",""trial"",""time""
""fullscreenenter"",""1"",""8134""
","
","
","""event"",""trial"",""time""
""fullscreenenter"",""1"",""8134""
","
","","","-1","","","24","14660","135","&#9826;","elianto","#f73b6a7A","-1","-1","1","0","[]","0","0","3","","","","","","","",""
"pit-trial","64","582999","0.0-2.0-14.1-0.1","battery-v0.2","","""event"",""trial"",""time""
""fullscreenenter"",""1"",""8134""
","
","
","""event"",""trial"",""time""
""fullscreenenter"",""1"",""8134""
","
","","","-1","","","24","14660","135","&#9826;","elianto","#f73b6a7A","-1","-1","1","0","[]","0","0","3","","","","","","","",""
"pit-trial","65","587855","0.0-2.0-14.1-1.1","battery-v0.2","","""event"",""trial"",""time""
""fullscreenenter"",""1"",""8134""
","
","
","""event"",""trial"",""time""
""fullscreenenter"",""1"",""8134""
","
","","","-1","","","24","14660","135","&#9826;","elianto","#f73b6a7A","-1","-1","1","0","[]","0","0","3","","","","","","","",""
"pit-trial","66","592712","0.0-2.0-14.1-2.1","battery-v0.2","","""event"",""trial"",""time""
""fullscreenenter"",""1"",""8134""
","
","
","""event"",""trial"",""time""
""fullscreenenter"",""1"",""8134""
","
","","","-1","","","24","14660","135","&#9826;","elianto","#f73b6a7A","-1","-1","1","0","[]","0","0","3","","","","","","","",""
"pit-trial","67","596305","0.0-2.0-14.1-3.1","battery-v0.2","","""event"",""trial"",""time""
""fullscreenenter"",""1"",""8134""
","
","
","""event"",""trial"",""time""
""fullscreenenter"",""1"",""8134""
","
","","","739.0999999642372","","","24","14660","135","&#9826;","elianto","#f73b6a7A","-1"," ","0","0","[1590.300000011921]","1","0","3","","","","","","","",""
"pit-trial","68","601161","0.0-2.0-14.1-4.1","battery-v0.2","","""event"",""trial"",""time""
""fullscreenenter"",""1"",""8134""
","
","
","""event"",""trial"",""time""
""fullscreenenter"",""1"",""8134""
","
","","","-1","","","24","14660","135","&#9826;","elianto","#f73b6a7A","-1","-1","1","0","[]","0","0","3","","","","","","","",""
"pit-trial","69","606015","0.0-2.0-14.2-0.2","battery-v0.2","","""event"",""trial"",""time""
""fullscreenenter"",""1"",""8134""
","
","
","""event"",""trial"",""time""
""fullscreenenter"",""1"",""8134""
","
","","","-1","","","24","14660","135","&#9826;","elianto","#f73b6a7A","-1","-1","1","0","[]","0","0","3","","","","","","","",""
"pit-trial","70","610868","0.0-2.0-14.2-1.2","battery-v0.2","","""event"",""trial"",""time""
""fullscreenenter"",""1"",""8134""
","
","
","""event"",""trial"",""time""
""fullscreenenter"",""1"",""8134""
","
","","","-1","","","24","14660","135","&#9826;","elianto","#f73b6a7A","-1","-1","1","0","[]","0","0","3","","","","","","","",""
"pit-trial","71","615725","0.0-2.0-14.2-2.2","battery-v0.2","","""event"",""trial"",""time""
""fullscreenenter"",""1"",""8134""
","
","
","""event"",""trial"",""time""
""fullscreenenter"",""1"",""8134""
","
","","","-1","","","24","14660","135","&#9826;","elianto","#f73b6a7A","-1","-1","1","0","[]","0","0","3","","","","","","","",""
"pit-trial","72","619181","0.0-2.0-14.2-3.2","battery-v0.2","","""event"",""trial"",""time""
""fullscreenenter"",""1"",""8134""
","
","
","""event"",""trial"",""time""
""fullscreenenter"",""1"",""8134""
","
","","","600.1000000238419","","","24","14660","135","&#9826;","elianto","#f73b6a7A","-1"," ","0","0","[1450.5999999642372]","1","0","3","","","","","","","",""
"pit-trial","73","624037","0.0-2.0-14.2-4.2","battery-v0.2","","""event"",""trial"",""time""
""fullscreenenter"",""1"",""8134""
","
","
","""event"",""trial"",""time""
""fullscreenenter"",""1"",""8134""
","
","","","-1","","","24","14660","135","&#9826;","elianto","#f73b6a7A","-1","-1","1","0","[]","0","0","3","","","","","","","",""
"pit-trial","74","628895","0.0-2.0-14.3-0.3","battery-v0.2","","""event"",""trial"",""time""
""fullscreenenter"",""1"",""8134""
","
","
","""event"",""trial"",""time""
""fullscreenenter"",""1"",""8134""
","
","","","-1","","","24","14660","135","&#9826;","elianto","#f73b6a7A","-1","-1","1","0","[]","0","0","3","","","","","","","",""
"pit-trial","75","633761","0.0-2.0-14.3-1.3","battery-v0.2","","""event"",""trial"",""time""
""fullscreenenter"",""1"",""8134""
","
","
","""event"",""trial"",""time""
""fullscreenenter"",""1"",""8134""
","
","","","-1","","","24","14660","135","&#9826;","elianto","#f73b6a7A","-1","-1","1","0","[]","0","0","3","","","","","","","",""
"pit-trial","76","638631","0.0-2.0-14.3-2.3","battery-v0.2","","""event"",""trial"",""time""
""fullscreenenter"",""1"",""8134""
","
","
","""event"",""trial"",""time""
""fullscreenenter"",""1"",""8134""
","
","","","-1","","","24","14660","135","&#9826;","elianto","#f73b6a7A","-1","-1","1","0","[]","0","0","3","","","","","","","",""
"pit-trial","77","642793","0.0-2.0-14.3-3.3","battery-v0.2","","""event"",""trial"",""time""
""fullscreenenter"",""1"",""8134""
","
","
","""event"",""trial"",""time""
""fullscreenenter"",""1"",""8134""
","
","","","1306.6000000238419","","","24","14660","135","&#9826;","elianto","#f73b6a7A","-1"," ","0","0","[2157.600000023842]","1","0","3","","","","","","","",""
"pit-trial","78","647647","0.0-2.0-14.3-4.3","battery-v0.2","","""event"",""trial"",""time""
""fullscreenenter"",""1"",""8134""
","
","
","""event"",""trial"",""time""
""fullscreenenter"",""1"",""8134""
","
","","","-1","","","24","14660","135","&#9826;","elianto","#f73b6a7A","-1","-1","1","0","[]","0","0","3","","","","","","","",""
"call-function","79","647649","0.0-2.0-15.0","battery-v0.2","","""event"",""trial"",""time""
""fullscreenenter"",""1"",""8134""
","
","
","""event"",""trial"",""time""
""fullscreenenter"",""1"",""8134""
","
","","","","","","","","","","","","","","","","","","","","","","","","","","",""
"pit-instructions","80","671562","0.0-2.0-16.0","battery-v0.2","","""event"",""trial"",""time""
""fullscreenenter"",""1"",""8134""
","
","
","""event"",""trial"",""time""
""fullscreenenter"",""1"",""8134""
","
","","[{""page_index"":0,""viewing_time"":6431.800000011921},{""page_index"":1,""viewing_time"":8135.199999988079},{""page_index"":2,""viewing_time"":4442.699999988079},{""page_index"":3,""viewing_time"":4901.600000023842}]","23911.900000035763","","","","","","","","","","","","","","","","","","","","","","","",""
"pit-trial","81","674876","0.0-2.0-17.0-0.0","battery-v0.2","","""event"",""trial"",""time""
""fullscreenenter"",""1"",""8134""
","
","
","""event"",""trial"",""time""
""fullscreenenter"",""1"",""8134""
","
","","","442.30000001192093","","","24","14660","135","&#9789;","elianto","#f73b6a7A"," "," ","1","0","[1297.5]","1","0","4","","","","","","","",""
"pit-trial","82","677895","0.0-2.0-17.0-1.0","battery-v0.2","","""event"",""trial"",""time""
""fullscreenenter"",""1"",""8134""
","
","
","""event"",""trial"",""time""
""fullscreenenter"",""1"",""8134""
","
","","","160.5","","","24","14660","135","&#9789;","elianto","#f73b6a7A"," "," ","1","0","[1012.7000000476837]","1","0","4","","","","","","","",""
"pit-trial","83","680925","0.0-2.0-17.0-2.0","battery-v0.2","","""event"",""trial"",""time""
""fullscreenenter"",""1"",""8134""
","
","
","""event"",""trial"",""time""
""fullscreenenter"",""1"",""8134""
","
","","","169.19999998807907","","","24","14660","135","&#9789;","elianto","#f73b6a7A"," "," ","1","0","[1023.3000000119209]","1","0","4","","","","","","","",""
"pit-trial","84","685787","0.0-2.0-17.0-3.0","battery-v0.2","","""event"",""trial"",""time""
""fullscreenenter"",""1"",""8134""
","
","
","""event"",""trial"",""time""
""fullscreenenter"",""1"",""8134""
","
","","","-1","","","24","14660","135","&#9789;","elianto","#f73b6a7A"," ","-1","0","0","[]","0","0","4","","","","","","","",""
"pit-trial","85","688993","0.0-2.0-17.0-4.0","battery-v0.2","","""event"",""trial"",""time""
""fullscreenenter"",""1"",""8134""
","
","
","""event"",""trial"",""time""
""fullscreenenter"",""1"",""8134""
","
","","","347.19999998807907","","","24","14660","135","&#9789;","elianto","#f73b6a7A"," "," ","1","0","[1199.5]","1","0","4","","","","","","","",""
"pit-trial","86","693857","0.0-2.0-17.1-0.1","battery-v0.2","","""event"",""trial"",""time""
""fullscreenenter"",""1"",""8134""
","
","
","""event"",""trial"",""time""
""fullscreenenter"",""1"",""8134""
","
","","","-1","","","24","14660","135","&#9789;","elianto","#f73b6a7A"," ","-1","0","-10","[]","0","0","4","","","","","","","",""
"pit-trial","87","697730","0.0-2.0-17.1-1.1","battery-v0.2","","""event"",""trial"",""time""
""fullscreenenter"",""1"",""8134""
","
","
","""event"",""trial"",""time""
""fullscreenenter"",""1"",""8134""
","
","","","1007.6000000238419","","","24","14660","135","&#9789;","elianto","#f73b6a7A"," "," ","1","0","[1860.800000011921]","1","0","4","","","","","","","",""
"pit-trial","88","700897","0.0-2.0-17.1-2.1","battery-v0.2","","""event"",""trial"",""time""
""fullscreenenter"",""1"",""8134""
","
","
","""event"",""trial"",""time""
""fullscreenenter"",""1"",""8134""
","
","","","310.30000001192093","","","24","14660","135","&#9789;","elianto","#f73b6a7A"," "," ","1","0","[1164.8999999761581]","1","0","4","","","","","","","",""
"pit-trial","89","703949","0.0-2.0-17.1-3.1","battery-v0.2","","""event"",""trial"",""time""
""fullscreenenter"",""1"",""8134""
","
","
","""event"",""trial"",""time""
""fullscreenenter"",""1"",""8134""
","
","","","190.80000001192093","","","24","14660","135","&#9789;","elianto","#f73b6a7A"," "," ","1","-10","[1041.800000011921]","1","0","4","","","","","","","",""
"pit-trial","90","708803","0.0-2.0-17.1-4.1","battery-v0.2","","""event"",""trial"",""time""
""fullscreenenter"",""1"",""8134""
","
","
","""event"",""trial"",""time""
""fullscreenenter"",""1"",""8134""
","
","","","-1","","","24","14660","135","&#9789;","elianto","#f73b6a7A"," ","-1","0","-10","[]","0","0","4","","","","","","","",""
"pit-trial","91","712163","0.0-2.0-17.2-0.2","battery-v0.2","","""event"",""trial"",""time""
""fullscreenenter"",""1"",""8134""
","
","
","""event"",""trial"",""time""
""fullscreenenter"",""1"",""8134""
","
","","","504.80000001192093","","","24","14660","135","&#9789;","elianto","#f73b6a7A"," "," ","1","0","[1355.699999988079]","1","0","4","","","","","","","",""
"pit-trial","92","715290","0.0-2.0-17.2-1.2","battery-v0.2","","""event"",""trial"",""time""
""fullscreenenter"",""1"",""8134""
","
","
","""event"",""trial"",""time""
""fullscreenenter"",""1"",""8134""
","
","","","271","","","24","14660","135","&#9789;","elianto","#f73b6a7A"," "," ","1","0","[1121.300000011921]","1","0","4","","","","","","","",""
"pit-trial","93","718361","0.0-2.0-17.2-2.2","battery-v0.2","","""event"",""trial"",""time""
""fullscreenenter"",""1"",""8134""
","
","
","""event"",""trial"",""time""
""fullscreenenter"",""1"",""8134""
","
","","","217.0999999642372","","","24","14660","135","&#9789;","elianto","#f73b6a7A"," "," ","1","0","[1068]","1","0","4","","","","","","","",""
"pit-trial","94","723216","0.0-2.0-17.2-3.2","battery-v0.2","","""event"",""trial"",""time""
""fullscreenenter"",""1"",""8134""
","
","
","""event"",""trial"",""time""
""fullscreenenter"",""1"",""8134""
","
","","","-1","","","24","14660","135","&#9789;","elianto","#f73b6a7A"," ","-1","0","0","[]","0","0","4","","","","","","","",""
"pit-trial","95","726490","0.0-2.0-17.2-4.2","battery-v0.2","","""event"",""trial"",""time""
""fullscreenenter"",""1"",""8134""
","
","
","""event"",""trial"",""time""
""fullscreenenter"",""1"",""8134""
","
","","","419.39999997615814","","","24","14660","135","&#9789;","elianto","#f73b6a7A"," "," ","1","0","[1270.199999988079]","1","0","4","","","","","","","",""
"pit-trial","96","729634","0.0-2.0-17.3-0.3","battery-v0.2","","""event"",""trial"",""time""
""fullscreenenter"",""1"",""8134""
","
","
","""event"",""trial"",""time""
""fullscreenenter"",""1"",""8134""
","
","","","287.2999999523163","","","24","14660","135","&#9789;","elianto","#f73b6a7A"," "," ","1","0","[1138.0999999642372]","1","0","4","","","","","","","",""
"pit-trial","97","732798","0.0-2.0-17.3-1.3","battery-v0.2","","""event"",""trial"",""time""
""fullscreenenter"",""1"",""8134""
","
","
","""event"",""trial"",""time""
""fullscreenenter"",""1"",""8134""
","
","","","308.80000001192093","","","24","14660","135","&#9789;","elianto","#f73b6a7A"," "," ","1","0","[1159.7000000476837]","1","0","4","","","","","","","",""
"pit-trial","98","735949","0.0-2.0-17.3-2.3","battery-v0.2","","""event"",""trial"",""time""
""fullscreenenter"",""1"",""8134""
","
","
","""event"",""trial"",""time""
""fullscreenenter"",""1"",""8134""
","
","","","297.5","","","24","14660","135","&#9789;","elianto","#f73b6a7A"," "," ","1","0","[1148.0999999642372]","1","0","4","","","","","","","",""
"pit-trial","99","740804","0.0-2.0-17.3-3.3","battery-v0.2","","""event"",""trial"",""time""
""fullscreenenter"",""1"",""8134""
","
","
","""event"",""trial"",""time""
""fullscreenenter"",""1"",""8134""
","
","","","-1","","","24","14660","135","&#9789;","elianto","#f73b6a7A"," ","-1","0","0","[]","0","0","4","","","","","","","",""
"pit-trial","100","744048","0.0-2.0-17.3-4.3","battery-v0.2","","""event"",""trial"",""time""
""fullscreenenter"",""1"",""8134""
","
","
","""event"",""trial"",""time""
""fullscreenenter"",""1"",""8134""
","
","","","388","","","24","14660","135","&#9789;","elianto","#f73b6a7A"," "," ","1","0","[1238.199999988079]","1","0","4","","","","","","","",""
"call-function","101","744052","0.0-2.0-18.0","battery-v0.2","","""event"",""trial"",""time""
""fullscreenenter"",""1"",""8134""
","
","
","""event"",""trial"",""time""
""fullscreenenter"",""1"",""8134""
","
","","","","","","","","","","","","","","","","","","","","","","","","","","",""
"pit-instructions","102","1189077","0.0-2.0-19.0","battery-v0.2","","""event"",""trial"",""time""
""fullscreenenter"",""1"",""8134""
","
","
","""event"",""trial"",""time""
""fullscreenenter"",""1"",""8134""
","
","","[{""page_index"":0,""viewing_time"":7063.400000035763},{""page_index"":1,""viewing_time"":5973.5},{""page_index"":2,""viewing_time"":26399.899999976158},{""page_index"":3,""viewing_time"":8376.300000011921},{""page_index"":4,""viewing_time"":106215},{""page_index"":5,""viewing_time"":8190.399999976158},{""page_index"":6,""viewing_time"":92512},{""page_index"":7,""viewing_time"":165907.10000002384},{""page_index"":8,""viewing_time"":24386.399999976158}]","445024.60000002384","","","","","","","","","","","","","","","","","","","","","","","",""
"pit-comprehension","103","1193434","0.0-2.0-20.0-0.0","battery-v0.2","","""event"",""trial"",""time""
""fullscreenenter"",""1"",""8134""
","
","
","""event"",""trial"",""time""
""fullscreenenter"",""1"",""8134""
","
","","","4353.200000047684","[""SPACE""]","0","24","14660","135","","","","","","","","","","","","","","","","","","",""
"pit-instructions","104","1196131","0.0-2.0-20.0-1.0","battery-v0.2","","""event"",""trial"",""time""
""fullscreenenter"",""1"",""8134""
","
","
","""event"",""trial"",""time""
""fullscreenenter"",""1"",""8134""
","
","","[{""page_index"":0,""viewing_time"":2640.800000011921}]","2641.300000011921","","","","","","","","","","","","","","","","","","","","","","","",""
"pit-comprehension","105","1200912","0.0-2.0-21.0-0.0","battery-v0.2","","""event"",""trial"",""time""
""fullscreenenter"",""1"",""8134""
","
","
","""event"",""trial"",""time""
""fullscreenenter"",""1"",""8134""
","
","","","4778.099999964237","[""10""]","0","24","14660","135","","","","","","","","","","","","","","","","","","",""
"pit-instructions","106","1202673","0.0-2.0-21.0-1.0","battery-v0.2","","""event"",""trial"",""time""
""fullscreenenter"",""1"",""8134""
","
","
","""event"",""trial"",""time""
""fullscreenenter"",""1"",""8134""
","
","","[{""page_index"":0,""viewing_time"":1726.4000000357628}]","1726.800000011921","","","","","","","","","","","","","","","","","","","","","","","",""
"pit-comprehension","107","1209050","0.0-2.0-22.0-0.0","battery-v0.2","","""event"",""trial"",""time""
""fullscreenenter"",""1"",""8134""
","
","
","""event"",""trial"",""time""
""fullscreenenter"",""1"",""8134""
","
","","","6374.300000011921","[""0""]","0","24","14660","135","","","","","","","","","","","","","","","","","","",""
"pit-instructions","108","1210099","0.0-2.0-22.0-1.0","battery-v0.2","","""event"",""trial"",""time""
""fullscreenenter"",""1"",""8134""
","
","
","""event"",""trial"",""time""
""fullscreenenter"",""1"",""8134""
","
","","[{""page_index"":0,""viewing_time"":1015.8000000119209}]","1016.1999999880791","","","","","","","","","","","","","","","","","","","","","","","",""
"pit-comprehension","109","1220986","0.0-2.0-23.0-0.0","battery-v0.2","","""event"",""trial"",""time""
""fullscreenenter"",""1"",""8134""
","
","
","""event"",""trial"",""time""
""fullscreenenter"",""1"",""8134""
","
","","","10881.899999976158","[""True""]","0","24","14660","135","","","","","","","","","","","","","","","","","","",""
"pit-instructions","110","1225107","0.0-2.0-23.0-1.0","battery-v0.2","","""event"",""trial"",""time""
""fullscreenenter"",""1"",""8134""
","
","
","""event"",""trial"",""time""
""fullscreenenter"",""1"",""8134""
","
","","[{""page_index"":0,""viewing_time"":4080.699999988079}]","4081.100000023842","","","","","","","","","","","","","","","","","","","","","","","",""
"pit-comprehension","111","1233683","0.0-2.0-24.0-0.0","battery-v0.2","","""event"",""trial"",""time""
""fullscreenenter"",""1"",""8134""
","
","
","""event"",""trial"",""time""
""fullscreenenter"",""1"",""8134""
","
","","","8572.5","[""True""]","0","24","14660","135","","","","","","","","","","","","","","","","","","",""
"pit-instructions","112","1235013","0.0-2.0-24.0-1.0","battery-v0.2","","""event"",""trial"",""time""
""fullscreenenter"",""1"",""8134""
","
","
","""event"",""trial"",""time""
""fullscreenenter"",""1"",""8134""
","
","","[{""page_index"":0,""viewing_time"":1290.4000000357628}]","1290.699999988079","","","","","","","","","","","","","","","","","","","","","","","",""
"pit-comprehension","113","1241339","0.0-2.0-25.0-0.0","battery-v0.2","","""event"",""trial"",""time""
""fullscreenenter"",""1"",""8134""
","
","
","""event"",""trial"",""time""
""fullscreenenter"",""1"",""8134""
","
","","","6323.199999988079","[""True""]","0","24","14660","135","","","","","","","","","","","","","","","","","","",""
"pit-instructions","114","1242681","0.0-2.0-25.0-1.0","battery-v0.2","","""event"",""trial"",""time""
""fullscreenenter"",""1"",""8134""
","
","
","""event"",""trial"",""time""
""fullscreenenter"",""1"",""8134""
","
","","[{""page_index"":0,""viewing_time"":1311.199999988079}]","1311.5","","","","","","","","","","","","","","","","","","","","","","","",""
"pit-comprehension","115","1247726","0.0-2.0-26.0-0.0","battery-v0.2","","""event"",""trial"",""time""
""fullscreenenter"",""1"",""8134""
","
","
","""event"",""trial"",""time""
""fullscreenenter"",""1"",""8134""
","
","","","5042.5","[""False""]","0","24","14660","135","","","","","","","","","","","","","","","","","","",""
"pit-instructions","116","1249154","0.0-2.0-26.0-1.0","battery-v0.2","","""event"",""trial"",""time""
""fullscreenenter"",""1"",""8134""
","
","
","""event"",""trial"",""time""
""fullscreenenter"",""1"",""8134""
","
","","[{""page_index"":0,""viewing_time"":1397.699999988079}]","1398.1000000238419","","","","","","","","","","","","","","","","","","","","","","","",""
"pit-instructions","117","1278943","0.0-3.0","battery-v0.2","","""event"",""trial"",""time""
""fullscreenenter"",""1"",""8134""
","
","
","""event"",""trial"",""time""
""fullscreenenter"",""1"",""8134""
","
","","[{""page_index"":0,""viewing_time"":3401.300000011921},{""page_index"":1,""viewing_time"":17956.30000001192},{""page_index"":2,""viewing_time"":8429.800000011921}]","29787.80000001192","","","","","","","","","","","","","","","","","","","","","","","",""
"pit-trial","118","1282787","0.0-4.0","battery-v0.2","","""event"",""trial"",""time""
""fullscreenenter"",""1"",""8134""
","
","
","""event"",""trial"",""time""
""fullscreenenter"",""1"",""8134""
","
","","","973.8999999761581","","","24","14660","135","&#9733;","elianto","#3366ff99","-1"," ","0","+10","[1827.300000011921]","1","1","","","14660","1","2","2","win","no-go","1"
"pit-trial","119","1287664","0.0-5.0","battery-v0.2","","""event"",""trial"",""time""
""fullscreenenter"",""1"",""8134""
","
","
","""event"",""trial"",""time""
""fullscreenenter"",""1"",""8134""
","
","","","-1","","","24","14660","135","&#9728;","elianto","#f73b6a7A","-1","-1","1","0","[]","0","1","","","14660","2","0","4","lose","no-go","0"
"pit-trial","120","1292526","0.0-6.0","battery-v0.2","","""event"",""trial"",""time""
""fullscreenenter"",""1"",""8134""
","
","
","""event"",""trial"",""time""
""fullscreenenter"",""1"",""8134""
","
","","","-1","","","24","14660","135","&#9730;","elianto","#3366ff99"," ","-1","0","0","[]","0","1","","","14660","3","1","1","win","go","0"
"pit-trial","121","1296726","0.0-7.0","battery-v0.2","","""event"",""trial"",""time""
""fullscreenenter"",""1"",""8134""
","
","
","""event"",""trial"",""time""
""fullscreenenter"",""1"",""8134""
","
","","","1327.6000000238419","","","24","14660","135","&#9752;","elianto","#f73b6a7A"," "," ","1","0","[2182.800000011921]","1","1","","","14660","4","3","3","lose","go","0"
"pit-trial","122","1300458","0.0-8.0","battery-v0.2","","""event"",""trial"",""time""
""fullscreenenter"",""1"",""8134""
","
","
","""event"",""trial"",""time""
""fullscreenenter"",""1"",""8134""
","
","","","864.5","","","24","14660","135","&#9733;","elianto","#3366ff99","-1"," ","0","0","[1723.1000000238419]","1","1","","","14660","5","2","2","win","no-go","0"
"pit-trial","123","1304267","0.0-9.0","battery-v0.2","","""event"",""trial"",""time""
""fullscreenenter"",""1"",""8134""
","
","
","""event"",""trial"",""time""
""fullscreenenter"",""1"",""8134""
","
","","","945.5","","","24","14660","135","&#9752;","elianto","#f73b6a7A"," "," ","1","0","[1799.5]","1","1","","","14660","6","3","3","lose","go","0"
"pit-trial","124","1309131","0.0-10.0","battery-v0.2","","""event"",""trial"",""time""
""fullscreenenter"",""1"",""8134""
","
","
","""event"",""trial"",""time""
""fullscreenenter"",""1"",""8134""
","
","","","-1","","","24","14660","135","&#9728;","elianto","#f73b6a7A","-1","-1","1","0","[]","0","1","","","14660","7","0","4","lose","no-go","0"
"pit-trial","125","1312643","0.0-11.0","battery-v0.2","","""event"",""trial"",""time""
""fullscreenenter"",""1"",""8134""
","
","
","""event"",""trial"",""time""
""fullscreenenter"",""1"",""8134""
","
","","","656.8000000119209","","","24","14660","135","&#9730;","elianto","#3366ff99"," "," ","1","0","[1508.199999988079]","1","1","","","14660","8","1","1","win","go","1"
"pit-trial","126","1317498","0.0-12.0","battery-v0.2","","""event"",""trial"",""time""
""fullscreenenter"",""1"",""8134""
","
","
","""event"",""trial"",""time""
""fullscreenenter"",""1"",""8134""
","
","","","-1","","","24","14660","135","&#9730;","elianto","#3366ff99"," ","-1","0","+10","[]","0","1","","","14660","9","1","1","win","go","1"
"pit-trial","127","1321490","0.0-13.0","battery-v0.2","","""event"",""trial"",""time""
""fullscreenenter"",""1"",""8134""
","
","
","""event"",""trial"",""time""
""fullscreenenter"",""1"",""8134""
","
","","","1134.4000000357628","","","24","14660","135","&#9752;","elianto","#f73b6a7A"," "," ","1","0","[1985.6000000238419]","1","1","","","14660","10","3","3","lose","go","0"
"pit-trial","128","1326347","0.0-14.0","battery-v0.2","","""event"",""trial"",""time""
""fullscreenenter"",""1"",""8134""
","
","
","""event"",""trial"",""time""
""fullscreenenter"",""1"",""8134""
","
","","","-1","","","24","14660","135","&#9728;","elianto","#f73b6a7A","-1","-1","1","0","[]","0","1","","","14660","11","0","4","lose","no-go","0"
"pit-trial","129","1329942","0.0-15.0","battery-v0.2","","""event"",""trial"",""time""
""fullscreenenter"",""1"",""8134""
","
","
","""event"",""trial"",""time""
""fullscreenenter"",""1"",""8134""
","
","","","739.1000000238419","","","24","14660","135","&#9733;","elianto","#3366ff99","-1"," ","0","+10","[1589.800000011921]","1","1","","","14660","12","2","2","win","no-go","1"
"pit-trial","130","1334049","0.0-16.0","battery-v0.2","","""event"",""trial"",""time""
""fullscreenenter"",""1"",""8134""
","
","
","""event"",""trial"",""time""
""fullscreenenter"",""1"",""8134""
","
","","","1252.199999988079","","","24","14660","135","&#9752;","elianto","#f73b6a7A"," "," ","1","-10","[2103.099999964237]","1","1","","","14660","13","3","3","lose","go","1"
"pit-trial","131","1338905","0.0-17.0","battery-v0.2","","""event"",""trial"",""time""
""fullscreenenter"",""1"",""8134""
","
","
","""event"",""trial"",""time""
""fullscreenenter"",""1"",""8134""
","
","","","-1","","","24","14660","135","&#9730;","elianto","#3366ff99"," ","-1","0","0","[]","0","1","","","14660","14","1","1","win","go","0"
"pit-trial","132","1343763","0.0-18.0","battery-v0.2","","""event"",""trial"",""time""
""fullscreenenter"",""1"",""8134""
","
","
","""event"",""trial"",""time""
""fullscreenenter"",""1"",""8134""
","
","","","-1","","","24","14660","135","&#9728;","elianto","#f73b6a7A","-1","-1","1","0","[]","0","1","","","14660","15","0","4","lose","no-go","0"
"pit-trial","133","1347312","0.0-19.0","battery-v0.2","","""event"",""trial"",""time""
""fullscreenenter"",""1"",""8134""
","
","
","""event"",""trial"",""time""
""fullscreenenter"",""1"",""8134""
","
","","","692.9000000357628","","","24","14660","135","&#9733;","elianto","#3366ff99","-1"," ","0","0","[1544]","1","1","","","14660","16","2","2","win","no-go","0"
"pit-trial","134","1352166","0.0-20.0","battery-v0.2","","""event"",""trial"",""time""
""fullscreenenter"",""1"",""8134""
","
","
","""event"",""trial"",""time""
""fullscreenenter"",""1"",""8134""
","
","","","-1","","","24","14660","135","&#9752;","elianto","#f73b6a7A"," ","-1","0","-10","[2933.899999976158]","1","1","","","14660","17","3","3","lose","go","0"
"pit-trial","135","1357022","0.0-21.0","battery-v0.2","","""event"",""trial"",""time""
""fullscreenenter"",""1"",""8134""
","
","
","""event"",""trial"",""time""
""fullscreenenter"",""1"",""8134""
","
","","","-1","","","24","14660","135","&#9730;","elianto","#3366ff99"," ","-1","0","0","[]","0","1","","","14660","18","1","1","win","go","0"
"pit-trial","136","1360865","0.0-22.0","battery-v0.2","","""event"",""trial"",""time""
""fullscreenenter"",""1"",""8134""
","
","
","""event"",""trial"",""time""
""fullscreenenter"",""1"",""8134""
","
","","","985.5999999642372","","","24","14660","135","&#9728;","elianto","#f73b6a7A","-1"," ","0","-10","[1837.1000000238419]","1","1","","","14660","19","0","4","lose","no-go","0"
"pit-trial","137","1364393","0.0-23.0","battery-v0.2","","""event"",""trial"",""time""
""fullscreenenter"",""1"",""8134""
","
","
","""event"",""trial"",""time""
""fullscreenenter"",""1"",""8134""
","
","","","668.8999999761581","","","24","14660","135","&#9733;","elianto","#3366ff99","-1"," ","0","0","[1519.5]","1","1","","","14660","20","2","2","win","no-go","0"
"pit-instructions","138","1395470","0.0-24.0","battery-v0.2","","""event"",""trial"",""time""
""fullscreenenter"",""1"",""8134""
","
","
","""event"",""trial"",""time""
""fullscreenenter"",""1"",""8134""
","
","","[{""page_index"":0,""viewing_time"":23355.19999998808},{""page_index"":1,""viewing_time"":7718.699999988079}]","31074.299999952316","","","","","","","","","","","","","","","","","","","","","","","",""
"pit-trial","139","1400351","0.0-25.0","battery-v0.2","","""event"",""trial"",""time""
""fullscreenenter"",""1"",""8134""
","
","
","""event"",""trial"",""time""
""fullscreenenter"",""1"",""8134""
","
","","","-1","","","24","14660","135","j","elianto","#f73b6a7A"," ","-1","0","-10","[]","0","2","","","14660","21","0","3","lose","go","0"
"pit-trial","140","1405219","0.0-26.0","battery-v0.2","","""event"",""trial"",""time""
""fullscreenenter"",""1"",""8134""
","
","
","""event"",""trial"",""time""
""fullscreenenter"",""1"",""8134""
","
","","","-1","","","24","14660","135","e","elianto","#f73b6a7A"," ","-1","0","-10","[]","0","2","","","14660","22","2","3","lose","go","0"
"pit-trial","141","1410092","0.0-27.0","battery-v0.2","","""event"",""trial"",""time""
""fullscreenenter"",""1"",""8134""
","
","
","""event"",""trial"",""time""
""fullscreenenter"",""1"",""8134""
","
","","","-1","","","24","14660","135","w","elianto","#f73b6a7A","-1","-1","1","0","[]","0","2","","","14660","23","3","4","lose","no-go","0"
"pit-trial","142","1413764","0.0-28.0","battery-v0.2","","""event"",""trial"",""time""
""fullscreenenter"",""1"",""8134""
","
","
","""event"",""trial"",""time""
""fullscreenenter"",""1"",""8134""
","
","","","815.1999999880791","","","24","14660","135","d","elianto","#3366ff99","-1"," ","0","0","[1669.2999999523163]","1","2","","","14660","24","1","2","win","no-go","0"
"pit-trial","143","1417872","0.0-29.0","battery-v0.2","","""event"",""trial"",""time""
""fullscreenenter"",""1"",""8134""
","
","
","""event"",""trial"",""time""
""fullscreenenter"",""1"",""8134""
","
","","","1241.5","","","24","14660","135","j","elianto","#f73b6a7A"," "," ","1","0","[2099.5]","1","2","","","14660","25","0","3","lose","go","0"
"pit-trial","144","1422745","0.0-30.0","battery-v0.2","","""event"",""trial"",""time""
""fullscreenenter"",""1"",""8134""
","
","
","""event"",""trial"",""time""
""fullscreenenter"",""1"",""8134""
","
","","","-1","","","24","14660","135","w","elianto","#f73b6a7A","-1","-1","1","-10","[]","0","2","","","14660","26","3","4","lose","no-go","1"
"pit-trial","145","1426797","0.0-31.0","battery-v0.2","","""event"",""trial"",""time""
""fullscreenenter"",""1"",""8134""
","
","
","""event"",""trial"",""time""
""fullscreenenter"",""1"",""8134""
","
","","","1191.199999988079","","","24","14660","135","d","elianto","#3366ff99","-1"," ","0","0","[2046]","1","2","","","14660","27","1","2","win","no-go","0"
"pit-trial","146","1430949","0.0-32.0","battery-v0.2","","""event"",""trial"",""time""
""fullscreenenter"",""1"",""8134""
","
","
","""event"",""trial"",""time""
""fullscreenenter"",""1"",""8134""
","
","","","1295.7999999523163","","","24","14660","135","e","elianto","#f73b6a7A"," "," ","1","-10","[2146]","1","2","","","14660","28","2","3","lose","go","1"
"pit-trial","147","1435805","0.0-33.0","battery-v0.2","","""event"",""trial"",""time""
""fullscreenenter"",""1"",""8134""
","
","
","""event"",""trial"",""time""
""fullscreenenter"",""1"",""8134""
","
","","","-1","","","24","14660","135","e","elianto","#f73b6a7A"," ","-1","0","-10","[]","0","2","","","14660","29","2","3","lose","go","0"
"pit-trial","148","1439934","0.0-34.0","battery-v0.2","","""event"",""trial"",""time""
""fullscreenenter"",""1"",""8134""
","
","
","""event"",""trial"",""time""
""fullscreenenter"",""1"",""8134""
","
","","","1274.300000011921","","","24","14660","135","j","elianto","#f73b6a7A"," "," ","1","0","[2125.099999964237]","1","2","","","14660","30","0","3","lose","go","0"
"pit-trial","149","1444790","0.0-35.0","battery-v0.2","","""event"",""trial"",""time""
""fullscreenenter"",""1"",""8134""
","
","
","""event"",""trial"",""time""
""fullscreenenter"",""1"",""8134""
","
","","","-1","","","24","14660","135","d","elianto","#3366ff99","-1","-1","1","+10","[]","0","2","","","14660","31","1","2","win","no-go","0"
"pit-trial","150","1449511","0.0-36.0","battery-v0.2","","""event"",""trial"",""time""
""fullscreenenter"",""1"",""8134""
","
","
","""event"",""trial"",""time""
""fullscreenenter"",""1"",""8134""
","
","","","1866.3999999761581","","","24","14660","135","w","elianto","#f73b6a7A","-1"," ","0","-10","[2717.699999988079]","1","2","","","14660","32","3","4","lose","no-go","0"
"pit-trial","151","1453640","0.0-37.0","battery-v0.2","","""event"",""trial"",""time""
""fullscreenenter"",""1"",""8134""
","
","
","""event"",""trial"",""time""
""fullscreenenter"",""1"",""8134""
","
","","","1271.800000011921","","","24","14660","135","d","elianto","#3366ff99","-1"," ","0","0","[2122.300000011921]","1","2","","","14660","33","1","2","win","no-go","0"
"pit-trial","152","1457448","0.0-38.0","battery-v0.2","","""event"",""trial"",""time""
""fullscreenenter"",""1"",""8134""
","
","
","""event"",""trial"",""time""
""fullscreenenter"",""1"",""8134""
","
","","","952.8000000119209","","","24","14660","135","e","elianto","#f73b6a7A"," "," ","1","0","[1803.5]","1","2","","","14660","34","2","3","lose","go","0"
"pit-trial","153","1461363","0.0-39.0","battery-v0.2","","""event"",""trial"",""time""
""fullscreenenter"",""1"",""8134""
","
","
","""event"",""trial"",""time""
""fullscreenenter"",""1"",""8134""
","
","","","1058.6000000238419","","","24","14660","135","j","elianto","#f73b6a7A"," "," ","1","0","[1909.800000011921]","1","2","","","14660","35","0","3","lose","go","0"
"pit-trial","154","1466217","0.0-40.0","battery-v0.2","","""event"",""trial"",""time""
""fullscreenenter"",""1"",""8134""
","
","
","""event"",""trial"",""time""
""fullscreenenter"",""1"",""8134""
","
","","","-1","","","24","14660","135","w","elianto","#f73b6a7A","-1","-1","1","0","[]","0","2","","","14660","36","3","4","lose","no-go","0"
"pit-trial","155","1470241","0.0-41.0","battery-v0.2","","""event"",""trial"",""time""
""fullscreenenter"",""1"",""8134""
","
","
","""event"",""trial"",""time""
""fullscreenenter"",""1"",""8134""
","
","","","1169.199999988079","","","24","14660","135","e","elianto","#f73b6a7A"," "," ","1","0","[2019.4000000357628]","1","2","","","14660","37","2","3","lose","go","0"
"pit-trial","156","1475095","0.0-42.0","battery-v0.2","","""event"",""trial"",""time""
""fullscreenenter"",""1"",""8134""
","
","
","""event"",""trial"",""time""
""fullscreenenter"",""1"",""8134""
","
","","","-1","","","24","14660","135","d","elianto","#3366ff99","-1","-1","1","0","[]","0","2","","","14660","38","1","2","win","no-go","1"
"pit-trial","157","1479965","0.0-43.0","battery-v0.2","","""event"",""trial"",""time""
""fullscreenenter"",""1"",""8134""
","
","
","""event"",""trial"",""time""
""fullscreenenter"",""1"",""8134""
","
","","","-1","","","24","14660","135","w","elianto","#f73b6a7A","-1","-1","1","0","[]","0","2","","","14660","39","3","4","lose","no-go","0"
"pit-trial","158","1483702","0.0-44.0","battery-v0.2","","""event"",""trial"",""time""
""fullscreenenter"",""1"",""8134""
","
","
","""event"",""trial"",""time""
""fullscreenenter"",""1"",""8134""
","
","","","882.5","","","24","14660","135","j","elianto","#f73b6a7A"," "," ","1","0","[1733.0999999642372]","1","2","","","14660","40","0","3","lose","go","0"
"pit-trial","159","1487441","0.0-45.0","battery-v0.2","","""event"",""trial"",""time""
""fullscreenenter"",""1"",""8134""
","
","
","""event"",""trial"",""time""
""fullscreenenter"",""1"",""8134""
","
","","","882.8000000119209","","","24","14660","135","j","elianto","#f73b6a7A"," "," ","1","-10","[1733.699999988079]","1","2","","","14660","41","0","3","lose","go","1"
"pit-trial","160","1491518","0.0-46.0","battery-v0.2","","""event"",""trial"",""time""
""fullscreenenter"",""1"",""8134""
","
","
","""event"",""trial"",""time""
""fullscreenenter"",""1"",""8134""
","
","","","1221.199999988079","","","24","14660","135","d","elianto","#3366ff99","-1"," ","0","0","[2072.199999988079]","1","2","","","14660","42","1","2","win","no-go","0"
"pit-trial","161","1495866","0.0-47.0","battery-v0.2","","""event"",""trial"",""time""
""fullscreenenter"",""1"",""8134""
","
","
","""event"",""trial"",""time""
""fullscreenenter"",""1"",""8134""
","
","","","1491.699999988079","","","24","14660","135","e","elianto","#f73b6a7A"," "," ","1","0","[2342]","1","2","","","14660","43","2","3","lose","go","0"
"pit-trial","162","1500722","0.0-48.0","battery-v0.2","","""event"",""trial"",""time""
""fullscreenenter"",""1"",""8134""
","
","
","""event"",""trial"",""time""
""fullscreenenter"",""1"",""8134""
","
","","","-1","","","24","14660","135","w","elianto","#f73b6a7A","-1","-1","1","0","[]","0","2","","","14660","44","3","4","lose","no-go","0"
"pit-trial","163","1505580","0.0-49.0","battery-v0.2","","""event"",""trial"",""time""
""fullscreenenter"",""1"",""8134""
","
","
","""event"",""trial"",""time""
""fullscreenenter"",""1"",""8134""
","
","","","-1","","","24","14660","135","w","elianto","#f73b6a7A","-1","-1","1","0","[]","0","2","","","14660","45","3","4","lose","no-go","0"
"pit-trial","164","1510436","0.0-50.0","battery-v0.2","","""event"",""trial"",""time""
""fullscreenenter"",""1"",""8134""
","
","
","""event"",""trial"",""time""
""fullscreenenter"",""1"",""8134""
","
","","","-1","","","24","14660","135","d","elianto","#3366ff99","-1","-1","1","+10","[]","0","2","","","14660","46","1","2","win","no-go","0"
"pit-trial","165","1514036","0.0-51.0","battery-v0.2","","""event"",""trial"",""time""
""fullscreenenter"",""1"",""8134""
","
","
","""event"",""trial"",""time""
""fullscreenenter"",""1"",""8134""
","
","","","746","","","24","14660","135","e","elianto","#f73b6a7A"," "," ","1","0","[1596.7000000476837]","1","2","","","14660","47","2","3","lose","go","0"
"pit-trial","166","1517972","0.0-52.0","battery-v0.2","","""event"",""trial"",""time""
""fullscreenenter"",""1"",""8134""
","
","
","""event"",""trial"",""time""
""fullscreenenter"",""1"",""8134""
","
","","","1079.9000000357628","","","24","14660","135","j","elianto","#f73b6a7A"," "," ","1","0","[1931.1000000238419]","1","2","","","14660","48","0","3","lose","go","0"
"pit-trial","167","1522828","0.0-53.0","battery-v0.2","","""event"",""trial"",""time""
""fullscreenenter"",""1"",""8134""
","
","
","""event"",""trial"",""time""
""fullscreenenter"",""1"",""8134""
","
","","","-1","","","24","14660","135","d","elianto","#3366ff99","-1","-1","1","+10","[]","0","2","","","14660","49","1","2","win","no-go","0"
"pit-trial","168","1526605","0.0-54.0","battery-v0.2","","""event"",""trial"",""time""
""fullscreenenter"",""1"",""8134""
","
","
","""event"",""trial"",""time""
""fullscreenenter"",""1"",""8134""
","
","","","924","","","24","14660","135","e","elianto","#f73b6a7A"," "," ","1","-10","[1775.2999999523163]","1","2","","","14660","50","2","3","lose","go","1"
"pit-trial","169","1530238","0.0-55.0","battery-v0.2","","""event"",""trial"",""time""
""fullscreenenter"",""1"",""8134""
","
","
","""event"",""trial"",""time""
""fullscreenenter"",""1"",""8134""
","
","","","778.5999999642372","","","24","14660","135","j","elianto","#f73b6a7A"," "," ","1","0","[1629.2000000476837]","1","2","","","14660","51","0","3","lose","go","0"
"pit-trial","170","1535094","0.0-56.0","battery-v0.2","","""event"",""trial"",""time""
""fullscreenenter"",""1"",""8134""
","
","
","""event"",""trial"",""time""
""fullscreenenter"",""1"",""8134""
","
","","","-1","","","24","14660","135","w","elianto","#f73b6a7A","-1","-1","1","0","[]","0","2","","","14660","52","3","4","lose","no-go","0"
"pit-trial","171","1539950","0.0-57.0","battery-v0.2","","""event"",""trial"",""time""
""fullscreenenter"",""1"",""8134""
","
","
","""event"",""trial"",""time""
""fullscreenenter"",""1"",""8134""
","
","","","-1","","","24","14660","135","d","elianto","#3366ff99","-1","-1","1","+10","[]","0","2","","","14660","53","1","2","win","no-go","0"
"pit-trial","172","1543585","0.0-58.0","battery-v0.2","","""event"",""trial"",""time""
""fullscreenenter"",""1"",""8134""
","
","
","""event"",""trial"",""time""
""fullscreenenter"",""1"",""8134""
","
","","","778.8000000119209","","","24","14660","135","e","elianto","#f73b6a7A"," "," ","1","0","[1629.699999988079]","1","2","","","14660","54","2","3","lose","go","0"
"pit-trial","173","1547338","0.0-59.0","battery-v0.2","","""event"",""trial"",""time""
""fullscreenenter"",""1"",""8134""
","
","
","""event"",""trial"",""time""
""fullscreenenter"",""1"",""8134""
","
","","","896.3000000119209","","","24","14660","135","w","elianto","#f73b6a7A","-1"," ","0","0","[1747]","1","2","","","14660","55","3","4","lose","no-go","1"
"pit-trial","174","1551048","0.0-60.0","battery-v0.2","","""event"",""trial"",""time""
""fullscreenenter"",""1"",""8134""
","
","
","""event"",""trial"",""time""
""fullscreenenter"",""1"",""8134""
","
","","","854.1999999880791","","","24","14660","135","j","elianto","#f73b6a7A"," "," ","1","-10","[1705.199999988079]","1","2","","","14660","56","0","3","lose","go","1"
"pit-trial","175","1555085","0.0-61.0","battery-v0.2","","""event"",""trial"",""time""
""fullscreenenter"",""1"",""8134""
","
","
","""event"",""trial"",""time""
""fullscreenenter"",""1"",""8134""
","
","","","1180.5999999642372","","","24","14660","135","e","elianto","#f73b6a7A"," "," ","1","-10","[2030.699999988079]","1","2","","","14660","57","2","3","lose","go","1"
"pit-trial","176","1559939","0.0-62.0","battery-v0.2","","""event"",""trial"",""time""
""fullscreenenter"",""1"",""8134""
","
","
","""event"",""trial"",""time""
""fullscreenenter"",""1"",""8134""
","
","","","-1","","","24","14660","135","w","elianto","#f73b6a7A","-1","-1","1","0","[]","0","2","","","14660","58","3","4","lose","no-go","0"
"pit-trial","177","1564782","0.0-63.0","battery-v0.2","","""event"",""trial"",""time""
""fullscreenenter"",""1"",""8134""
","
","
","""event"",""trial"",""time""
""fullscreenenter"",""1"",""8134""
","
","","","1987.199999988079","","","24","14660","135","s","elianto","#3366ff99"," "," ","1","+10","[2837.400000035763]","1","2","","","14660","59","4","1","win","go","0"
"pit-trial","178","1569637","0.0-64.0","battery-v0.2","","""event"",""trial"",""time""
""fullscreenenter"",""1"",""8134""
","
","
","""event"",""trial"",""time""
""fullscreenenter"",""1"",""8134""
","
","","","-1","","","24","14660","135","j","elianto","#f73b6a7A"," ","-1","0","0","[]","0","2","","","14660","60","0","3","lose","go","1"
"pit-trial","179","1574378","0.0-65.0","battery-v0.2","","""event"",""trial"",""time""
""fullscreenenter"",""1"",""8134""
","
","
","""event"",""trial"",""time""
""fullscreenenter"",""1"",""8134""
","
","","","1884.0999999642372","","","24","14660","135","d","elianto","#3366ff99","-1"," ","0","+10","[2734.699999988079]","1","2","","","14660","61","1","2","win","no-go","1"
"pit-trial","180","1579232","0.0-66.0","battery-v0.2","","""event"",""trial"",""time""
""fullscreenenter"",""1"",""8134""
","
","
","""event"",""trial"",""time""
""fullscreenenter"",""1"",""8134""
","
","","","-1","","","24","14660","135","s","elianto","#3366ff99"," ","-1","0","0","[]","0","2","","","14660","62","4","1","win","go","0"
"pit-trial","181","1583278","0.0-67.0","battery-v0.2","","""event"",""trial"",""time""
""fullscreenenter"",""1"",""8134""
","
","
","""event"",""trial"",""time""
""fullscreenenter"",""1"",""8134""
","
","","","1191.5","","","24","14660","135","e","elianto","#f73b6a7A"," "," ","1","-10","[2042.9000000357628]","1","2","","","14660","63","2","3","lose","go","1"
"pit-trial","182","1588132","0.0-68.0","battery-v0.2","","""event"",""trial"",""time""
""fullscreenenter"",""1"",""8134""
","
","
","""event"",""trial"",""time""
""fullscreenenter"",""1"",""8134""
","
","","","-1","","","24","14660","135","w","elianto","#f73b6a7A","-1","-1","1","0","[]","0","2","","","14660","64","3","4","lose","no-go","0"
"pit-trial","183","1592985","0.0-69.0","battery-v0.2","","""event"",""trial"",""time""
""fullscreenenter"",""1"",""8134""
","
","
","""event"",""trial"",""time""
""fullscreenenter"",""1"",""8134""
","
","","","-1","","","24","14660","135","p","elianto","#3366ff99","-1","-1","1","+10","[]","0","2","","","14660","65","5","2","win","no-go","0"
"pit-trial","184","1597449","0.0-70.0","battery-v0.2","","""event"",""trial"",""time""
""fullscreenenter"",""1"",""8134""
","
","
","""event"",""trial"",""time""
""fullscreenenter"",""1"",""8134""
","
","","","1608.5","","","24","14660","135","s","elianto","#3366ff99"," "," ","1","+10","[2458.699999988079]","1","2","","","14660","66","4","1","win","go","0"
"pit-trial","185","1602306","0.0-71.0","battery-v0.2","","""event"",""trial"",""time""
""fullscreenenter"",""1"",""8134""
","
","
","""event"",""trial"",""time""
""fullscreenenter"",""1"",""8134""
","
","","","-1","","","24","14660","135","w","elianto","#f73b6a7A","-1","-1","1","0","[]","0","2","","","14660","67","3","4","lose","no-go","0"
"pit-trial","186","1606399","0.0-72.0","battery-v0.2","","""event"",""trial"",""time""
""fullscreenenter"",""1"",""8134""
","
","
","""event"",""trial"",""time""
""fullscreenenter"",""1"",""8134""
","
","","","1237.199999988079","","","24","14660","135","d","elianto","#3366ff99","-1"," ","0","0","[2088.100000023842]","1","2","","","14660","68","1","2","win","no-go","0"
"pit-trial","187","1611252","0.0-73.0","battery-v0.2","","""event"",""trial"",""time""
""fullscreenenter"",""1"",""8134""
","
","
","""event"",""trial"",""time""
""fullscreenenter"",""1"",""8134""
","
","","","-1","","","24","14660","135","p","elianto","#3366ff99","-1","-1","1","+10","[]","0","2","","","14660","69","5","2","win","no-go","0"
"pit-trial","188","1615995","0.0-74.0","battery-v0.2","","""event"",""trial"",""time""
""fullscreenenter"",""1"",""8134""
","
","
","""event"",""trial"",""time""
""fullscreenenter"",""1"",""8134""
","
","","","1888.9000000357628","","","24","14660","135","s","elianto","#3366ff99"," "," ","1","+10","[2739.600000023842]","1","2","","","14660","70","4","1","win","go","0"
"pit-trial","189","1620850","0.0-75.0","battery-v0.2","","""event"",""trial"",""time""
""fullscreenenter"",""1"",""8134""
","
","
","""event"",""trial"",""time""
""fullscreenenter"",""1"",""8134""
","
","","","-1","","","24","14660","135","d","elianto","#3366ff99","-1","-1","1","+10","[]","0","2","","","14660","71","1","2","win","no-go","0"
"pit-trial","190","1624729","0.0-76.0","battery-v0.2","","""event"",""trial"",""time""
""fullscreenenter"",""1"",""8134""
","
","
","""event"",""trial"",""time""
""fullscreenenter"",""1"",""8134""
","
","","","1024.6000000238419","","","24","14660","135","e","elianto","#f73b6a7A"," "," ","1","0","[1875.199999988079]","1","2","","","14660","72","2","3","lose","go","0"
"pit-trial","191","1629583","0.0-77.0","battery-v0.2","","""event"",""trial"",""time""
""fullscreenenter"",""1"",""8134""
","
","
","""event"",""trial"",""time""
""fullscreenenter"",""1"",""8134""
","
","","","-1","","","24","14660","135","w","elianto","#f73b6a7A","-1","-1","1","-10","[]","0","2","","","14660","73","3","4","lose","no-go","1"
"pit-trial","192","1634441","0.0-78.0","battery-v0.2","","""event"",""trial"",""time""
""fullscreenenter"",""1"",""8134""
","
","
","""event"",""trial"",""time""
""fullscreenenter"",""1"",""8134""
","
","","","-1","","","24","14660","135","d","elianto","#3366ff99","-1","-1","1","0","[]","0","2","","","14660","74","1","2","win","no-go","1"
"pit-trial","193","1638516","0.0-79.0","battery-v0.2","","""event"",""trial"",""time""
""fullscreenenter"",""1"",""8134""
","
","
","""event"",""trial"",""time""
""fullscreenenter"",""1"",""8134""
","
","","","1218.300000011921","","","24","14660","135","p","elianto","#3366ff99","-1"," ","0","0","[2068.599999964237]","1","2","","","14660","75","5","2","win","no-go","0"
"pit-trial","194","1643372","0.0-80.0","battery-v0.2","","""event"",""trial"",""time""
""fullscreenenter"",""1"",""8134""
","
","
","""event"",""trial"",""time""
""fullscreenenter"",""1"",""8134""
","
","","","-1","","","24","14660","135","s","elianto","#3366ff99"," ","-1","0","0","[2997.5]","1","2","","","14660","76","4","1","win","go","0"
"pit-trial","195","1648139","0.0-81.0","battery-v0.2","","""event"",""trial"",""time""
""fullscreenenter"",""1"",""8134""
","
","
","""event"",""trial"",""time""
""fullscreenenter"",""1"",""8134""
","
","","","1910.1000000238419","","","24","14660","135","s","elianto","#3366ff99"," "," ","1","+10","[2761.2000000476837]","1","2","","","14660","77","4","1","win","go","0"
"pit-trial","196","1652996","0.0-82.0","battery-v0.2","","""event"",""trial"",""time""
""fullscreenenter"",""1"",""8134""
","
","
","""event"",""trial"",""time""
""fullscreenenter"",""1"",""8134""
","
","","","-1","","","24","14660","135","p","elianto","#3366ff99","-1","-1","1","+10","[]","0","2","","","14660","78","5","2","win","no-go","0"
"pit-trial","197","1657853","0.0-83.0","battery-v0.2","","""event"",""trial"",""time""
""fullscreenenter"",""1"",""8134""
","
","
","""event"",""trial"",""time""
""fullscreenenter"",""1"",""8134""
","
","","","-1","","","24","14660","135","w","elianto","#f73b6a7A","-1","-1","1","0","[]","0","2","","","14660","79","3","4","lose","no-go","0"
"pit-trial","198","1662161","0.0-84.0","battery-v0.2","","""event"",""trial"",""time""
""fullscreenenter"",""1"",""8134""
","
","
","""event"",""trial"",""time""
""fullscreenenter"",""1"",""8134""
","
","","","1452.6000000238419","","","24","14660","135","s","elianto","#3366ff99"," "," ","1","+10","[2303.5]","1","2","","","14660","80","4","1","win","go","0"
"pit-trial","199","1667018","0.0-85.0","battery-v0.2","","""event"",""trial"",""time""
""fullscreenenter"",""1"",""8134""
","
","
","""event"",""trial"",""time""
""fullscreenenter"",""1"",""8134""
","
","","","-1","","","24","14660","135","a","elianto","#f73b6a7A","-1","-1","1","0","[]","0","2","","","14660","81","7","4","lose","no-go","0"
"pit-trial","200","1671788","0.0-86.0","battery-v0.2","","""event"",""trial"",""time""
""fullscreenenter"",""1"",""8134""
","
","
","""event"",""trial"",""time""
""fullscreenenter"",""1"",""8134""
","
","","","1916.7000000476837","","","24","14660","135","w","elianto","#f73b6a7A","-1"," ","0","-10","[2767.199999988079]","1","2","","","14660","82","3","4","lose","no-go","0"
"pit-trial","201","1676517","0.0-87.0","battery-v0.2","","""event"",""trial"",""time""
""fullscreenenter"",""1"",""8134""
","
","
","""event"",""trial"",""time""
""fullscreenenter"",""1"",""8134""
","
","","","1873.1000000238419","","","24","14660","135","p","elianto","#3366ff99","-1"," ","0","+10","[2723.5]","1","2","","","14660","83","5","2","win","no-go","1"
"pit-trial","202","1681375","0.0-88.0","battery-v0.2","","""event"",""trial"",""time""
""fullscreenenter"",""1"",""8134""
","
","
","""event"",""trial"",""time""
""fullscreenenter"",""1"",""8134""
","
","","","-1","","","24","14660","135","s","elianto","#3366ff99"," ","-1","0","0","[]","0","2","","","14660","84","4","1","win","go","0"
"pit-trial","203","1686231","0.0-89.0","battery-v0.2","","""event"",""trial"",""time""
""fullscreenenter"",""1"",""8134""
","
","
","""event"",""trial"",""time""
""fullscreenenter"",""1"",""8134""
","
","","","-1","","","24","14660","135","g","elianto","#f73b6a7A"," ","-1","0","-10","[]","0","2","","","14660","85","6","3","lose","go","0"
"pit-trial","204","1690243","0.0-90.0","battery-v0.2","","""event"",""trial"",""time""
""fullscreenenter"",""1"",""8134""
","
","
","""event"",""trial"",""time""
""fullscreenenter"",""1"",""8134""
","
","","","1155.1000000238419","","","24","14660","135","p","elianto","#3366ff99","-1"," ","0","0","[2005.800000011921]","1","2","","","14660","86","5","2","win","no-go","0"
"pit-trial","205","1694393","0.0-91.0","battery-v0.2","","""event"",""trial"",""time""
""fullscreenenter"",""1"",""8134""
","
","
","""event"",""trial"",""time""
""fullscreenenter"",""1"",""8134""
","
","","","1294.6000000238419","","","24","14660","135","s","elianto","#3366ff99"," "," ","1","+10","[2144.899999976158]","1","2","","","14660","87","4","1","win","go","0"
"pit-trial","206","1699250","0.0-92.0","battery-v0.2","","""event"",""trial"",""time""
""fullscreenenter"",""1"",""8134""
","
","
","""event"",""trial"",""time""
""fullscreenenter"",""1"",""8134""
","
","","","-1","","","24","14660","135","a","elianto","#f73b6a7A","-1","-1","1","0","[]","0","2","","","14660","88","7","4","lose","no-go","0"
"pit-trial","207","1704107","0.0-93.0","battery-v0.2","","""event"",""trial"",""time""
""fullscreenenter"",""1"",""8134""
","
","
","""event"",""trial"",""time""
""fullscreenenter"",""1"",""8134""
","
","","","-1","","","24","14660","135","a","elianto","#f73b6a7A","-1","-1","1","0","[]","0","2","","","14660","89","7","4","lose","no-go","0"
"pit-trial","208","1707765","0.0-94.0","battery-v0.2","","""event"",""trial"",""time""
""fullscreenenter"",""1"",""8134""
","
","
","""event"",""trial"",""time""
""fullscreenenter"",""1"",""8134""
","
","","","803.7000000476837","","","24","14660","135","g","elianto","#f73b6a7A"," "," ","1","0","[1654.300000011921]","1","2","","","14660","90","6","3","lose","go","0"
"pit-trial","209","1711921","0.0-95.0","battery-v0.2","","""event"",""trial"",""time""
""fullscreenenter"",""1"",""8134""
","
","
","""event"",""trial"",""time""
""fullscreenenter"",""1"",""8134""
","
","","","1300.699999988079","","","24","14660","135","s","elianto","#3366ff99"," "," ","1","+10","[2152.199999988079]","1","2","","","14660","91","4","1","win","go","0"
"pit-trial","210","1716775","0.0-96.0","battery-v0.2","","""event"",""trial"",""time""
""fullscreenenter"",""1"",""8134""
","
","
","""event"",""trial"",""time""
""fullscreenenter"",""1"",""8134""
","
","","","-1","","","24","14660","135","p","elianto","#3366ff99","-1","-1","1","0","[]","0","2","","","14660","92","5","2","win","no-go","1"
"pit-trial","211","1721629","0.0-97.0","battery-v0.2","","""event"",""trial"",""time""
""fullscreenenter"",""1"",""8134""
","
","
","""event"",""trial"",""time""
""fullscreenenter"",""1"",""8134""
","
","","","-1","","","24","14660","135","a","elianto","#f73b6a7A","-1","-1","1","0","[]","0","2","","","14660","93","7","4","lose","no-go","0"
"pit-trial","212","1725346","0.0-98.0","battery-v0.2","","""event"",""trial"",""time""
""fullscreenenter"",""1"",""8134""
","
","
","""event"",""trial"",""time""
""fullscreenenter"",""1"",""8134""
","
","","","860.8999999761581","","","24","14660","135","g","elianto","#f73b6a7A"," "," ","1","-10","[1711.2999999523163]","1","2","","","14660","94","6","3","lose","go","1"
"pit-trial","213","1730203","0.0-99.0","battery-v0.2","","""event"",""trial"",""time""
""fullscreenenter"",""1"",""8134""
","
","
","""event"",""trial"",""time""
""fullscreenenter"",""1"",""8134""
","
","","","-1","","","24","14660","135","p","elianto","#3366ff99","-1","-1","1","+10","[]","0","2","","","14660","95","5","2","win","no-go","0"
"pit-trial","214","1734167","0.0-100.0","battery-v0.2","","""event"",""trial"",""time""
""fullscreenenter"",""1"",""8134""
","
","
","""event"",""trial"",""time""
""fullscreenenter"",""1"",""8134""
","
","","","1107.5999999642372","","","24","14660","135","l","elianto","#3366ff99"," "," ","1","0","[1957.800000011921]","1","2","","","14660","96","8","1","win","go","1"
"pit-trial","215","1739024","0.0-101.0","battery-v0.2","","""event"",""trial"",""time""
""fullscreenenter"",""1"",""8134""
","
","
","""event"",""trial"",""time""
""fullscreenenter"",""1"",""8134""
","
","","","-1","","","24","14660","135","a","elianto","#f73b6a7A","-1","-1","1","-10","[]","0","2","","","14660","97","7","4","lose","no-go","1"
"pit-trial","216","1743032","0.0-102.0","battery-v0.2","","""event"",""trial"",""time""
""fullscreenenter"",""1"",""8134""
","
","
","""event"",""trial"",""time""
""fullscreenenter"",""1"",""8134""
","
","","","1154.7999999523163","","","24","14660","135","p","elianto","#3366ff99","-1"," ","0","0","[2004.8999999761581]","1","2","","","14660","98","5","2","win","no-go","0"
"pit-trial","217","1747886","0.0-103.0","battery-v0.2","","""event"",""trial"",""time""
""fullscreenenter"",""1"",""8134""
","
","
","""event"",""trial"",""time""
""fullscreenenter"",""1"",""8134""
","
","","","-1","","","24","14660","135","l","elianto","#3366ff99"," ","-1","0","0","[]","0","2","","","14660","99","8","1","win","go","0"
"pit-trial","218","1751551","0.0-104.0","battery-v0.2","","""event"",""trial"",""time""
""fullscreenenter"",""1"",""8134""
","
","
","""event"",""trial"",""time""
""fullscreenenter"",""1"",""8134""
","
","","","811.6999999880791","","","24","14660","135","g","elianto","#f73b6a7A"," "," ","1","-10","[1662.199999988079]","1","2","","","14660","100","6","3","lose","go","1"
"pit-trial","219","1755319","0.0-105.0","battery-v0.2","","""event"",""trial"",""time""
""fullscreenenter"",""1"",""8134""
","
","
","""event"",""trial"",""time""
""fullscreenenter"",""1"",""8134""
","
","","","911.3999999761581","","","24","14660","135","l","elianto","#3366ff99"," "," ","1","0","[1762.5]","1","2","","","14660","101","8","1","win","go","1"
"pit-trial","220","1760174","0.0-106.0","battery-v0.2","","""event"",""trial"",""time""
""fullscreenenter"",""1"",""8134""
","
","
","""event"",""trial"",""time""
""fullscreenenter"",""1"",""8134""
","
","","","-1","","","24","14660","135","a","elianto","#f73b6a7A","-1","-1","1","0","[]","0","2","","","14660","102","7","4","lose","no-go","0"
"pit-trial","221","1764631","0.0-107.0","battery-v0.2","","""event"",""trial"",""time""
""fullscreenenter"",""1"",""8134""
","
","
","""event"",""trial"",""time""
""fullscreenenter"",""1"",""8134""
","
","","","1602.1000000238419","","","24","14660","135","u","elianto","#3366ff99"," "," ","1","+10","[2453.300000011921]","1","2","","","14660","103","9","1","win","go","0"
"pit-trial","222","1769487","0.0-108.0","battery-v0.2","","""event"",""trial"",""time""
""fullscreenenter"",""1"",""8134""
","
","
","""event"",""trial"",""time""
""fullscreenenter"",""1"",""8134""
","
","","","-1","","","24","14660","135","p","elianto","#3366ff99","-1","-1","1","+10","[]","0","2","","","14660","104","5","2","win","no-go","0"
"pit-trial","223","1773586","0.0-109.0","battery-v0.2","","""event"",""trial"",""time""
""fullscreenenter"",""1"",""8134""
","
","
","""event"",""trial"",""time""
""fullscreenenter"",""1"",""8134""
","
","","","1244.199999988079","","","24","14660","135","s","elianto","#3366ff99"," "," ","1","0","[2095.400000035763]","1","2","","","14660","105","4","1","win","go","1"
"pit-trial","224","1777538","0.0-110.0","battery-v0.2","","""event"",""trial"",""time""
""fullscreenenter"",""1"",""8134""
","
","
","""event"",""trial"",""time""
""fullscreenenter"",""1"",""8134""
","
","","","1096.300000011921","","","24","14660","135","g","elianto","#f73b6a7A"," "," ","1","0","[1946.3999999761581]","1","2","","","14660","106","6","3","lose","go","0"
"pit-trial","225","1781601","0.0-111.0","battery-v0.2","","""event"",""trial"",""time""
""fullscreenenter"",""1"",""8134""
","
","
","""event"",""trial"",""time""
""fullscreenenter"",""1"",""8134""
","
","","","1206.0999999642372","","","24","14660","135","l","elianto","#3366ff99"," "," ","1","+10","[2056.899999976158]","1","2","","","14660","107","8","1","win","go","0"
"pit-trial","226","1786458","0.0-112.0","battery-v0.2","","""event"",""trial"",""time""
""fullscreenenter"",""1"",""8134""
","
","
","""event"",""trial"",""time""
""fullscreenenter"",""1"",""8134""
","
","","","-1","","","24","14660","135","u","elianto","#3366ff99"," ","-1","0","0","[]","0","2","","","14660","108","9","1","win","go","0"
"pit-trial","227","1790529","0.0-113.0","battery-v0.2","","""event"",""trial"",""time""
""fullscreenenter"",""1"",""8134""
","
","
","""event"",""trial"",""time""
""fullscreenenter"",""1"",""8134""
","
","","","1217.5","","","24","14660","135","p","elianto","#3366ff99","-1"," ","0","0","[2067.7999999523163]","1","2","","","14660","109","5","2","win","no-go","0"
"pit-trial","228","1794523","0.0-114.0","battery-v0.2","","""event"",""trial"",""time""
""fullscreenenter"",""1"",""8134""
","
","
","""event"",""trial"",""time""
""fullscreenenter"",""1"",""8134""
","
","","","1138.6000000238419","","","24","14660","135","g","elianto","#f73b6a7A"," "," ","1","0","[1988.699999988079]","1","2","","","14660","110","6","3","lose","go","0"
"pit-trial","229","1798595","0.0-115.0","battery-v0.2","","""event"",""trial"",""time""
""fullscreenenter"",""1"",""8134""
","
","
","""event"",""trial"",""time""
""fullscreenenter"",""1"",""8134""
","
","","","1215.5","","","24","14660","135","u","elianto","#3366ff99"," "," ","1","0","[2065.5]","1","2","","","14660","111","9","1","win","go","1"
"pit-trial","230","1802674","0.0-116.0","battery-v0.2","","""event"",""trial"",""time""
""fullscreenenter"",""1"",""8134""
","
","
","""event"",""trial"",""time""
""fullscreenenter"",""1"",""8134""
","
","","","1222.199999988079","","","24","14660","135","l","elianto","#3366ff99"," "," ","1","+10","[2073.099999964237]","1","2","","","14660","112","8","1","win","go","0"
"pit-trial","231","1807532","0.0-117.0","battery-v0.2","","""event"",""trial"",""time""
""fullscreenenter"",""1"",""8134""
","
","
","""event"",""trial"",""time""
""fullscreenenter"",""1"",""8134""
","
","","","-1","","","24","14660","135","p","elianto","#3366ff99","-1","-1","1","0","[]","0","2","","","14660","113","5","2","win","no-go","1"
"pit-trial","232","1811894","0.0-118.0","battery-v0.2","","""event"",""trial"",""time""
""fullscreenenter"",""1"",""8134""
","
","
","""event"",""trial"",""time""
""fullscreenenter"",""1"",""8134""
","
","","","1506.0999999642372","","","24","14660","135","u","elianto","#3366ff99"," "," ","1","+10","[2356.800000011921]","1","2","","","14660","114","9","1","win","go","0"
"pit-trial","233","1815636","0.0-119.0","battery-v0.2","","""event"",""trial"",""time""
""fullscreenenter"",""1"",""8134""
","
","
","""event"",""trial"",""time""
""fullscreenenter"",""1"",""8134""
","
","","","885.3000000119209","","","24","14660","135","g","elianto","#f73b6a7A"," "," ","1","0","[1736]","1","2","","","14660","115","6","3","lose","go","0"
"pit-trial","234","1820491","0.0-120.0","battery-v0.2","","""event"",""trial"",""time""
""fullscreenenter"",""1"",""8134""
","
","
","""event"",""trial"",""time""
""fullscreenenter"",""1"",""8134""
","
","","","-1","","","24","14660","135","l","elianto","#3366ff99"," ","-1","0","0","[]","0","2","","","14660","116","8","1","win","go","0"
"pit-trial","235","1824060","0.0-121.0","battery-v0.2","","""event"",""trial"",""time""
""fullscreenenter"",""1"",""8134""
","
","
","""event"",""trial"",""time""
""fullscreenenter"",""1"",""8134""
","
","","","715.4000000357628","","","24","14660","135","g","elianto","#f73b6a7A"," "," ","1","-10","[1566.199999988079]","1","2","","","14660","117","6","3","lose","go","1"
"pit-trial","236","1828915","0.0-122.0","battery-v0.2","","""event"",""trial"",""time""
""fullscreenenter"",""1"",""8134""
","
","
","""event"",""trial"",""time""
""fullscreenenter"",""1"",""8134""
","
","","","-1","","","24","14660","135","p","elianto","#3366ff99","-1","-1","1","+10","[]","0","2","","","14660","118","5","2","win","no-go","0"
"pit-trial","237","1833770","0.0-123.0","battery-v0.2","","""event"",""trial"",""time""
""fullscreenenter"",""1"",""8134""
","
","
","""event"",""trial"",""time""
""fullscreenenter"",""1"",""8134""
","
","","","-1","","","24","14660","135","u","elianto","#3366ff99"," ","-1","0","0","[]","0","2","","","14660","119","9","1","win","go","0"
"pit-trial","238","1837478","0.0-124.0","battery-v0.2","","""event"",""trial"",""time""
""fullscreenenter"",""1"",""8134""
","
","
","""event"",""trial"",""time""
""fullscreenenter"",""1"",""8134""
","
","","","851.8999999761581","","","24","14660","135","l","elianto","#3366ff99"," "," ","1","0","[1702.5999999642372]","1","2","","","14660","120","8","1","win","go","1"
"pit-trial","239","1841545","0.0-125.0","battery-v0.2","","""event"",""trial"",""time""
""fullscreenenter"",""1"",""8134""
","
","
","""event"",""trial"",""time""
""fullscreenenter"",""1"",""8134""
","
","","","1211.3999999761581","","","24","14660","135","u","elianto","#3366ff99"," "," ","1","+10","[2062.199999988079]","1","2","","","14660","121","9","1","win","go","0"
"pit-trial","240","1846404","0.0-126.0","battery-v0.2","","""event"",""trial"",""time""
""fullscreenenter"",""1"",""8134""
","
","
","""event"",""trial"",""time""
""fullscreenenter"",""1"",""8134""
","
","","","-1","","","24","14660","135","a","elianto","#f73b6a7A","-1","-1","1","0","[]","0","2","","","14660","122","7","4","lose","no-go","0"
"pit-trial","241","1850084","0.0-127.0","battery-v0.2","","""event"",""trial"",""time""
""fullscreenenter"",""1"",""8134""
","
","
","""event"",""trial"",""time""
""fullscreenenter"",""1"",""8134""
","
","","","827.2000000476837","","","24","14660","135","g","elianto","#f73b6a7A"," "," ","1","0","[1677.6000000238419]","1","2","","","14660","123","6","3","lose","go","0"
"pit-trial","242","1853951","0.0-128.0","battery-v0.2","","""event"",""trial"",""time""
""fullscreenenter"",""1"",""8134""
","
","
","""event"",""trial"",""time""
""fullscreenenter"",""1"",""8134""
","
","","","1012.8000000119209","","","24","14660","135","l","elianto","#3366ff99"," "," ","1","+10","[1862.800000011921]","1","2","","","14660","124","8","1","win","go","0"
"pit-trial","243","1858806","0.0-129.0","battery-v0.2","","""event"",""trial"",""time""
""fullscreenenter"",""1"",""8134""
","
","
","""event"",""trial"",""time""
""fullscreenenter"",""1"",""8134""
","
","","","-1","","","24","14660","135","a","elianto","#f73b6a7A","-1","-1","1","0","[]","0","2","","","14660","125","7","4","lose","no-go","0"
"pit-trial","244","1863028","0.0-130.0","battery-v0.2","","""event"",""trial"",""time""
""fullscreenenter"",""1"",""8134""
","
","
","""event"",""trial"",""time""
""fullscreenenter"",""1"",""8134""
","
","","","1365.800000011921","","","24","14660","135","u","elianto","#3366ff99"," "," ","1","+10","[2215.800000011921]","1","2","","","14660","126","9","1","win","go","0"
"pit-trial","245","1866767","0.0-131.0","battery-v0.2","","""event"",""trial"",""time""
""fullscreenenter"",""1"",""8134""
","
","
","""event"",""trial"",""time""
""fullscreenenter"",""1"",""8134""
","
","","","883.3999999761581","","","24","14660","135","g","elianto","#f73b6a7A"," "," ","1","-10","[1733.3999999761581]","1","2","","","14660","127","6","3","lose","go","1"
"pit-trial","246","1870409","0.0-132.0","battery-v0.2","","""event"",""trial"",""time""
""fullscreenenter"",""1"",""8134""
","
","
","""event"",""trial"",""time""
""fullscreenenter"",""1"",""8134""
","
","","","783.5","","","24","14660","135","l","elianto","#3366ff99"," "," ","1","+10","[1634.699999988079]","1","2","","","14660","128","8","1","win","go","0"
"pit-trial","247","1873982","0.0-133.0","battery-v0.2","","""event"",""trial"",""time""
""fullscreenenter"",""1"",""8134""
","
","
","""event"",""trial"",""time""
""fullscreenenter"",""1"",""8134""
","
","","","718.6999999880791","","","24","14660","135","l","elianto","#3366ff99"," "," ","1","+10","[1569.3999999761581]","1","2","","","14660","129","8","1","win","go","0"
"pit-trial","248","1878839","0.0-134.0","battery-v0.2","","""event"",""trial"",""time""
""fullscreenenter"",""1"",""8134""
","
","
","""event"",""trial"",""time""
""fullscreenenter"",""1"",""8134""
","
","","","-1","","","24","14660","135","a","elianto","#f73b6a7A","-1","-1","1","0","[]","0","2","","","14660","130","7","4","lose","no-go","0"
"pit-trial","249","1882461","0.0-135.0","battery-v0.2","","""event"",""trial"",""time""
""fullscreenenter"",""1"",""8134""
","
","
","""event"",""trial"",""time""
""fullscreenenter"",""1"",""8134""
","
","","","768.6999999880791","","","24","14660","135","g","elianto","#f73b6a7A"," "," ","1","0","[1618.800000011921]","1","2","","","14660","131","6","3","lose","go","0"
"pit-trial","250","1886961","0.0-136.0","battery-v0.2","","""event"",""trial"",""time""
""fullscreenenter"",""1"",""8134""
","
","
","""event"",""trial"",""time""
""fullscreenenter"",""1"",""8134""
","
","","","1646.3999999761581","","","24","14660","135","u","elianto","#3366ff99"," "," ","1","+10","[2497.199999988079]","1","2","","","14660","132","9","1","win","go","0"
"pit-trial","251","1891820","0.0-137.0","battery-v0.2","","""event"",""trial"",""time""
""fullscreenenter"",""1"",""8134""
","
","
","""event"",""trial"",""time""
""fullscreenenter"",""1"",""8134""
","
","","","-1","","","24","14660","135","u","elianto","#3366ff99"," ","-1","0","0","[]","0","2","","","14660","133","9","1","win","go","0"
"pit-trial","252","1895356","0.0-138.0","battery-v0.2","","""event"",""trial"",""time""
""fullscreenenter"",""1"",""8134""
","
","
","""event"",""trial"",""time""
""fullscreenenter"",""1"",""8134""
","
","","","683.4000000357628","","","24","14660","135","g","elianto","#f73b6a7A"," "," ","1","-10","[1533.4000000357628]","1","2","","","14660","134","6","3","lose","go","1"
"pit-trial","253","1899313","0.0-139.0","battery-v0.2","","""event"",""trial"",""time""
""fullscreenenter"",""1"",""8134""
","
","
","""event"",""trial"",""time""
""fullscreenenter"",""1"",""8134""
","
","","","1101.300000011921","","","24","14660","135","l","elianto","#3366ff99"," "," ","1","0","[1953]","1","2","","","14660","135","8","1","win","go","1"
"pit-trial","254","1904170","0.0-140.0","battery-v0.2","","""event"",""trial"",""time""
""fullscreenenter"",""1"",""8134""
","
","
","""event"",""trial"",""time""
""fullscreenenter"",""1"",""8134""
","
","","","-1","","","24","14660","135","a","elianto","#f73b6a7A","-1","-1","1","0","[]","0","2","","","14660","136","7","4","lose","no-go","0"
"pit-trial","255","1909024","0.0-141.0","battery-v0.2","","""event"",""trial"",""time""
""fullscreenenter"",""1"",""8134""
","
","
","""event"",""trial"",""time""
""fullscreenenter"",""1"",""8134""
","
","","","-1","","","24","14660","135","a","elianto","#f73b6a7A","-1","-1","1","0","[]","0","2","","","14660","137","7","4","lose","no-go","0"
"pit-trial","256","1912644","0.0-142.0","battery-v0.2","","""event"",""trial"",""time""
""fullscreenenter"",""1"",""8134""
","
","
","""event"",""trial"",""time""
""fullscreenenter"",""1"",""8134""
","
","","","764.3000000119209","","","24","14660","135","g","elianto","#f73b6a7A"," "," ","1","0","[1614.5]","1","2","","","14660","138","6","3","lose","go","0"
"pit-trial","257","1917484","0.0-143.0","battery-v0.2","","""event"",""trial"",""time""
""fullscreenenter"",""1"",""8134""
","
","
","""event"",""trial"",""time""
""fullscreenenter"",""1"",""8134""
","
","","","1986.5","","","24","14660","135","u","elianto","#3366ff99"," "," ","1","+10","[2837]","1","2","","","14660","139","9","1","win","go","0"
"pit-trial","258","1922340","0.0-144.0","battery-v0.2","","""event"",""trial"",""time""
""fullscreenenter"",""1"",""8134""
","
","
","""event"",""trial"",""time""
""fullscreenenter"",""1"",""8134""
","
","","","-1","","","24","14660","135","l","elianto","#3366ff99"," ","-1","0","0","[]","0","2","","","14660","140","8","1","win","go","0"
"pit-instructions","259","2054287","0.0-145.0","battery-v0.2","","""event"",""trial"",""time""
""fullscreenenter"",""1"",""8134""
","
","
","""event"",""trial"",""time""
""fullscreenenter"",""1"",""8134""
","
","","[{""page_index"":0,""viewing_time"":123267},{""page_index"":1,""viewing_time"":8678.300000011921}]","131945.60000002384","","","","","","","","","","","","","","","","","","","","","","","",""
"pit-trial","260","2059155","0.0-146.0","battery-v0.2","","""event"",""trial"",""time""
""fullscreenenter"",""1"",""8134""
","
","
","""event"",""trial"",""time""
""fullscreenenter"",""1"",""8134""
","
","","","-1","","","24","14660","135","n","elianto","#f73b6a7A","-1","-1","1","0","[]","0","3","","","14660","141","0","4","lose","no-go","0"
"pit-trial","261","2062790","0.0-147.0","battery-v0.2","","""event"",""trial"",""time""
""fullscreenenter"",""1"",""8134""
","
","
","""event"",""trial"",""time""
""fullscreenenter"",""1"",""8134""
","
","","","768.6000000238419","","","24","14660","135","b","elianto","#f73b6a7A"," "," ","1","0","[1622.1000000238419]","1","3","","","14660","142","3","3","lose","go","0"
"pit-trial","262","2066993","0.0-148.0","battery-v0.2","","""event"",""trial"",""time""
""fullscreenenter"",""1"",""8134""
","
","
","""event"",""trial"",""time""
""fullscreenenter"",""1"",""8134""
","
","","","1332","","","24","14660","135","f","elianto","#3366ff99"," "," ","1","+10","[2186]","1","3","","","14660","143","1","1","win","go","0"
"pit-trial","263","2071862","0.0-149.0","battery-v0.2","","""event"",""trial"",""time""
""fullscreenenter"",""1"",""8134""
","
","
","""event"",""trial"",""time""
""fullscreenenter"",""1"",""8134""
","
","","","-1","","","24","14660","135","t","elianto","#f73b6a7A","-1","-1","1","0","[]","0","3","","","14660","144","2","4","lose","no-go","0"
"pit-trial","264","2076734","0.0-150.0","battery-v0.2","","""event"",""trial"",""time""
""fullscreenenter"",""1"",""8134""
","
","
","""event"",""trial"",""time""
""fullscreenenter"",""1"",""8134""
","
","","","-1","","","24","14660","135","f","elianto","#3366ff99"," ","-1","0","0","[]","0","3","","","14660","145","1","1","win","go","0"
"pit-trial","265","2080781","0.0-151.0","battery-v0.2","","""event"",""trial"",""time""
""fullscreenenter"",""1"",""8134""
","
","
","""event"",""trial"",""time""
""fullscreenenter"",""1"",""8134""
","
","","","1180.0999999642372","","","24","14660","135","b","elianto","#f73b6a7A"," "," ","1","0","[2034.6000000238419]","1","3","","","14660","146","3","3","lose","go","0"
"pit-trial","266","2085643","0.0-152.0","battery-v0.2","","""event"",""trial"",""time""
""fullscreenenter"",""1"",""8134""
","
","
","""event"",""trial"",""time""
""fullscreenenter"",""1"",""8134""
","
","","","-1","","","24","14660","135","n","elianto","#f73b6a7A","-1","-1","1","0","[]","0","3","","","14660","147","0","4","lose","no-go","0"
"pit-trial","267","2089628","0.0-153.0","battery-v0.2","","""event"",""trial"",""time""
""fullscreenenter"",""1"",""8134""
","
","
","""event"",""trial"",""time""
""fullscreenenter"",""1"",""8134""
","
