"trial_type","trial_index","time_elapsed","internal_node_id","task_version","subject_id","interactions","blur_events","focus_events","fullscreenenter_events","fullscreenexit_events","success","view_history","rt","responses","num_errors","age","subject","participantId","rune","rune_set","hex","correct","choice","accuracy","outcome","keys","total_keys","block","practice","value","sub","trial","stimulus","robot","valence","action","sham"
"pavlovia","0","5","0.0-0.0","battery-v0.2","","""event"",""trial"",""time""
""fullscreenenter"",""1"",""1239""
","
","
","""event"",""trial"",""time""
""fullscreenenter"",""1"",""1239""
","
","","","","","","","","","","","","","","","","","","","","","","","","","","",""
"fullscreen","1","2231","0.0-1.0","battery-v0.2","","""event"",""trial"",""time""
""fullscreenenter"",""1"",""1239""
","
","
","""event"",""trial"",""time""
""fullscreenenter"",""1"",""1239""
","
","true","","","","","","","","","","","","","","","","","","","","","","","","","",""
"pit-instructions","2","5747","0.0-2.0-0.0","battery-v0.2","","""event"",""trial"",""time""
""fullscreenenter"",""1"",""1239""
""blur"",""3"",""9192""
""focus"",""3"",""27297""
","""event"",""trial"",""time""
""blur"",""3"",""9192""
","""event"",""trial"",""time""
""focus"",""3"",""27297""
","""event"",""trial"",""time""
""fullscreenenter"",""1"",""1239""
","
","","[{""page_index"":0,""viewing_time"":3514.2999999821186}]","3514.5","","","","","","","","","","","","","","","","","","","","","","","",""
"pit-comprehension","3","28721","0.0-2.0-1.0-0.0","battery-v0.2","","""event"",""trial"",""time""
""fullscreenenter"",""1"",""1239""
""blur"",""3"",""9192""
""focus"",""3"",""27297""
","""event"",""trial"",""time""
""blur"",""3"",""9192""
","""event"",""trial"",""time""
""focus"",""3"",""27297""
","""event"",""trial"",""time""
""fullscreenenter"",""1"",""1239""
","
","","","22973.30000001192","[""shark""]","0","14","10551","4933","","","","","","","","","","","","","","","","","","",""
"pit-instructions","4","29982","0.0-2.0-1.0-1.0","battery-v0.2","","""event"",""trial"",""time""
""fullscreenenter"",""1"",""1239""
""blur"",""3"",""9192""
""focus"",""3"",""27297""
","""event"",""trial"",""time""
""blur"",""3"",""9192""
","""event"",""trial"",""time""
""focus"",""3"",""27297""
","""event"",""trial"",""time""
""fullscreenenter"",""1"",""1239""
","
","","[{""page_index"":0,""viewing_time"":1255.300000011921}]","1255.4000000059605","","","","","","","","","","","","","","","","","","","","","","","",""
"pit-comprehension","5","32306","0.0-2.0-2.0-0.0","battery-v0.2","","""event"",""trial"",""time""
""fullscreenenter"",""1"",""1239""
""blur"",""3"",""9192""
""focus"",""3"",""27297""
","""event"",""trial"",""time""
""blur"",""3"",""9192""
","""event"",""trial"",""time""
""focus"",""3"",""27297""
","""event"",""trial"",""time""
""fullscreenenter"",""1"",""1239""
","
","","","2323.4000000059605","[""tiger""]","0","14","10551","4933","","","","","","","","","","","","","","","","","","",""
"pit-instructions","6","33232","0.0-2.0-2.0-1.0","battery-v0.2","","""event"",""trial"",""time""
""fullscreenenter"",""1"",""1239""
""blur"",""3"",""9192""
""focus"",""3"",""27297""
","""event"",""trial"",""time""
""blur"",""3"",""9192""
","""event"",""trial"",""time""
""focus"",""3"",""27297""
","""event"",""trial"",""time""
""fullscreenenter"",""1"",""1239""
","
","","[{""page_index"":0,""viewing_time"":923.9000000059605}]","924.1000000238419","","","","","","","","","","","","","","","","","","","","","","","",""
"pit-instructions","7","129609","0.0-2.0-3.0","battery-v0.2","","""event"",""trial"",""time""
""fullscreenenter"",""1"",""1239""
""blur"",""3"",""9192""
""focus"",""3"",""27297""
","""event"",""trial"",""time""
""blur"",""3"",""9192""
","""event"",""trial"",""time""
""focus"",""3"",""27297""
","""event"",""trial"",""time""
""fullscreenenter"",""1"",""1239""
","
","","[{""page_index"":0,""viewing_time"":9213.899999976158},{""page_index"":1,""viewing_time"":5876.9000000059605},{""page_index"":2,""viewing_time"":7094.5},{""page_index"":3,""viewing_time"":7392},{""page_index"":4,""viewing_time"":5285.5999999940395},{""page_index"":5,""viewing_time"":5411.9000000059605},{""page_index"":6,""viewing_time"":7170},{""page_index"":7,""viewing_time"":6324},{""page_index"":8,""viewing_time"":6290},{""page_index"":9,""viewing_time"":8522.09999999404},{""page_index"":10,""viewing_time"":7523.5},{""page_index"":11,""viewing_time"":7620.5},{""page_index"":12,""viewing_time"":7245.300000011921},{""page_index"":13,""viewing_time"":5405.0999999940395}]","96375.5","","","","","","","","","","","","","","","","","","","","","","","",""
"pit-trial","8","132920","0.0-2.0-4.0-0.0","battery-v0.2","","""event"",""trial"",""time""
""fullscreenenter"",""1"",""1239""
""blur"",""3"",""9192""
""focus"",""3"",""27297""
","""event"",""trial"",""time""
""blur"",""3"",""9192""
","""event"",""trial"",""time""
""focus"",""3"",""27297""
","""event"",""trial"",""time""
""fullscreenenter"",""1"",""1239""
","
","","","445.19999998807907","","","14","10551","4933","&#9784;","elianto","#FFFFF080"," "," ","1","&#10004","[1298.7999999821186]","1","0","0","","","","","","","",""
"pit-trial","9","136210","0.0-2.0-4.1-0.1","battery-v0.2","","""event"",""trial"",""time""
""fullscreenenter"",""1"",""1239""
""blur"",""3"",""9192""
""focus"",""3"",""27297""
","""event"",""trial"",""time""
""blur"",""3"",""9192""
","""event"",""trial"",""time""
""focus"",""3"",""27297""
","""event"",""trial"",""time""
""fullscreenenter"",""1"",""1239""
","
","","","424.30000001192093","","","14","10551","4933","&#9784;","elianto","#FFFFF080"," "," ","1","&#10004","[1275.7000000178814]","1","0","0","","","","","","","",""
"pit-trial","10","139662","0.0-2.0-4.2-0.2","battery-v0.2","","""event"",""trial"",""time""
""fullscreenenter"",""1"",""1239""
""blur"",""3"",""9192""
""focus"",""3"",""27297""
","""event"",""trial"",""time""
""blur"",""3"",""9192""
","""event"",""trial"",""time""
""focus"",""3"",""27297""
","""event"",""trial"",""time""
""fullscreenenter"",""1"",""1239""
","
","","","584.2999999821186","","","14","10551","4933","&#9784;","elianto","#FFFFF080"," "," ","1","&#10004","[1436.9000000059605]","1","0","0","","","","","","","",""
"pit-trial","11","143044","0.0-2.0-4.3-0.3","battery-v0.2","","""event"",""trial"",""time""
""fullscreenenter"",""1"",""1239""
""blur"",""3"",""9192""
""focus"",""3"",""27297""
","""event"",""trial"",""time""
""blur"",""3"",""9192""
","""event"",""trial"",""time""
""focus"",""3"",""27297""
","""event"",""trial"",""time""
""fullscreenenter"",""1"",""1239""
","
","","","524.9000000059605","","","14","10551","4933","&#9784;","elianto","#FFFFF080"," "," ","1","&#10004","[1380.300000011921]","1","0","0","","","","","","","",""
"pit-trial","12","146401","0.0-2.0-4.4-0.4","battery-v0.2","","""event"",""trial"",""time""
""fullscreenenter"",""1"",""1239""
""blur"",""3"",""9192""
""focus"",""3"",""27297""
","""event"",""trial"",""time""
""blur"",""3"",""9192""
","""event"",""trial"",""time""
""focus"",""3"",""27297""
","""event"",""trial"",""time""
""fullscreenenter"",""1"",""1239""
","
","","","493.89999997615814","","","14","10551","4933","&#9784;","elianto","#FFFFF080"," "," ","1","&#10004","[1347.2999999821186]","1","0","0","","","","","","","",""
"pit-instructions","13","169105","0.0-2.0-5.0","battery-v0.2","","""event"",""trial"",""time""
""fullscreenenter"",""1"",""1239""
""blur"",""3"",""9192""
""focus"",""3"",""27297""
","""event"",""trial"",""time""
""blur"",""3"",""9192""
","""event"",""trial"",""time""
""focus"",""3"",""27297""
","""event"",""trial"",""time""
""fullscreenenter"",""1"",""1239""
","
","","[{""page_index"":0,""viewing_time"":7173.200000017881},{""page_index"":1,""viewing_time"":5350.5},{""page_index"":2,""viewing_time"":5059.5},{""page_index"":3,""viewing_time"":5119.699999988079}]","22703.100000023842","","","","","","","","","","","","","","","","","","","","","","","",""
"pit-trial","14","173965","0.0-2.0-6.0-0.0","battery-v0.2","","""event"",""trial"",""time""
""fullscreenenter"",""1"",""1239""
""blur"",""3"",""9192""
""focus"",""3"",""27297""
","""event"",""trial"",""time""
""blur"",""3"",""9192""
","""event"",""trial"",""time""
""focus"",""3"",""27297""
","""event"",""trial"",""time""
""fullscreenenter"",""1"",""1239""
","
","","","-1","","","14","10551","4933","&#9854;","elianto","#FFFFF080","-1","-1","1","&#10004","[]","0","0","1","","","","","","","",""
"pit-trial","15","178830","0.0-2.0-6.1-0.1","battery-v0.2","","""event"",""trial"",""time""
""fullscreenenter"",""1"",""1239""
""blur"",""3"",""9192""
""focus"",""3"",""27297""
","""event"",""trial"",""time""
""blur"",""3"",""9192""
","""event"",""trial"",""time""
""focus"",""3"",""27297""
","""event"",""trial"",""time""
""fullscreenenter"",""1"",""1239""
","
","","","-1","","","14","10551","4933","&#9854;","elianto","#FFFFF080","-1","-1","1","&#10004","[]","0","0","1","","","","","","","",""
"pit-trial","16","183693","0.0-2.0-6.2-0.2","battery-v0.2","","""event"",""trial"",""time""
""fullscreenenter"",""1"",""1239""
""blur"",""3"",""9192""
""focus"",""3"",""27297""
","""event"",""trial"",""time""
""blur"",""3"",""9192""
","""event"",""trial"",""time""
""focus"",""3"",""27297""
","""event"",""trial"",""time""
""fullscreenenter"",""1"",""1239""
","
","","","-1","","","14","10551","4933","&#9854;","elianto","#FFFFF080","-1","-1","1","&#10004","[]","0","0","1","","","","","","","",""
"pit-trial","17","188560","0.0-2.0-6.3-0.3","battery-v0.2","","""event"",""trial"",""time""
""fullscreenenter"",""1"",""1239""
""blur"",""3"",""9192""
""focus"",""3"",""27297""
","""event"",""trial"",""time""
""blur"",""3"",""9192""
","""event"",""trial"",""time""
""focus"",""3"",""27297""
","""event"",""trial"",""time""
""fullscreenenter"",""1"",""1239""
","
","","","-1","","","14","10551","4933","&#9854;","elianto","#FFFFF080","-1","-1","1","&#10004","[]","0","0","1","","","","","","","",""
"pit-trial","18","193427","0.0-2.0-6.4-0.4","battery-v0.2","","""event"",""trial"",""time""
""fullscreenenter"",""1"",""1239""
""blur"",""3"",""9192""
""focus"",""3"",""27297""
","""event"",""trial"",""time""
""blur"",""3"",""9192""
","""event"",""trial"",""time""
""focus"",""3"",""27297""
","""event"",""trial"",""time""
""fullscreenenter"",""1"",""1239""
","
","","","-1","","","14","10551","4933","&#9854;","elianto","#FFFFF080","-1","-1","1","&#10004","[]","0","0","1","","","","","","","",""
"pit-instructions","19","305640","0.0-2.0-7.0","battery-v0.2","","""event"",""trial"",""time""
""fullscreenenter"",""1"",""1239""
""blur"",""3"",""9192""
""focus"",""3"",""27297""
","""event"",""trial"",""time""
""blur"",""3"",""9192""
","""event"",""trial"",""time""
""focus"",""3"",""27297""
","""event"",""trial"",""time""
""fullscreenenter"",""1"",""1239""
","
","","[{""page_index"":0,""viewing_time"":5595},{""page_index"":1,""viewing_time"":6809.800000011921},{""page_index"":2,""viewing_time"":5932.5999999940395},{""page_index"":3,""viewing_time"":5926.5999999940395},{""page_index"":4,""viewing_time"":5182.100000023842},{""page_index"":5,""viewing_time"":5391.799999982119},{""page_index"":6,""viewing_time"":4036.9000000059605},{""page_index"":7,""viewing_time"":7803},{""page_index"":8,""viewing_time"":6362.800000011921},{""page_index"":9,""viewing_time"":5538.299999982119},{""page_index"":10,""viewing_time"":6426.300000011921},{""page_index"":11,""viewing_time"":5979.5999999940395},{""page_index"":12,""viewing_time"":6251},{""page_index"":13,""viewing_time"":7054.9000000059605},{""page_index"":14,""viewing_time"":6595.0999999940395},{""page_index"":15,""viewing_time"":7511.699999988079},{""page_index"":16,""viewing_time"":6360.300000011921},{""page_index"":17,""viewing_time"":7452.800000011921}]","112210.80000001192","","","","","","","","","","","","","","","","","","","","","","","",""
"pit-trial","20","309564","0.0-2.0-8.0-0.0","battery-v0.2","","""event"",""trial"",""time""
""fullscreenenter"",""1"",""1239""
""blur"",""3"",""9192""
""focus"",""3"",""27297""
","""event"",""trial"",""time""
""blur"",""3"",""9192""
","""event"",""trial"",""time""
""focus"",""3"",""27297""
","""event"",""trial"",""time""
""fullscreenenter"",""1"",""1239""
","
","","","1068.3999999761581","","","14","10551","4933","&#9776;","elianto","#3366ff99"," "," ","1","+10","[1919.0999999940395]","1","0","1","","","","","","","",""
"pit-trial","21","312817","0.0-2.0-8.0-1.0","battery-v0.2","","""event"",""trial"",""time""
""fullscreenenter"",""1"",""1239""
""blur"",""3"",""9192""
""focus"",""3"",""27297""
","""event"",""trial"",""time""
""blur"",""3"",""9192""
","""event"",""trial"",""time""
""focus"",""3"",""27297""
","""event"",""trial"",""time""
""fullscreenenter"",""1"",""1239""
","
","","","389.19999998807907","","","14","10551","4933","&#9776;","elianto","#3366ff99"," "," ","1","+10","[1242.699999988079]","1","0","1","","","","","","","",""
"pit-trial","22","315866","0.0-2.0-8.0-2.0","battery-v0.2","","""event"",""trial"",""time""
""fullscreenenter"",""1"",""1239""
""blur"",""3"",""9192""
""focus"",""3"",""27297""
","""event"",""trial"",""time""
""blur"",""3"",""9192""
","""event"",""trial"",""time""
""focus"",""3"",""27297""
","""event"",""trial"",""time""
""fullscreenenter"",""1"",""1239""
","
","","","179.69999998807907","","","14","10551","4933","&#9776;","elianto","#3366ff99"," "," ","1","+10","[1034.699999988079]","1","0","1","","","","","","","",""
"pit-trial","23","319118","0.0-2.0-8.0-3.0","battery-v0.2","","""event"",""trial"",""time""
""fullscreenenter"",""1"",""1239""
""blur"",""3"",""9192""
""focus"",""3"",""27297""
","""event"",""trial"",""time""
""blur"",""3"",""9192""
","""event"",""trial"",""time""
""focus"",""3"",""27297""
","""event"",""trial"",""time""
""fullscreenenter"",""1"",""1239""
","
","","","386.40000000596046","","","14","10551","4933","&#9776;","elianto","#3366ff99"," "," ","1","0","[1240.9000000059605]","1","0","1","","","","","","","",""
"pit-trial","24","322347","0.0-2.0-8.0-4.0","battery-v0.2","","""event"",""trial"",""time""
""fullscreenenter"",""1"",""1239""
""blur"",""3"",""9192""
""focus"",""3"",""27297""
","""event"",""trial"",""time""
""blur"",""3"",""9192""
","""event"",""trial"",""time""
""focus"",""3"",""27297""
","""event"",""trial"",""time""
""fullscreenenter"",""1"",""1239""
","
","","","362.69999998807907","","","14","10551","4933","&#9776;","elianto","#3366ff99"," "," ","1","+10","[1213.2999999821186]","1","0","1","","","","","","","",""
"pit-trial","25","325548","0.0-2.0-8.1-0.1","battery-v0.2","","""event"",""trial"",""time""
""fullscreenenter"",""1"",""1239""
""blur"",""3"",""9192""
""focus"",""3"",""27297""
","""event"",""trial"",""time""
""blur"",""3"",""9192""
","""event"",""trial"",""time""
""focus"",""3"",""27297""
","""event"",""trial"",""time""
""fullscreenenter"",""1"",""1239""
","
","","","334.7999999821186","","","14","10551","4933","&#9776;","elianto","#3366ff99"," "," ","1","+10","[1186]","1","0","1","","","","","","","",""
"pit-trial","26","328740","0.0-2.0-8.1-1.1","battery-v0.2","","""event"",""trial"",""time""
""fullscreenenter"",""1"",""1239""
""blur"",""3"",""9192""
""focus"",""3"",""27297""
","""event"",""trial"",""time""
""blur"",""3"",""9192""
","""event"",""trial"",""time""
""focus"",""3"",""27297""
","""event"",""trial"",""time""
""fullscreenenter"",""1"",""1239""
","
","","","335.40000000596046","","","14","10551","4933","&#9776;","elianto","#3366ff99"," "," ","1","+10","[1186.5]","1","0","1","","","","","","","",""
"pit-trial","27","331942","0.0-2.0-8.1-2.1","battery-v0.2","","""event"",""trial"",""time""
""fullscreenenter"",""1"",""1239""
""blur"",""3"",""9192""
""focus"",""3"",""27297""
","""event"",""trial"",""time""
""blur"",""3"",""9192""
","""event"",""trial"",""time""
""focus"",""3"",""27297""
","""event"",""trial"",""time""
""fullscreenenter"",""1"",""1239""
","
","","","335.59999999403954","","","14","10551","4933","&#9776;","elianto","#3366ff99"," "," ","1","+10","[1188.5]","1","0","1","","","","","","","",""
"pit-trial","28","334945","0.0-2.0-8.1-3.1","battery-v0.2","","""event"",""trial"",""time""
""fullscreenenter"",""1"",""1239""
""blur"",""3"",""9192""
""focus"",""3"",""27297""
","""event"",""trial"",""time""
""blur"",""3"",""9192""
","""event"",""trial"",""time""
""focus"",""3"",""27297""
","""event"",""trial"",""time""
""fullscreenenter"",""1"",""1239""
","
","","","150.59999999403954","","","14","10551","4933","&#9776;","elianto","#3366ff99"," "," ","1","0","[1001.6999999880791]","1","0","1","","","","","","","",""
"pit-trial","29","338097","0.0-2.0-8.1-4.1","battery-v0.2","","""event"",""trial"",""time""
""fullscreenenter"",""1"",""1239""
""blur"",""3"",""9192""
""focus"",""3"",""27297""
","""event"",""trial"",""time""
""blur"",""3"",""9192""
","""event"",""trial"",""time""
""focus"",""3"",""27297""
","""event"",""trial"",""time""
""fullscreenenter"",""1"",""1239""
","
","","","300.09999999403954","","","14","10551","4933","&#9776;","elianto","#3366ff99"," "," ","1","+10","[1150.4000000059605]","1","0","1","","","","","","","",""
"pit-trial","30","341169","0.0-2.0-8.2-0.2","battery-v0.2","","""event"",""trial"",""time""
""fullscreenenter"",""1"",""1239""
""blur"",""3"",""9192""
""focus"",""3"",""27297""
","""event"",""trial"",""time""
""blur"",""3"",""9192""
","""event"",""trial"",""time""
""focus"",""3"",""27297""
","""event"",""trial"",""time""
""fullscreenenter"",""1"",""1239""
","
","","","219.30000001192093","","","14","10551","4933","&#9776;","elianto","#3366ff99"," "," ","1","+10","[1069.800000011921]","1","0","1","","","","","","","",""
"pit-trial","31","344511","0.0-2.0-8.2-1.2","battery-v0.2","","""event"",""trial"",""time""
""fullscreenenter"",""1"",""1239""
""blur"",""3"",""9192""
""focus"",""3"",""27297""
","""event"",""trial"",""time""
""blur"",""3"",""9192""
","""event"",""trial"",""time""
""focus"",""3"",""27297""
","""event"",""trial"",""time""
""fullscreenenter"",""1"",""1239""
","
","","","490.30000001192093","","","14","10551","4933","&#9776;","elianto","#3366ff99"," "," ","1","+10","[1340.800000011921]","1","0","1","","","","","","","",""
"pit-trial","32","347465","0.0-2.0-8.2-2.2","battery-v0.2","","""event"",""trial"",""time""
""fullscreenenter"",""1"",""1239""
""blur"",""3"",""9192""
""focus"",""3"",""27297""
","""event"",""trial"",""time""
""blur"",""3"",""9192""
","""event"",""trial"",""time""
""focus"",""3"",""27297""
","""event"",""trial"",""time""
""fullscreenenter"",""1"",""1239""
","
","","","102.19999998807907","","","14","10551","4933","&#9776;","elianto","#3366ff99"," "," ","1","+10","[953]","1","0","1","","","","","","","",""
"pit-trial","33","350625","0.0-2.0-8.2-3.2","battery-v0.2","","""event"",""trial"",""time""
""fullscreenenter"",""1"",""1239""
""blur"",""3"",""9192""
""focus"",""3"",""27297""
","""event"",""trial"",""time""
""blur"",""3"",""9192""
","""event"",""trial"",""time""
""focus"",""3"",""27297""
","""event"",""trial"",""time""
""fullscreenenter"",""1"",""1239""
","
","","","307.5","","","14","10551","4933","&#9776;","elianto","#3366ff99"," "," ","1","0","[1157.800000011921]","1","0","1","","","","","","","",""
"pit-trial","34","353766","0.0-2.0-8.2-4.2","battery-v0.2","","""event"",""trial"",""time""
""fullscreenenter"",""1"",""1239""
""blur"",""3"",""9192""
""focus"",""3"",""27297""
","""event"",""trial"",""time""
""blur"",""3"",""9192""
","""event"",""trial"",""time""
""focus"",""3"",""27297""
","""event"",""trial"",""time""
""fullscreenenter"",""1"",""1239""
","
","","","289","","","14","10551","4933","&#9776;","elianto","#3366ff99"," "," ","1","+10","[1139.699999988079]","1","0","1","","","","","","","",""
"call-function","35","353766","0.0-2.0-9.0","battery-v0.2","","""event"",""trial"",""time""
""fullscreenenter"",""1"",""1239""
""blur"",""3"",""9192""
""focus"",""3"",""27297""
","""event"",""trial"",""time""
""blur"",""3"",""9192""
","""event"",""trial"",""time""
""focus"",""3"",""27297""
","""event"",""trial"",""time""
""fullscreenenter"",""1"",""1239""
","
","","","","","","","","","","","","","","","","","","","","","","","","","","",""
"pit-instructions","36","390833","0.0-2.0-10.0","battery-v0.2","","""event"",""trial"",""time""
""fullscreenenter"",""1"",""1239""
""blur"",""3"",""9192""
""focus"",""3"",""27297""
","""event"",""trial"",""time""
""blur"",""3"",""9192""
","""event"",""trial"",""time""
""focus"",""3"",""27297""
","""event"",""trial"",""time""
""fullscreenenter"",""1"",""1239""
","
","","[{""page_index"":0,""viewing_time"":5386.799999982119},{""page_index"":1,""viewing_time"":6672.9000000059605},{""page_index"":2,""viewing_time"":9212.59999999404},{""page_index"":3,""viewing_time"":8457.100000023842},{""page_index"":4,""viewing_time"":7336.899999976158}]","37066.40000000596","","","","","","","","","","","","","","","","","","","","","","","",""
"pit-trial","37","394129","0.0-2.0-11.0-0.0","battery-v0.2","","""event"",""trial"",""time""
""fullscreenenter"",""1"",""1239""
""blur"",""3"",""9192""
""focus"",""3"",""27297""
","""event"",""trial"",""time""
""blur"",""3"",""9192""
","""event"",""trial"",""time""
""focus"",""3"",""27297""
","""event"",""trial"",""time""
""fullscreenenter"",""1"",""1239""
","
","","","439.10000002384186","","","14","10551","4933","&#9761;","elianto","#3366ff99","-1"," ","0","0","[1289.9000000059605]","1","0","2","","","","","","","",""
"pit-trial","38","397213","0.0-2.0-11.0-1.0","battery-v0.2","","""event"",""trial"",""time""
""fullscreenenter"",""1"",""1239""
""blur"",""3"",""9192""
""focus"",""3"",""27297""
","""event"",""trial"",""time""
""blur"",""3"",""9192""
","""event"",""trial"",""time""
""focus"",""3"",""27297""
","""event"",""trial"",""time""
""fullscreenenter"",""1"",""1239""
","
","","","220.09999999403954","","","14","10551","4933","&#9761;","elianto","#3366ff99","-1"," ","0","0","[1071.5]","1","0","2","","","","","","","",""
"pit-trial","39","402070","0.0-2.0-11.0-2.0","battery-v0.2","","""event"",""trial"",""time""
""fullscreenenter"",""1"",""1239""
""blur"",""3"",""9192""
""focus"",""3"",""27297""
","""event"",""trial"",""time""
""blur"",""3"",""9192""
","""event"",""trial"",""time""
""focus"",""3"",""27297""
","""event"",""trial"",""time""
""fullscreenenter"",""1"",""1239""
","
","","","-1","","","14","10551","4933","&#9761;","elianto","#3366ff99","-1","-1","1","+10","[]","0","0","2","","","","","","","",""
"pit-trial","40","406942","0.0-2.0-11.0-3.0","battery-v0.2","","""event"",""trial"",""time""
""fullscreenenter"",""1"",""1239""
""blur"",""3"",""9192""
""focus"",""3"",""27297""
","""event"",""trial"",""time""
""blur"",""3"",""9192""
","""event"",""trial"",""time""
""focus"",""3"",""27297""
","""event"",""trial"",""time""
""fullscreenenter"",""1"",""1239""
","
","","","-1","","","14","10551","4933","&#9761;","elianto","#3366ff99","-1","-1","1","0","[]","0","0","2","","","","","","","",""
"pit-trial","41","411821","0.0-2.0-11.0-4.0","battery-v0.2","","""event"",""trial"",""time""
""fullscreenenter"",""1"",""1239""
""blur"",""3"",""9192""
""focus"",""3"",""27297""
","""event"",""trial"",""time""
""blur"",""3"",""9192""
","""event"",""trial"",""time""
""focus"",""3"",""27297""
","""event"",""trial"",""time""
""fullscreenenter"",""1"",""1239""
","
","","","-1","","","14","10551","4933","&#9761;","elianto","#3366ff99","-1","-1","1","+10","[]","0","0","2","","","","","","","",""
"pit-trial","42","416694","0.0-2.0-11.1-0.1","battery-v0.2","","""event"",""trial"",""time""
""fullscreenenter"",""1"",""1239""
""blur"",""3"",""9192""
""focus"",""3"",""27297""
","""event"",""trial"",""time""
""blur"",""3"",""9192""
","""event"",""trial"",""time""
""focus"",""3"",""27297""
","""event"",""trial"",""time""
""fullscreenenter"",""1"",""1239""
","
","","","-1","","","14","10551","4933","&#9761;","elianto","#3366ff99","-1","-1","1","+10","[]","0","0","2","","","","","","","",""
"pit-trial","43","421561","0.0-2.0-11.1-1.1","battery-v0.2","","""event"",""trial"",""time""
""fullscreenenter"",""1"",""1239""
""blur"",""3"",""9192""
""focus"",""3"",""27297""
","""event"",""trial"",""time""
""blur"",""3"",""9192""
","""event"",""trial"",""time""
""focus"",""3"",""27297""
","""event"",""trial"",""time""
""fullscreenenter"",""1"",""1239""
","
","","","-1","","","14","10551","4933","&#9761;","elianto","#3366ff99","-1","-1","1","+10","[]","0","0","2","","","","","","","",""
"pit-trial","44","426414","0.0-2.0-11.1-2.1","battery-v0.2","","""event"",""trial"",""time""
""fullscreenenter"",""1"",""1239""
""blur"",""3"",""9192""
""focus"",""3"",""27297""
","""event"",""trial"",""time""
""blur"",""3"",""9192""
","""event"",""trial"",""time""
""focus"",""3"",""27297""
","""event"",""trial"",""time""
""fullscreenenter"",""1"",""1239""
","
","","","-1","","","14","10551","4933","&#9761;","elianto","#3366ff99","-1","-1","1","+10","[]","0","0","2","","","","","","","",""
"pit-trial","45","431266","0.0-2.0-11.1-3.1","battery-v0.2","","""event"",""trial"",""time""
""fullscreenenter"",""1"",""1239""
""blur"",""3"",""9192""
""focus"",""3"",""27297""
","""event"",""trial"",""time""
""blur"",""3"",""9192""
","""event"",""trial"",""time""
""focus"",""3"",""27297""
","""event"",""trial"",""time""
""fullscreenenter"",""1"",""1239""
","
","","","-1","","","14","10551","4933","&#9761;","elianto","#3366ff99","-1","-1","1","0","[]","0","0","2","","","","","","","",""
"pit-trial","46","436119","0.0-2.0-11.1-4.1","battery-v0.2","","""event"",""trial"",""time""
""fullscreenenter"",""1"",""1239""
""blur"",""3"",""9192""
""focus"",""3"",""27297""
","""event"",""trial"",""time""
""blur"",""3"",""9192""
","""event"",""trial"",""time""
""focus"",""3"",""27297""
","""event"",""trial"",""time""
""fullscreenenter"",""1"",""1239""
","
","","","-1","","","14","10551","4933","&#9761;","elianto","#3366ff99","-1","-1","1","+10","[]","0","0","2","","","","","","","",""
"pit-trial","47","440972","0.0-2.0-11.2-0.2","battery-v0.2","","""event"",""trial"",""time""
""fullscreenenter"",""1"",""1239""
""blur"",""3"",""9192""
""focus"",""3"",""27297""
","""event"",""trial"",""time""
""blur"",""3"",""9192""
","""event"",""trial"",""time""
""focus"",""3"",""27297""
","""event"",""trial"",""time""
""fullscreenenter"",""1"",""1239""
","
","","","-1","","","14","10551","4933","&#9761;","elianto","#3366ff99","-1","-1","1","+10","[]","0","0","2","","","","","","","",""
"pit-trial","48","445824","0.0-2.0-11.2-1.2","battery-v0.2","","""event"",""trial"",""time""
""fullscreenenter"",""1"",""1239""
""blur"",""3"",""9192""
""focus"",""3"",""27297""
","""event"",""trial"",""time""
""blur"",""3"",""9192""
","""event"",""trial"",""time""
""focus"",""3"",""27297""
","""event"",""trial"",""time""
""fullscreenenter"",""1"",""1239""
","
","","","-1","","","14","10551","4933","&#9761;","elianto","#3366ff99","-1","-1","1","+10","[]","0","0","2","","","","","","","",""
"pit-trial","49","450676","0.0-2.0-11.2-2.2","battery-v0.2","","""event"",""trial"",""time""
""fullscreenenter"",""1"",""1239""
""blur"",""3"",""9192""
""focus"",""3"",""27297""
","""event"",""trial"",""time""
""blur"",""3"",""9192""
","""event"",""trial"",""time""
""focus"",""3"",""27297""
","""event"",""trial"",""time""
""fullscreenenter"",""1"",""1239""
","
","","","-1","","","14","10551","4933","&#9761;","elianto","#3366ff99","-1","-1","1","+10","[]","0","0","2","","","","","","","",""
"pit-trial","50","455530","0.0-2.0-11.2-3.2","battery-v0.2","","""event"",""trial"",""time""
""fullscreenenter"",""1"",""1239""
""blur"",""3"",""9192""
""focus"",""3"",""27297""
","""event"",""trial"",""time""
""blur"",""3"",""9192""
","""event"",""trial"",""time""
""focus"",""3"",""27297""
","""event"",""trial"",""time""
""fullscreenenter"",""1"",""1239""
","
","","","-1","","","14","10551","4933","&#9761;","elianto","#3366ff99","-1","-1","1","0","[]","0","0","2","","","","","","","",""
"pit-trial","51","460381","0.0-2.0-11.2-4.2","battery-v0.2","","""event"",""trial"",""time""
""fullscreenenter"",""1"",""1239""
""blur"",""3"",""9192""
""focus"",""3"",""27297""
","""event"",""trial"",""time""
""blur"",""3"",""9192""
","""event"",""trial"",""time""
""focus"",""3"",""27297""
","""event"",""trial"",""time""
""fullscreenenter"",""1"",""1239""
","
","","","-1","","","14","10551","4933","&#9761;","elianto","#3366ff99","-1","-1","1","+10","[]","0","0","2","","","","","","","",""
"pit-trial","52","465235","0.0-2.0-11.3-0.3","battery-v0.2","","""event"",""trial"",""time""
""fullscreenenter"",""1"",""1239""
""blur"",""3"",""9192""
""focus"",""3"",""27297""
","""event"",""trial"",""time""
""blur"",""3"",""9192""
","""event"",""trial"",""time""
""focus"",""3"",""27297""
","""event"",""trial"",""time""
""fullscreenenter"",""1"",""1239""
","
","","","-1","","","14","10551","4933","&#9761;","elianto","#3366ff99","-1","-1","1","+10","[]","0","0","2","","","","","","","",""
"pit-trial","53","470088","0.0-2.0-11.3-1.3","battery-v0.2","","""event"",""trial"",""time""
""fullscreenenter"",""1"",""1239""
""blur"",""3"",""9192""
""focus"",""3"",""27297""
","""event"",""trial"",""time""
""blur"",""3"",""9192""
","""event"",""trial"",""time""
""focus"",""3"",""27297""
","""event"",""trial"",""time""
""fullscreenenter"",""1"",""1239""
","
","","","-1","","","14","10551","4933","&#9761;","elianto","#3366ff99","-1","-1","1","+10","[]","0","0","2","","","","","","","",""
"pit-trial","54","474941","0.0-2.0-11.3-2.3","battery-v0.2","","""event"",""trial"",""time""
""fullscreenenter"",""1"",""1239""
""blur"",""3"",""9192""
""focus"",""3"",""27297""
","""event"",""trial"",""time""
""blur"",""3"",""9192""
","""event"",""trial"",""time""
""focus"",""3"",""27297""
","""event"",""trial"",""time""
""fullscreenenter"",""1"",""1239""
","
","","","-1","","","14","10551","4933","&#9761;","elianto","#3366ff99","-1","-1","1","+10","[]","0","0","2","","","","","","","",""
"pit-trial","55","479793","0.0-2.0-11.3-3.3","battery-v0.2","","""event"",""trial"",""time""
""fullscreenenter"",""1"",""1239""
""blur"",""3"",""9192""
""focus"",""3"",""27297""
","""event"",""trial"",""time""
""blur"",""3"",""9192""
","""event"",""trial"",""time""
""focus"",""3"",""27297""
","""event"",""trial"",""time""
""fullscreenenter"",""1"",""1239""
","
","","","-1","","","14","10551","4933","&#9761;","elianto","#3366ff99","-1","-1","1","0","[]","0","0","2","","","","","","","",""
"pit-trial","56","484646","0.0-2.0-11.3-4.3","battery-v0.2","","""event"",""trial"",""time""
""fullscreenenter"",""1"",""1239""
""blur"",""3"",""9192""
""focus"",""3"",""27297""
","""event"",""trial"",""time""
""blur"",""3"",""9192""
","""event"",""trial"",""time""
""focus"",""3"",""27297""
","""event"",""trial"",""time""
""fullscreenenter"",""1"",""1239""
","
","","","-1","","","14","10551","4933","&#9761;","elianto","#3366ff99","-1","-1","1","+10","[]","0","0","2","","","","","","","",""
"call-function","57","484647","0.0-2.0-12.0","battery-v0.2","","""event"",""trial"",""time""
""fullscreenenter"",""1"",""1239""
""blur"",""3"",""9192""
""focus"",""3"",""27297""
","""event"",""trial"",""time""
""blur"",""3"",""9192""
","""event"",""trial"",""time""
""focus"",""3"",""27297""
","""event"",""trial"",""time""
""fullscreenenter"",""1"",""1239""
","
","","","","","","","","","","","","","","","","","","","","","","","","","","",""
"pit-instructions","58","515325","0.0-2.0-13.0","battery-v0.2","","""event"",""trial"",""time""
""fullscreenenter"",""1"",""1239""
""blur"",""3"",""9192""
""focus"",""3"",""27297""
","""event"",""trial"",""time""
""blur"",""3"",""9192""
","""event"",""trial"",""time""
""focus"",""3"",""27297""
","""event"",""trial"",""time""
""fullscreenenter"",""1"",""1239""
","
","","[{""page_index"":0,""viewing_time"":4869.299999982119},{""page_index"":1,""viewing_time"":7182.0999999940395},{""page_index"":2,""viewing_time"":3397},{""page_index"":3,""viewing_time"":10335.90000000596},{""page_index"":4,""viewing_time"":4894.300000011921}]","30678.69999998808","","","","","","","","","","","","","","","","","","","","","","","",""
"pit-trial","59","518558","0.0-2.0-14.0-0.0","battery-v0.2","","""event"",""trial"",""time""
""fullscreenenter"",""1"",""1239""
""blur"",""3"",""9192""
""focus"",""3"",""27297""
","""event"",""trial"",""time""
""blur"",""3"",""9192""
","""event"",""trial"",""time""
""focus"",""3"",""27297""
","""event"",""trial"",""time""
""fullscreenenter"",""1"",""1239""
","
","","","369.09999999403954","","","14","10551","4933","&#9826;","elianto","#f73b6a7A","-1"," ","0","-10","[1222]","1","0","3","","","","","","","",""
"pit-trial","60","521741","0.0-2.0-14.0-1.0","battery-v0.2","","""event"",""trial"",""time""
""fullscreenenter"",""1"",""1239""
""blur"",""3"",""9192""
""focus"",""3"",""27297""
","""event"",""trial"",""time""
""blur"",""3"",""9192""
","""event"",""trial"",""time""
""focus"",""3"",""27297""
","""event"",""trial"",""time""
""fullscreenenter"",""1"",""1239""
","
","","","325","","","14","10551","4933","&#9826;","elianto","#f73b6a7A","-1"," ","0","-10","[1176.0999999940395]","1","0","3","","","","","","","",""
"pit-trial","61","526606","0.0-2.0-14.0-2.0","battery-v0.2","","""event"",""trial"",""time""
""fullscreenenter"",""1"",""1239""
""blur"",""3"",""9192""
""focus"",""3"",""27297""
","""event"",""trial"",""time""
""blur"",""3"",""9192""
","""event"",""trial"",""time""
""focus"",""3"",""27297""
","""event"",""trial"",""time""
""fullscreenenter"",""1"",""1239""
","
","","","-1","","","14","10551","4933","&#9826;","elianto","#f73b6a7A","-1","-1","1","0","[]","0","0","3","","","","","","","",""
"pit-trial","62","531472","0.0-2.0-14.0-3.0","battery-v0.2","","""event"",""trial"",""time""
""fullscreenenter"",""1"",""1239""
""blur"",""3"",""9192""
""focus"",""3"",""27297""
","""event"",""trial"",""time""
""blur"",""3"",""9192""
","""event"",""trial"",""time""
""focus"",""3"",""27297""
","""event"",""trial"",""time""
""fullscreenenter"",""1"",""1239""
","
","","","-1","","","14","10551","4933","&#9826;","elianto","#f73b6a7A","-1","-1","1","-10","[]","0","0","3","","","","","","","",""
"pit-trial","63","536339","0.0-2.0-14.0-4.0","battery-v0.2","","""event"",""trial"",""time""
""fullscreenenter"",""1"",""1239""
""blur"",""3"",""9192""
""focus"",""3"",""27297""
","""event"",""trial"",""time""
""blur"",""3"",""9192""
","""event"",""trial"",""time""
""focus"",""3"",""27297""
","""event"",""trial"",""time""
""fullscreenenter"",""1"",""1239""
","
","","","-1","","","14","10551","4933","&#9826;","elianto","#f73b6a7A","-1","-1","1","0","[]","0","0","3","","","","","","","",""
"pit-trial","64","541212","0.0-2.0-14.1-0.1","battery-v0.2","","""event"",""trial"",""time""
""fullscreenenter"",""1"",""1239""
""blur"",""3"",""9192""
""focus"",""3"",""27297""
","""event"",""trial"",""time""
""blur"",""3"",""9192""
","""event"",""trial"",""time""
""focus"",""3"",""27297""
","""event"",""trial"",""time""
""fullscreenenter"",""1"",""1239""
","
","","","-1","","","14","10551","4933","&#9826;","elianto","#f73b6a7A","-1","-1","1","0","[]","0","0","3","","","","","","","",""
"pit-trial","65","546067","0.0-2.0-14.1-1.1","battery-v0.2","","""event"",""trial"",""time""
""fullscreenenter"",""1"",""1239""
""blur"",""3"",""9192""
""focus"",""3"",""27297""
","""event"",""trial"",""time""
""blur"",""3"",""9192""
","""event"",""trial"",""time""
""focus"",""3"",""27297""
","""event"",""trial"",""time""
""fullscreenenter"",""1"",""1239""
","
","","","-1","","","14","10551","4933","&#9826;","elianto","#f73b6a7A","-1","-1","1","0","[]","0","0","3","","","","","","","",""
"pit-trial","66","550920","0.0-2.0-14.1-2.1","battery-v0.2","","""event"",""trial"",""time""
""fullscreenenter"",""1"",""1239""
""blur"",""3"",""9192""
""focus"",""3"",""27297""
","""event"",""trial"",""time""
""blur"",""3"",""9192""
","""event"",""trial"",""time""
""focus"",""3"",""27297""
","""event"",""trial"",""time""
""fullscreenenter"",""1"",""1239""
","
","","","-1","","","14","10551","4933","&#9826;","elianto","#f73b6a7A","-1","-1","1","0","[]","0","0","3","","","","","","","",""
"pit-trial","67","555771","0.0-2.0-14.1-3.1","battery-v0.2","","""event"",""trial"",""time""
""fullscreenenter"",""1"",""1239""
""blur"",""3"",""9192""
""focus"",""3"",""27297""
","""event"",""trial"",""time""
""blur"",""3"",""9192""
","""event"",""trial"",""time""
""focus"",""3"",""27297""
","""event"",""trial"",""time""
""fullscreenenter"",""1"",""1239""
","
","","","-1","","","14","10551","4933","&#9826;","elianto","#f73b6a7A","-1","-1","1","-10","[]","0","0","3","","","","","","","",""
"pit-trial","68","560625","0.0-2.0-14.1-4.1","battery-v0.2","","""event"",""trial"",""time""
""fullscreenenter"",""1"",""1239""
""blur"",""3"",""9192""
""focus"",""3"",""27297""
","""event"",""trial"",""time""
""blur"",""3"",""9192""
","""event"",""trial"",""time""
""focus"",""3"",""27297""
","""event"",""trial"",""time""
""fullscreenenter"",""1"",""1239""
","
","","","-1","","","14","10551","4933","&#9826;","elianto","#f73b6a7A","-1","-1","1","0","[]","0","0","3","","","","","","","",""
"pit-trial","69","565478","0.0-2.0-14.2-0.2","battery-v0.2","","""event"",""trial"",""time""
""fullscreenenter"",""1"",""1239""
""blur"",""3"",""9192""
""focus"",""3"",""27297""
","""event"",""trial"",""time""
""blur"",""3"",""9192""
","""event"",""trial"",""time""
""focus"",""3"",""27297""
","""event"",""trial"",""time""
""fullscreenenter"",""1"",""1239""
","
","","","-1","","","14","10551","4933","&#9826;","elianto","#f73b6a7A","-1","-1","1","0","[]","0","0","3","","","","","","","",""
"pit-trial","70","570331","0.0-2.0-14.2-1.2","battery-v0.2","","""event"",""trial"",""time""
""fullscreenenter"",""1"",""1239""
""blur"",""3"",""9192""
""focus"",""3"",""27297""
","""event"",""trial"",""time""
""blur"",""3"",""9192""
","""event"",""trial"",""time""
""focus"",""3"",""27297""
","""event"",""trial"",""time""
""fullscreenenter"",""1"",""1239""
","
","","","-1","","","14","10551","4933","&#9826;","elianto","#f73b6a7A","-1","-1","1","0","[]","0","0","3","","","","","","","",""
"pit-trial","71","575183","0.0-2.0-14.2-2.2","battery-v0.2","","""event"",""trial"",""time""
""fullscreenenter"",""1"",""1239""
""blur"",""3"",""9192""
""focus"",""3"",""27297""
","""event"",""trial"",""time""
""blur"",""3"",""9192""
","""event"",""trial"",""time""
""focus"",""3"",""27297""
","""event"",""trial"",""time""
""fullscreenenter"",""1"",""1239""
","
","","","-1","","","14","10551","4933","&#9826;","elianto","#f73b6a7A","-1","-1","1","0","[]","0","0","3","","","","","","","",""
"pit-trial","72","580036","0.0-2.0-14.2-3.2","battery-v0.2","","""event"",""trial"",""time""
""fullscreenenter"",""1"",""1239""
""blur"",""3"",""9192""
""focus"",""3"",""27297""
","""event"",""trial"",""time""
""blur"",""3"",""9192""
","""event"",""trial"",""time""
""focus"",""3"",""27297""
","""event"",""trial"",""time""
""fullscreenenter"",""1"",""1239""
","
","","","-1","","","14","10551","4933","&#9826;","elianto","#f73b6a7A","-1","-1","1","-10","[]","0","0","3","","","","","","","",""
"pit-trial","73","584889","0.0-2.0-14.2-4.2","battery-v0.2","","""event"",""trial"",""time""
""fullscreenenter"",""1"",""1239""
""blur"",""3"",""9192""
""focus"",""3"",""27297""
","""event"",""trial"",""time""
""blur"",""3"",""9192""
","""event"",""trial"",""time""
""focus"",""3"",""27297""
","""event"",""trial"",""time""
""fullscreenenter"",""1"",""1239""
","
","","","-1","","","14","10551","4933","&#9826;","elianto","#f73b6a7A","-1","-1","1","0","[]","0","0","3","","","","","","","",""
"pit-trial","74","589743","0.0-2.0-14.3-0.3","battery-v0.2","","""event"",""trial"",""time""
""fullscreenenter"",""1"",""1239""
""blur"",""3"",""9192""
""focus"",""3"",""27297""
","""event"",""trial"",""time""
""blur"",""3"",""9192""
","""event"",""trial"",""time""
""focus"",""3"",""27297""
","""event"",""trial"",""time""
""fullscreenenter"",""1"",""1239""
","
","","","-1","","","14","10551","4933","&#9826;","elianto","#f73b6a7A","-1","-1","1","0","[]","0","0","3","","","","","","","",""
"pit-trial","75","594594","0.0-2.0-14.3-1.3","battery-v0.2","","""event"",""trial"",""time""
""fullscreenenter"",""1"",""1239""
""blur"",""3"",""9192""
""focus"",""3"",""27297""
","""event"",""trial"",""time""
""blur"",""3"",""9192""
","""event"",""trial"",""time""
""focus"",""3"",""27297""
","""event"",""trial"",""time""
""fullscreenenter"",""1"",""1239""
","
","","","-1","","","14","10551","4933","&#9826;","elianto","#f73b6a7A","-1","-1","1","0","[]","0","0","3","","","","","","","",""
"pit-trial","76","599447","0.0-2.0-14.3-2.3","battery-v0.2","","""event"",""trial"",""time""
""fullscreenenter"",""1"",""1239""
""blur"",""3"",""9192""
""focus"",""3"",""27297""
","""event"",""trial"",""time""
""blur"",""3"",""9192""
","""event"",""trial"",""time""
""focus"",""3"",""27297""
","""event"",""trial"",""time""
""fullscreenenter"",""1"",""1239""
","
","","","-1","","","14","10551","4933","&#9826;","elianto","#f73b6a7A","-1","-1","1","0","[]","0","0","3","","","","","","","",""
"pit-trial","77","604300","0.0-2.0-14.3-3.3","battery-v0.2","","""event"",""trial"",""time""
""fullscreenenter"",""1"",""1239""
""blur"",""3"",""9192""
""focus"",""3"",""27297""
","""event"",""trial"",""time""
""blur"",""3"",""9192""
","""event"",""trial"",""time""
""focus"",""3"",""27297""
","""event"",""trial"",""time""
""fullscreenenter"",""1"",""1239""
","
","","","-1","","","14","10551","4933","&#9826;","elianto","#f73b6a7A","-1","-1","1","-10","[]","0","0","3","","","","","","","",""
"pit-trial","78","609154","0.0-2.0-14.3-4.3","battery-v0.2","","""event"",""trial"",""time""
""fullscreenenter"",""1"",""1239""
""blur"",""3"",""9192""
""focus"",""3"",""27297""
","""event"",""trial"",""time""
""blur"",""3"",""9192""
","""event"",""trial"",""time""
""focus"",""3"",""27297""
","""event"",""trial"",""time""
""fullscreenenter"",""1"",""1239""
","
","","","-1","","","14","10551","4933","&#9826;","elianto","#f73b6a7A","-1","-1","1","0","[]","0","0","3","","","","","","","",""
"call-function","79","609155","0.0-2.0-15.0","battery-v0.2","","""event"",""trial"",""time""
""fullscreenenter"",""1"",""1239""
""blur"",""3"",""9192""
""focus"",""3"",""27297""
","""event"",""trial"",""time""
""blur"",""3"",""9192""
","""event"",""trial"",""time""
""focus"",""3"",""27297""
","""event"",""trial"",""time""
""fullscreenenter"",""1"",""1239""
","
","","","","","","","","","","","","","","","","","","","","","","","","","","",""
"pit-instructions","80","634235","0.0-2.0-16.0","battery-v0.2","","""event"",""trial"",""time""
""fullscreenenter"",""1"",""1239""
""blur"",""3"",""9192""
""focus"",""3"",""27297""
","""event"",""trial"",""time""
""blur"",""3"",""9192""
","""event"",""trial"",""time""
""focus"",""3"",""27297""
","""event"",""trial"",""time""
""fullscreenenter"",""1"",""1239""
","
","","[{""page_index"":0,""viewing_time"":7321.700000017881},{""page_index"":1,""viewing_time"":8606.90000000596},{""page_index"":2,""viewing_time"":4388},{""page_index"":3,""viewing_time"":4763}]","25079.80000001192","","","","","","","","","","","","","","","","","","","","","","","",""
"pit-trial","81","637801","0.0-2.0-17.0-0.0","battery-v0.2","","""event"",""trial"",""time""
""fullscreenenter"",""1"",""1239""
""blur"",""3"",""9192""
""focus"",""3"",""27297""
","""event"",""trial"",""time""
""blur"",""3"",""9192""
","""event"",""trial"",""time""
""focus"",""3"",""27297""
","""event"",""trial"",""time""
""fullscreenenter"",""1"",""1239""
","
","","","699.0999999940395","","","14","10551","4933","&#9789;","elianto","#f73b6a7A"," "," ","1","0","[1551]","1","0","4","","","","","","","",""
"pit-trial","82","640920","0.0-2.0-17.0-1.0","battery-v0.2","","""event"",""trial"",""time""
""fullscreenenter"",""1"",""1239""
""blur"",""3"",""9192""
""focus"",""3"",""27297""
","""event"",""trial"",""time""
""blur"",""3"",""9192""
","""event"",""trial"",""time""
""focus"",""3"",""27297""
","""event"",""trial"",""time""
""fullscreenenter"",""1"",""1239""
","
","","","252.59999999403954","","","14","10551","4933","&#9789;","elianto","#f73b6a7A"," "," ","1","0","[1107.5]","1","0","4","","","","","","","",""
"pit-trial","83","643937","0.0-2.0-17.0-2.0","battery-v0.2","","""event"",""trial"",""time""
""fullscreenenter"",""1"",""1239""
""blur"",""3"",""9192""
""focus"",""3"",""27297""
","""event"",""trial"",""time""
""blur"",""3"",""9192""
","""event"",""trial"",""time""
""focus"",""3"",""27297""
","""event"",""trial"",""time""
""fullscreenenter"",""1"",""1239""
","
","","","149.5","","","14","10551","4933","&#9789;","elianto","#f73b6a7A"," "," ","1","0","[1000.9000000059605]","1","0","4","","","","","","","",""
"pit-trial","84","647024","0.0-2.0-17.0-3.0","battery-v0.2","","""event"",""trial"",""time""
""fullscreenenter"",""1"",""1239""
""blur"",""3"",""9192""
""focus"",""3"",""27297""
","""event"",""trial"",""time""
""blur"",""3"",""9192""
","""event"",""trial"",""time""
""focus"",""3"",""27297""
","""event"",""trial"",""time""
""fullscreenenter"",""1"",""1239""
","
","","","233.30000001192093","","","14","10551","4933","&#9789;","elianto","#f73b6a7A"," "," ","1","-10","[1085.5]","1","0","4","","","","","","","",""
"pit-trial","85","650201","0.0-2.0-17.0-4.0","battery-v0.2","","""event"",""trial"",""time""
""fullscreenenter"",""1"",""1239""
""blur"",""3"",""9192""
""focus"",""3"",""27297""
","""event"",""trial"",""time""
""blur"",""3"",""9192""
","""event"",""trial"",""time""
""focus"",""3"",""27297""
","""event"",""trial"",""time""
""fullscreenenter"",""1"",""1239""
","
","","","323.59999999403954","","","14","10551","4933","&#9789;","elianto","#f73b6a7A"," "," ","1","0","[1173.699999988079]","1","0","4","","","","","","","",""
"pit-trial","86","653203","0.0-2.0-17.1-0.1","battery-v0.2","","""event"",""trial"",""time""
""fullscreenenter"",""1"",""1239""
""blur"",""3"",""9192""
""focus"",""3"",""27297""
","""event"",""trial"",""time""
""blur"",""3"",""9192""
","""event"",""trial"",""time""
""focus"",""3"",""27297""
","""event"",""trial"",""time""
""fullscreenenter"",""1"",""1239""
","
","","","138.80000001192093","","","14","10551","4933","&#9789;","elianto","#f73b6a7A"," "," ","1","0","[992.4000000059605]","1","0","4","","","","","","","",""
"pit-trial","87","656376","0.0-2.0-17.1-1.1","battery-v0.2","","""event"",""trial"",""time""
""fullscreenenter"",""1"",""1239""
""blur"",""3"",""9192""
""focus"",""3"",""27297""
","""event"",""trial"",""time""
""blur"",""3"",""9192""
","""event"",""trial"",""time""
""focus"",""3"",""27297""
","""event"",""trial"",""time""
""fullscreenenter"",""1"",""1239""
","
","","","310.90000000596046","","","14","10551","4933","&#9789;","elianto","#f73b6a7A"," "," ","1","0","[1163.5999999940395]","1","0","4","","","","","","","",""
"pit-trial","88","659410","0.0-2.0-17.1-2.1","battery-v0.2","","""event"",""trial"",""time""
""fullscreenenter"",""1"",""1239""
""blur"",""3"",""9192""
""focus"",""3"",""27297""
","""event"",""trial"",""time""
""blur"",""3"",""9192""
","""event"",""trial"",""time""
""focus"",""3"",""27297""
","""event"",""trial"",""time""
""fullscreenenter"",""1"",""1239""
","
","","","173.40000000596046","","","14","10551","4933","&#9789;","elianto","#f73b6a7A"," "," ","1","0","[1025.7000000178814]","1","0","4","","","","","","","",""
"pit-trial","89","662615","0.0-2.0-17.1-3.1","battery-v0.2","","""event"",""trial"",""time""
""fullscreenenter"",""1"",""1239""
""blur"",""3"",""9192""
""focus"",""3"",""27297""
","""event"",""trial"",""time""
""blur"",""3"",""9192""
","""event"",""trial"",""time""
""focus"",""3"",""27297""
","""event"",""trial"",""time""
""fullscreenenter"",""1"",""1239""
","
","","","346.10000002384186","","","14","10551","4933","&#9789;","elianto","#f73b6a7A"," "," ","1","-10","[1198.2000000178814]","1","0","4","","","","","","","",""
"pit-trial","90","665929","0.0-2.0-17.1-4.1","battery-v0.2","","""event"",""trial"",""time""
""fullscreenenter"",""1"",""1239""
""blur"",""3"",""9192""
""focus"",""3"",""27297""
","""event"",""trial"",""time""
""blur"",""3"",""9192""
","""event"",""trial"",""time""
""focus"",""3"",""27297""
","""event"",""trial"",""time""
""fullscreenenter"",""1"",""1239""
","
","","","459.59999999403954","","","14","10551","4933","&#9789;","elianto","#f73b6a7A"," "," ","1","0","[1312]","1","0","4","","","","","","","",""
"pit-trial","91","669042","0.0-2.0-17.2-0.2","battery-v0.2","","""event"",""trial"",""time""
""fullscreenenter"",""1"",""1239""
""blur"",""3"",""9192""
""focus"",""3"",""27297""
","""event"",""trial"",""time""
""blur"",""3"",""9192""
","""event"",""trial"",""time""
""focus"",""3"",""27297""
","""event"",""trial"",""time""
""fullscreenenter"",""1"",""1239""
","
","","","260.69999998807907","","","14","10551","4933","&#9789;","elianto","#f73b6a7A"," "," ","1","0","[1111.5999999940395]","1","0","4","","","","","","","",""
"pit-trial","92","672053","0.0-2.0-17.2-1.2","battery-v0.2","","""event"",""trial"",""time""
""fullscreenenter"",""1"",""1239""
""blur"",""3"",""9192""
""focus"",""3"",""27297""
","""event"",""trial"",""time""
""blur"",""3"",""9192""
","""event"",""trial"",""time""
""focus"",""3"",""27297""
","""event"",""trial"",""time""
""fullscreenenter"",""1"",""1239""
","
","","","159.09999999403954","","","14","10551","4933","&#9789;","elianto","#f73b6a7A"," "," ","1","0","[1009.4000000059605]","1","0","4","","","","","","","",""
"pit-trial","93","675131","0.0-2.0-17.2-2.2","battery-v0.2","","""event"",""trial"",""time""
""fullscreenenter"",""1"",""1239""
""blur"",""3"",""9192""
""focus"",""3"",""27297""
","""event"",""trial"",""time""
""blur"",""3"",""9192""
","""event"",""trial"",""time""
""focus"",""3"",""27297""
","""event"",""trial"",""time""
""fullscreenenter"",""1"",""1239""
","
","","","227","","","14","10551","4933","&#9789;","elianto","#f73b6a7A"," "," ","1","0","[1077.2999999821186]","1","0","4","","","","","","","",""
"pit-trial","94","678474","0.0-2.0-17.2-3.2","battery-v0.2","","""event"",""trial"",""time""
""fullscreenenter"",""1"",""1239""
""blur"",""3"",""9192""
""focus"",""3"",""27297""
","""event"",""trial"",""time""
""blur"",""3"",""9192""
","""event"",""trial"",""time""
""focus"",""3"",""27297""
","""event"",""trial"",""time""
""fullscreenenter"",""1"",""1239""
","
","","","490.80000001192093","","","14","10551","4933","&#9789;","elianto","#f73b6a7A"," "," ","1","-10","[1341.5]","1","0","4","","","","","","","",""
"pit-trial","95","681618","0.0-2.0-17.2-4.2","battery-v0.2","","""event"",""trial"",""time""
""fullscreenenter"",""1"",""1239""
""blur"",""3"",""9192""
""focus"",""3"",""27297""
","""event"",""trial"",""time""
""blur"",""3"",""9192""
","""event"",""trial"",""time""
""focus"",""3"",""27297""
","""event"",""trial"",""time""
""fullscreenenter"",""1"",""1239""
","
","","","292.30000001192093","","","14","10551","4933","&#9789;","elianto","#f73b6a7A"," "," ","1","0","[1142.7000000178814]","1","0","4","","","","","","","",""
"pit-trial","96","685286","0.0-2.0-17.3-0.3","battery-v0.2","","""event"",""trial"",""time""
""fullscreenenter"",""1"",""1239""
""blur"",""3"",""9192""
""focus"",""3"",""27297""
","""event"",""trial"",""time""
""blur"",""3"",""9192""
","""event"",""trial"",""time""
""focus"",""3"",""27297""
","""event"",""trial"",""time""
""fullscreenenter"",""1"",""1239""
","
","","","816.5999999940395","","","14","10551","4933","&#9789;","elianto","#f73b6a7A"," "," ","1","0","[1666.7000000178814]","1","0","4","","","","","","","",""
"pit-trial","97","688373","0.0-2.0-17.3-1.3","battery-v0.2","","""event"",""trial"",""time""
""fullscreenenter"",""1"",""1239""
""blur"",""3"",""9192""
""focus"",""3"",""27297""
","""event"",""trial"",""time""
""blur"",""3"",""9192""
","""event"",""trial"",""time""
""focus"",""3"",""27297""
","""event"",""trial"",""time""
""fullscreenenter"",""1"",""1239""
","
","","","235.80000001192093","","","14","10551","4933","&#9789;","elianto","#f73b6a7A"," "," ","1","0","[1085.800000011921]","1","0","4","","","","","","","",""
"pit-trial","98","691667","0.0-2.0-17.3-2.3","battery-v0.2","","""event"",""trial"",""time""
""fullscreenenter"",""1"",""1239""
""blur"",""3"",""9192""
""focus"",""3"",""27297""
","""event"",""trial"",""time""
""blur"",""3"",""9192""
","""event"",""trial"",""time""
""focus"",""3"",""27297""
","""event"",""trial"",""time""
""fullscreenenter"",""1"",""1239""
","
","","","442.60000002384186","","","14","10551","4933","&#9789;","elianto","#f73b6a7A"," "," ","1","0","[344.90000000596046,1292.7000000178814]","2","0","4","","","","","","","",""
"pit-trial","99","695368","0.0-2.0-17.3-3.3","battery-v0.2","","""event"",""trial"",""time""
""fullscreenenter"",""1"",""1239""
""blur"",""3"",""9192""
""focus"",""3"",""27297""
","""event"",""trial"",""time""
""blur"",""3"",""9192""
","""event"",""trial"",""time""
""focus"",""3"",""27297""
","""event"",""trial"",""time""
""fullscreenenter"",""1"",""1239""
","
","","","848.8000000119209","","","14","10551","4933","&#9789;","elianto","#f73b6a7A"," "," ","1","-10","[1699.1000000238419]","1","0","4","","","","","","","",""
"pit-trial","100","698572","0.0-2.0-17.3-4.3","battery-v0.2","","""event"",""trial"",""time""
""fullscreenenter"",""1"",""1239""
""blur"",""3"",""9192""
""focus"",""3"",""27297""
","""event"",""trial"",""time""
""blur"",""3"",""9192""
","""event"",""trial"",""time""
""focus"",""3"",""27297""
","""event"",""trial"",""time""
""fullscreenenter"",""1"",""1239""
","
","","","351.59999999403954","","","14","10551","4933","&#9789;","elianto","#f73b6a7A"," "," ","1","0","[1202.3999999761581]","1","0","4","","","","","","","",""
"call-function","101","698573","0.0-2.0-18.0","battery-v0.2","","""event"",""trial"",""time""
""fullscreenenter"",""1"",""1239""
""blur"",""3"",""9192""
""focus"",""3"",""27297""
","""event"",""trial"",""time""
""blur"",""3"",""9192""
","""event"",""trial"",""time""
""focus"",""3"",""27297""
","""event"",""trial"",""time""
""fullscreenenter"",""1"",""1239""
","
","","","","","","","","","","","","","","","","","","","","","","","","","","",""
"pit-instructions","102","766692","0.0-2.0-19.0","battery-v0.2","","""event"",""trial"",""time""
""fullscreenenter"",""1"",""1239""
""blur"",""3"",""9192""
""focus"",""3"",""27297""
","""event"",""trial"",""time""
""blur"",""3"",""9192""
","""event"",""trial"",""time""
""focus"",""3"",""27297""
","""event"",""trial"",""time""
""fullscreenenter"",""1"",""1239""
","
","","[{""page_index"":0,""viewing_time"":6423.4000000059605},{""page_index"":1,""viewing_time"":5870.0999999940395},{""page_index"":2,""viewing_time"":13174.800000011921},{""page_index"":3,""viewing_time"":7433.299999982119},{""page_index"":4,""viewing_time"":8054.300000011921},{""page_index"":5,""viewing_time"":9612.5},{""page_index"":6,""viewing_time"":7847.9000000059605},{""page_index"":7,""viewing_time"":5885.299999982119},{""page_index"":8,""viewing_time"":3817.0999999940395}]","68118.80000001192","","","","","","","","","","","","","","","","","","","","","","","",""
"pit-comprehension","103","771020","0.0-2.0-20.0-0.0","battery-v0.2","","""event"",""trial"",""time""
""fullscreenenter"",""1"",""1239""
""blur"",""3"",""9192""
""focus"",""3"",""27297""
","""event"",""trial"",""time""
""blur"",""3"",""9192""
","""event"",""trial"",""time""
""focus"",""3"",""27297""
","""event"",""trial"",""time""
""fullscreenenter"",""1"",""1239""
","
","","","4326.5","[""SPACE""]","0","14","10551","4933","","","","","","","","","","","","","","","","","","",""
"pit-instructions","104","774863","0.0-2.0-20.0-1.0","battery-v0.2","","""event"",""trial"",""time""
""fullscreenenter"",""1"",""1239""
""blur"",""3"",""9192""
""focus"",""3"",""27297""
","""event"",""trial"",""time""
""blur"",""3"",""9192""
","""event"",""trial"",""time""
""focus"",""3"",""27297""
","""event"",""trial"",""time""
""fullscreenenter"",""1"",""1239""
","
","","[{""page_index"":0,""viewing_time"":3822}]","3822","","","","","","","","","","","","","","","","","","","","","","","",""
"pit-comprehension","105","780491","0.0-2.0-21.0-0.0","battery-v0.2","","""event"",""trial"",""time""
""fullscreenenter"",""1"",""1239""
""blur"",""3"",""9192""
""focus"",""3"",""27297""
","""event"",""trial"",""time""
""blur"",""3"",""9192""
","""event"",""trial"",""time""
""focus"",""3"",""27297""
","""event"",""trial"",""time""
""fullscreenenter"",""1"",""1239""
","
","","","5626","[""10""]","0","14","10551","4933","","","","","","","","","","","","","","","","","","",""
"pit-instructions","106","781973","0.0-2.0-21.0-1.0","battery-v0.2","","""event"",""trial"",""time""
""fullscreenenter"",""1"",""1239""
""blur"",""3"",""9192""
""focus"",""3"",""27297""
","""event"",""trial"",""time""
""blur"",""3"",""9192""
","""event"",""trial"",""time""
""focus"",""3"",""27297""
","""event"",""trial"",""time""
""fullscreenenter"",""1"",""1239""
","
","","[{""page_index"":0,""viewing_time"":1462.699999988079}]","1462.800000011921","","","","","","","","","","","","","","","","","","","","","","","",""
"pit-comprehension","107","788954","0.0-2.0-22.0-0.0","battery-v0.2","","""event"",""trial"",""time""
""fullscreenenter"",""1"",""1239""
""blur"",""3"",""9192""
""focus"",""3"",""27297""
","""event"",""trial"",""time""
""blur"",""3"",""9192""
","""event"",""trial"",""time""
""focus"",""3"",""27297""
","""event"",""trial"",""time""
""fullscreenenter"",""1"",""1239""
","
","","","6978.9000000059605","[""-10""]","1","14","10551","4933","","","","","","","","","","","","","","","","","","",""
"pit-instructions","108","795853","0.0-2.0-22.0-1.0","battery-v0.2","","""event"",""trial"",""time""
""fullscreenenter"",""1"",""1239""
""blur"",""3"",""9192""
""focus"",""3"",""27297""
","""event"",""trial"",""time""
""blur"",""3"",""9192""
","""event"",""trial"",""time""
""focus"",""3"",""27297""
","""event"",""trial"",""time""
""fullscreenenter"",""1"",""1239""
","
","","[{""page_index"":0,""viewing_time"":6879.700000017881}]","6879.800000011921","","","","","","","","","","","","","","","","","","","","","","","",""
"pit-instructions","109","797076","0.0-2.0-22.0-2.0-0.0","battery-v0.2","","""event"",""trial"",""time""
""fullscreenenter"",""1"",""1239""
""blur"",""3"",""9192""
""focus"",""3"",""27297""
","""event"",""trial"",""time""
""blur"",""3"",""9192""
","""event"",""trial"",""time""
""focus"",""3"",""27297""
","""event"",""trial"",""time""
""fullscreenenter"",""1"",""1239""
","
","","[{""page_index"":0,""viewing_time"":1221.9000000059605}]","1222.1000000238419","","","","","","","","","","","","","","","","","","","","","","","",""
"pit-comprehension","110","803461","0.0-2.0-22.1-0.1","battery-v0.2","","""event"",""trial"",""time""
""fullscreenenter"",""1"",""1239""
""blur"",""3"",""9192""
""focus"",""3"",""27297""
","""event"",""trial"",""time""
""blur"",""3"",""9192""
","""event"",""trial"",""time""
""focus"",""3"",""27297""
","""event"",""trial"",""time""
""fullscreenenter"",""1"",""1239""
","
","","","6383.300000011921","[""0""]","0","14","10551","4933","","","","","","","","","","","","","","","","","","",""
"pit-instructions","111","805189","0.0-2.0-22.1-1.1","battery-v0.2","","""event"",""trial"",""time""
""fullscreenenter"",""1"",""1239""
""blur"",""3"",""9192""
""focus"",""3"",""27297""
","""event"",""trial"",""time""
""blur"",""3"",""9192""
","""event"",""trial"",""time""
""focus"",""3"",""27297""
","""event"",""trial"",""time""
""fullscreenenter"",""1"",""1239""
","
","","[{""page_index"":0,""viewing_time"":1706.1000000238419}]","1706.2000000178814","","","","","","","","","","","","","","","","","","","","","","","",""
"pit-comprehension","112","814455","0.0-2.0-23.0-0.0","battery-v0.2","","""event"",""trial"",""time""
""fullscreenenter"",""1"",""1239""
""blur"",""3"",""9192""
""focus"",""3"",""27297""
","""event"",""trial"",""time""
""blur"",""3"",""9192""
","""event"",""trial"",""time""
""focus"",""3"",""27297""
","""event"",""trial"",""time""
""fullscreenenter"",""1"",""1239""
","
","","","9265.59999999404","[""True""]","0","14","10551","4933","","","","","","","","","","","","","","","","","","",""
"pit-instructions","113","816026","0.0-2.0-23.0-1.0","battery-v0.2","","""event"",""trial"",""time""
""fullscreenenter"",""1"",""1239""
""blur"",""3"",""9192""
""focus"",""3"",""27297""
","""event"",""trial"",""time""
""blur"",""3"",""9192""
","""event"",""trial"",""time""
""focus"",""3"",""27297""
","""event"",""trial"",""time""
""fullscreenenter"",""1"",""1239""
","
","","[{""page_index"":0,""viewing_time"":1550.3999999761581}]","1550.5999999940395","","","","","","","","","","","","","","","","","","","","","","","",""
"pit-comprehension","114","823482","0.0-2.0-24.0-0.0","battery-v0.2","","""event"",""trial"",""time""
""fullscreenenter"",""1"",""1239""
""blur"",""3"",""9192""
""focus"",""3"",""27297""
","""event"",""trial"",""time""
""blur"",""3"",""9192""
","""event"",""trial"",""time""
""focus"",""3"",""27297""
","""event"",""trial"",""time""
""fullscreenenter"",""1"",""1239""
","
","","","7454.299999982119","[""True""]","0","14","10551","4933","","","","","","","","","","","","","","","","","","",""
"pit-instructions","115","825286","0.0-2.0-24.0-1.0","battery-v0.2","","""event"",""trial"",""time""
""fullscreenenter"",""1"",""1239""
""blur"",""3"",""9192""
""focus"",""3"",""27297""
","""event"",""trial"",""time""
""blur"",""3"",""9192""
","""event"",""trial"",""time""
""focus"",""3"",""27297""
","""event"",""trial"",""time""
""fullscreenenter"",""1"",""1239""
","
","","[{""page_index"":0,""viewing_time"":1782.5}]","1782.699999988079","","","","","","","","","","","","","","","","","","","","","","","",""
"pit-comprehension","116","831720","0.0-2.0-25.0-0.0","battery-v0.2","","""event"",""trial"",""time""
""fullscreenenter"",""1"",""1239""
""blur"",""3"",""9192""
""focus"",""3"",""27297""
","""event"",""trial"",""time""
""blur"",""3"",""9192""
","""event"",""trial"",""time""
""focus"",""3"",""27297""
","""event"",""trial"",""time""
""fullscreenenter"",""1"",""1239""
","
","","","6432.700000017881","[""True""]","0","14","10551","4933","","","","","","","","","","","","","","","","","","",""
"pit-instructions","117","833805","0.0-2.0-25.0-1.0","battery-v0.2","","""event"",""trial"",""time""
""fullscreenenter"",""1"",""1239""
""blur"",""3"",""9192""
""focus"",""3"",""27297""
","""event"",""trial"",""time""
""blur"",""3"",""9192""
","""event"",""trial"",""time""
""focus"",""3"",""27297""
","""event"",""trial"",""time""
""fullscreenenter"",""1"",""1239""
","
","","[{""page_index"":0,""viewing_time"":2063.9000000059605}]","2064","","","","","","","","","","","","","","","","","","","","","","","",""
"pit-comprehension","118","838325","0.0-2.0-26.0-0.0","battery-v0.2","","""event"",""trial"",""time""
""fullscreenenter"",""1"",""1239""
""blur"",""3"",""9192""
""focus"",""3"",""27297""
","""event"",""trial"",""time""
""blur"",""3"",""9192""
","""event"",""trial"",""time""
""focus"",""3"",""27297""
","""event"",""trial"",""time""
""fullscreenenter"",""1"",""1239""
","
","","","4518.700000017881","[""False""]","0","14","10551","4933","","","","","","","","","","","","","","","","","","",""
"pit-instructions","119","840328","0.0-2.0-26.0-1.0","battery-v0.2","","""event"",""trial"",""time""
""fullscreenenter"",""1"",""1239""
""blur"",""3"",""9192""
""focus"",""3"",""27297""
","""event"",""trial"",""time""
""blur"",""3"",""9192""
","""event"",""trial"",""time""
""focus"",""3"",""27297""
","""event"",""trial"",""time""
""fullscreenenter"",""1"",""1239""
","
","","[{""page_index"":0,""viewing_time"":1980.199999988079}]","1980.300000011921","","","","","","","","","","","","","","","","","","","","","","","",""
"pit-instructions","120","859086","0.0-3.0","battery-v0.2","","""event"",""trial"",""time""
""fullscreenenter"",""1"",""1239""
""blur"",""3"",""9192""
""focus"",""3"",""27297""
","""event"",""trial"",""time""
""blur"",""3"",""9192""
","""event"",""trial"",""time""
""focus"",""3"",""27297""
","""event"",""trial"",""time""
""fullscreenenter"",""1"",""1239""
","
","","[{""page_index"":0,""viewing_time"":3497.2000000178814},{""page_index"":1,""viewing_time"":6400.699999988079},{""page_index"":2,""viewing_time"":8859.09999999404}]","18757.09999999404","","","","","","","","","","","","","","","","","","","","","","","",""
"pit-trial","121","863059","0.0-4.0","battery-v0.2","","""event"",""trial"",""time""
""fullscreenenter"",""1"",""1239""
""blur"",""3"",""9192""
""focus"",""3"",""27297""
","""event"",""trial"",""time""
""blur"",""3"",""9192""
","""event"",""trial"",""time""
""focus"",""3"",""27297""
","""event"",""trial"",""time""
""fullscreenenter"",""1"",""1239""
","
","","","1116.800000011921","","","14","10551","4933","&#9728;","elianto","#f73b6a7A","-1"," ","0","-10","[1967]","1","1","","","10551","1","0","4","lose","no-go","0"
"pit-trial","122","866511","0.0-5.0","battery-v0.2","","""event"",""trial"",""time""
""fullscreenenter"",""1"",""1239""
""blur"",""3"",""9192""
""focus"",""3"",""27297""
","""event"",""trial"",""time""
""blur"",""3"",""9192""
","""event"",""trial"",""time""
""focus"",""3"",""27297""
","""event"",""trial"",""time""
""fullscreenenter"",""1"",""1239""
","
","","","592.0999999940395","","","14","10551","4933","&#9733;","elianto","#3366ff99","-1"," ","0","+10","[1446.800000011921]","1","1","","","10551","2","2","2","win","no-go","1"
"pit-trial","123","869909","0.0-6.0","battery-v0.2","","""event"",""trial"",""time""
""fullscreenenter"",""1"",""1239""
""blur"",""3"",""9192""
""focus"",""3"",""27297""
","""event"",""trial"",""time""
""blur"",""3"",""9192""
","""event"",""trial"",""time""
""focus"",""3"",""27297""
","""event"",""trial"",""time""
""fullscreenenter"",""1"",""1239""
","
","","","544.5","","","14","10551","4933","&#9730;","elianto","#3366ff99"," "," ","1","+10","[1395.300000011921]","1","1","","","10551","3","1","1","win","go","0"
"pit-trial","124","873285","0.0-7.0","battery-v0.2","","""event"",""trial"",""time""
""fullscreenenter"",""1"",""1239""
""blur"",""3"",""9192""
""focus"",""3"",""27297""
","""event"",""trial"",""time""
""blur"",""3"",""9192""
","""event"",""trial"",""time""
""focus"",""3"",""27297""
","""event"",""trial"",""time""
""fullscreenenter"",""1"",""1239""
","
","","","520.7000000178814","","","14","10551","4933","&#9752;","elianto","#f73b6a7A"," "," ","1","0","[1373.5]","1","1","","","10551","4","3","3","lose","go","0"
"pit-trial","125","876584","0.0-8.0","battery-v0.2","","""event"",""trial"",""time""
""fullscreenenter"",""1"",""1239""
""blur"",""3"",""9192""
""focus"",""3"",""27297""
","""event"",""trial"",""time""
""blur"",""3"",""9192""
","""event"",""trial"",""time""
""focus"",""3"",""27297""
","""event"",""trial"",""time""
""fullscreenenter"",""1"",""1239""
","
","","","439.40000000596046","","","14","10551","4933","&#9730;","elianto","#3366ff99"," "," ","1","+10","[1291.199999988079]","1","1","","","10551","5","1","1","win","go","0"
"pit-trial","126","881449","0.0-9.0","battery-v0.2","","""event"",""trial"",""time""
""fullscreenenter"",""1"",""1239""
""blur"",""3"",""9192""
""focus"",""3"",""27297""
","""event"",""trial"",""time""
""blur"",""3"",""9192""
","""event"",""trial"",""time""
""focus"",""3"",""27297""
","""event"",""trial"",""time""
""fullscreenenter"",""1"",""1239""
","
","","","-1","","","14","10551","4933","&#9728;","elianto","#f73b6a7A","-1","-1","1","0","[]","0","1","","","10551","6","0","4","lose","no-go","0"
"pit-trial","127","884772","0.0-10.0","battery-v0.2","","""event"",""trial"",""time""
""fullscreenenter"",""1"",""1239""
""blur"",""3"",""9192""
""focus"",""3"",""27297""
","""event"",""trial"",""time""
""blur"",""3"",""9192""
","""event"",""trial"",""time""
""focus"",""3"",""27297""
","""event"",""trial"",""time""
""fullscreenenter"",""1"",""1239""
","
","","","459.30000001192093","","","14","10551","4933","&#9733;","elianto","#3366ff99","-1"," ","0","+10","[1311.5]","1","1","","","10551","7","2","2","win","no-go","1"
"pit-trial","128","888655","0.0-11.0","battery-v0.2","","""event"",""trial"",""time""
""fullscreenenter"",""1"",""1239""
""blur"",""3"",""9192""
""focus"",""3"",""27297""
","""event"",""trial"",""time""
""blur"",""3"",""9192""
","""event"",""trial"",""time""
""focus"",""3"",""27297""
","""event"",""trial"",""time""
""fullscreenenter"",""1"",""1239""
","
","","","1031.5999999940395","","","14","10551","4933","&#9752;","elianto","#f73b6a7A"," "," ","1","0","[1882.199999988079]","1","1","","","10551","8","3","3","lose","go","0"
"pit-trial","129","891958","0.0-12.0","battery-v0.2","","""event"",""trial"",""time""
""fullscreenenter"",""1"",""1239""
""blur"",""3"",""9192""
""focus"",""3"",""27297""
","""event"",""trial"",""time""
""blur"",""3"",""9192""
","""event"",""trial"",""time""
""focus"",""3"",""27297""
","""event"",""trial"",""time""
""fullscreenenter"",""1"",""1239""
","
","","","451.69999998807907","","","14","10551","4933","&#9730;","elianto","#3366ff99"," "," ","1","+10","[1302]","1","1","","","10551","9","1","1","win","go","0"
"pit-trial","130","895133","0.0-13.0","battery-v0.2","","""event"",""trial"",""time""
""fullscreenenter"",""1"",""1239""
""blur"",""3"",""9192""
""focus"",""3"",""27297""
","""event"",""trial"",""time""
""blur"",""3"",""9192""
","""event"",""trial"",""time""
""focus"",""3"",""27297""
","""event"",""trial"",""time""
""fullscreenenter"",""1"",""1239""
","
","","","324","","","14","10551","4933","&#9733;","elianto","#3366ff99","-1"," ","0","0","[1174.4000000059605]","1","1","","","10551","10","2","2","win","no-go","0"
"pit-trial","131","899987","0.0-14.0","battery-v0.2","","""event"",""trial"",""time""
""fullscreenenter"",""1"",""1239""
""blur"",""3"",""9192""
""focus"",""3"",""27297""
","""event"",""trial"",""time""
""blur"",""3"",""9192""
","""event"",""trial"",""time""
""focus"",""3"",""27297""
","""event"",""trial"",""time""
""fullscreenenter"",""1"",""1239""
","
","","","-1","","","14","10551","4933","&#9728;","elianto","#f73b6a7A","-1","-1","1","0","[]","0","1","","","10551","11","0","4","lose","no-go","0"
"pit-trial","132","903450","0.0-15.0","battery-v0.2","","""event"",""trial"",""time""
""fullscreenenter"",""1"",""1239""
""blur"",""3"",""9192""
""focus"",""3"",""27297""
","""event"",""trial"",""time""
""blur"",""3"",""9192""
","""event"",""trial"",""time""
""focus"",""3"",""27297""
","""event"",""trial"",""time""
""fullscreenenter"",""1"",""1239""
","
","","","611.1999999880791","","","14","10551","4933","&#9752;","elianto","#f73b6a7A"," "," ","1","-10","[1461.5999999940395]","1","1","","","10551","12","3","3","lose","go","1"
"pit-trial","133","906734","0.0-16.0","battery-v0.2","","""event"",""trial"",""time""
""fullscreenenter"",""1"",""1239""
""blur"",""3"",""9192""
""focus"",""3"",""27297""
","""event"",""trial"",""time""
""blur"",""3"",""9192""
","""event"",""trial"",""time""
""focus"",""3"",""27297""
","""event"",""trial"",""time""
""fullscreenenter"",""1"",""1239""
","
","","","432.90000000596046","","","14","10551","4933","&#9730;","elianto","#3366ff99"," "," ","1","0","[1283.4000000059605]","1","1","","","10551","13","1","1","win","go","1"
"pit-trial","134","910180","0.0-17.0","battery-v0.2","","""event"",""trial"",""time""
""fullscreenenter"",""1"",""1239""
""blur"",""3"",""9192""
""focus"",""3"",""27297""
","""event"",""trial"",""time""
""blur"",""3"",""9192""
","""event"",""trial"",""time""
""focus"",""3"",""27297""
","""event"",""trial"",""time""
""fullscreenenter"",""1"",""1239""
","
","","","593.6999999880791","","","14","10551","4933","&#9733;","elianto","#3366ff99","-1"," ","0","0","[1443.9000000059605]","1","1","","","10551","14","2","2","win","no-go","0"
"pit-trial","135","913676","0.0-18.0","battery-v0.2","","""event"",""trial"",""time""
""fullscreenenter"",""1"",""1239""
""blur"",""3"",""9192""
""focus"",""3"",""27297""
","""event"",""trial"",""time""
""blur"",""3"",""9192""
","""event"",""trial"",""time""
""focus"",""3"",""27297""
","""event"",""trial"",""time""
""fullscreenenter"",""1"",""1239""
","
","","","644.0999999940395","","","14","10551","4933","&#9752;","elianto","#f73b6a7A"," "," ","1","0","[1494.5999999940395]","1","1","","","10551","15","3","3","lose","go","0"
"pit-trial","136","918528","0.0-19.0","battery-v0.2","","""event"",""trial"",""time""
""fullscreenenter"",""1"",""1239""
""blur"",""3"",""9192""
""focus"",""3"",""27297""
","""event"",""trial"",""time""
""blur"",""3"",""9192""
","""event"",""trial"",""time""
""focus"",""3"",""27297""
","""event"",""trial"",""time""
""fullscreenenter"",""1"",""1239""
","
","","","-1","","","14","10551","4933","&#9728;","elianto","#f73b6a7A","-1","-1","1","0","[]","0","1","","","10551","16","0","4","lose","no-go","0"
"pit-trial","137","923381","0.0-20.0","battery-v0.2","","""event"",""trial"",""time""
""fullscreenenter"",""1"",""1239""
""blur"",""3"",""9192""
""focus"",""3"",""27297""
","""event"",""trial"",""time""
""blur"",""3"",""9192""
","""event"",""trial"",""time""
""focus"",""3"",""27297""
","""event"",""trial"",""time""
""fullscreenenter"",""1"",""1239""
","
","","","-1","","","14","10551","4933","&#9733;","elianto","#3366ff99","-1","-1","1","0","[]","0","1","","","10551","17","2","2","win","no-go","1"
"pit-trial","138","928234","0.0-21.0","battery-v0.2","","""event"",""trial"",""time""
""fullscreenenter"",""1"",""1239""
""blur"",""3"",""9192""
""focus"",""3"",""27297""
","""event"",""trial"",""time""
""blur"",""3"",""9192""
","""event"",""trial"",""time""
""focus"",""3"",""27297""
","""event"",""trial"",""time""
""fullscreenenter"",""1"",""1239""
","
","","","-1","","","14","10551","4933","&#9728;","elianto","#f73b6a7A","-1","-1","1","-10","[]","0","1","","","10551","18","0","4","lose","no-go","1"
"pit-trial","139","931703","0.0-22.0","battery-v0.2","","""event"",""trial"",""time""
""fullscreenenter"",""1"",""1239""
""blur"",""3"",""9192""
""focus"",""3"",""27297""
","""event"",""trial"",""time""
""blur"",""3"",""9192""
","""event"",""trial"",""time""
""focus"",""3"",""27297""
","""event"",""trial"",""time""
""fullscreenenter"",""1"",""1239""
","
","","","617.5","","","14","10551","4933","&#9752;","elianto","#f73b6a7A"," "," ","1","-10","[1468.5]","1","1","","","10551","19","3","3","lose","go","1"
"pit-trial","140","935056","0.0-23.0","battery-v0.2","","""event"",""trial"",""time""
""fullscreenenter"",""1"",""1239""
""blur"",""3"",""9192""
""focus"",""3"",""27297""
","""event"",""trial"",""time""
""blur"",""3"",""9192""
","""event"",""trial"",""time""
""focus"",""3"",""27297""
","""event"",""trial"",""time""
""fullscreenenter"",""1"",""1239""
","
","","","500.7000000178814","","","14","10551","4933","&#9730;","elianto","#3366ff99"," "," ","1","+10","[1351.5]","1","1","","","10551","20","1","1","win","go","0"
"pit-instructions","141","947393","0.0-24.0","battery-v0.2","","""event"",""trial"",""time""
""fullscreenenter"",""1"",""1239""
""blur"",""3"",""9192""
""focus"",""3"",""27297""
","""event"",""trial"",""time""
""blur"",""3"",""9192""
","""event"",""trial"",""time""
""focus"",""3"",""27297""
","""event"",""trial"",""time""
""fullscreenenter"",""1"",""1239""
","
","","[{""page_index"":0,""viewing_time"":5925.299999982119},{""page_index"":1,""viewing_time"":6411}]","12336.5","","","","","","","","","","","","","","","","","","","","","","","",""
"pit-trial","142","951244","0.0-25.0","battery-v0.2","","""event"",""trial"",""time""
""fullscreenenter"",""1"",""1239""
""blur"",""3"",""9192""
""focus"",""3"",""27297""
","""event"",""trial"",""time""
""blur"",""3"",""9192""
","""event"",""trial"",""time""
""focus"",""3"",""27297""
","""event"",""trial"",""time""
""fullscreenenter"",""1"",""1239""
","
","","","989.5","","","14","10551","4933","g","elianto","#f73b6a7A","-1"," ","0","0","[1841.0999999940395]","1","2","","","10551","21","3","4","lose","no-go","1"
"pit-trial","143","954842","0.0-26.0","battery-v0.2","","""event"",""trial"",""time""
""fullscreenenter"",""1"",""1239""
""blur"",""3"",""9192""
""focus"",""3"",""27297""
","""event"",""trial"",""time""
""blur"",""3"",""9192""
","""event"",""trial"",""time""
""focus"",""3"",""27297""
","""event"",""trial"",""time""
""fullscreenenter"",""1"",""1239""
","
","","","745.9000000059605","","","14","10551","4933","a","elianto","#f73b6a7A"," "," ","1","0","[1596.5]","1","2","","","10551","22","2","3","lose","go","0"
"pit-trial","144","958438","0.0-27.0","battery-v0.2","","""event"",""trial"",""time""
""fullscreenenter"",""1"",""1239""
""blur"",""3"",""9192""
""focus"",""3"",""27297""
","""event"",""trial"",""time""
""blur"",""3"",""9192""
","""event"",""trial"",""time""
""focus"",""3"",""27297""
","""event"",""trial"",""time""
""fullscreenenter"",""1"",""1239""
","
","","","729.7999999821186","","","14","10551","4933","u","elianto","#f73b6a7A"," "," ","1","0","[1580.699999988079]","1","2","","","10551","23","0","3","lose","go","0"
"pit-trial","145","961830","0.0-28.0","battery-v0.2","","""event"",""trial"",""time""
""fullscreenenter"",""1"",""1239""
""blur"",""3"",""9192""
""focus"",""3"",""27297""
","""event"",""trial"",""time""
""blur"",""3"",""9192""
","""event"",""trial"",""time""
""focus"",""3"",""27297""
","""event"",""trial"",""time""
""fullscreenenter"",""1"",""1239""
","
","","","527","","","14","10551","4933","l","elianto","#3366ff99","-1"," ","0","+10","[1381.6000000238419]","1","2","","","10551","24","1","2","win","no-go","1"
"pit-trial","146","965471","0.0-29.0","battery-v0.2","","""event"",""trial"",""time""
""fullscreenenter"",""1"",""1239""
""blur"",""3"",""9192""
""focus"",""3"",""27297""
","""event"",""trial"",""time""
""blur"",""3"",""9192""
","""event"",""trial"",""time""
""focus"",""3"",""27297""
","""event"",""trial"",""time""
""fullscreenenter"",""1"",""1239""
","
","","","773.9000000059605","","","14","10551","4933","a","elianto","#f73b6a7A"," "," ","1","0","[1624.4000000059605]","1","2","","","10551","25","2","3","lose","go","0"
"pit-trial","147","968980","0.0-30.0","battery-v0.2","","""event"",""trial"",""time""
""fullscreenenter"",""1"",""1239""
""blur"",""3"",""9192""
""focus"",""3"",""27297""
","""event"",""trial"",""time""
""blur"",""3"",""9192""
","""event"",""trial"",""time""
""focus"",""3"",""27297""
","""event"",""trial"",""time""
""fullscreenenter"",""1"",""1239""
","
","","","655.8000000119209","","","14","10551","4933","u","elianto","#f73b6a7A"," "," ","1","0","[1508.4000000059605]","1","2","","","10551","26","0","3","lose","go","0"
"pit-trial","148","972271","0.0-31.0","battery-v0.2","","""event"",""trial"",""time""
""fullscreenenter"",""1"",""1239""
""blur"",""3"",""9192""
""focus"",""3"",""27297""
","""event"",""trial"",""time""
""blur"",""3"",""9192""
","""event"",""trial"",""time""
""focus"",""3"",""27297""
","""event"",""trial"",""time""
""fullscreenenter"",""1"",""1239""
","
","","","431.80000001192093","","","14","10551","4933","l","elianto","#3366ff99","-1"," ","0","0","[1284]","1","2","","","10551","27","1","2","win","no-go","0"
"pit-trial","149","975719","0.0-32.0","battery-v0.2","","""event"",""trial"",""time""
""fullscreenenter"",""1"",""1239""
""blur"",""3"",""9192""
""focus"",""3"",""27297""
","""event"",""trial"",""time""
""blur"",""3"",""9192""
","""event"",""trial"",""time""
""focus"",""3"",""27297""
","""event"",""trial"",""time""
""fullscreenenter"",""1"",""1239""
","
","","","588.1999999880791","","","14","10551","4933","g","elianto","#f73b6a7A","-1"," ","0","-10","[1439.9000000059605]","1","2","","","10551","28","3","4","lose","no-go","0"
"pit-trial","150","979338","0.0-33.0","battery-v0.2","","""event"",""trial"",""time""
""fullscreenenter"",""1"",""1239""
""blur"",""3"",""9192""
""focus"",""3"",""27297""
","""event"",""trial"",""time""
""blur"",""3"",""9192""
","""event"",""trial"",""time""
""focus"",""3"",""27297""
","""event"",""trial"",""time""
""fullscreenenter"",""1"",""1239""
","
","","","766.5","","","14","10551","4933","a","elianto","#f73b6a7A"," "," ","1","-10","[1618.0999999940395]","1","2","","","10551","29","2","3","lose","go","1"
"pit-trial","151","982833","0.0-34.0","battery-v0.2","","""event"",""trial"",""time""
""fullscreenenter"",""1"",""1239""
""blur"",""3"",""9192""
""focus"",""3"",""27297""
","""event"",""trial"",""time""
""blur"",""3"",""9192""
","""event"",""trial"",""time""
""focus"",""3"",""27297""
","""event"",""trial"",""time""
""fullscreenenter"",""1"",""1239""
","
","","","642.1999999880791","","","14","10551","4933","l","elianto","#3366ff99","-1"," ","0","0","[1492.8999999761581]","1","2","","","10551","30","1","2","win","no-go","0"
"pit-trial","152","987685","0.0-35.0","battery-v0.2","","""event"",""trial"",""time""
""fullscreenenter"",""1"",""1239""
""blur"",""3"",""9192""
""focus"",""3"",""27297""
","""event"",""trial"",""time""
""blur"",""3"",""9192""
","""event"",""trial"",""time""
""focus"",""3"",""27297""
","""event"",""trial"",""time""
""fullscreenenter"",""1"",""1239""
","
","","","-1","","","14","10551","4933","g","elianto","#f73b6a7A","-1","-1","1","0","[]","0","2","","","10551","31","3","4","lose","no-go","0"
"pit-trial","153","991650","0.0-36.0","battery-v0.2","","""event"",""trial"",""time""
""fullscreenenter"",""1"",""1239""
""blur"",""3"",""9192""
""focus"",""3"",""27297""
","""event"",""trial"",""time""
""blur"",""3"",""9192""
","""event"",""trial"",""time""
""focus"",""3"",""27297""
","""event"",""trial"",""time""
""fullscreenenter"",""1"",""1239""
","
","","","1112.5999999940395","","","14","10551","4933","u","elianto","#f73b6a7A"," "," ","1","0","[1962.800000011921]","1","2","","","10551","32","0","3","lose","go","0"
"pit-trial","154","996502","0.0-37.0","battery-v0.2","","""event"",""trial"",""time""
""fullscreenenter"",""1"",""1239""
""blur"",""3"",""9192""
""focus"",""3"",""27297""
","""event"",""trial"",""time""
""blur"",""3"",""9192""
","""event"",""trial"",""time""
""focus"",""3"",""27297""
","""event"",""trial"",""time""
""fullscreenenter"",""1"",""1239""
","
","","","-1","","","14","10551","4933","g","elianto","#f73b6a7A","-1","-1","1","0","[]","0","2","","","10551","33","3","4","lose","no-go","0"
"pit-trial","155","1000297","0.0-38.0","battery-v0.2","","""event"",""trial"",""time""
""fullscreenenter"",""1"",""1239""
""blur"",""3"",""9192""
""focus"",""3"",""27297""
","""event"",""trial"",""time""
""blur"",""3"",""9192""
","""event"",""trial"",""time""
""focus"",""3"",""27297""
","""event"",""trial"",""time""
""fullscreenenter"",""1"",""1239""
","
","","","942.5","","","14","10551","4933","u","elianto","#f73b6a7A"," "," ","1","0","[1793]","1","2","","","10551","34","0","3","lose","go","0"
"pit-trial","156","1005149","0.0-39.0","battery-v0.2","","""event"",""trial"",""time""
""fullscreenenter"",""1"",""1239""
""blur"",""3"",""9192""
""focus"",""3"",""27297""
","""event"",""trial"",""time""
""blur"",""3"",""9192""
","""event"",""trial"",""time""
""focus"",""3"",""27297""
","""event"",""trial"",""time""
""fullscreenenter"",""1"",""1239""
","
","","","-1","","","14","10551","4933","a","elianto","#f73b6a7A"," ","-1","0","0","[]","0","2","","","10551","35","2","3","lose","go","1"
"pit-trial","157","1008450","0.0-40.0","battery-v0.2","","""event"",""trial"",""time""
""fullscreenenter"",""1"",""1239""
""blur"",""3"",""9192""
""focus"",""3"",""27297""
","""event"",""trial"",""time""
""blur"",""3"",""9192""
","""event"",""trial"",""time""
""focus"",""3"",""27297""
","""event"",""trial"",""time""
""fullscreenenter"",""1"",""1239""
","
","","","448.5","","","14","10551","4933","l","elianto","#3366ff99","-1"," ","0","0","[1298.9000000059605]","1","2","","","10551","36","1","2","win","no-go","0"
"pit-trial","158","1012576","0.0-41.0","battery-v0.2","","""event"",""trial"",""time""
""fullscreenenter"",""1"",""1239""
""blur"",""3"",""9192""
""focus"",""3"",""27297""
","""event"",""trial"",""time""
""blur"",""3"",""9192""
","""event"",""trial"",""time""
""focus"",""3"",""27297""
","""event"",""trial"",""time""
""fullscreenenter"",""1"",""1239""
","
","","","1273.9000000059605","","","14","10551","4933","u","elianto","#f73b6a7A"," "," ","1","0","[2124.5]","1","2","","","10551","37","0","3","lose","go","0"
"pit-trial","159","1017428","0.0-42.0","battery-v0.2","","""event"",""trial"",""time""
""fullscreenenter"",""1"",""1239""
""blur"",""3"",""9192""
""focus"",""3"",""27297""
","""event"",""trial"",""time""
""blur"",""3"",""9192""
","""event"",""trial"",""time""
""focus"",""3"",""27297""
","""event"",""trial"",""time""
""fullscreenenter"",""1"",""1239""
","
","","","-1","","","14","10551","4933","l","elianto","#3366ff99","-1","-1","1","+10","[]","0","2","","","10551","38","1","2","win","no-go","0"
"pit-trial","160","1022279","0.0-43.0","battery-v0.2","","""event"",""trial"",""time""
""fullscreenenter"",""1"",""1239""
""blur"",""3"",""9192""
""focus"",""3"",""27297""
","""event"",""trial"",""time""
""blur"",""3"",""9192""
","""event"",""trial"",""time""
""focus"",""3"",""27297""
","""event"",""trial"",""time""
""fullscreenenter"",""1"",""1239""
","
","","","-1","","","14","10551","4933","g","elianto","#f73b6a7A","-1","-1","1","0","[]","0","2","","","10551","39","3","4","lose","no-go","0"
"pit-trial","161","1027131","0.0-44.0","battery-v0.2","","""event"",""trial"",""time""
""fullscreenenter"",""1"",""1239""
""blur"",""3"",""9192""
""focus"",""3"",""27297""
","""event"",""trial"",""time""
""blur"",""3"",""9192""
","""event"",""trial"",""time""
""focus"",""3"",""27297""
","""event"",""trial"",""time""
""fullscreenenter"",""1"",""1239""
","
","","","-1","","","14","10551","4933","a","elianto","#f73b6a7A"," ","-1","0","-10","[]","0","2","","","10551","40","2","3","lose","go","0"
"pit-trial","162","1031983","0.0-45.0","battery-v0.2","","""event"",""trial"",""time""
""fullscreenenter"",""1"",""1239""
""blur"",""3"",""9192""
""focus"",""3"",""27297""
","""event"",""trial"",""time""
""blur"",""3"",""9192""
","""event"",""trial"",""time""
""focus"",""3"",""27297""
","""event"",""trial"",""time""
""fullscreenenter"",""1"",""1239""
","
","","","-1","","","14","10551","4933","l","elianto","#3366ff99","-1","-1","1","+10","[]","0","2","","","10551","41","1","2","win","no-go","0"
"pit-trial","163","1035305","0.0-46.0","battery-v0.2","","""event"",""trial"",""time""
""fullscreenenter"",""1"",""1239""
""blur"",""3"",""9192""
""focus"",""3"",""27297""
","""event"",""trial"",""time""
""blur"",""3"",""9192""
","""event"",""trial"",""time""
""focus"",""3"",""27297""
","""event"",""trial"",""time""
""fullscreenenter"",""1"",""1239""
","
","","","470.2999999821186","","","14","10551","4933","u","elianto","#f73b6a7A"," "," ","1","-10","[1320.5]","1","2","","","10551","42","0","3","lose","go","1"
"pit-trial","164","1039296","0.0-47.0","battery-v0.2","","""event"",""trial"",""time""
""fullscreenenter"",""1"",""1239""
""blur"",""3"",""9192""
""focus"",""3"",""27297""
","""event"",""trial"",""time""
""blur"",""3"",""9192""
","""event"",""trial"",""time""
""focus"",""3"",""27297""
","""event"",""trial"",""time""
""fullscreenenter"",""1"",""1239""
","
","","","1139.0999999940395","","","14","10551","4933","a","elianto","#f73b6a7A"," "," ","1","0","[1989.199999988079]","1","2","","","10551","43","2","3","lose","go","0"
"pit-trial","165","1044149","0.0-48.0","battery-v0.2","","""event"",""trial"",""time""
""fullscreenenter"",""1"",""1239""
""blur"",""3"",""9192""
""focus"",""3"",""27297""
","""event"",""trial"",""time""
""blur"",""3"",""9192""
","""event"",""trial"",""time""
""focus"",""3"",""27297""
","""event"",""trial"",""time""
""fullscreenenter"",""1"",""1239""
","
","","","-1","","","14","10551","4933","g","elianto","#f73b6a7A","-1","-1","1","-10","[]","0","2","","","10551","44","3","4","lose","no-go","1"
"pit-trial","166","1048575","0.0-49.0","battery-v0.2","","""event"",""trial"",""time""
""fullscreenenter"",""1"",""1239""
""blur"",""3"",""9192""
""focus"",""3"",""27297""
","""event"",""trial"",""time""
""blur"",""3"",""9192""
","""event"",""trial"",""time""
""focus"",""3"",""27297""
","""event"",""trial"",""time""
""fullscreenenter"",""1"",""1239""
","
","","","1574.7999999821186","","","14","10551","4933","u","elianto","#f73b6a7A"," "," ","1","0","[2424.7999999821186]","1","2","","","10551","45","0","3","lose","go","0"
"pit-trial","167","1051974","0.0-50.0","battery-v0.2","","""event"",""trial"",""time""
""fullscreenenter"",""1"",""1239""
""blur"",""3"",""9192""
""focus"",""3"",""27297""
","""event"",""trial"",""time""
""blur"",""3"",""9192""
","""event"",""trial"",""time""
""focus"",""3"",""27297""
","""event"",""trial"",""time""
""fullscreenenter"",""1"",""1239""
","
","","","545.6999999880791","","","14","10551","4933","l","elianto","#3366ff99","-1"," ","0","0","[1395.8999999761581]","1","2","","","10551","46","1","2","win","no-go","0"
"pit-trial","168","1056826","0.0-51.0","battery-v0.2","","""event"",""trial"",""time""
""fullscreenenter"",""1"",""1239""
""blur"",""3"",""9192""
""focus"",""3"",""27297""
","""event"",""trial"",""time""
""blur"",""3"",""9192""
","""event"",""trial"",""time""
""focus"",""3"",""27297""
","""event"",""trial"",""time""
""fullscreenenter"",""1"",""1239""
","
","","","-1","","","14","10551","4933","g","elianto","#f73b6a7A","-1","-1","1","0","[]","0","2","","","10551","47","3","4","lose","no-go","0"
"pit-trial","169","1061036","0.0-52.0","battery-v0.2","","""event"",""trial"",""time""
""fullscreenenter"",""1"",""1239""
""blur"",""3"",""9192""
""focus"",""3"",""27297""
","""event"",""trial"",""time""
""blur"",""3"",""9192""
","""event"",""trial"",""time""
""focus"",""3"",""27297""
","""event"",""trial"",""time""
""fullscreenenter"",""1"",""1239""
","
","","","1358","","","14","10551","4933","a","elianto","#f73b6a7A"," "," ","1","-10","[2208.300000011921]","1","2","","","10551","48","2","3","lose","go","1"
"pit-trial","170","1065890","0.0-53.0","battery-v0.2","","""event"",""trial"",""time""
""fullscreenenter"",""1"",""1239""
""blur"",""3"",""9192""
""focus"",""3"",""27297""
","""event"",""trial"",""time""
""blur"",""3"",""9192""
","""event"",""trial"",""time""
""focus"",""3"",""27297""
","""event"",""trial"",""time""
""fullscreenenter"",""1"",""1239""
","
","","","-1","","","14","10551","4933","u","elianto","#f73b6a7A"," ","-1","0","-10","[]","0","2","","","10551","49","0","3","lose","go","0"
"pit-trial","171","1070742","0.0-54.0","battery-v0.2","","""event"",""trial"",""time""
""fullscreenenter"",""1"",""1239""
""blur"",""3"",""9192""
""focus"",""3"",""27297""
","""event"",""trial"",""time""
""blur"",""3"",""9192""
","""event"",""trial"",""time""
""focus"",""3"",""27297""
","""event"",""trial"",""time""
""fullscreenenter"",""1"",""1239""
","
","","","-1","","","14","10551","4933","g","elianto","#f73b6a7A","-1","-1","1","0","[]","0","2","","","10551","50","3","4","lose","no-go","0"
"pit-trial","172","1075595","0.0-55.0","battery-v0.2","","""event"",""trial"",""time""
""fullscreenenter"",""1"",""1239""
""blur"",""3"",""9192""
""focus"",""3"",""27297""
","""event"",""trial"",""time""
""blur"",""3"",""9192""
","""event"",""trial"",""time""
""focus"",""3"",""27297""
","""event"",""trial"",""time""
""fullscreenenter"",""1"",""1239""
","
","","","-1","","","14","10551","4933","l","elianto","#3366ff99","-1","-1","1","+10","[]","0","2","","","10551","51","1","2","win","no-go","0"
"pit-trial","173","1080448","0.0-56.0","battery-v0.2","","""event"",""trial"",""time""
""fullscreenenter"",""1"",""1239""
""blur"",""3"",""9192""
""focus"",""3"",""27297""
","""event"",""trial"",""time""
""blur"",""3"",""9192""
","""event"",""trial"",""time""
""focus"",""3"",""27297""
","""event"",""trial"",""time""
""fullscreenenter"",""1"",""1239""
","
","","","-1","","","14","10551","4933","a","elianto","#f73b6a7A"," ","-1","0","-10","[]","0","2","","","10551","52","2","3","lose","go","0"
"pit-trial","174","1085300","0.0-57.0","battery-v0.2","","""event"",""trial"",""time""
""fullscreenenter"",""1"",""1239""
""blur"",""3"",""9192""
""focus"",""3"",""27297""
","""event"",""trial"",""time""
""blur"",""3"",""9192""
","""event"",""trial"",""time""
""focus"",""3"",""27297""
","""event"",""trial"",""time""
""fullscreenenter"",""1"",""1239""
","
","","","-1","","","14","10551","4933","l","elianto","#3366ff99","-1","-1","1","+10","[]","0","2","","","10551","53","1","2","win","no-go","0"
"pit-trial","175","1089096","0.0-58.0","battery-v0.2","","""event"",""trial"",""time""
""fullscreenenter"",""1"",""1239""
""blur"",""3"",""9192""
""focus"",""3"",""27297""
","""event"",""trial"",""time""
""blur"",""3"",""9192""
","""event"",""trial"",""time""
""focus"",""3"",""27297""
","""event"",""trial"",""time""
""fullscreenenter"",""1"",""1239""
","
","","","942.6999999880791","","","14","10551","4933","a","elianto","#f73b6a7A"," "," ","1","0","[1793.5]","1","2","","","10551","54","2","3","lose","go","0"
"pit-trial","176","1093949","0.0-59.0","battery-v0.2","","""event"",""trial"",""time""
""fullscreenenter"",""1"",""1239""
""blur"",""3"",""9192""
""focus"",""3"",""27297""
","""event"",""trial"",""time""
""blur"",""3"",""9192""
","""event"",""trial"",""time""
""focus"",""3"",""27297""
","""event"",""trial"",""time""
""fullscreenenter"",""1"",""1239""
","
","","","-1","","","14","10551","4933","g","elianto","#f73b6a7A","-1","-1","1","-10","[]","0","2","","","10551","55","3","4","lose","no-go","1"
"pit-trial","177","1097385","0.0-60.0","battery-v0.2","","""event"",""trial"",""time""
""fullscreenenter"",""1"",""1239""
""blur"",""3"",""9192""
""focus"",""3"",""27297""
","""event"",""trial"",""time""
""blur"",""3"",""9192""
","""event"",""trial"",""time""
""focus"",""3"",""27297""
","""event"",""trial"",""time""
""fullscreenenter"",""1"",""1239""
","
","","","583.1999999880791","","","14","10551","4933","u","elianto","#f73b6a7A"," "," ","1","-10","[1434.5]","1","2","","","10551","56","0","3","lose","go","1"
"pit-trial","178","1101061","0.0-61.0","battery-v0.2","","""event"",""trial"",""time""
""fullscreenenter"",""1"",""1239""
""blur"",""3"",""9192""
""focus"",""3"",""27297""
","""event"",""trial"",""time""
""blur"",""3"",""9192""
","""event"",""trial"",""time""
""focus"",""3"",""27297""
","""event"",""trial"",""time""
""fullscreenenter"",""1"",""1239""
","
","","","823","","","14","10551","4933","u","elianto","#f73b6a7A"," "," ","1","0","[1674.7999999821186]","1","2","","","10551","57","0","3","lose","go","0"
"pit-trial","179","1105915","0.0-62.0","battery-v0.2","","""event"",""trial"",""time""
""fullscreenenter"",""1"",""1239""
""blur"",""3"",""9192""
""focus"",""3"",""27297""
","""event"",""trial"",""time""
""blur"",""3"",""9192""
","""event"",""trial"",""time""
""focus"",""3"",""27297""
","""event"",""trial"",""time""
""fullscreenenter"",""1"",""1239""
","
","","","-1","","","14","10551","4933","g","elianto","#f73b6a7A","-1","-1","1","0","[]","0","2","","","10551","58","3","4","lose","no-go","0"
"pit-trial","180","1109914","0.0-63.0","battery-v0.2","","""event"",""trial"",""time""
""fullscreenenter"",""1"",""1239""
""blur"",""3"",""9192""
""focus"",""3"",""27297""
","""event"",""trial"",""time""
""blur"",""3"",""9192""
","""event"",""trial"",""time""
""focus"",""3"",""27297""
","""event"",""trial"",""time""
""fullscreenenter"",""1"",""1239""
","
","","","1147.4000000059605","","","14","10551","4933","a","elianto","#f73b6a7A"," "," ","1","0","[1997.5]","1","2","","","10551","59","2","3","lose","go","0"
"pit-trial","181","1113740","0.0-64.0","battery-v0.2","","""event"",""trial"",""time""
""fullscreenenter"",""1"",""1239""
""blur"",""3"",""9192""
""focus"",""3"",""27297""
","""event"",""trial"",""time""
""blur"",""3"",""9192""
","""event"",""trial"",""time""
""focus"",""3"",""27297""
","""event"",""trial"",""time""
""fullscreenenter"",""1"",""1239""
","
","","","973.3999999761581","","","14","10551","4933","p","elianto","#3366ff99"," "," ","1","+10","[1824.199999988079]","1","2","","","10551","60","4","1","win","go","0"
"pit-trial","182","1118044","0.0-65.0","battery-v0.2","","""event"",""trial"",""time""
""fullscreenenter"",""1"",""1239""
""blur"",""3"",""9192""
""focus"",""3"",""27297""
","""event"",""trial"",""time""
""blur"",""3"",""9192""
","""event"",""trial"",""time""
""focus"",""3"",""27297""
","""event"",""trial"",""time""
""fullscreenenter"",""1"",""1239""
","
","","","1451.0999999940395","","","14","10551","4933","a","elianto","#f73b6a7A"," "," ","1","0","[2302]","1","2","","","10551","61","2","3","lose","go","0"
"pit-trial","183","1122896","0.0-66.0","battery-v0.2","","""event"",""trial"",""time""
""fullscreenenter"",""1"",""1239""
""blur"",""3"",""9192""
""focus"",""3"",""27297""
","""event"",""trial"",""time""
""blur"",""3"",""9192""
","""event"",""trial"",""time""
""focus"",""3"",""27297""
","""event"",""trial"",""time""
""fullscreenenter"",""1"",""1239""
","
","","","-1","","","14","10551","4933","g","elianto","#f73b6a7A","-1","-1","1","0","[]","0","2","","","10551","62","3","4","lose","no-go","0"
"pit-trial","184","1127749","0.0-67.0","battery-v0.2","","""event"",""trial"",""time""
""fullscreenenter"",""1"",""1239""
""blur"",""3"",""9192""
""focus"",""3"",""27297""
","""event"",""trial"",""time""
""blur"",""3"",""9192""
","""event"",""trial"",""time""
""focus"",""3"",""27297""
","""event"",""trial"",""time""
""fullscreenenter"",""1"",""1239""
","
","","","-1","","","14","10551","4933","l","elianto","#3366ff99","-1","-1","1","+10","[]","0","2","","","10551","63","1","2","win","no-go","0"
"pit-trial","185","1131602","0.0-68.0","battery-v0.2","","""event"",""trial"",""time""
""fullscreenenter"",""1"",""1239""
""blur"",""3"",""9192""
""focus"",""3"",""27297""
","""event"",""trial"",""time""
""blur"",""3"",""9192""
","""event"",""trial"",""time""
""focus"",""3"",""27297""
","""event"",""trial"",""time""
""fullscreenenter"",""1"",""1239""
","
","","","1001","","","14","10551","4933","p","elianto","#3366ff99"," "," ","1","+10","[1851.199999988079]","1","2","","","10551","64","4","1","win","go","0"
"pit-trial","186","1136455","0.0-69.0","battery-v0.2","","""event"",""trial"",""time""
""fullscreenenter"",""1"",""1239""
""blur"",""3"",""9192""
""focus"",""3"",""27297""
","""event"",""trial"",""time""
""blur"",""3"",""9192""
","""event"",""trial"",""time""
