"trial_type","trial_index","time_elapsed","internal_node_id","task_version","subject_id","interactions","blur_events","focus_events","fullscreenenter_events","fullscreenexit_events","success","view_history","rt","responses","num_errors","age","subject","participantId","rune","rune_set","hex","correct","choice","accuracy","outcome","keys","total_keys","block","practice","value","sub","trial","stimulus","robot","valence","action","sham"
"pavlovia","0","4","0.0-0.0","battery-v0.2","","""event"",""trial"",""time""
""fullscreenenter"",""1"",""2126""
","
","
","""event"",""trial"",""time""
""fullscreenenter"",""1"",""2126""
","
","","","","","","","","","","","","","","","","","","","","","","","","","","",""
"fullscreen","1","3104","0.0-1.0","battery-v0.2","","""event"",""trial"",""time""
""fullscreenenter"",""1"",""2126""
","
","
","""event"",""trial"",""time""
""fullscreenenter"",""1"",""2126""
","
","true","","","","","","","","","","","","","","","","","","","","","","","","","",""
"pit-instructions","2","7688","0.0-2.0-0.0","battery-v0.2","","""event"",""trial"",""time""
""fullscreenenter"",""1"",""2126""
","
","
","""event"",""trial"",""time""
""fullscreenenter"",""1"",""2126""
","
","","[{""page_index"":0,""viewing_time"":4579}]","4580","","","","","","","","","","","","","","","","","","","","","","","",""
"pit-comprehension","3","11746","0.0-2.0-1.0-0.0","battery-v0.2","","""event"",""trial"",""time""
""fullscreenenter"",""1"",""2126""
","
","
","""event"",""trial"",""time""
""fullscreenenter"",""1"",""2126""
","
","","","4052","[""shark""]","0","19","9441","4458","","","","","","","","","","","","","","","","","","",""
"pit-instructions","4","25151","0.0-2.0-1.0-1.0","battery-v0.2","","""event"",""trial"",""time""
""fullscreenenter"",""1"",""2126""
","
","
","""event"",""trial"",""time""
""fullscreenenter"",""1"",""2126""
","
","","[{""page_index"":0,""viewing_time"":13394}]","13395.000000000004","","","","","","","","","","","","","","","","","","","","","","","",""
"pit-comprehension","5","28943","0.0-2.0-2.0-0.0","battery-v0.2","","""event"",""trial"",""time""
""fullscreenenter"",""1"",""2126""
","
","
","""event"",""trial"",""time""
""fullscreenenter"",""1"",""2126""
","
","","","3786","[""tiger""]","0","19","9441","4458","","","","","","","","","","","","","","","","","","",""
"pit-instructions","6","31355","0.0-2.0-2.0-1.0","battery-v0.2","","""event"",""trial"",""time""
""fullscreenenter"",""1"",""2126""
","
","
","""event"",""trial"",""time""
""fullscreenenter"",""1"",""2126""
","
","","[{""page_index"":0,""viewing_time"":2406}]","2406","","","","","","","","","","","","","","","","","","","","","","","",""
"pit-instructions","7","167722","0.0-2.0-3.0","battery-v0.2","","""event"",""trial"",""time""
""fullscreenenter"",""1"",""2126""
","
","
","""event"",""trial"",""time""
""fullscreenenter"",""1"",""2126""
","
","","[{""page_index"":0,""viewing_time"":9216},{""page_index"":1,""viewing_time"":8567},{""page_index"":2,""viewing_time"":9788},{""page_index"":3,""viewing_time"":11163},{""page_index"":4,""viewing_time"":7606},{""page_index"":5,""viewing_time"":8784},{""page_index"":6,""viewing_time"":6378},{""page_index"":7,""viewing_time"":9883},{""page_index"":8,""viewing_time"":13068},{""page_index"":9,""viewing_time"":12248},{""page_index"":10,""viewing_time"":8466},{""page_index"":11,""viewing_time"":13068},{""page_index"":12,""viewing_time"":11155},{""page_index"":13,""viewing_time"":6973}]","136364","","","","","","","","","","","","","","","","","","","","","","","",""
"pit-trial","8","171719","0.0-2.0-4.0-0.0","battery-v0.2","","""event"",""trial"",""time""
""fullscreenenter"",""1"",""2126""
","
","
","""event"",""trial"",""time""
""fullscreenenter"",""1"",""2126""
","
","","","1136","","","19","9441","4458","&#9784;","elianto","#FFFFF080"," "," ","1","&#10004","[1987]","1","0","0","","","","","","","",""
"pit-trial","9","176578","0.0-2.0-4.1-0.1","battery-v0.2","","""event"",""trial"",""time""
""fullscreenenter"",""1"",""2126""
","
","
","""event"",""trial"",""time""
""fullscreenenter"",""1"",""2126""
","
","","","-1","","","19","9441","4458","&#9784;","elianto","#FFFFF080"," ","-1","0","&#10060","[2966]","1","0","0","","","","","","","",""
"pit-trial","10","181436","0.0-2.0-4.2-0.2","battery-v0.2","","""event"",""trial"",""time""
""fullscreenenter"",""1"",""2126""
","
","
","""event"",""trial"",""time""
""fullscreenenter"",""1"",""2126""
","
","","","-1","","","19","9441","4458","&#9784;","elianto","#FFFFF080"," ","-1","0","&#10060","[]","0","0","0","","","","","","","",""
"pit-trial","11","185123","0.0-2.0-4.3-0.3","battery-v0.2","","""event"",""trial"",""time""
""fullscreenenter"",""1"",""2126""
","
","
","""event"",""trial"",""time""
""fullscreenenter"",""1"",""2126""
","
","","","828","","","19","9441","4458","&#9784;","elianto","#FFFFF080"," "," ","1","&#10004","[1679]","1","0","0","","","","","","","",""
"pit-trial","12","188689","0.0-2.0-4.4-0.4","battery-v0.2","","""event"",""trial"",""time""
""fullscreenenter"",""1"",""2126""
","
","
","""event"",""trial"",""time""
""fullscreenenter"",""1"",""2126""
","
","","","707.0000000000291","","","19","9441","4458","&#9784;","elianto","#FFFFF080"," "," ","1","&#10004","[1558.000000000029]","1","0","0","","","","","","","",""
"pit-trial","13","192065","0.0-2.0-4.5-0.5","battery-v0.2","","""event"",""trial"",""time""
""fullscreenenter"",""1"",""2126""
","
","
","""event"",""trial"",""time""
""fullscreenenter"",""1"",""2126""
","
","","","518","","","19","9441","4458","&#9784;","elianto","#FFFFF080"," "," ","1","&#10004","[1369]","1","0","0","","","","","","","",""
"pit-instructions","14","228704","0.0-2.0-5.0","battery-v0.2","","""event"",""trial"",""time""
""fullscreenenter"",""1"",""2126""
","
","
","""event"",""trial"",""time""
""fullscreenenter"",""1"",""2126""
","
","","[{""page_index"":0,""viewing_time"":5517},{""page_index"":1,""viewing_time"":9930.00000000003},{""page_index"":2,""viewing_time"":12518},{""page_index"":3,""viewing_time"":8665.99999999997}]","36632.00000000003","","","","","","","","","","","","","","","","","","","","","","","",""
"pit-trial","15","233563","0.0-2.0-6.0-0.0","battery-v0.2","","""event"",""trial"",""time""
""fullscreenenter"",""1"",""2126""
","
","
","""event"",""trial"",""time""
""fullscreenenter"",""1"",""2126""
","
","","","-1","","","19","9441","4458","&#9854;","elianto","#FFFFF080","-1","-1","1","&#10004","[]","0","0","1","","","","","","","",""
"pit-trial","16","238422","0.0-2.0-6.1-0.1","battery-v0.2","","""event"",""trial"",""time""
""fullscreenenter"",""1"",""2126""
","
","
","""event"",""trial"",""time""
""fullscreenenter"",""1"",""2126""
","
","","","-1","","","19","9441","4458","&#9854;","elianto","#FFFFF080","-1","-1","1","&#10004","[]","0","0","1","","","","","","","",""
"pit-trial","17","243281","0.0-2.0-6.2-0.2","battery-v0.2","","""event"",""trial"",""time""
""fullscreenenter"",""1"",""2126""
","
","
","""event"",""trial"",""time""
""fullscreenenter"",""1"",""2126""
","
","","","-1","","","19","9441","4458","&#9854;","elianto","#FFFFF080","-1","-1","1","&#10004","[]","0","0","1","","","","","","","",""
"pit-trial","18","248140","0.0-2.0-6.3-0.3","battery-v0.2","","""event"",""trial"",""time""
""fullscreenenter"",""1"",""2126""
","
","
","""event"",""trial"",""time""
""fullscreenenter"",""1"",""2126""
","
","","","-1","","","19","9441","4458","&#9854;","elianto","#FFFFF080","-1","-1","1","&#10004","[]","0","0","1","","","","","","","",""
"pit-trial","19","252998","0.0-2.0-6.4-0.4","battery-v0.2","","""event"",""trial"",""time""
""fullscreenenter"",""1"",""2126""
","
","
","""event"",""trial"",""time""
""fullscreenenter"",""1"",""2126""
","
","","","-1","","","19","9441","4458","&#9854;","elianto","#FFFFF080","-1","-1","1","&#10004","[]","0","0","1","","","","","","","",""
"pit-instructions","20","397152","0.0-2.0-7.0","battery-v0.2","","""event"",""trial"",""time""
""fullscreenenter"",""1"",""2126""
","
","
","""event"",""trial"",""time""
""fullscreenenter"",""1"",""2126""
","
","","[{""page_index"":0,""viewing_time"":6891.999999999971},{""page_index"":1,""viewing_time"":8826.00000000003},{""page_index"":2,""viewing_time"":6671},{""page_index"":3,""viewing_time"":8668},{""page_index"":4,""viewing_time"":12614.000000000058},{""page_index"":5,""viewing_time"":6488},{""page_index"":6,""viewing_time"":6344.999999999942},{""page_index"":7,""viewing_time"":10271},{""page_index"":8,""viewing_time"":8701},{""page_index"":9,""viewing_time"":5930},{""page_index"":10,""viewing_time"":11150},{""page_index"":11,""viewing_time"":5898},{""page_index"":12,""viewing_time"":7369},{""page_index"":13,""viewing_time"":7694.000000000058},{""page_index"":14,""viewing_time"":8037.999999999942},{""page_index"":15,""viewing_time"":6047},{""page_index"":16,""viewing_time"":6326.000000000058},{""page_index"":17,""viewing_time"":10219.999999999942}]","144149","","","","","","","","","","","","","","","","","","","","","","","",""
"pit-trial","21","401356","0.0-2.0-8.0-0.0","battery-v0.2","","""event"",""trial"",""time""
""fullscreenenter"",""1"",""2126""
","
","
","""event"",""trial"",""time""
""fullscreenenter"",""1"",""2126""
","
","","","1348","","","19","9441","4458","&#9776;","elianto","#3366ff99"," "," ","1","+10","[2198]","1","0","1","","","","","","","",""
"pit-trial","22","405706","0.0-2.0-8.0-1.0","battery-v0.2","","""event"",""trial"",""time""
""fullscreenenter"",""1"",""2126""
","
","
","""event"",""trial"",""time""
""fullscreenenter"",""1"",""2126""
","
","","","1490","","","19","9441","4458","&#9776;","elianto","#3366ff99"," "," ","1","+10","[2340]","1","0","1","","","","","","","",""
"pit-trial","23","409260","0.0-2.0-8.0-2.0","battery-v0.2","","""event"",""trial"",""time""
""fullscreenenter"",""1"",""2126""
","
","
","""event"",""trial"",""time""
""fullscreenenter"",""1"",""2126""
","
","","","695","","","19","9441","4458","&#9776;","elianto","#3366ff99"," "," ","1","+10","[1546]","1","0","1","","","","","","","",""
"pit-trial","24","412884","0.0-2.0-8.0-3.0","battery-v0.2","","""event"",""trial"",""time""
""fullscreenenter"",""1"",""2126""
","
","
","""event"",""trial"",""time""
""fullscreenenter"",""1"",""2126""
","
","","","763","","","19","9441","4458","&#9776;","elianto","#3366ff99"," "," ","1","0","[1616]","1","0","1","","","","","","","",""
"pit-trial","25","416401","0.0-2.0-8.0-4.0","battery-v0.2","","""event"",""trial"",""time""
""fullscreenenter"",""1"",""2126""
","
","
","""event"",""trial"",""time""
""fullscreenenter"",""1"",""2126""
","
","","","658","","","19","9441","4458","&#9776;","elianto","#3366ff99"," "," ","1","+10","[1508]","1","0","1","","","","","","","",""
"pit-trial","26","419729","0.0-2.0-8.1-0.1","battery-v0.2","","""event"",""trial"",""time""
""fullscreenenter"",""1"",""2126""
","
","
","""event"",""trial"",""time""
""fullscreenenter"",""1"",""2126""
","
","","","467","","","19","9441","4458","&#9776;","elianto","#3366ff99"," "," ","1","+10","[1318]","1","0","1","","","","","","","",""
"pit-trial","27","423115","0.0-2.0-8.1-1.1","battery-v0.2","","""event"",""trial"",""time""
""fullscreenenter"",""1"",""2126""
","
","
","""event"",""trial"",""time""
""fullscreenenter"",""1"",""2126""
","
","","","527.9999999999418","","","19","9441","4458","&#9776;","elianto","#3366ff99"," "," ","1","+10","[1378]","1","0","1","","","","","","","",""
"pit-trial","28","426434","0.0-2.0-8.1-2.1","battery-v0.2","","""event"",""trial"",""time""
""fullscreenenter"",""1"",""2126""
","
","
","""event"",""trial"",""time""
""fullscreenenter"",""1"",""2126""
","
","","","460.9999999999418","","","19","9441","4458","&#9776;","elianto","#3366ff99"," "," ","1","+10","[1310.9999999999418]","1","0","1","","","","","","","",""
"pit-trial","29","429796","0.0-2.0-8.1-3.1","battery-v0.2","","""event"",""trial"",""time""
""fullscreenenter"",""1"",""2126""
","
","
","""event"",""trial"",""time""
""fullscreenenter"",""1"",""2126""
","
","","","504.0000000000582","","","19","9441","4458","&#9776;","elianto","#3366ff99"," "," ","1","0","[1354.0000000000582]","1","0","1","","","","","","","",""
"pit-trial","30","433723","0.0-2.0-8.1-4.1","battery-v0.2","","""event"",""trial"",""time""
""fullscreenenter"",""1"",""2126""
","
","
","""event"",""trial"",""time""
""fullscreenenter"",""1"",""2126""
","
","","","1069","","","19","9441","4458","&#9776;","elianto","#3366ff99"," "," ","1","+10","[1919]","1","0","1","","","","","","","",""
"pit-trial","31","437582","0.0-2.0-8.2-0.2","battery-v0.2","","""event"",""trial"",""time""
""fullscreenenter"",""1"",""2126""
","
","
","""event"",""trial"",""time""
""fullscreenenter"",""1"",""2126""
","
","","","1000","","","19","9441","4458","&#9776;","elianto","#3366ff99"," "," ","1","+10","[1851]","1","0","1","","","","","","","",""
"pit-trial","32","441352","0.0-2.0-8.2-1.2","battery-v0.2","","""event"",""trial"",""time""
""fullscreenenter"",""1"",""2126""
","
","
","""event"",""trial"",""time""
""fullscreenenter"",""1"",""2126""
","
","","","912","","","19","9441","4458","&#9776;","elianto","#3366ff99"," "," ","1","+10","[1762]","1","0","1","","","","","","","",""
"pit-trial","33","444655","0.0-2.0-8.2-2.2","battery-v0.2","","""event"",""trial"",""time""
""fullscreenenter"",""1"",""2126""
","
","
","""event"",""trial"",""time""
""fullscreenenter"",""1"",""2126""
","
","","","443","","","19","9441","4458","&#9776;","elianto","#3366ff99"," "," ","1","+10","[1293]","1","0","1","","","","","","","",""
"pit-trial","34","448181","0.0-2.0-8.2-3.2","battery-v0.2","","""event"",""trial"",""time""
""fullscreenenter"",""1"",""2126""
","
","
","""event"",""trial"",""time""
""fullscreenenter"",""1"",""2126""
","
","","","668","","","19","9441","4458","&#9776;","elianto","#3366ff99"," "," ","1","0","[1518]","1","0","1","","","","","","","",""
"pit-trial","35","451415","0.0-2.0-8.2-4.2","battery-v0.2","","""event"",""trial"",""time""
""fullscreenenter"",""1"",""2126""
","
","
","""event"",""trial"",""time""
""fullscreenenter"",""1"",""2126""
","
","","","376.9999999999418","","","19","9441","4458","&#9776;","elianto","#3366ff99"," "," ","1","+10","[1226]","1","0","1","","","","","","","",""
"call-function","36","451420","0.0-2.0-9.0","battery-v0.2","","""event"",""trial"",""time""
""fullscreenenter"",""1"",""2126""
","
","
","""event"",""trial"",""time""
""fullscreenenter"",""1"",""2126""
","
","","","","","","","","","","","","","","","","","","","","","","","","","","",""
"pit-instructions","37","492389","0.0-2.0-10.0","battery-v0.2","","""event"",""trial"",""time""
""fullscreenenter"",""1"",""2126""
","
","
","""event"",""trial"",""time""
""fullscreenenter"",""1"",""2126""
","
","","[{""page_index"":0,""viewing_time"":6202},{""page_index"":1,""viewing_time"":8346},{""page_index"":2,""viewing_time"":9464},{""page_index"":3,""viewing_time"":9188},{""page_index"":4,""viewing_time"":7768.000000000058}]","40968.00000000006","","","","","","","","","","","","","","","","","","","","","","","",""
"pit-trial","38","497244","0.0-2.0-11.0-0.0","battery-v0.2","","""event"",""trial"",""time""
""fullscreenenter"",""1"",""2126""
","
","
","""event"",""trial"",""time""
""fullscreenenter"",""1"",""2126""
","
","","","-1","","","19","9441","4458","&#9761;","elianto","#3366ff99","-1","-1","1","+10","[]","0","0","2","","","","","","","",""
"pit-trial","39","502103","0.0-2.0-11.0-1.0","battery-v0.2","","""event"",""trial"",""time""
""fullscreenenter"",""1"",""2126""
","
","
","""event"",""trial"",""time""
""fullscreenenter"",""1"",""2126""
","
","","","-1","","","19","9441","4458","&#9761;","elianto","#3366ff99","-1","-1","1","+10","[]","0","0","2","","","","","","","",""
"pit-trial","40","506963","0.0-2.0-11.0-2.0","battery-v0.2","","""event"",""trial"",""time""
""fullscreenenter"",""1"",""2126""
","
","
","""event"",""trial"",""time""
""fullscreenenter"",""1"",""2126""
","
","","","-1","","","19","9441","4458","&#9761;","elianto","#3366ff99","-1","-1","1","+10","[]","0","0","2","","","","","","","",""
"pit-trial","41","511823","0.0-2.0-11.0-3.0","battery-v0.2","","""event"",""trial"",""time""
""fullscreenenter"",""1"",""2126""
","
","
","""event"",""trial"",""time""
""fullscreenenter"",""1"",""2126""
","
","","","-1","","","19","9441","4458","&#9761;","elianto","#3366ff99","-1","-1","1","0","[]","0","0","2","","","","","","","",""
"pit-trial","42","516682","0.0-2.0-11.0-4.0","battery-v0.2","","""event"",""trial"",""time""
""fullscreenenter"",""1"",""2126""
","
","
","""event"",""trial"",""time""
""fullscreenenter"",""1"",""2126""
","
","","","-1","","","19","9441","4458","&#9761;","elianto","#3366ff99","-1","-1","1","+10","[]","0","0","2","","","","","","","",""
"pit-trial","43","521542","0.0-2.0-11.1-0.1","battery-v0.2","","""event"",""trial"",""time""
""fullscreenenter"",""1"",""2126""
","
","
","""event"",""trial"",""time""
""fullscreenenter"",""1"",""2126""
","
","","","-1","","","19","9441","4458","&#9761;","elianto","#3366ff99","-1","-1","1","+10","[]","0","0","2","","","","","","","",""
"pit-trial","44","526401","0.0-2.0-11.1-1.1","battery-v0.2","","""event"",""trial"",""time""
""fullscreenenter"",""1"",""2126""
","
","
","""event"",""trial"",""time""
""fullscreenenter"",""1"",""2126""
","
","","","-1","","","19","9441","4458","&#9761;","elianto","#3366ff99","-1","-1","1","+10","[]","0","0","2","","","","","","","",""
"pit-trial","45","531260","0.0-2.0-11.1-2.1","battery-v0.2","","""event"",""trial"",""time""
""fullscreenenter"",""1"",""2126""
","
","
","""event"",""trial"",""time""
""fullscreenenter"",""1"",""2126""
","
","","","-1","","","19","9441","4458","&#9761;","elianto","#3366ff99","-1","-1","1","+10","[]","0","0","2","","","","","","","",""
"pit-trial","46","536119","0.0-2.0-11.1-3.1","battery-v0.2","","""event"",""trial"",""time""
""fullscreenenter"",""1"",""2126""
","
","
","""event"",""trial"",""time""
""fullscreenenter"",""1"",""2126""
","
","","","-1","","","19","9441","4458","&#9761;","elianto","#3366ff99","-1","-1","1","0","[]","0","0","2","","","","","","","",""
"pit-trial","47","540977","0.0-2.0-11.1-4.1","battery-v0.2","","""event"",""trial"",""time""
""fullscreenenter"",""1"",""2126""
","
","
","""event"",""trial"",""time""
""fullscreenenter"",""1"",""2126""
","
","","","-1","","","19","9441","4458","&#9761;","elianto","#3366ff99","-1","-1","1","+10","[]","0","0","2","","","","","","","",""
"pit-trial","48","545834","0.0-2.0-11.2-0.2","battery-v0.2","","""event"",""trial"",""time""
""fullscreenenter"",""1"",""2126""
","
","
","""event"",""trial"",""time""
""fullscreenenter"",""1"",""2126""
","
","","","-1","","","19","9441","4458","&#9761;","elianto","#3366ff99","-1","-1","1","+10","[]","0","0","2","","","","","","","",""
"pit-trial","49","550692","0.0-2.0-11.2-1.2","battery-v0.2","","""event"",""trial"",""time""
""fullscreenenter"",""1"",""2126""
","
","
","""event"",""trial"",""time""
""fullscreenenter"",""1"",""2126""
","
","","","-1","","","19","9441","4458","&#9761;","elianto","#3366ff99","-1","-1","1","+10","[]","0","0","2","","","","","","","",""
"pit-trial","50","555550","0.0-2.0-11.2-2.2","battery-v0.2","","""event"",""trial"",""time""
""fullscreenenter"",""1"",""2126""
","
","
","""event"",""trial"",""time""
""fullscreenenter"",""1"",""2126""
","
","","","-1","","","19","9441","4458","&#9761;","elianto","#3366ff99","-1","-1","1","+10","[]","0","0","2","","","","","","","",""
"pit-trial","51","560410","0.0-2.0-11.2-3.2","battery-v0.2","","""event"",""trial"",""time""
""fullscreenenter"",""1"",""2126""
","
","
","""event"",""trial"",""time""
""fullscreenenter"",""1"",""2126""
","
","","","-1","","","19","9441","4458","&#9761;","elianto","#3366ff99","-1","-1","1","0","[]","0","0","2","","","","","","","",""
"pit-trial","52","565269","0.0-2.0-11.2-4.2","battery-v0.2","","""event"",""trial"",""time""
""fullscreenenter"",""1"",""2126""
","
","
","""event"",""trial"",""time""
""fullscreenenter"",""1"",""2126""
","
","","","-1","","","19","9441","4458","&#9761;","elianto","#3366ff99","-1","-1","1","+10","[]","0","0","2","","","","","","","",""
"pit-trial","53","570128","0.0-2.0-11.3-0.3","battery-v0.2","","""event"",""trial"",""time""
""fullscreenenter"",""1"",""2126""
","
","
","""event"",""trial"",""time""
""fullscreenenter"",""1"",""2126""
","
","","","-1","","","19","9441","4458","&#9761;","elianto","#3366ff99","-1","-1","1","+10","[]","0","0","2","","","","","","","",""
"pit-trial","54","574986","0.0-2.0-11.3-1.3","battery-v0.2","","""event"",""trial"",""time""
""fullscreenenter"",""1"",""2126""
","
","
","""event"",""trial"",""time""
""fullscreenenter"",""1"",""2126""
","
","","","-1","","","19","9441","4458","&#9761;","elianto","#3366ff99","-1","-1","1","+10","[]","0","0","2","","","","","","","",""
"pit-trial","55","579845","0.0-2.0-11.3-2.3","battery-v0.2","","""event"",""trial"",""time""
""fullscreenenter"",""1"",""2126""
","
","
","""event"",""trial"",""time""
""fullscreenenter"",""1"",""2126""
","
","","","-1","","","19","9441","4458","&#9761;","elianto","#3366ff99","-1","-1","1","+10","[]","0","0","2","","","","","","","",""
"pit-trial","56","584704","0.0-2.0-11.3-3.3","battery-v0.2","","""event"",""trial"",""time""
""fullscreenenter"",""1"",""2126""
","
","
","""event"",""trial"",""time""
""fullscreenenter"",""1"",""2126""
","
","","","-1","","","19","9441","4458","&#9761;","elianto","#3366ff99","-1","-1","1","0","[]","0","0","2","","","","","","","",""
"pit-trial","57","589564","0.0-2.0-11.3-4.3","battery-v0.2","","""event"",""trial"",""time""
""fullscreenenter"",""1"",""2126""
","
","
","""event"",""trial"",""time""
""fullscreenenter"",""1"",""2126""
","
","","","-1","","","19","9441","4458","&#9761;","elianto","#3366ff99","-1","-1","1","+10","[]","0","0","2","","","","","","","",""
"call-function","58","589569","0.0-2.0-12.0","battery-v0.2","","""event"",""trial"",""time""
""fullscreenenter"",""1"",""2126""
","
","
","""event"",""trial"",""time""
""fullscreenenter"",""1"",""2126""
","
","","","","","","","","","","","","","","","","","","","","","","","","","","",""
"pit-instructions","59","631300","0.0-2.0-13.0","battery-v0.2","","""event"",""trial"",""time""
""fullscreenenter"",""1"",""2126""
","
","
","""event"",""trial"",""time""
""fullscreenenter"",""1"",""2126""
","
","","[{""page_index"":0,""viewing_time"":12590},{""page_index"":1,""viewing_time"":7969},{""page_index"":2,""viewing_time"":4977},{""page_index"":3,""viewing_time"":11540},{""page_index"":4,""viewing_time"":4654}]","41730","","","","","","","","","","","","","","","","","","","","","","","",""
"pit-trial","60","634856","0.0-2.0-14.0-0.0","battery-v0.2","","""event"",""trial"",""time""
""fullscreenenter"",""1"",""2126""
","
","
","""event"",""trial"",""time""
""fullscreenenter"",""1"",""2126""
","
","","","700","","","19","9441","4458","&#9826;","elianto","#f73b6a7A","-1"," ","0","-10","[1550.9999999998836]","1","0","3","","","","","","","",""
"pit-trial","61","639715","0.0-2.0-14.0-1.0","battery-v0.2","","""event"",""trial"",""time""
""fullscreenenter"",""1"",""2126""
","
","
","""event"",""trial"",""time""
""fullscreenenter"",""1"",""2126""
","
","","","-1","","","19","9441","4458","&#9826;","elianto","#f73b6a7A","-1","-1","1","0","[]","0","0","3","","","","","","","",""
"pit-trial","62","644573","0.0-2.0-14.0-2.0","battery-v0.2","","""event"",""trial"",""time""
""fullscreenenter"",""1"",""2126""
","
","
","""event"",""trial"",""time""
""fullscreenenter"",""1"",""2126""
","
","","","-1","","","19","9441","4458","&#9826;","elianto","#f73b6a7A","-1","-1","1","0","[]","0","0","3","","","","","","","",""
"pit-trial","63","649431","0.0-2.0-14.0-3.0","battery-v0.2","","""event"",""trial"",""time""
""fullscreenenter"",""1"",""2126""
","
","
","""event"",""trial"",""time""
""fullscreenenter"",""1"",""2126""
","
","","","-1","","","19","9441","4458","&#9826;","elianto","#f73b6a7A","-1","-1","1","-10","[]","0","0","3","","","","","","","",""
"pit-trial","64","654289","0.0-2.0-14.0-4.0","battery-v0.2","","""event"",""trial"",""time""
""fullscreenenter"",""1"",""2126""
","
","
","""event"",""trial"",""time""
""fullscreenenter"",""1"",""2126""
","
","","","-1","","","19","9441","4458","&#9826;","elianto","#f73b6a7A","-1","-1","1","0","[]","0","0","3","","","","","","","",""
"pit-trial","65","659149","0.0-2.0-14.1-0.1","battery-v0.2","","""event"",""trial"",""time""
""fullscreenenter"",""1"",""2126""
","
","
","""event"",""trial"",""time""
""fullscreenenter"",""1"",""2126""
","
","","","-1","","","19","9441","4458","&#9826;","elianto","#f73b6a7A","-1","-1","1","0","[]","0","0","3","","","","","","","",""
"pit-trial","66","664009","0.0-2.0-14.1-1.1","battery-v0.2","","""event"",""trial"",""time""
""fullscreenenter"",""1"",""2126""
","
","
","""event"",""trial"",""time""
""fullscreenenter"",""1"",""2126""
","
","","","-1","","","19","9441","4458","&#9826;","elianto","#f73b6a7A","-1","-1","1","0","[]","0","0","3","","","","","","","",""
"pit-trial","67","668867","0.0-2.0-14.1-2.1","battery-v0.2","","""event"",""trial"",""time""
""fullscreenenter"",""1"",""2126""
","
","
","""event"",""trial"",""time""
""fullscreenenter"",""1"",""2126""
","
","","","-1","","","19","9441","4458","&#9826;","elianto","#f73b6a7A","-1","-1","1","0","[]","0","0","3","","","","","","","",""
"pit-trial","68","673726","0.0-2.0-14.1-3.1","battery-v0.2","","""event"",""trial"",""time""
""fullscreenenter"",""1"",""2126""
","
","
","""event"",""trial"",""time""
""fullscreenenter"",""1"",""2126""
","
","","","-1","","","19","9441","4458","&#9826;","elianto","#f73b6a7A","-1","-1","1","-10","[]","0","0","3","","","","","","","",""
"pit-trial","69","678584","0.0-2.0-14.1-4.1","battery-v0.2","","""event"",""trial"",""time""
""fullscreenenter"",""1"",""2126""
","
","
","""event"",""trial"",""time""
""fullscreenenter"",""1"",""2126""
","
","","","-1","","","19","9441","4458","&#9826;","elianto","#f73b6a7A","-1","-1","1","0","[]","0","0","3","","","","","","","",""
"pit-trial","70","683441","0.0-2.0-14.2-0.2","battery-v0.2","","""event"",""trial"",""time""
""fullscreenenter"",""1"",""2126""
","
","
","""event"",""trial"",""time""
""fullscreenenter"",""1"",""2126""
","
","","","-1","","","19","9441","4458","&#9826;","elianto","#f73b6a7A","-1","-1","1","0","[]","0","0","3","","","","","","","",""
"pit-trial","71","688300","0.0-2.0-14.2-1.2","battery-v0.2","","""event"",""trial"",""time""
""fullscreenenter"",""1"",""2126""
","
","
","""event"",""trial"",""time""
""fullscreenenter"",""1"",""2126""
","
","","","-1","","","19","9441","4458","&#9826;","elianto","#f73b6a7A","-1","-1","1","0","[]","0","0","3","","","","","","","",""
"pit-trial","72","693158","0.0-2.0-14.2-2.2","battery-v0.2","","""event"",""trial"",""time""
""fullscreenenter"",""1"",""2126""
","
","
","""event"",""trial"",""time""
""fullscreenenter"",""1"",""2126""
","
","","","-1","","","19","9441","4458","&#9826;","elianto","#f73b6a7A","-1","-1","1","0","[]","0","0","3","","","","","","","",""
"pit-trial","73","698017","0.0-2.0-14.2-3.2","battery-v0.2","","""event"",""trial"",""time""
""fullscreenenter"",""1"",""2126""
","
","
","""event"",""trial"",""time""
""fullscreenenter"",""1"",""2126""
","
","","","-1","","","19","9441","4458","&#9826;","elianto","#f73b6a7A","-1","-1","1","-10","[]","0","0","3","","","","","","","",""
"pit-trial","74","702876","0.0-2.0-14.2-4.2","battery-v0.2","","""event"",""trial"",""time""
""fullscreenenter"",""1"",""2126""
","
","
","""event"",""trial"",""time""
""fullscreenenter"",""1"",""2126""
","
","","","-1","","","19","9441","4458","&#9826;","elianto","#f73b6a7A","-1","-1","1","0","[]","0","0","3","","","","","","","",""
"pit-trial","75","706670","0.0-2.0-14.3-0.3","battery-v0.2","","""event"",""trial"",""time""
""fullscreenenter"",""1"",""2126""
","
","
","""event"",""trial"",""time""
""fullscreenenter"",""1"",""2126""
","
","","","935","","","19","9441","4458","&#9826;","elianto","#f73b6a7A","-1"," ","0","-10","[1787]","1","0","3","","","","","","","",""
"pit-trial","76","711529","0.0-2.0-14.3-1.3","battery-v0.2","","""event"",""trial"",""time""
""fullscreenenter"",""1"",""2126""
","
","
","""event"",""trial"",""time""
""fullscreenenter"",""1"",""2126""
","
","","","-1","","","19","9441","4458","&#9826;","elianto","#f73b6a7A","-1","-1","1","0","[]","0","0","3","","","","","","","",""
"pit-trial","77","716390","0.0-2.0-14.3-2.3","battery-v0.2","","""event"",""trial"",""time""
""fullscreenenter"",""1"",""2126""
","
","
","""event"",""trial"",""time""
""fullscreenenter"",""1"",""2126""
","
","","","-1","","","19","9441","4458","&#9826;","elianto","#f73b6a7A","-1","-1","1","0","[]","0","0","3","","","","","","","",""
"pit-trial","78","721248","0.0-2.0-14.3-3.3","battery-v0.2","","""event"",""trial"",""time""
""fullscreenenter"",""1"",""2126""
","
","
","""event"",""trial"",""time""
""fullscreenenter"",""1"",""2126""
","
","","","-1","","","19","9441","4458","&#9826;","elianto","#f73b6a7A","-1","-1","1","-10","[]","0","0","3","","","","","","","",""
"pit-trial","79","726106","0.0-2.0-14.3-4.3","battery-v0.2","","""event"",""trial"",""time""
""fullscreenenter"",""1"",""2126""
","
","
","""event"",""trial"",""time""
""fullscreenenter"",""1"",""2126""
","
","","","-1","","","19","9441","4458","&#9826;","elianto","#f73b6a7A","-1","-1","1","0","[]","0","0","3","","","","","","","",""
"call-function","80","726111","0.0-2.0-15.0","battery-v0.2","","""event"",""trial"",""time""
""fullscreenenter"",""1"",""2126""
","
","
","""event"",""trial"",""time""
""fullscreenenter"",""1"",""2126""
","
","","","","","","","","","","","","","","","","","","","","","","","","","","",""
"pit-instructions","81","754818","0.0-2.0-16.0","battery-v0.2","","""event"",""trial"",""time""
""fullscreenenter"",""1"",""2126""
","
","
","""event"",""trial"",""time""
""fullscreenenter"",""1"",""2126""
","
","","[{""page_index"":0,""viewing_time"":6936.999999999884},{""page_index"":1,""viewing_time"":9495},{""page_index"":2,""viewing_time"":7150.000000000116},{""page_index"":3,""viewing_time"":5122.999999999884}]","28705.999999999884","","","","","","","","","","","","","","","","","","","","","","","",""
"pit-trial","82","758042","0.0-2.0-17.0-0.0","battery-v0.2","","""event"",""trial"",""time""
""fullscreenenter"",""1"",""2126""
","
","
","""event"",""trial"",""time""
""fullscreenenter"",""1"",""2126""
","
","","","367.0000000001164","","","19","9441","4458","&#9789;","elianto","#f73b6a7A"," "," ","1","0","[1217.0000000001164]","1","0","4","","","","","","","",""
"pit-trial","83","761271","0.0-2.0-17.0-1.0","battery-v0.2","","""event"",""trial"",""time""
""fullscreenenter"",""1"",""2126""
","
","
","""event"",""trial"",""time""
""fullscreenenter"",""1"",""2126""
","
","","","370","","","19","9441","4458","&#9789;","elianto","#f73b6a7A"," "," ","1","0","[1221]","1","0","4","","","","","","","",""
"pit-trial","84","766131","0.0-2.0-17.0-2.0","battery-v0.2","","""event"",""trial"",""time""
""fullscreenenter"",""1"",""2126""
","
","
","""event"",""trial"",""time""
""fullscreenenter"",""1"",""2126""
","
","","","-1","","","19","9441","4458","&#9789;","elianto","#f73b6a7A"," ","-1","0","-10","[]","0","0","4","","","","","","","",""
"pit-trial","85","770072","0.0-2.0-17.0-3.0","battery-v0.2","","""event"",""trial"",""time""
""fullscreenenter"",""1"",""2126""
","
","
","""event"",""trial"",""time""
""fullscreenenter"",""1"",""2126""
","
","","","1083.9999999998836","","","19","9441","4458","&#9789;","elianto","#f73b6a7A"," "," ","1","-10","[1933]","1","0","4","","","","","","","",""
"pit-trial","86","774929","0.0-2.0-17.0-4.0","battery-v0.2","","""event"",""trial"",""time""
""fullscreenenter"",""1"",""2126""
","
","
","""event"",""trial"",""time""
""fullscreenenter"",""1"",""2126""
","
","","","-1","","","19","9441","4458","&#9789;","elianto","#f73b6a7A"," ","-1","0","-10","[]","0","0","4","","","","","","","",""
"pit-trial","87","779790","0.0-2.0-17.1-0.1","battery-v0.2","","""event"",""trial"",""time""
""fullscreenenter"",""1"",""2126""
","
","
","""event"",""trial"",""time""
""fullscreenenter"",""1"",""2126""
","
","","","-1","","","19","9441","4458","&#9789;","elianto","#f73b6a7A"," ","-1","0","-10","[]","0","0","4","","","","","","","",""
"pit-trial","88","784651","0.0-2.0-17.1-1.1","battery-v0.2","","""event"",""trial"",""time""
""fullscreenenter"",""1"",""2126""
","
","
","""event"",""trial"",""time""
""fullscreenenter"",""1"",""2126""
","
","","","-1","","","19","9441","4458","&#9789;","elianto","#f73b6a7A"," ","-1","0","-10","[]","0","0","4","","","","","","","",""
"pit-trial","89","789509","0.0-2.0-17.1-2.1","battery-v0.2","","""event"",""trial"",""time""
""fullscreenenter"",""1"",""2126""
","
","
","""event"",""trial"",""time""
""fullscreenenter"",""1"",""2126""
","
","","","-1","","","19","9441","4458","&#9789;","elianto","#f73b6a7A"," ","-1","0","-10","[]","0","0","4","","","","","","","",""
"pit-trial","90","794364","0.0-2.0-17.1-3.1","battery-v0.2","","""event"",""trial"",""time""
""fullscreenenter"",""1"",""2126""
","
","
","""event"",""trial"",""time""
""fullscreenenter"",""1"",""2126""
","
","","","-1","","","19","9441","4458","&#9789;","elianto","#f73b6a7A"," ","-1","0","0","[]","0","0","4","","","","","","","",""
"pit-trial","91","799223","0.0-2.0-17.1-4.1","battery-v0.2","","""event"",""trial"",""time""
""fullscreenenter"",""1"",""2126""
","
","
","""event"",""trial"",""time""
""fullscreenenter"",""1"",""2126""
","
","","","-1","","","19","9441","4458","&#9789;","elianto","#f73b6a7A"," ","-1","0","-10","[]","0","0","4","","","","","","","",""
"pit-trial","92","804083","0.0-2.0-17.2-0.2","battery-v0.2","","""event"",""trial"",""time""
""fullscreenenter"",""1"",""2126""
","
","
","""event"",""trial"",""time""
""fullscreenenter"",""1"",""2126""
","
","","","-1","","","19","9441","4458","&#9789;","elianto","#f73b6a7A"," ","-1","0","-10","[]","0","0","4","","","","","","","",""
"pit-trial","93","808941","0.0-2.0-17.2-1.2","battery-v0.2","","""event"",""trial"",""time""
""fullscreenenter"",""1"",""2126""
","
","
","""event"",""trial"",""time""
""fullscreenenter"",""1"",""2126""
","
","","","-1","","","19","9441","4458","&#9789;","elianto","#f73b6a7A"," ","-1","0","-10","[]","0","0","4","","","","","","","",""
"pit-trial","94","813800","0.0-2.0-17.2-2.2","battery-v0.2","","""event"",""trial"",""time""
""fullscreenenter"",""1"",""2126""
","
","
","""event"",""trial"",""time""
""fullscreenenter"",""1"",""2126""
","
","","","-1","","","19","9441","4458","&#9789;","elianto","#f73b6a7A"," ","-1","0","-10","[]","0","0","4","","","","","","","",""
"pit-trial","95","818659","0.0-2.0-17.2-3.2","battery-v0.2","","""event"",""trial"",""time""
""fullscreenenter"",""1"",""2126""
","
","
","""event"",""trial"",""time""
""fullscreenenter"",""1"",""2126""
","
","","","-1","","","19","9441","4458","&#9789;","elianto","#f73b6a7A"," ","-1","0","0","[]","0","0","4","","","","","","","",""
"pit-trial","96","821792","0.0-2.0-17.2-4.2","battery-v0.2","","""event"",""trial"",""time""
""fullscreenenter"",""1"",""2126""
","
","
","""event"",""trial"",""time""
""fullscreenenter"",""1"",""2126""
","
","","","274.9999999998836","","","19","9441","4458","&#9789;","elianto","#f73b6a7A"," "," ","1","0","[1125.9999999998836]","1","0","4","","","","","","","",""
"pit-trial","97","826651","0.0-2.0-17.3-0.3","battery-v0.2","","""event"",""trial"",""time""
""fullscreenenter"",""1"",""2126""
","
","
","""event"",""trial"",""time""
""fullscreenenter"",""1"",""2126""
","
","","","-1","","","19","9441","4458","&#9789;","elianto","#f73b6a7A"," ","-1","0","-10","[]","0","0","4","","","","","","","",""
"pit-trial","98","831510","0.0-2.0-17.3-1.3","battery-v0.2","","""event"",""trial"",""time""
""fullscreenenter"",""1"",""2126""
","
","
","""event"",""trial"",""time""
""fullscreenenter"",""1"",""2126""
","
","","","-1","","","19","9441","4458","&#9789;","elianto","#f73b6a7A"," ","-1","0","-10","[]","0","0","4","","","","","","","",""
"pit-trial","99","836369","0.0-2.0-17.3-2.3","battery-v0.2","","""event"",""trial"",""time""
""fullscreenenter"",""1"",""2126""
","
","
","""event"",""trial"",""time""
""fullscreenenter"",""1"",""2126""
","
","","","-1","","","19","9441","4458","&#9789;","elianto","#f73b6a7A"," ","-1","0","-10","[]","0","0","4","","","","","","","",""
"pit-trial","100","841225","0.0-2.0-17.3-3.3","battery-v0.2","","""event"",""trial"",""time""
""fullscreenenter"",""1"",""2126""
","
","
","""event"",""trial"",""time""
""fullscreenenter"",""1"",""2126""
","
","","","-1","","","19","9441","4458","&#9789;","elianto","#f73b6a7A"," ","-1","0","0","[]","0","0","4","","","","","","","",""
"pit-trial","101","846084","0.0-2.0-17.3-4.3","battery-v0.2","","""event"",""trial"",""time""
""fullscreenenter"",""1"",""2126""
","
","
","""event"",""trial"",""time""
""fullscreenenter"",""1"",""2126""
","
","","","-1","","","19","9441","4458","&#9789;","elianto","#f73b6a7A"," ","-1","0","-10","[]","0","0","4","","","","","","","",""
"call-function","102","846089","0.0-2.0-18.0","battery-v0.2","","""event"",""trial"",""time""
""fullscreenenter"",""1"",""2126""
","
","
","""event"",""trial"",""time""
""fullscreenenter"",""1"",""2126""
","
","","","","","","","","","","","","","","","","","","","","","","","","","","",""
"pit-instructions","103","916042","0.0-2.0-19.0","battery-v0.2","","""event"",""trial"",""time""
""fullscreenenter"",""1"",""2126""
","
","
","""event"",""trial"",""time""
""fullscreenenter"",""1"",""2126""
","
","","[{""page_index"":0,""viewing_time"":7048},{""page_index"":1,""viewing_time"":6238},{""page_index"":2,""viewing_time"":9362},{""page_index"":3,""viewing_time"":5600},{""page_index"":4,""viewing_time"":8307.000000000116},{""page_index"":5,""viewing_time"":9939.999999999884},{""page_index"":6,""viewing_time"":14202},{""page_index"":7,""viewing_time"":5644},{""page_index"":8,""viewing_time"":3612}]","69954.00000000012","","","","","","","","","","","","","","","","","","","","","","","",""
"pit-comprehension","104","920132","0.0-2.0-20.0-0.0","battery-v0.2","","""event"",""trial"",""time""
""fullscreenenter"",""1"",""2126""
","
","
","""event"",""trial"",""time""
""fullscreenenter"",""1"",""2126""
","
","","","4082","[""SPACE""]","0","19","9441","4458","","","","","","","","","","","","","","","","","","",""
"pit-instructions","105","924172","0.0-2.0-20.0-1.0","battery-v0.2","","""event"",""trial"",""time""
""fullscreenenter"",""1"",""2126""
","
","
","""event"",""trial"",""time""
""fullscreenenter"",""1"",""2126""
","
","","[{""page_index"":0,""viewing_time"":3964}]","3965.0000000001164","","","","","","","","","","","","","","","","","","","","","","","",""
"pit-comprehension","106","929283","0.0-2.0-21.0-0.0","battery-v0.2","","""event"",""trial"",""time""
""fullscreenenter"",""1"",""2126""
","
","
","""event"",""trial"",""time""
""fullscreenenter"",""1"",""2126""
","
","","","5104","[""10""]","0","19","9441","4458","","","","","","","","","","","","","","","","","","",""
"pit-instructions","107","935946","0.0-2.0-21.0-1.0","battery-v0.2","","""event"",""trial"",""time""
""fullscreenenter"",""1"",""2126""
","
","
","""event"",""trial"",""time""
""fullscreenenter"",""1"",""2126""
","
","","[{""page_index"":0,""viewing_time"":6616}]","6617.000000000116","","","","","","","","","","","","","","","","","","","","","","","",""
"pit-comprehension","108","942870","0.0-2.0-22.0-0.0","battery-v0.2","","""event"",""trial"",""time""
""fullscreenenter"",""1"",""2126""
","
","
","""event"",""trial"",""time""
""fullscreenenter"",""1"",""2126""
","
","","","6919.000000000116","[""-10""]","1","19","9441","4458","","","","","","","","","","","","","","","","","","",""
"pit-instructions","109","949293","0.0-2.0-22.0-1.0","battery-v0.2","","""event"",""trial"",""time""
""fullscreenenter"",""1"",""2126""
","
","
","""event"",""trial"",""time""
""fullscreenenter"",""1"",""2126""
","
","","[{""page_index"":0,""viewing_time"":6377.000000000116}]","6378","","","","","","","","","","","","","","","","","","","","","","","",""
"pit-instructions","110","953995","0.0-2.0-22.0-2.0-0.0","battery-v0.2","","""event"",""trial"",""time""
""fullscreenenter"",""1"",""2126""
","
","
","""event"",""trial"",""time""
""fullscreenenter"",""1"",""2126""
","
","","[{""page_index"":0,""viewing_time"":4696}]","4696","","","","","","","","","","","","","","","","","","","","","","","",""
"pit-comprehension","111","960658","0.0-2.0-22.1-0.1","battery-v0.2","","""event"",""trial"",""time""
""fullscreenenter"",""1"",""2126""
","
","
","""event"",""trial"",""time""
""fullscreenenter"",""1"",""2126""
","
","","","6657.000000000116","[""0""]","0","19","9441","4458","","","","","","","","","","","","","","","","","","",""
"pit-instructions","112","962665","0.0-2.0-22.1-1.1","battery-v0.2","","""event"",""trial"",""time""
""fullscreenenter"",""1"",""2126""
","
","
","""event"",""trial"",""time""
""fullscreenenter"",""1"",""2126""
","
","","[{""page_index"":0,""viewing_time"":1928}]","1928","","","","","","","","","","","","","","","","","","","","","","","",""
"pit-comprehension","113","971258","0.0-2.0-23.0-0.0","battery-v0.2","","""event"",""trial"",""time""
""fullscreenenter"",""1"",""2126""
","
","
","""event"",""trial"",""time""
""fullscreenenter"",""1"",""2126""
","
","","","8587","[""True""]","0","19","9441","4458","","","","","","","","","","","","","","","","","","",""
"pit-instructions","114","974316","0.0-2.0-23.0-1.0","battery-v0.2","","""event"",""trial"",""time""
""fullscreenenter"",""1"",""2126""
","
","
","""event"",""trial"",""time""
""fullscreenenter"",""1"",""2126""
","
","","[{""page_index"":0,""viewing_time"":3009.0000000001164}]","3010","","","","","","","","","","","","","","","","","","","","","","","",""
"pit-comprehension","115","981984","0.0-2.0-24.0-0.0","battery-v0.2","","""event"",""trial"",""time""
""fullscreenenter"",""1"",""2126""
","
","
","""event"",""trial"",""time""
""fullscreenenter"",""1"",""2126""
","
","","","7660.000000000116","[""True""]","0","19","9441","4458","","","","","","","","","","","","","","","","","","",""
"pit-instructions","116","986470","0.0-2.0-24.0-1.0","battery-v0.2","","""event"",""trial"",""time""
""fullscreenenter"",""1"",""2126""
","
","
","""event"",""trial"",""time""
""fullscreenenter"",""1"",""2126""
","
","","[{""page_index"":0,""viewing_time"":4438}]","4438","","","","","","","","","","","","","","","","","","","","","","","",""
"pit-comprehension","117","993059","0.0-2.0-25.0-0.0","battery-v0.2","","""event"",""trial"",""time""
""fullscreenenter"",""1"",""2126""
","
","
","""event"",""trial"",""time""
""fullscreenenter"",""1"",""2126""
","
","","","6582","[""True""]","0","19","9441","4458","","","","","","","","","","","","","","","","","","",""
"pit-instructions","118","998340","0.0-2.0-25.0-1.0","battery-v0.2","","""event"",""trial"",""time""
""fullscreenenter"",""1"",""2126""
","
","
","""event"",""trial"",""time""
""fullscreenenter"",""1"",""2126""
","
","","[{""page_index"":0,""viewing_time"":5230.000000000116}]","5231","","","","","","","","","","","","","","","","","","","","","","","",""
"pit-comprehension","119","1004551","0.0-2.0-26.0-0.0","battery-v0.2","","""event"",""trial"",""time""
""fullscreenenter"",""1"",""2126""
","
","
","""event"",""trial"",""time""
""fullscreenenter"",""1"",""2126""
","
","","","6205","[""False""]","0","19","9441","4458","","","","","","","","","","","","","","","","","","",""
"pit-instructions","120","1010928","0.0-2.0-26.0-1.0","battery-v0.2","","""event"",""trial"",""time""
""fullscreenenter"",""1"",""2126""
","
","
","""event"",""trial"",""time""
""fullscreenenter"",""1"",""2126""
","
","","[{""page_index"":0,""viewing_time"":6329}]","6329","","","","","","","","","","","","","","","","","","","","","","","",""
"pit-instructions","121","1039510","0.0-3.0","battery-v0.2","","""event"",""trial"",""time""
""fullscreenenter"",""1"",""2126""
","
","
","""event"",""trial"",""time""
""fullscreenenter"",""1"",""2126""
","
","","[{""page_index"":0,""viewing_time"":11917},{""page_index"":1,""viewing_time"":7620},{""page_index"":2,""viewing_time"":9039.999999999884}]","28578.000000000116","","","","","","","","","","","","","","","","","","","","","","","",""
"pit-trial","122","1044368","0.0-4.0","battery-v0.2","","""event"",""trial"",""time""
""fullscreenenter"",""1"",""2126""
","
","
","""event"",""trial"",""time""
""fullscreenenter"",""1"",""2126""
","
","","","-1","","","19","9441","4458","&#9752;","elianto","#f73b6a7A"," ","-1","0","0","[3300]","1","1","","","9441","1","3","3","lose","go","1"
"pit-trial","123","1049227","0.0-5.0","battery-v0.2","","""event"",""trial"",""time""
""fullscreenenter"",""1"",""2126""
","
","
","""event"",""trial"",""time""
""fullscreenenter"",""1"",""2126""
","
","","","-1","","","19","9441","4458","&#9728;","elianto","#f73b6a7A","-1","-1","1","0","[]","0","1","","","9441","2","0","4","lose","no-go","0"
"pit-trial","124","1053134","0.0-6.0","battery-v0.2","","""event"",""trial"",""time""
""fullscreenenter"",""1"",""2126""
","
","
","""event"",""trial"",""time""
""fullscreenenter"",""1"",""2126""
","
","","","1046","","","19","9441","4458","&#9733;","elianto","#3366ff99","-1"," ","0","0","[1898]","1","1","","","9441","3","2","2","win","no-go","0"
"pit-trial","125","1057850","0.0-7.0","battery-v0.2","","""event"",""trial"",""time""
""fullscreenenter"",""1"",""2126""
","
","
","""event"",""trial"",""time""
""fullscreenenter"",""1"",""2126""
","
","","","1856","","","19","9441","4458","&#9730;","elianto","#3366ff99"," "," ","1","+10","[2706]","1","1","","","9441","4","1","1","win","go","0"
"pit-trial","126","1062709","0.0-8.0","battery-v0.2","","""event"",""trial"",""time""
""fullscreenenter"",""1"",""2126""
","
","
","""event"",""trial"",""time""
""fullscreenenter"",""1"",""2126""
","
","","","-1","","","19","9441","4458","&#9752;","elianto","#f73b6a7A"," ","-1","0","-10","[]","0","1","","","9441","5","3","3","lose","go","0"
"pit-trial","127","1067014","0.0-9.0","battery-v0.2","","""event"",""trial"",""time""
""fullscreenenter"",""1"",""2126""
","
","
","""event"",""trial"",""time""
""fullscreenenter"",""1"",""2126""
","
","","","1445","","","19","9441","4458","&#9728;","elianto","#f73b6a7A","-1"," ","0","-10","[2296]","1","1","","","9441","6","0","4","lose","no-go","0"
"pit-trial","128","1071878","0.0-10.0","battery-v0.2","","""event"",""trial"",""time""
""fullscreenenter"",""1"",""2126""
","
","
","""event"",""trial"",""time""
""fullscreenenter"",""1"",""2126""
","
","","","-1","","","19","9441","4458","&#9733;","elianto","#3366ff99","-1","-1","1","+10","[2896]","1","1","","","9441","7","2","2","win","no-go","0"
"pit-trial","129","1076738","0.0-11.0","battery-v0.2","","""event"",""trial"",""time""
""fullscreenenter"",""1"",""2126""
","
","
","""event"",""trial"",""time""
""fullscreenenter"",""1"",""2126""
","
","","","-1","","","19","9441","4458","&#9730;","elianto","#3366ff99"," ","-1","0","0","[]","0","1","","","9441","8","1","1","win","go","0"
"pit-trial","130","1080846","0.0-12.0","battery-v0.2","","""event"",""trial"",""time""
""fullscreenenter"",""1"",""2126""
","
","
","""event"",""trial"",""time""
""fullscreenenter"",""1"",""2126""
","
","","","1247","","","19","9441","4458","&#9752;","elianto","#f73b6a7A"," "," ","1","0","[2099]","1","1","","","9441","9","3","3","lose","go","0"
"pit-trial","131","1084970","0.0-13.0","battery-v0.2","","""event"",""trial"",""time""
""fullscreenenter"",""1"",""2126""
","
","
","""event"",""trial"",""time""
""fullscreenenter"",""1"",""2126""
","
","","","1262","","","19","9441","4458","&#9728;","elianto","#f73b6a7A","-1"," ","0","-10","[2115]","1","1","","","9441","10","0","4","lose","no-go","0"
"pit-trial","132","1088873","0.0-14.0","battery-v0.2","","""event"",""trial"",""time""
""fullscreenenter"",""1"",""2126""
","
","
","""event"",""trial"",""time""
""fullscreenenter"",""1"",""2126""
","
","","","1042","","","19","9441","4458","&#9733;","elianto","#3366ff99","-1"," ","0","0","[1893]","1","1","","","9441","11","2","2","win","no-go","0"
"pit-trial","133","1093733","0.0-15.0","battery-v0.2","","""event"",""trial"",""time""
""fullscreenenter"",""1"",""2126""
","
","
","""event"",""trial"",""time""
""fullscreenenter"",""1"",""2126""
","
","","","-1","","","19","9441","4458","&#9730;","elianto","#3366ff99"," ","-1","0","+10","[]","0","1","","","9441","12","1","1","win","go","1"
"pit-trial","134","1098593","0.0-16.0","battery-v0.2","","""event"",""trial"",""time""
""fullscreenenter"",""1"",""2126""
","
","
","""event"",""trial"",""time""
""fullscreenenter"",""1"",""2126""
","
","","","-1","","","19","9441","4458","&#9733;","elianto","#3366ff99","-1","-1","1","+10","[]","0","1","","","9441","13","2","2","win","no-go","0"
"pit-trial","135","1103455","0.0-17.0","battery-v0.2","","""event"",""trial"",""time""
""fullscreenenter"",""1"",""2126""
","
","
","""event"",""trial"",""time""
""fullscreenenter"",""1"",""2126""
","
","","","-1","","","19","9441","4458","&#9730;","elianto","#3366ff99"," ","-1","0","0","[]","0","1","","","9441","14","1","1","win","go","0"
"pit-trial","136","1108316","0.0-18.0","battery-v0.2","","""event"",""trial"",""time""
""fullscreenenter"",""1"",""2126""
","
","
","""event"",""trial"",""time""
""fullscreenenter"",""1"",""2126""
","
","","","-1","","","19","9441","4458","&#9728;","elianto","#f73b6a7A","-1","-1","1","0","[]","0","1","","","9441","15","0","4","lose","no-go","0"
"pit-trial","137","1113155","0.0-19.0","battery-v0.2","","""event"",""trial"",""time""
""fullscreenenter"",""1"",""2126""
","
","
","""event"",""trial"",""time""
""fullscreenenter"",""1"",""2126""
","
","","","1980","","","19","9441","4458","&#9752;","elianto","#f73b6a7A"," "," ","1","0","[2830]","1","1","","","9441","16","3","3","lose","go","0"
"pit-trial","138","1118013","0.0-20.0","battery-v0.2","","""event"",""trial"",""time""
""fullscreenenter"",""1"",""2126""
","
","
","""event"",""trial"",""time""
""fullscreenenter"",""1"",""2126""
","
","","","-1","","","19","9441","4458","&#9733;","elianto","#3366ff99","-1","-1","1","+10","[]","0","1","","","9441","17","2","2","win","no-go","0"
"pit-trial","139","1122875","0.0-21.0","battery-v0.2","","""event"",""trial"",""time""
""fullscreenenter"",""1"",""2126""
","
","
","""event"",""trial"",""time""
""fullscreenenter"",""1"",""2126""
","
","","","-1","","","19","9441","4458","&#9730;","elianto","#3366ff99"," ","-1","0","0","[]","0","1","","","9441","18","1","1","win","go","0"
"pit-trial","140","1127736","0.0-22.0","battery-v0.2","","""event"",""trial"",""time""
""fullscreenenter"",""1"",""2126""
","
","
","""event"",""trial"",""time""
""fullscreenenter"",""1"",""2126""
","
","","","-1","","","19","9441","4458","&#9752;","elianto","#f73b6a7A"," ","-1","0","-10","[]","0","1","","","9441","19","3","3","lose","go","0"
"pit-trial","141","1132595","0.0-23.0","battery-v0.2","","""event"",""trial"",""time""
""fullscreenenter"",""1"",""2126""
","
","
","""event"",""trial"",""time""
""fullscreenenter"",""1"",""2126""
","
","","","-1","","","19","9441","4458","&#9728;","elianto","#f73b6a7A","-1","-1","1","-10","[]","0","1","","","9441","20","0","4","lose","no-go","1"
"pit-instructions","142","1145669","0.0-24.0","battery-v0.2","","""event"",""trial"",""time""
""fullscreenenter"",""1"",""2126""
","
","
","""event"",""trial"",""time""
""fullscreenenter"",""1"",""2126""
","
","","[{""page_index"":0,""viewing_time"":5897},{""page_index"":1,""viewing_time"":7168}]","13066","","","","","","","","","","","","","","","","","","","","","","","",""
"pit-trial","143","1150530","0.0-25.0","battery-v0.2","","""event"",""trial"",""time""
""fullscreenenter"",""1"",""2126""
","
","
","""event"",""trial"",""time""
""fullscreenenter"",""1"",""2126""
","
","","","-1","","","19","9441","4458","a","elianto","#f73b6a7A","-1","-1","1","0","[]","0","2","","","9441","21","2","4","lose","no-go","0"
"pit-trial","144","1154593","0.0-26.0","battery-v0.2","","""event"",""trial"",""time""
""fullscreenenter"",""1"",""2126""
","
","
","""event"",""trial"",""time""
""fullscreenenter"",""1"",""2126""
","
","","","1202","","","19","9441","4458","g","elianto","#f73b6a7A"," "," ","1","0","[2053]","1","2","","","9441","22","3","3","lose","go","0"
"pit-trial","145","1159454","0.0-27.0","battery-v0.2","","""event"",""trial"",""time""
""fullscreenenter"",""1"",""2126""
","
","
","""event"",""trial"",""time""
""fullscreenenter"",""1"",""2126""
","
","","","-1","","","19","9441","4458","l","elianto","#3366ff99"," ","-1","0","0","[]","0","2","","","9441","23","1","1","win","go","0"
"pit-trial","146","1163613","0.0-28.0","battery-v0.2","","""event"",""trial"",""time""
""fullscreenenter"",""1"",""2126""
","
","
","""event"",""trial"",""time""
""fullscreenenter"",""1"",""2126""
","
","","","1298","","","19","9441","4458","u","elianto","#f73b6a7A","-1"," ","0","-10","[2149]","1","2","","","9441","24","0","4","lose","no-go","0"
"pit-trial","147","1167517","0.0-29.0","battery-v0.2","","""event"",""trial"",""time""
""fullscreenenter"",""1"",""2126""
","
","
","""event"",""trial"",""time""
""fullscreenenter"",""1"",""2126""
","
","","","1047","","","19","9441","4458","a","elianto","#f73b6a7A","-1"," ","0","-10","[1898]","1","2","","","9441","25","2","4","lose","no-go","0"
"pit-trial","148","1172377","0.0-30.0","battery-v0.2","","""event"",""trial"",""time""
""fullscreenenter"",""1"",""2126""
","
","
","""event"",""trial"",""time""
""fullscreenenter"",""1"",""2126""
","
","","","-1","","","19","9441","4458","l","elianto","#3366ff99"," ","-1","0","0","[]","0","2","","","9441","26","1","1","win","go","0"
"pit-trial","149","1176609","0.0-31.0","battery-v0.2","","""event"",""trial"",""time""
""fullscreenenter"",""1"",""2126""
","
","
","""event"",""trial"",""time""
""fullscreenenter"",""1"",""2126""
","
","","","1372","","","19","9441","4458","g","elianto","#f73b6a7A"," "," ","1","0","[2223]","1","2","","","9441","27","3","3","lose","go","0"
"pit-trial","150","1181398","0.0-32.0","battery-v0.2","","""event"",""trial"",""time""
""fullscreenenter"",""1"",""2126""
","
","
","""event"",""trial"",""time""
""fullscreenenter"",""1"",""2126""
","
","","","1926.9999999997672","","","19","9441","4458","u","elianto","#f73b6a7A","-1"," ","0","0","[2779]","1","2","","","9441","28","0","4","lose","no-go","1"
"pit-trial","151","1185642","0.0-33.0","battery-v0.2","","""event"",""trial"",""time""
""fullscreenenter"",""1"",""2126""
","
","
","""event"",""trial"",""time""
""fullscreenenter"",""1"",""2126""
","
","","","1383.9999999997672","","","19","9441","4458","l","elianto","#3366ff99"," "," ","1","0","[2235]","1","2","","","9441","29","1","1","win","go","1"
"pit-trial","152","1190503","0.0-34.0","battery-v0.2","","""event"",""trial"",""time""
""fullscreenenter"",""1"",""2126""
","
","
","""event"",""trial"",""time""
""fullscreenenter"",""1"",""2126""
","
","","","-1","","","19","9441","4458","a","elianto","#f73b6a7A","-1","-1","1","0","[]","0","2","","","9441","30","2","4","lose","no-go","0"
"pit-trial","153","1195364","0.0-35.0","battery-v0.2","","""event"",""trial"",""time""
""fullscreenenter"",""1"",""2126""
","
","
","""event"",""trial"",""time""
""fullscreenenter"",""1"",""2126""
","
","","","-1","","","19","9441","4458","g","elianto","#f73b6a7A"," ","-1","0","-10","[3007]","1","2","","","9441","31","3","3","lose","go","0"
"pit-trial","154","1199620","0.0-36.0","battery-v0.2","","""event"",""trial"",""time""
""fullscreenenter"",""1"",""2126""
","
","
","""event"",""trial"",""time""
""fullscreenenter"",""1"",""2126""
","
","","","1393","","","19","9441","4458","u","elianto","#f73b6a7A","-1"," ","0","0","[2243]","1","2","","","9441","32","0","4","lose","no-go","1"
"pit-trial","155","1204480","0.0-37.0","battery-v0.2","","""event"",""trial"",""time""
""fullscreenenter"",""1"",""2126""
","
","
","""event"",""trial"",""time""
""fullscreenenter"",""1"",""2126""
","
","","","-1","","","19","9441","4458","l","elianto","#3366ff99"," ","-1","0","0","[]","0","2","","","9441","33","1","1","win","go","0"
"pit-trial","156","1208333","0.0-38.0","battery-v0.2","","""event"",""trial"",""time""
""fullscreenenter"",""1"",""2126""
","
","
","""event"",""trial"",""time""
""fullscreenenter"",""1"",""2126""
","
","","","992","","","19","9441","4458","u","elianto","#f73b6a7A","-1"," ","0","-10","[1843]","1","2","","","9441","34","0","4","lose","no-go","0"
"pit-trial","157","1213194","0.0-39.0","battery-v0.2","","""event"",""trial"",""time""
""fullscreenenter"",""1"",""2126""
","
","
","""event"",""trial"",""time""
""fullscreenenter"",""1"",""2126""
","
","","","-1","","","19","9441","4458","a","elianto","#f73b6a7A","-1","-1","1","0","[]","0","2","","","9441","35","2","4","lose","no-go","0"
"pit-trial","158","1216847","0.0-40.0","battery-v0.2","","""event"",""trial"",""time""
""fullscreenenter"",""1"",""2126""
","
","
","""event"",""trial"",""time""
""fullscreenenter"",""1"",""2126""
","
","","","792","","","19","9441","4458","g","elianto","#f73b6a7A"," "," ","1","0","[1643]","1","2","","","9441","36","3","3","lose","go","0"
"pit-trial","159","1220457","0.0-41.0","battery-v0.2","","""event"",""trial"",""time""
""fullscreenenter"",""1"",""2126""
","
","
","""event"",""trial"",""time""
""fullscreenenter"",""1"",""2126""
","
","","","749","","","19","9441","4458","l","elianto","#3366ff99"," "," ","1","+10","[1600]","1","2","","","9441","37","1","1","win","go","0"
"pit-trial","160","1224313","0.0-42.0","battery-v0.2","","""event"",""trial"",""time""
""fullscreenenter"",""1"",""2126""
","
","
","""event"",""trial"",""time""
""fullscreenenter"",""1"",""2126""
","
","","","995","","","19","9441","4458","a","elianto","#f73b6a7A","-1"," ","0","-10","[1846]","1","2","","","9441","38","2","4","lose","no-go","0"
"pit-trial","161","1228053","0.0-43.0","battery-v0.2","","""event"",""trial"",""time""
""fullscreenenter"",""1"",""2126""
","
","
","""event"",""trial"",""time""
""fullscreenenter"",""1"",""2126""
","
","","","879","","","19","9441","4458","g","elianto","#f73b6a7A"," "," ","1","0","[1731]","1","2","","","9441","39","3","3","lose","go","0"
"pit-trial","162","1231823","0.0-44.0","battery-v0.2","","""event"",""trial"",""time""
""fullscreenenter"",""1"",""2126""
","
","
","""event"",""trial"",""time""
""fullscreenenter"",""1"",""2126""
","
","","","910","","","19","9441","4458","u","elianto","#f73b6a7A","-1"," ","0","0","[1761]","1","2","","","9441","40","0","4","lose","no-go","1"
"pit-trial","163","1235565","0.0-45.0","battery-v0.2","","""event"",""trial"",""time""
""fullscreenenter"",""1"",""2126""
","
","
","""event"",""trial"",""time""
""fullscreenenter"",""1"",""2126""
","
","","","882.0000000002328","","","19","9441","4458","l","elianto","#3366ff99"," "," ","1","+10","[1733.0000000002328]","1","2","","","9441","41","1","1","win","go","0"
"pit-trial","164","1239496","0.0-46.0","battery-v0.2","","""event"",""trial"",""time""
""fullscreenenter"",""1"",""2126""
","
","
","""event"",""trial"",""time""
""fullscreenenter"",""1"",""2126""
","
","","","1071","","","19","9441","4458","u","elianto","#f73b6a7A","-1"," ","0","-10","[1922]","1","2","","","9441","42","0","4","lose","no-go","0"
"pit-trial","165","1243080","0.0-47.0","battery-v0.2","","""event"",""trial"",""time""
""fullscreenenter"",""1"",""2126""
","
","
","""event"",""trial"",""time""
""fullscreenenter"",""1"",""2126""
","
","","","721","","","19","9441","4458","g","elianto","#f73b6a7A"," "," ","1","-10","[1573]","1","2","","","9441","43","3","3","lose","go","1"
"pit-trial","166","1247941","0.0-48.0","battery-v0.2","","""event"",""trial"",""time""
""fullscreenenter"",""1"",""2126""
","
","
","""event"",""trial"",""time""
""fullscreenenter"",""1"",""2126""
","
","","","-1","","","19","9441","4458","a","elianto","#f73b6a7A","-1","-1","1","0","[]","0","2","","","9441","44","2","4","lose","no-go","0"
"pit-trial","167","1252800","0.0-49.0","battery-v0.2","","""event"",""trial"",""time""
""fullscreenenter"",""1"",""2126""
","
","
","""event"",""trial"",""time""
""fullscreenenter"",""1"",""2126""
","
","","","-1","","","19","9441","4458","a","elianto","#f73b6a7A","-1","-1","1","0","[]","0","2","","","9441","45","2","4","lose","no-go","0"
"pit-trial","168","1256424","0.0-50.0","battery-v0.2","","""event"",""trial"",""time""
""fullscreenenter"",""1"",""2126""
","
","
","""event"",""trial"",""time""
""fullscreenenter"",""1"",""2126""
","
","","","764","","","19","9441","4458","p","elianto","#3366ff99","-1"," ","0","+10","[1614]","1","2","","","9441","46","4","2","win","no-go","1"
"pit-trial","169","1261285","0.0-51.0","battery-v0.2","","""event"",""trial"",""time""
""fullscreenenter"",""1"",""2126""
","
","
","""event"",""trial"",""time""
""fullscreenenter"",""1"",""2126""
","
","","","-1","","","19","9441","4458","u","elianto","#f73b6a7A","-1","-1","1","0","[]","0","2","","","9441","47","0","4","lose","no-go","0"
"pit-trial","170","1264940","0.0-52.0","battery-v0.2","","""event"",""trial"",""time""
""fullscreenenter"",""1"",""2126""
","
","
","""event"",""trial"",""time""
""fullscreenenter"",""1"",""2126""
","
","","","798","","","19","9441","4458","g","elianto","#f73b6a7A"," "," ","1","0","[1648.0000000002328]","1","2","","","9441","48","3","3","lose","go","0"
"pit-trial","171","1268545","0.0-53.0","battery-v0.2","","""event"",""trial"",""time""
""fullscreenenter"",""1"",""2126""
","
","
","""event"",""trial"",""time""
""fullscreenenter"",""1"",""2126""
","
","","","745","","","19","9441","4458","g","elianto","#f73b6a7A"," "," ","1","0","[1596]","1","2","","","9441","49","3","3","lose","go","0"
"pit-trial","172","1272470","0.0-54.0","battery-v0.2","","""event"",""trial"",""time""
""fullscreenenter"",""1"",""2126""
","
","
","""event"",""trial"",""time""
""fullscreenenter"",""1"",""2126""
","
","","","1066","","","19","9441","4458","p","elianto","#3366ff99","-1"," ","0","0","[1916]","1","2","","","9441","50","4","2","win","no-go","0"
"pit-trial","173","1277327","0.0-55.0","battery-v0.2","","""event"",""trial"",""time""
""fullscreenenter"",""1"",""2126""
","
","
","""event"",""trial"",""time""
""fullscreenenter"",""1"",""2126""
","
","","","-1","","","19","9441","4458","u","elianto","#f73b6a7A","-1","-1","1","0","[]","0","2","","","9441","51","0","4","lose","no-go","0"
"pit-trial","174","1281268","0.0-56.0","battery-v0.2","","""event"",""trial"",""time""
""fullscreenenter"",""1"",""2126""
","
","
","""event"",""trial"",""time""
""fullscreenenter"",""1"",""2126""
","
","","","1083","","","19","9441","4458","l","elianto","#3366ff99"," "," ","1","+10","[1934]","1","2","","","9441","52","1","1","win","go","0"
"pit-trial","175","1284983","0.0-57.0","battery-v0.2","","""event"",""trial"",""time""
""fullscreenenter"",""1"",""2126""
","
","
","""event"",""trial"",""time""
""fullscreenenter"",""1"",""2126""
","
","","","856","","","19","9441","4458","l","elianto","#3366ff99"," "," ","1","+10","[1705.9999999997672]","1","2","","","9441","53","1","1","win","go","0"
"pit-trial","176","1289843","0.0-58.0","battery-v0.2","","""event"",""trial"",""time""
""fullscreenenter"",""1"",""2126""
","
","
","""event"",""trial"",""time""
""fullscreenenter"",""1"",""2126""
","
","","","-1","","","19","9441","4458","a","elianto","#f73b6a7A","-1","-1","1","0","[]","0","2","","","9441","54","2","4","lose","no-go","0"
"pit-trial","177","1294703","0.0-59.0","battery-v0.2","","""event"",""trial"",""time""
""fullscreenenter"",""1"",""2126""
","
","
","""event"",""trial"",""time""
""fullscreenenter"",""1"",""2126""
","
","","","-1","","","19","9441","4458","u","elianto","#f73b6a7A","-1","-1","1","-10","[]","0","2","","","9441","55","0","4","lose","no-go","1"
"pit-trial","178","1298527","0.0-60.0","battery-v0.2","","""event"",""trial"",""time""
""fullscreenenter"",""1"",""2126""
","
","
","""event"",""trial"",""time""
""fullscreenenter"",""1"",""2126""
","
","","","966","","","19","9441","4458","p","elianto","#3366ff99","-1"," ","0","0","[1816]","1","2","","","9441","56","4","2","win","no-go","0"
"pit-trial","179","1303387","0.0-61.0","battery-v0.2","","""event"",""trial"",""time""
""fullscreenenter"",""1"",""2126""
","
","
","""event"",""trial"",""time""
""fullscreenenter"",""1"",""2126""
","
","","","-1","","","19","9441","4458","p","elianto","#3366ff99","-1","-1","1","+10","[]","0","2","","","9441","57","4","2","win","no-go","0"
"pit-trial","180","1308246","0.0-62.0","battery-v0.2","","""event"",""trial"",""time""
""fullscreenenter"",""1"",""2126""
","
","
","""event"",""trial"",""time""
""fullscreenenter"",""1"",""2126""
","
","","","-1","","","19","9441","4458","u","elianto","#f73b6a7A","-1","-1","1","0","[]","0","2","","","9441","58","0","4","lose","no-go","0"
"pit-trial","181","1311921","0.0-63.0","battery-v0.2","","""event"",""trial"",""time""
""fullscreenenter"",""1"",""2126""
","
","
","""event"",""trial"",""time""
""fullscreenenter"",""1"",""2126""
","
","","","814","","","19","9441","4458","g","elianto","#f73b6a7A"," "," ","1","0","[1665.0000000002328]","1","2","","","9441","59","3","3","lose","go","0"
"pit-trial","182","1315656","0.0-64.0","battery-v0.2","","""event"",""trial"",""time""
""fullscreenenter"",""1"",""2126""
","
","
","""event"",""trial"",""time""
""fullscreenenter"",""1"",""2126""
","
","","","875","","","19","9441","4458","l","elianto","#3366ff99"," "," ","1","+10","[1726]","1","2","","","9441","60","1","1","win","go","0"
"pit-trial","183","1319516","0.0-65.0","battery-v0.2","","""event"",""trial"",""time""
""fullscreenenter"",""1"",""2126""
","
","
","""event"",""trial"",""time""
""fullscreenenter"",""1"",""2126""
","
","","","1002.0000000002328","","","19","9441","4458","p","elianto","#3366ff99","-1"," ","0","0","[1852.0000000002328]","1","2","","","9441","61","4","2","win","no-go","0"
"pit-trial","184","1323348","0.0-66.0","battery-v0.2","","""event"",""trial"",""time""
""fullscreenenter"",""1"",""2126""
","
","
","""event"",""trial"",""time""
""fullscreenenter"",""1"",""2126""
","
","","","973","","","19","9441","4458","l","elianto","#3366ff99"," "," ","1","+10","[1825]","1","2","","","9441","62","1","1","win","go","0"
"pit-trial","185","1328208","0.0-67.0","battery-v0.2","","""event"",""trial"",""time""
""fullscreenenter"",""1"",""2126""
","
","
","""event"",""trial"",""time""
""fullscreenenter"",""1"",""2126""
","
","","","-1","","","19","9441","4458","a","elianto","#f73b6a7A","-1","-1","1","0","[]","0","2","","","9441","63","2","4","lose","no-go","0"
"pit-trial","186","1331935","0.0-68.0","battery-v0.2","","""event"",""trial"",""time""
""fullscreenenter"",""1"",""2126""
","
","
","""event"",""trial"",""time""
""fullscreenenter"",""1"",""2126""
","
","","","867","","","19","9441","4458","g","elianto","#f73b6a7A"," "," ","1","0","[1716.9999999997672]","1","2","","","9441","64","3","3","lose","go","0"
"pit-trial","187","1336796","0.0-69.0","battery-v0.2","","""event"",""trial"",""time""
""fullscreenenter"",""1"",""2126""
","
","
","""event"",""trial"",""time""
""fullscreenenter"",""1"",""2126""
","
","","","-1","","","19","9441","4458","p","elianto","#3366ff99","-1","-1","1","+10","[]","0","2","","","9441","65","4","2","win","no-go","0"
"pit-trial","188","1341656","0.0-70.0","battery-v0.2","","""event"",""trial"",""time""
""fullscreenenter"",""1"",""2126""
","
","
","""event"",""trial"",""time""
""fullscreenenter"",""1"",""2126""
","
","","","-1","","","19","9441","4458","a","elianto","#f73b6a7A","-1","-1","1","0","[]","0","2","","","9441","66","2","4","lose","no-go","0"
"pit-trial","189","1345158","0.0-71.0","battery-v0.2","","""event"",""trial"",""time""
""fullscreenenter"",""1"",""2126""
","
","
","""event"",""trial"",""time""
""fullscreenenter"",""1"",""2126""
","
","","","642","","","19","9441","4458","g","elianto","#f73b6a7A"," "," ","1","0","[1493]","1","2","","","9441","67","3","3","lose","go","0"
"pit-trial","190","1348990","0.0-72.0","battery-v0.2","","""event"",""trial"",""time""
""fullscreenenter"",""1"",""2126""
","
","
","""event"",""trial"",""time""
""fullscreenenter"",""1"",""2126""
","
","","","970","","","19","9441","4458","l","elianto","#3366ff99"," "," ","1","0","[1821]","1","2","","","9441","68","1","1","win","go","1"
"pit-trial","191","1352587","0.0-73.0","battery-v0.2","","""event"",""trial"",""time""
""fullscreenenter"",""1"",""2126""
","
","
","""event"",""trial"",""time""
""fullscreenenter"",""1"",""2126""
","
","","","738","","","19","9441","4458","g","elianto","#f73b6a7A"," "," ","1","0","[1588]","1","2","","","9441","69","3","3","lose","go","0"
"pit-trial","192","1356344","0.0-74.0","battery-v0.2","","""event"",""trial"",""time""
""fullscreenenter"",""1"",""2126""
","
","
","""event"",""trial"",""time""
""fullscreenenter"",""1"",""2126""
","
","","","898","","","19","9441","4458","s","elianto","#3366ff99"," "," ","1","0","[1748]","1","2","","","9441","70","5","1","win","go","1"
"pit-trial","193","1361204","0.0-75.0","battery-v0.2","","""event"",""trial"",""time""
""fullscreenenter"",""1"",""2126""
","
","
","""event"",""trial"",""time""
""fullscreenenter"",""1"",""2126""
","
","","","-1","","","19","9441","4458","p","elianto","#3366ff99","-1","-1","1","+10","[]","0","2","","","9441","71","4","2","win","no-go","0"
"pit-trial","194","1365456","0.0-76.0","battery-v0.2","","""event"",""trial"",""time""
""fullscreenenter"",""1"",""2126""
","
","
","""event"",""trial"",""time""
""fullscreenenter"",""1"",""2126""
","
","","","1394","","","19","9441","4458","l","elianto","#3366ff99"," "," ","1","0","[2244]","1","2","","","9441","72","1","1","win","go","1"
"pit-trial","195","1369435","0.0-77.0","battery-v0.2","","""event"",""trial"",""time""
""fullscreenenter"",""1"",""2126""
","
","
","""event"",""trial"",""time""
""fullscreenenter"",""1"",""2126""
","
","","","1118","","","19","9441","4458","s","elianto","#3366ff99"," "," ","1","+10","[1969]","1","2","","","9441","73","5","1","win","go","0"
"pit-trial","196","1373354","0.0-78.0","battery-v0.2","","""event"",""trial"",""time""
""fullscreenenter"",""1"",""2126""
","
","
","""event"",""trial"",""time""
""fullscreenenter"",""1"",""2126""
","
","","","1059","","","19","9441","4458","g","elianto","#f73b6a7A"," "," ","1","0","[1909]","1","2","","","9441","74","3","3","lose","go","0"
"pit-trial","197","1378215","0.0-79.0","battery-v0.2","","""event"",""trial"",""time""
""fullscreenenter"",""1"",""2126""
","
","
","""event"",""trial"",""time""
""fullscreenenter"",""1"",""2126""
","
","","","-1","","","19","9441","4458","l","elianto","#3366ff99"," ","-1","0","+10","[]","0","2","","","9441","75","1","1","win","go","1"
"pit-trial","198","1383075","0.0-80.0","battery-v0.2","","""event"",""trial"",""time""
""fullscreenenter"",""1"",""2126""
","
","
","""event"",""trial"",""time""
""fullscreenenter"",""1"",""2126""
","
","","","-1","","","19","9441","4458","p","elianto","#3366ff99","-1","-1","1","+10","[]","0","2","","","9441","76","4","2","win","no-go","0"
"pit-trial","199","1387935","0.0-81.0","battery-v0.2","","""event"",""trial"",""time""
""fullscreenenter"",""1"",""2126""
","
","
","""event"",""trial"",""time""
""fullscreenenter"",""1"",""2126""
","
","","","-1","","","19","9441","4458","p","elianto","#3366ff99","-1","-1","1","+10","[]","0","2","","","9441","77","4","2","win","no-go","0"
"pit-trial","200","1392796","0.0-82.0","battery-v0.2","","""event"",""trial"",""time""
""fullscreenenter"",""1"",""2126""
","
","
","""event"",""trial"",""time""
""fullscreenenter"",""1"",""2126""
","
","","","-1","","","19","9441","4458","g","elianto","#f73b6a7A"," ","-1","0","-10","[]","0","2","","","9441","78","3","3","lose","go","0"
"pit-trial","201","1396433","0.0-83.0","battery-v0.2","","""event"",""trial"",""time""
""fullscreenenter"",""1"",""2126""
","
","
","""event"",""trial"",""time""
""fullscreenenter"",""1"",""2126""
","
","","","778","","","19","9441","4458","s","elianto","#3366ff99"," "," ","1","+10","[1627]","1","2","","","9441","79","5","1","win","go","0"
"pit-trial","202","1400613","0.0-84.0","battery-v0.2","","""event"",""trial"",""time""
""fullscreenenter"",""1"",""2126""
","
","
","""event"",""trial"",""time""
""fullscreenenter"",""1"",""2126""
","
","","","1320","","","19","9441","4458","w","elianto","#f73b6a7A","-1"," ","0","-10","[2171]","1","2","","","9441","80","6","4","lose","no-go","0"
"pit-trial","203","1405474","0.0-85.0","battery-v0.2","","""event"",""trial"",""time""
""fullscreenenter"",""1"",""2126""
","
","
","""event"",""trial"",""time""
""fullscreenenter"",""1"",""2126""
","
","","","-1","","","19","9441","4458","p","elianto","#3366ff99","-1","-1","1","0","[]","0","2","","","9441","81","4","2","win","no-go","1"
"pit-trial","204","1409612","0.0-86.0","battery-v0.2","","""event"",""trial"",""time""
""fullscreenenter"",""1"",""2126""
","
","
","""event"",""trial"",""time""
""fullscreenenter"",""1"",""2126""
","
","","","1277","","","19","9441","4458","e","elianto","#f73b6a7A"," "," ","1","0","[2128]","1","2","","","9441","82","7","3","lose","go","0"
"pit-trial","205","1414472","0.0-87.0","battery-v0.2","","""event"",""trial"",""time""
""fullscreenenter"",""1"",""2126""
","
","
","""event"",""trial"",""time""
""fullscreenenter"",""1"",""2126""
","
","","","-1","","","19","9441","4458","w","elianto","#f73b6a7A","-1","-1","1","0","[]","0","2","","","9441","83","6","4","lose","no-go","0"
"pit-trial","206","1418592","0.0-88.0","battery-v0.2","","""event"",""trial"",""time""
""fullscreenenter"",""1"",""2126""
","
","
","""event"",""trial"",""time""
""fullscreenenter"",""1"",""2126""
","
","","","1260","","","19","9441","4458","s","elianto","#3366ff99"," "," ","1","+10","[2110.000000000233]","1","2","","","9441","84","5","1","win","go","0"
"pit-trial","207","1423449","0.0-89.0","battery-v0.2","","""event"",""trial"",""time""
""fullscreenenter"",""1"",""2126""
","
","
","""event"",""trial"",""time""
""fullscreenenter"",""1"",""2126""
","
","","","1997","","","19","9441","4458","w","elianto","#f73b6a7A","-1"," ","0","-10","[2846.999999999767]","1","2","","","9441","85","6","4","lose","no-go","0"
"pit-trial","208","1427315","0.0-90.0","battery-v0.2","","""event"",""trial"",""time""
""fullscreenenter"",""1"",""2126""
","
","
","""event"",""trial"",""time""
""fullscreenenter"",""1"",""2126""
","
","","","1009","","","19","9441","4458","s","elianto","#3366ff99"," "," ","1","+10","[1860]","1","2","","","9441","86","5","1","win","go","0"
"pit-trial","209","1432176","0.0-91.0","battery-v0.2","","""event"",""trial"",""time""
""fullscreenenter"",""1"",""2126""
","
","
","""event"",""trial"",""time""
""fullscreenenter"",""1"",""2126""
","
","","","-1","","","19","9441","4458","p","elianto","#3366ff99","-1","-1","1","+10","[]","0","2","","","9441","87","4","2","win","no-go","0"
"pit-trial","210","1437035","0.0-92.0","battery-v0.2","","""event"",""trial"",""time""
""fullscreenenter"",""1"",""2126""
","
","
","""event"",""trial"",""time""
""fullscreenenter"",""1"",""2126""
","
","","","-1","","","19","9441","4458","e","elianto","#f73b6a7A"," ","-1","0","0","[]","0","2","","","9441","88","7","3","lose","go","1"
"pit-trial","211","1441895","0.0-93.0","battery-v0.2","","""event"",""trial"",""time""
""fullscreenenter"",""1"",""2126""
","
","
","""event"",""trial"",""time""
""fullscreenenter"",""1"",""2126""
","
","","","-1","","","19","9441","4458","p","elianto","#3366ff99","-1","-1","1","+10","[]","0","2","","","9441","89","4","2","win","no-go","0"
"pit-trial","212","1446756","0.0-94.0","battery-v0.2","","""event"",""trial"",""time""
""fullscreenenter"",""1"",""2126""
","
","
","""event"",""trial"",""time""
""fullscreenenter"",""1"",""2126""
","
","","","-1","","","19","9441","4458","w","elianto","#f73b6a7A","-1","-1","1","0","[]","0","2","","","9441","90","6","4","lose","no-go","0"
"pit-trial","213","1451247","0.0-95.0","battery-v0.2","","""event"",""trial"",""time""
""fullscreenenter"",""1"",""2126""
","
","
","""event"",""trial"",""time""
""fullscreenenter"",""1"",""2126""
","
","","","1631","","","19","9441","4458","s","elianto","#3366ff99"," "," ","1","+10","[2482]","1","2","","","9441","91","5","1","win","go","0"
"pit-trial","214","1456103","0.0-96.0","battery-v0.2","","""event"",""trial"",""time""
""fullscreenenter"",""1"",""2126""
","
","
","""event"",""trial"",""time""
""fullscreenenter"",""1"",""2126""
","
","","","-1","","","19","9441","4458","e","elianto","#f73b6a7A"," ","-1","0","-10","[]","0","2","","","9441","92","7","3","lose","go","0"
"pit-trial","215","1459825","0.0-97.0","battery-v0.2","","""event"",""trial"",""time""
""fullscreenenter"",""1"",""2126""
","
","
","""event"",""trial"",""time""
""fullscreenenter"",""1"",""2126""
","
","","","862","","","19","9441","4458","s","elianto","#3366ff99"," "," ","1","+10","[1712]","1","2","","","9441","93","5","1","win","go","0"
"pit-trial","216","1463810","0.0-98.0","battery-v0.2","","""event"",""trial"",""time""
""fullscreenenter"",""1"",""2126""
","
","
","""event"",""trial"",""time""
""fullscreenenter"",""1"",""2126""
","
","","","1125","","","19","9441","4458","e","elianto","#f73b6a7A"," "," ","1","0","[1975]","1","2","","","9441","94","7","3","lose","go","0"
"pit-trial","217","1468671","0.0-99.0","battery-v0.2","","""event"",""trial"",""time""
""fullscreenenter"",""1"",""2126""
","
","
","""event"",""trial"",""time""
""fullscreenenter"",""1"",""2126""
","
","","","-1","","","19","9441","4458","w","elianto","#f73b6a7A","-1","-1","1","-10","[]","0","2","","","9441","95","6","4","lose","no-go","1"
"pit-trial","218","1472564","0.0-100.0","battery-v0.2","","""event"",""trial"",""time""
""fullscreenenter"",""1"",""2126""
","
","
","""event"",""trial"",""time""
""fullscreenenter"",""1"",""2126""
","
","","","1034","","","19","9441","4458","d","elianto","#3366ff99","-1"," ","0","+10","[1884]","1","2","","","9441","96","8","2","win","no-go","1"
"pit-trial","219","1477422","0.0-101.0","battery-v0.2","","""event"",""trial"",""time""
""fullscreenenter"",""1"",""2126""
","
","
","""event"",""trial"",""time""
""fullscreenenter"",""1"",""2126""
","
","","","-1","","","19","9441","4458","w","elianto","#f73b6a7A","-1","-1","1","-10","[]","0","2","","","9441","97","6","4","lose","no-go","1"
"pit-trial","220","1481170","0.0-102.0","battery-v0.2","","""event"",""trial"",""time""
""fullscreenenter"",""1"",""2126""
","
","
","""event"",""trial"",""time""
""fullscreenenter"",""1"",""2126""
","
","","","886.9999999997672","","","19","9441","4458","d","elianto","#3366ff99","-1"," ","0","0","[1737]","1","2","","","9441","98","8","2","win","no-go","0"
"pit-trial","221","1485779","0.0-103.0","battery-v0.2","","""event"",""trial"",""time""
""fullscreenenter"",""1"",""2126""
","
","
","""event"",""trial"",""time""
""fullscreenenter"",""1"",""2126""
","
","","","1750","","","19","9441","4458","e","elianto","#f73b6a7A"," "," ","1","0","[2601]","1","2","","","9441","99","7","3","lose","go","0"
"pit-trial","222","1489931","0.0-104.0","battery-v0.2","","""event"",""trial"",""time""
""fullscreenenter"",""1"",""2126""
","
","
","""event"",""trial"",""time""
""fullscreenenter"",""1"",""2126""
","
","","","1290","","","19","9441","4458","s","elianto","#3366ff99"," "," ","1","+10","[2141]","1","2","","","9441","100","5","1","win","go","0"
"pit-trial","223","1494225","0.0-105.0","battery-v0.2","","""event"",""trial"",""time""
""fullscreenenter"",""1"",""2126""
","
","
","""event"",""trial"",""time""
""fullscreenenter"",""1"",""2126""
","
","","","1435.0000000002328","","","19","9441","4458","w","elianto","#f73b6a7A","-1"," ","0","-10","[2286.000000000233]","1","2","","","9441","101","6","4","lose","no-go","0"
"pit-trial","224","1498206","0.0-106.0","battery-v0.2","","""event"",""trial"",""time""
""fullscreenenter"",""1"",""2126""
","
","
","""event"",""trial"",""time""
""fullscreenenter"",""1"",""2126""
","
","","","1120.0000000002328","","","19","9441","4458","j","elianto","#3366ff99","-1"," ","0","0","[1970.0000000002328]","1","2","","","9441","102","9","2","win","no-go","0"
"pit-trial","225","1502013","0.0-107.0","battery-v0.2","","""event"",""trial"",""time""
""fullscreenenter"",""1"",""2126""
","
","
","""event"",""trial"",""time""
""fullscreenenter"",""1"",""2126""
","
","","","945","","","19","9441","4458","s","elianto","#3366ff99"," "," ","1","0","[1796]","1","2","","","9441","103","5","1","win","go","1"
"pit-trial","226","1506099","0.0-108.0","battery-v0.2","","""event"",""trial"",""time""
""fullscreenenter"",""1"",""2126""
","
","
","""event"",""trial"",""time""
""fullscreenenter"",""1"",""2126""
","
","","","1228.0000000002328","","","19","9441","4458","d","elianto","#3366ff99","-1"," ","0","0","[2078.000000000233]","1","2","","","9441","104","8","2","win","no-go","0"
"pit-trial","227","1510961","0.0-109.0","battery-v0.2","","""event"",""trial"",""time""
""fullscreenenter"",""1"",""2126""
","
","
","""event"",""trial"",""time""
""fullscreenenter"",""1"",""2126""
","
","","","-1","","","19","9441","4458","w","elianto","#f73b6a7A","-1","-1","1","-10","[]","0","2","","","9441","105","6","4","lose","no-go","1"
"pit-trial","228","1514830","0.0-110.0","battery-v0.2","","""event"",""trial"",""time""
""fullscreenenter"",""1"",""2126""
","
","
","""event"",""trial"",""time""
""fullscreenenter"",""1"",""2126""
","
","","","1008.0000000002328","","","19","9441","4458","j","elianto","#3366ff99","-1"," ","0","0","[1860.0000000002328]","1","2","","","9441","106","9","2","win","no-go","0"
"pit-trial","229","1518935","0.0-111.0","battery-v0.2","","""event"",""trial"",""time""
""fullscreenenter"",""1"",""2126""
","
","
","""event"",""trial"",""time""
""fullscreenenter"",""1"",""2126""
","
","","","1244","","","19","9441","4458","d","elianto","#3366ff99","-1"," ","0","0","[2095]","1","2","","","9441","107","8","2","win","no-go","0"
"pit-trial","230","1523195","0.0-112.0","battery-v0.2","","""event"",""trial"",""time""
""fullscreenenter"",""1"",""2126""
","
","
","""event"",""trial"",""time""
""fullscreenenter"",""1"",""2126""
","
","","","1399","","","19","9441","4458","s","elianto","#3366ff99"," "," ","1","+10","[2250]","1","2","","","9441","108","5","1","win","go","0"
"pit-trial","231","1528054","0.0-113.0","battery-v0.2","","""event"",""trial"",""time""
""fullscreenenter"",""1"",""2126""
","
","
","""event"",""trial"",""time""
""fullscreenenter"",""1"",""2126""
","
","","","-1","","","19","9441","4458","w","elianto","#f73b6a7A","-1","-1","1","0","[]","0","2","","","9441","109","6","4","lose","no-go","0"
"pit-trial","232","1532913","0.0-114.0","battery-v0.2","","""event"",""trial"",""time""
""fullscreenenter"",""1"",""2126""
","
","
","""event"",""trial"",""time""
""fullscreenenter"",""1"",""2126""
","
","","","-1","","","19","9441","4458","d","elianto","#3366ff99","-1","-1","1","+10","[]","0","2","","","9441","110","8","2","win","no-go","0"
"pit-trial","233","1537059","0.0-115.0","battery-v0.2","","""event"",""trial"",""time""
""fullscreenenter"",""1"",""2126""
","
","
","""event"",""trial"",""time""
""fullscreenenter"",""1"",""2126""
","
","","","1286","","","19","9441","4458","s","elianto","#3366ff99"," "," ","1","0","[2137]","1","2","","","9441","111","5","1","win","go","1"
"pit-trial","234","1541920","0.0-116.0","battery-v0.2","","""event"",""trial"",""time""
""fullscreenenter"",""1"",""2126""
","
","
","""event"",""trial"",""time""
""fullscreenenter"",""1"",""2126""
","
","","","-1","","","19","9441","4458","j","elianto","#3366ff99","-1","-1","1","+10","[]","0","2","","","9441","112","9","2","win","no-go","0"
"pit-trial","235","1546781","0.0-117.0","battery-v0.2","","""event"",""trial"",""time""
""fullscreenenter"",""1"",""2126""
","
","
","""event"",""trial"",""time""
""fullscreenenter"",""1"",""2126""
","
","","","-1","","","19","9441","4458","d","elianto","#3366ff99","-1","-1","1","0","[]","0","2","","","9441","113","8","2","win","no-go","1"
"pit-trial","236","1550575","0.0-118.0","battery-v0.2","","""event"",""trial"",""time""
""fullscreenenter"",""1"",""2126""
","
","
","""event"",""trial"",""time""
""fullscreenenter"",""1"",""2126""
","
","","","933","","","19","9441","4458","s","elianto","#3366ff99"," "," ","1","0","[1784]","1","2","","","9441","114","5","1","win","go","1"
"pit-trial","237","1555435","0.0-119.0","battery-v0.2","","""event"",""trial"",""time""
""fullscreenenter"",""1"",""2126""
","
","
","""event"",""trial"",""time""
""fullscreenenter"",""1"",""2126""
","
","","","-1","","","19","9441","4458","e","elianto","#f73b6a7A"," ","-1","0","-10","[]","0","2","","","9441","115","7","3","lose","go","0"
"pit-trial","238","1560295","0.0-120.0","battery-v0.2","","""event"",""trial"",""time""
""fullscreenenter"",""1"",""2126""
","
","
","""event"",""trial"",""time""
""fullscreenenter"",""1"",""2126""
","
","","","-1","","","19","9441","4458","j","elianto","#3366ff99","-1","-1","1","0","[]","0","2","","","9441","116","9","2","win","no-go","1"
"pit-trial","239","1564068","0.0-121.0","battery-v0.2","","""event"",""trial"",""time""
""fullscreenenter"",""1"",""2126""
","
","
","""event"",""trial"",""time""
""fullscreenenter"",""1"",""2126""
","
","","","913","","","19","9441","4458","s","elianto","#3366ff99"," "," ","1","+10","[1764]","1","2","","","9441","117","5","1","win","go","0"
"pit-trial","240","1568930","0.0-122.0","battery-v0.2","","""event"",""trial"",""time""
""fullscreenenter"",""1"",""2126""
","
","
","""event"",""trial"",""time""
""fullscreenenter"",""1"",""2126""
","
","","","-1","","","19","9441","4458","w","elianto","#f73b6a7A","-1","-1","1","0","[]","0","2","","","9441","118","6","4","lose","no-go","0"
"pit-trial","241","1573472","0.0-123.0","battery-v0.2","","""event"",""trial"",""time""
""fullscreenenter"",""1"",""2126""
","
","
","""event"",""trial"",""time""
""fullscreenenter"",""1"",""2126""
","
","","","1682","","","19","9441","4458","d","elianto","#3366ff99","-1"," ","0","0","[2533]","1","2","","","9441","119","8","2","win","no-go","0"
"pit-trial","242","1578331","0.0-124.0","battery-v0.2","","""event"",""trial"",""time""
""fullscreenenter"",""1"",""2126""
","
","
","""event"",""trial"",""time""
""fullscreenenter"",""1"",""2126""
","
","","","-1","","","19","9441","4458","j","elianto","#3366ff99","-1","-1","1","+10","[]","0","2","","","9441","120","9","2","win","no-go","0"
"pit-trial","243","1583192","0.0-125.0","battery-v0.2","","""event"",""trial"",""time""
""fullscreenenter"",""1"",""2126""
","
","
","""event"",""trial"",""time""
""fullscreenenter"",""1"",""2126""
","
","","","-1","","","19","9441","4458","d","elianto","#3366ff99","-1","-1","1","0","[]","0","2","","","9441","121","8","2","win","no-go","1"
"pit-trial","244","1588052","0.0-126.0","battery-v0.2","","""event"",""trial"",""time""
""fullscreenenter"",""1"",""2126""
","
","
","""event"",""trial"",""time""
""fullscreenenter"",""1"",""2126""
","
","","","-1","","","19","9441","4458","j","elianto","#3366ff99","-1","-1","1","+10","[]","0","2","","","9441","122","9","2","win","no-go","0"
"pit-trial","245","1591994","0.0-127.0","battery-v0.2","","""event"",""trial"",""time""
""fullscreenenter"",""1"",""2126""
","
","
","""event"",""trial"",""time""
""fullscreenenter"",""1"",""2126""
","
","","","1084","","","19","9441","4458","s","elianto","#3366ff99"," "," ","1","+10","[1933]","1","2","","","9441","123","5","1","win","go","0"
"pit-trial","246","1596149","0.0-128.0","battery-v0.2","","""event"",""trial"",""time""
""fullscreenenter"",""1"",""2126""
","
","
","""event"",""trial"",""time""
""fullscreenenter"",""1"",""2126""
","
","","","1294","","","19","9441","4458","e","elianto","#f73b6a7A"," "," ","1","-10","[2145]","1","2","","","9441","124","7","3","lose","go","1"
"pit-trial","247","1601009","0.0-129.0","battery-v0.2","","""event"",""trial"",""time""
""fullscreenenter"",""1"",""2126""
","
","
","""event"",""trial"",""time""
""fullscreenenter"",""1"",""2126""
","
","","","-1","","","19","9441","4458","e","elianto","#f73b6a7A"," ","-1","0","-10","[]","0","2","","","9441","125","7","3","lose","go","0"
"pit-trial","248","1605476","0.0-130.0","battery-v0.2","","""event"",""trial"",""time""
""fullscreenenter"",""1"",""2126""
","
","
","""event"",""trial"",""time""
""fullscreenenter"",""1"",""2126""
","
","","","1607","","","19","9441","4458","d","elianto","#3366ff99","-1"," ","0","0","[2458]","1","2","","","9441","126","8","2","win","no-go","0"
"pit-trial","249","1610336","0.0-131.0","battery-v0.2","","""event"",""trial"",""time""
""fullscreenenter"",""1"",""2126""
","
","
","""event"",""trial"",""time""
""fullscreenenter"",""1"",""2126""
","
","","","-1","","","19","9441","4458","j","elianto","#3366ff99","-1","-1","1","+10","[]","0","2","","","9441","127","9","2","win","no-go","0"
"pit-trial","250","1615195","0.0-132.0","battery-v0.2","","""event"",""trial"",""time""
""fullscreenenter"",""1"",""2126""
","
","
","""event"",""trial"",""time""
""fullscreenenter"",""1"",""2126""
","
","","","-1","","","19","9441","4458","w","elianto","#f73b6a7A","-1","-1","1","0","[]","0","2","","","9441","128","6","4","lose","no-go","0"
"pit-trial","251","1620056","0.0-133.0","battery-v0.2","","""event"",""trial"",""time""
""fullscreenenter"",""1"",""2126""
","
","
","""event"",""trial"",""time""
""fullscreenenter"",""1"",""2126""
","
","","","-1","","","19","9441","4458","w","elianto","#f73b6a7A","-1","-1","1","0","[]","0","2","","","9441","129","6","4","lose","no-go","0"
"pit-trial","252","1624916","0.0-134.0","battery-v0.2","","""event"",""trial"",""time""
""fullscreenenter"",""1"",""2126""
","
","
","""event"",""trial"",""time""
""fullscreenenter"",""1"",""2126""
","
","","","-1","","","19","9441","4458","e","elianto","#f73b6a7A"," ","-1","0","-10","[]","0","2","","","9441","130","7","3","lose","go","0"
"pit-trial","253","1629777","0.0-135.0","battery-v0.2","","""event"",""trial"",""time""
""fullscreenenter"",""1"",""2126""
","
","
","""event"",""trial"",""time""
""fullscreenenter"",""1"",""2126""
","
","","","-1","","","19","9441","4458","d","elianto","#3366ff99","-1","-1","1","+10","[]","0","2","","","9441","131","8","2","win","no-go","0"
"pit-trial","254","1634637","0.0-136.0","battery-v0.2","","""event"",""trial"",""time""
""fullscreenenter"",""1"",""2126""
","
","
","""event"",""trial"",""time""
""fullscreenenter"",""1"",""2126""
","
","","","-1","","","19","9441","4458","j","elianto","#3366ff99","-1","-1","1","+10","[]","0","2","","","9441","132","9","2","win","no-go","0"
"pit-trial","255","1639498","0.0-137.0","battery-v0.2","","""event"",""trial"",""time""
""fullscreenenter"",""1"",""2126""
","
","
","""event"",""trial"",""time""
""fullscreenenter"",""1"",""2126""
","
","","","-1","","","19","9441","4458","w","elianto","#f73b6a7A","-1","-1","1","-10","[]","0","2","","","9441","133","6","4","lose","no-go","1"
"pit-trial","256","1644358","0.0-138.0","battery-v0.2","","""event"",""trial"",""time""
""fullscreenenter"",""1"",""2126""
","
","
","""event"",""trial"",""time""
""fullscreenenter"",""1"",""2126""
","
","","","-1","","","19","9441","4458","j","elianto","#3366ff99","-1","-1","1","+10","[]","0","2","","","9441","134","9","2","win","no-go","0"
"pit-trial","257","1649171","0.0-139.0","battery-v0.2","","""event"",""trial"",""time""
""fullscreenenter"",""1"",""2126""
","
","
","""event"",""trial"",""time""
""fullscreenenter"",""1"",""2126""
","
","","","1953","","","19","9441","4458","d","elianto","#3366ff99","-1"," ","0","0","[2804]","1","2","","","9441","135","8","2","win","no-go","0"
"pit-trial","258","1652925","0.0-140.0","battery-v0.2","","""event"",""trial"",""time""
""fullscreenenter"",""1"",""2126""
","
","
","""event"",""trial"",""time""
""fullscreenenter"",""1"",""2126""
","
","","","894","","","19","9441","4458","e","elianto","#f73b6a7A"," "," ","1","0","[1744]","1","2","","","9441","136","7","3","lose","go","0"
"pit-trial","259","1657786","0.0-141.0","battery-v0.2","","""event"",""trial"",""time""
""fullscreenenter"",""1"",""2126""
","
","
","""event"",""trial"",""time""
""fullscreenenter"",""1"",""2126""
","
","","","-1","","","19","9441","4458","j","elianto","#3366ff99","-1","-1","1","+10","[]","0","2","","","9441","137","9","2","win","no-go","0"
"pit-trial","260","1662647","0.0-142.0","battery-v0.2","","""event"",""trial"",""time""
""fullscreenenter"",""1"",""2126""
","
","
","""event"",""trial"",""time""
""fullscreenenter"",""1"",""2126""
","
","","","-1","","","19","9441","4458","d","elianto","#3366ff99","-1","-1","1","0","[]","0","2","","","9441","138","8","2","win","no-go","1"
"pit-trial","261","1667508","0.0-143.0","battery-v0.2","","""event"",""trial"",""time""
""fullscreenenter"",""1"",""2126""
","
","
","""event"",""trial"",""time""
""fullscreenenter"",""1"",""2126""
","
","","","-1","","","19","9441","4458","w","elianto","#f73b6a7A","-1","-1","1","0","[]","0","2","","","9441","139","6","4","lose","no-go","0"
"pit-trial","262","1671576","0.0-144.0","battery-v0.2","","""event"",""trial"",""time""
""fullscreenenter"",""1"",""2126""
","
","
","""event"",""trial"",""time""
""fullscreenenter"",""1"",""2126""
","
","","","1208","","","19","9441","4458","e","elianto","#f73b6a7A"," "," ","1","0","[2059]","1","2","","","9441","140","7","3","lose","go","0"
"pit-instructions","263","1686992","0.0-145.0","battery-v0.2","","""event"",""trial"",""time""
""fullscreenenter"",""1"",""2126""
","
","
","""event"",""trial"",""time""
""fullscreenenter"",""1"",""2126""
","
","","[{""page_index"":0,""viewing_time"":5578},{""page_index"":1,""viewing_time"":9832}]","15411","","","","","","","","","","","","","","","","","","","","","","","",""
"pit-trial","264","1691041","0.0-146.0","battery-v0.2","","""event"",""trial"",""time""
""fullscreenenter"",""1"",""2126""
","
","
","""event"",""trial"",""time""
""fullscreenenter"",""1"",""2126""
","
","","","1191","","","19","9441","4458","h","elianto","#f73b6a7A","-1"," ","0","-10","[2040.9999999997672]","1","3","","","9441","141","3","4","lose","no-go","0"
"pit-trial","265","1695330","0.0-147.0","battery-v0.2","","""event"",""trial"",""time""
""fullscreenenter"",""1"",""2126""
","
","
","""event"",""trial"",""time""
""fullscreenenter"",""1"",""2126""
","
","","","1431","","","19","9441","4458","y","elianto","#f73b6a7A"," "," ","1","0","[2281]","1","3","","","9441","142","2","3","lose","go","0"
"pit-trial","266","1699602","0.0-148.0","battery-v0.2","","""event"",""trial"",""time""
""fullscreenenter"",""1"",""2126""
","
","
","""event"",""trial"",""time""
""fullscreenenter"",""1"",""2126""
","
","","","1414","","","19","9441","4458","r","elianto","#3366ff99","-1"," ","0","0","[2264.999999999767]","1","3","","","9441","143","1","2","win","no-go","0"
"pit-trial","267","1704324","0.0-149.0","battery-v0.2","","""event"",""trial"",""time""
""fullscreenenter"",""1"",""2126""
","
","
","""event"",""trial"",""time""
""fullscreenenter"",""1"",""2126""
","
","","","1860.9999999997672","","","19","9441","4458","m","elianto","#f73b6a7A"," "," ","1","0","[2712]","1","3","","","9441","144","0","3","lose","go","0"
"pit-trial","268","1708837","0.0-150.0","battery-v0.2","","""event"",""trial"",""time""
""fullscreenenter"",""1"",""2126""
","
","
","""event"",""trial"",""time""
""fullscreenenter"",""1"",""2126""
","
","","","1654","","","19","9441","4458","r","elianto","#3366ff99","-1"," ","0","0","[2504.000000000233]","1","3","","","9441","145","1","2","win","no-go","0"
"pit-trial","269","1712682","0.0-151.0","battery-v0.2","","""event"",""trial"",""time""
""fullscreenenter"",""1"",""2126""
","
","
","""event"",""trial"",""time""
""fullscreenenter"",""1"",""2126""
","
","","","987.0000000002328","","","19","9441","4458","y","elianto","#f73b6a7A"," "," ","1","0","[1837]","1","3","","","9441","146","2","3","lose","go","0"
"pit-trial","270","1717539","0.0-152.0","battery-v0.2","","""event"",""trial"",""time""
""fullscreenenter"",""1"",""2126""
","
","
","""event"",""trial"",""time""
""fullscreenenter"",""1"",""2126""
","
","","","-1","","","19","9441","4458","m","elianto","#f73b6a7A"," ","-1","0","-10","[]","0","3","","","9441","147","0","3","lose","go","0"
"pit-trial","271","1721577","0.0-153.0","battery-v0.2","","""event"",""trial"",""time""
""fullscreenenter"",""1"",""2126""
","
","
","""event"",""trial"",""time""
""fullscreenenter"",""1"",""2126""
","
","","","1177.0000000002328","","","19","9441","4458","h","elianto","#f73b6a7A","-1"," ","0","-10","[2028.0000000002328]","1","3","","","9441","148","3","4","lose","no-go","0"
"pit-trial","272","1726436","0.0-154.0","battery-v0.2","","""event"",""trial"",""time""
""fullscreenenter"",""1"",""2126""
","
","
","""event"",""trial"",""time""
""fullscreenenter"",""1"",""2126""
","
","","","-1","","","19","9441","4458","r","elianto","#3366ff99","-1","-1","1","+10","[]","0","3","","","9441","149","1","2","win","no-go","0"
"pit-trial","273","1730823","0.0-155.0","battery-v0.2","","""event"",""trial"",""time""
""fullscreenenter"",""1"",""2126""
","
","
","""event"",""trial"",""time""
""fullscreenenter"",""1"",""2126""
","
","","","1528","","","19","9441","4458","y","elianto","#f73b6a7A"," "," ","1","0","[2378]","1","3","","","9441","150","2","3","lose","go","0"
"pit-trial","274","1735684","0.0-156.0","battery-v0.2","","""event"",""trial"",""time""
""fullscreenenter"",""1"",""2126""
","
","
","""event"",""trial"",""time""
""fullscreenenter"",""1"",""2126""
","
","","","-1","","","19","9441","4458","m","elianto","#f73b6a7A"," ","-1","0","-10","[2990]","1","3","","","9441","151","0","3","lose","go","0"
"pit-trial","275","1740544","0.0-157.0","battery-v0.2","","""event"",""trial"",""time""
""fullscreenenter"",""1"",""2126""
","
","
","""event"",""trial"",""time""
""fullscreenenter"",""1"",""2126""
","
","","","-1","","","19","9441","4458","h","elianto","#f73b6a7A","-1","-1","1","0","[]","0","3","","","9441","152","3","4","lose","no-go","0"
"pit-trial","276","1744679","0.0-158.0","battery-v0.2","","""event"",""trial"",""time""
""fullscreenenter"",""1"",""2126""
","
","
","""event"",""trial"",""time""
""fullscreenenter"",""1"",""2126""
","
