"trial_type","trial_index","time_elapsed","internal_node_id","task_version","subject_id","interactions","blur_events","focus_events","fullscreenenter_events","fullscreenexit_events","success","view_history","rt","responses","num_errors","age","subject","participantId","rune","rune_set","hex","correct","choice","accuracy","outcome","keys","total_keys","block","practice","value","sub","trial","stimulus","robot","valence","action","sham"
"pavlovia","0","7","0.0-0.0","battery-v0.2","","""event"",""trial"",""time""
""fullscreenenter"",""1"",""2072""
","
","
","""event"",""trial"",""time""
""fullscreenenter"",""1"",""2072""
","
","","","","","","","","","","","","","","","","","","","","","","","","","","",""
"fullscreen","1","3055","0.0-1.0","battery-v0.2","","""event"",""trial"",""time""
""fullscreenenter"",""1"",""2072""
","
","
","""event"",""trial"",""time""
""fullscreenenter"",""1"",""2072""
","
","true","","","","","","","","","","","","","","","","","","","","","","","","","",""
"pit-instructions","2","11737","0.0-2.0-0.0","battery-v0.2","","""event"",""trial"",""time""
""fullscreenenter"",""1"",""2072""
","
","
","""event"",""trial"",""time""
""fullscreenenter"",""1"",""2072""
","
","","[{""page_index"":0,""viewing_time"":8679.599999964237}]","8679.899999976158","","","","","","","","","","","","","","","","","","","","","","","",""
"pit-comprehension","3","15948","0.0-2.0-1.0-0.0","battery-v0.2","","""event"",""trial"",""time""
""fullscreenenter"",""1"",""2072""
","
","
","""event"",""trial"",""time""
""fullscreenenter"",""1"",""2072""
","
","","","4208.5","[""shark""]","0","11","7825","4134","","","","","","","","","","","","","","","","","","",""
"pit-instructions","4","20599","0.0-2.0-1.0-1.0","battery-v0.2","","""event"",""trial"",""time""
""fullscreenenter"",""1"",""2072""
","
","
","""event"",""trial"",""time""
""fullscreenenter"",""1"",""2072""
","
","","[{""page_index"":0,""viewing_time"":4645.100000023842}]","4645.300000011921","","","","","","","","","","","","","","","","","","","","","","","",""
"pit-comprehension","5","37900","0.0-2.0-2.0-0.0","battery-v0.2","","""event"",""trial"",""time""
""fullscreenenter"",""1"",""2072""
","
","
","""event"",""trial"",""time""
""fullscreenenter"",""1"",""2072""
","
","","","17299.5","[""tiger""]","0","11","7825","4134","","","","","","","","","","","","","","","","","","",""
"pit-instructions","6","39125","0.0-2.0-2.0-1.0","battery-v0.2","","""event"",""trial"",""time""
""fullscreenenter"",""1"",""2072""
","
","
","""event"",""trial"",""time""
""fullscreenenter"",""1"",""2072""
","
","","[{""page_index"":0,""viewing_time"":1221.9000000357628}]","1222.199999988079","","","","","","","","","","","","","","","","","","","","","","","",""
"pit-instructions","7","168138","0.0-2.0-3.0","battery-v0.2","","""event"",""trial"",""time""
""fullscreenenter"",""1"",""2072""
","
","
","""event"",""trial"",""time""
""fullscreenenter"",""1"",""2072""
","
","","[{""page_index"":0,""viewing_time"":8511.400000035763},{""page_index"":1,""viewing_time"":5140},{""page_index"":2,""viewing_time"":7404},{""page_index"":3,""viewing_time"":6370.599999964237},{""page_index"":4,""viewing_time"":5514.199999988079},{""page_index"":5,""viewing_time"":5221.600000023842},{""page_index"":6,""viewing_time"":13009.399999976158},{""page_index"":7,""viewing_time"":11656.5},{""page_index"":8,""viewing_time"":16493.900000035763},{""page_index"":9,""viewing_time"":24452.69999998808},{""page_index"":10,""viewing_time"":7222.300000011921},{""page_index"":11,""viewing_time"":6460.5},{""page_index"":12,""viewing_time"":6689.5},{""page_index"":13,""viewing_time"":4867.800000011921}]","129014.60000002384","","","","","","","","","","","","","","","","","","","","","","","",""
"pit-trial","8","172000","0.0-2.0-4.0-0.0","battery-v0.2","","""event"",""trial"",""time""
""fullscreenenter"",""1"",""2072""
","
","
","""event"",""trial"",""time""
""fullscreenenter"",""1"",""2072""
","
","","","1003.3000000119209","","","11","7825","4134","&#9784;","elianto","#FFFFF080"," "," ","1","&#10004","[1856.699999988079]","1","0","0","","","","","","","",""
"pit-trial","9","175467","0.0-2.0-4.1-0.1","battery-v0.2","","""event"",""trial"",""time""
""fullscreenenter"",""1"",""2072""
","
","
","""event"",""trial"",""time""
""fullscreenenter"",""1"",""2072""
","
","","","607.0999999642372","","","11","7825","4134","&#9784;","elianto","#FFFFF080"," "," ","1","&#10004","[1457.6000000238419]","1","0","0","","","","","","","",""
"pit-trial","10","179048","0.0-2.0-4.2-0.2","battery-v0.2","","""event"",""trial"",""time""
""fullscreenenter"",""1"",""2072""
","
","
","""event"",""trial"",""time""
""fullscreenenter"",""1"",""2072""
","
","","","721","","","11","7825","4134","&#9784;","elianto","#FFFFF080"," "," ","1","&#10004","[1574.699999988079]","1","0","0","","","","","","","",""
"pit-trial","11","182627","0.0-2.0-4.3-0.3","battery-v0.2","","""event"",""trial"",""time""
""fullscreenenter"",""1"",""2072""
","
","
","""event"",""trial"",""time""
""fullscreenenter"",""1"",""2072""
","
","","","718.5","","","11","7825","4134","&#9784;","elianto","#FFFFF080"," "," ","1","&#10004","[1569.3999999761581]","1","0","0","","","","","","","",""
"pit-trial","12","186379","0.0-2.0-4.4-0.4","battery-v0.2","","""event"",""trial"",""time""
""fullscreenenter"",""1"",""2072""
","
","
","""event"",""trial"",""time""
""fullscreenenter"",""1"",""2072""
","
","","","893.6999999880791","","","11","7825","4134","&#9784;","elianto","#FFFFF080"," "," ","1","&#10004","[1747.300000011921]","1","0","0","","","","","","","",""
"pit-instructions","13","207111","0.0-2.0-5.0","battery-v0.2","","""event"",""trial"",""time""
""fullscreenenter"",""1"",""2072""
","
","
","""event"",""trial"",""time""
""fullscreenenter"",""1"",""2072""
","
","","[{""page_index"":0,""viewing_time"":4880.700000047684},{""page_index"":1,""viewing_time"":5266.099999964237},{""page_index"":2,""viewing_time"":4538.300000011921},{""page_index"":3,""viewing_time"":6044.399999976158}]","20729.700000047684","","","","","","","","","","","","","","","","","","","","","","","",""
"pit-trial","14","211967","0.0-2.0-6.0-0.0","battery-v0.2","","""event"",""trial"",""time""
""fullscreenenter"",""1"",""2072""
","
","
","""event"",""trial"",""time""
""fullscreenenter"",""1"",""2072""
","
","","","-1","","","11","7825","4134","&#9854;","elianto","#FFFFF080","-1","-1","1","&#10004","[]","0","0","1","","","","","","","",""
"pit-trial","15","216832","0.0-2.0-6.1-0.1","battery-v0.2","","""event"",""trial"",""time""
""fullscreenenter"",""1"",""2072""
","
","
","""event"",""trial"",""time""
""fullscreenenter"",""1"",""2072""
","
","","","-1","","","11","7825","4134","&#9854;","elianto","#FFFFF080","-1","-1","1","&#10004","[]","0","0","1","","","","","","","",""
"pit-trial","16","221697","0.0-2.0-6.2-0.2","battery-v0.2","","""event"",""trial"",""time""
""fullscreenenter"",""1"",""2072""
","
","
","""event"",""trial"",""time""
""fullscreenenter"",""1"",""2072""
","
","","","-1","","","11","7825","4134","&#9854;","elianto","#FFFFF080","-1","-1","1","&#10004","[]","0","0","1","","","","","","","",""
"pit-trial","17","226561","0.0-2.0-6.3-0.3","battery-v0.2","","""event"",""trial"",""time""
""fullscreenenter"",""1"",""2072""
","
","
","""event"",""trial"",""time""
""fullscreenenter"",""1"",""2072""
","
","","","-1","","","11","7825","4134","&#9854;","elianto","#FFFFF080","-1","-1","1","&#10004","[]","0","0","1","","","","","","","",""
"pit-trial","18","231416","0.0-2.0-6.4-0.4","battery-v0.2","","""event"",""trial"",""time""
""fullscreenenter"",""1"",""2072""
","
","
","""event"",""trial"",""time""
""fullscreenenter"",""1"",""2072""
","
","","","-1","","","11","7825","4134","&#9854;","elianto","#FFFFF080","-1","-1","1","&#10004","[]","0","0","1","","","","","","","",""
"pit-instructions","19","359131","0.0-2.0-7.0","battery-v0.2","","""event"",""trial"",""time""
""fullscreenenter"",""1"",""2072""
","
","
","""event"",""trial"",""time""
""fullscreenenter"",""1"",""2072""
","
","","[{""page_index"":0,""viewing_time"":5710.399999976158},{""page_index"":1,""viewing_time"":6338},{""page_index"":2,""viewing_time"":6196.800000011921},{""page_index"":3,""viewing_time"":6173.300000011921},{""page_index"":4,""viewing_time"":5114.299999952316},{""page_index"":5,""viewing_time"":7238.300000011921},{""page_index"":6,""viewing_time"":6444.199999988079},{""page_index"":7,""viewing_time"":7461.900000035763},{""page_index"":8,""viewing_time"":7193},{""page_index"":9,""viewing_time"":6171.599999964237},{""page_index"":10,""viewing_time"":7467},{""page_index"":11,""viewing_time"":9667.900000035763},{""page_index"":12,""viewing_time"":10560.199999988079},{""page_index"":13,""viewing_time"":7884.100000023842},{""page_index"":14,""viewing_time"":6813.799999952316},{""page_index"":15,""viewing_time"":7215.800000011921},{""page_index"":16,""viewing_time"":7833.300000011921},{""page_index"":17,""viewing_time"":6153.300000011921}]","127637.5","","","","","","","","","","","","","","","","","","","","","","","",""
"pit-trial","20","362717","0.0-2.0-8.0-0.0","battery-v0.2","","""event"",""trial"",""time""
""fullscreenenter"",""1"",""2072""
","
","
","""event"",""trial"",""time""
""fullscreenenter"",""1"",""2072""
","
","","","727.8000000119209","","","11","7825","4134","&#9776;","elianto","#3366ff99"," "," ","1","+10","[1579.0999999642372]","1","0","1","","","","","","","",""
"pit-trial","21","366502","0.0-2.0-8.0-1.0","battery-v0.2","","""event"",""trial"",""time""
""fullscreenenter"",""1"",""2072""
","
","
","""event"",""trial"",""time""
""fullscreenenter"",""1"",""2072""
","
","","","924.6000000238419","","","11","7825","4134","&#9776;","elianto","#3366ff99"," "," ","1","+10","[1776.800000011921]","1","0","1","","","","","","","",""
"pit-trial","22","370607","0.0-2.0-8.0-2.0","battery-v0.2","","""event"",""trial"",""time""
""fullscreenenter"",""1"",""2072""
","
","
","""event"",""trial"",""time""
""fullscreenenter"",""1"",""2072""
","
","","","1241.3999999761581","","","11","7825","4134","&#9776;","elianto","#3366ff99"," "," ","1","+10","[2093.5]","1","0","1","","","","","","","",""
"pit-trial","23","374005","0.0-2.0-8.0-3.0","battery-v0.2","","""event"",""trial"",""time""
""fullscreenenter"",""1"",""2072""
","
","
","""event"",""trial"",""time""
""fullscreenenter"",""1"",""2072""
","
","","","539.8000000119209","","","11","7825","4134","&#9776;","elianto","#3366ff99"," "," ","1","0","[1395.699999988079]","1","0","1","","","","","","","",""
"pit-trial","24","377304","0.0-2.0-8.0-4.0","battery-v0.2","","""event"",""trial"",""time""
""fullscreenenter"",""1"",""2072""
","
","
","""event"",""trial"",""time""
""fullscreenenter"",""1"",""2072""
","
","","","434.30000001192093","","","11","7825","4134","&#9776;","elianto","#3366ff99"," "," ","1","+10","[1292.1000000238419]","1","0","1","","","","","","","",""
"pit-trial","25","382166","0.0-2.0-8.1-0.1","battery-v0.2","","""event"",""trial"",""time""
""fullscreenenter"",""1"",""2072""
","
","
","""event"",""trial"",""time""
""fullscreenenter"",""1"",""2072""
","
","","","-1","","","11","7825","4134","&#9776;","elianto","#3366ff99"," ","-1","0","0","[]","0","0","1","","","","","","","",""
"pit-trial","26","385332","0.0-2.0-8.1-1.1","battery-v0.2","","""event"",""trial"",""time""
""fullscreenenter"",""1"",""2072""
","
","
","""event"",""trial"",""time""
""fullscreenenter"",""1"",""2072""
","
","","","301.5","","","11","7825","4134","&#9776;","elianto","#3366ff99"," "," ","1","+10","[1156.699999988079]","1","0","1","","","","","","","",""
"pit-trial","27","388462","0.0-2.0-8.1-2.1","battery-v0.2","","""event"",""trial"",""time""
""fullscreenenter"",""1"",""2072""
","
","
","""event"",""trial"",""time""
""fullscreenenter"",""1"",""2072""
","
","","","270.19999998807907","","","11","7825","4134","&#9776;","elianto","#3366ff99"," "," ","1","+10","[1125.699999988079]","1","0","1","","","","","","","",""
"pit-trial","28","391605","0.0-2.0-8.1-3.1","battery-v0.2","","""event"",""trial"",""time""
""fullscreenenter"",""1"",""2072""
","
","
","""event"",""trial"",""time""
""fullscreenenter"",""1"",""2072""
","
","","","279.19999998807907","","","11","7825","4134","&#9776;","elianto","#3366ff99"," "," ","1","0","[1134.199999988079]","1","0","1","","","","","","","",""
"pit-trial","29","394632","0.0-2.0-8.1-4.1","battery-v0.2","","""event"",""trial"",""time""
""fullscreenenter"",""1"",""2072""
","
","
","""event"",""trial"",""time""
""fullscreenenter"",""1"",""2072""
","
","","","167.20000004768372","","","11","7825","4134","&#9776;","elianto","#3366ff99"," "," ","1","+10","[1017.8000000119209]","1","0","1","","","","","","","",""
"pit-trial","30","398064","0.0-2.0-8.2-0.2","battery-v0.2","","""event"",""trial"",""time""
""fullscreenenter"",""1"",""2072""
","
","
","""event"",""trial"",""time""
""fullscreenenter"",""1"",""2072""
","
","","","567.3999999761581","","","11","7825","4134","&#9776;","elianto","#3366ff99"," "," ","1","+10","[818.2999999523163,1421.699999988079]","2","0","1","","","","","","","",""
"pit-trial","31","402005","0.0-2.0-8.2-1.2","battery-v0.2","","""event"",""trial"",""time""
""fullscreenenter"",""1"",""2072""
","
","
","""event"",""trial"",""time""
""fullscreenenter"",""1"",""2072""
","
","","","1080.4000000357628","","","11","7825","4134","&#9776;","elianto","#3366ff99"," "," ","1","+10","[1934.300000011921]","1","0","1","","","","","","","",""
"pit-trial","32","405967","0.0-2.0-8.2-2.2","battery-v0.2","","""event"",""trial"",""time""
""fullscreenenter"",""1"",""2072""
","
","
","""event"",""trial"",""time""
""fullscreenenter"",""1"",""2072""
","
","","","1096.6000000238419","","","11","7825","4134","&#9776;","elianto","#3366ff99"," "," ","1","+10","[1953.5]","1","0","1","","","","","","","",""
"pit-trial","33","408982","0.0-2.0-8.2-3.2","battery-v0.2","","""event"",""trial"",""time""
""fullscreenenter"",""1"",""2072""
","
","
","""event"",""trial"",""time""
""fullscreenenter"",""1"",""2072""
","
","","","153.10000002384186","","","11","7825","4134","&#9776;","elianto","#3366ff99"," "," ","1","0","[1005.3000000119209]","1","0","1","","","","","","","",""
"pit-trial","34","412094","0.0-2.0-8.2-4.2","battery-v0.2","","""event"",""trial"",""time""
""fullscreenenter"",""1"",""2072""
","
","
","""event"",""trial"",""time""
""fullscreenenter"",""1"",""2072""
","
","","","251.4000000357628","","","11","7825","4134","&#9776;","elianto","#3366ff99"," "," ","1","+10","[1104.0999999642372]","1","0","1","","","","","","","",""
"call-function","35","412095","0.0-2.0-9.0","battery-v0.2","","""event"",""trial"",""time""
""fullscreenenter"",""1"",""2072""
","
","
","""event"",""trial"",""time""
""fullscreenenter"",""1"",""2072""
","
","","","","","","","","","","","","","","","","","","","","","","","","","","",""
"pit-instructions","36","451296","0.0-2.0-10.0","battery-v0.2","","""event"",""trial"",""time""
""fullscreenenter"",""1"",""2072""
","
","
","""event"",""trial"",""time""
""fullscreenenter"",""1"",""2072""
","
","","[{""page_index"":0,""viewing_time"":6329.800000011921},{""page_index"":1,""viewing_time"":6625},{""page_index"":2,""viewing_time"":9575.600000023842},{""page_index"":3,""viewing_time"":8648.299999952316},{""page_index"":4,""viewing_time"":8021.200000047684}]","39200.10000002384","","","","","","","","","","","","","","","","","","","","","","","",""
"pit-trial","37","456153","0.0-2.0-11.0-0.0","battery-v0.2","","""event"",""trial"",""time""
""fullscreenenter"",""1"",""2072""
","
","
","""event"",""trial"",""time""
""fullscreenenter"",""1"",""2072""
","
","","","-1","","","11","7825","4134","&#9761;","elianto","#3366ff99","-1","-1","1","+10","[]","0","0","2","","","","","","","",""
"pit-trial","38","461013","0.0-2.0-11.0-1.0","battery-v0.2","","""event"",""trial"",""time""
""fullscreenenter"",""1"",""2072""
","
","
","""event"",""trial"",""time""
""fullscreenenter"",""1"",""2072""
","
","","","-1","","","11","7825","4134","&#9761;","elianto","#3366ff99","-1","-1","1","+10","[]","0","0","2","","","","","","","",""
"pit-trial","39","465876","0.0-2.0-11.0-2.0","battery-v0.2","","""event"",""trial"",""time""
""fullscreenenter"",""1"",""2072""
","
","
","""event"",""trial"",""time""
""fullscreenenter"",""1"",""2072""
","
","","","-1","","","11","7825","4134","&#9761;","elianto","#3366ff99","-1","-1","1","+10","[]","0","0","2","","","","","","","",""
"pit-trial","40","470737","0.0-2.0-11.0-3.0","battery-v0.2","","""event"",""trial"",""time""
""fullscreenenter"",""1"",""2072""
","
","
","""event"",""trial"",""time""
""fullscreenenter"",""1"",""2072""
","
","","","-1","","","11","7825","4134","&#9761;","elianto","#3366ff99","-1","-1","1","0","[]","0","0","2","","","","","","","",""
"pit-trial","41","475602","0.0-2.0-11.0-4.0","battery-v0.2","","""event"",""trial"",""time""
""fullscreenenter"",""1"",""2072""
","
","
","""event"",""trial"",""time""
""fullscreenenter"",""1"",""2072""
","
","","","-1","","","11","7825","4134","&#9761;","elianto","#3366ff99","-1","-1","1","+10","[]","0","0","2","","","","","","","",""
"pit-trial","42","480470","0.0-2.0-11.1-0.1","battery-v0.2","","""event"",""trial"",""time""
""fullscreenenter"",""1"",""2072""
","
","
","""event"",""trial"",""time""
""fullscreenenter"",""1"",""2072""
","
","","","-1","","","11","7825","4134","&#9761;","elianto","#3366ff99","-1","-1","1","+10","[]","0","0","2","","","","","","","",""
"pit-trial","43","485326","0.0-2.0-11.1-1.1","battery-v0.2","","""event"",""trial"",""time""
""fullscreenenter"",""1"",""2072""
","
","
","""event"",""trial"",""time""
""fullscreenenter"",""1"",""2072""
","
","","","-1","","","11","7825","4134","&#9761;","elianto","#3366ff99","-1","-1","1","+10","[]","0","0","2","","","","","","","",""
"pit-trial","44","490186","0.0-2.0-11.1-2.1","battery-v0.2","","""event"",""trial"",""time""
""fullscreenenter"",""1"",""2072""
","
","
","""event"",""trial"",""time""
""fullscreenenter"",""1"",""2072""
","
","","","-1","","","11","7825","4134","&#9761;","elianto","#3366ff99","-1","-1","1","+10","[]","0","0","2","","","","","","","",""
"pit-trial","45","495054","0.0-2.0-11.1-3.1","battery-v0.2","","""event"",""trial"",""time""
""fullscreenenter"",""1"",""2072""
","
","
","""event"",""trial"",""time""
""fullscreenenter"",""1"",""2072""
","
","","","-1","","","11","7825","4134","&#9761;","elianto","#3366ff99","-1","-1","1","0","[]","0","0","2","","","","","","","",""
"pit-trial","46","499919","0.0-2.0-11.1-4.1","battery-v0.2","","""event"",""trial"",""time""
""fullscreenenter"",""1"",""2072""
","
","
","""event"",""trial"",""time""
""fullscreenenter"",""1"",""2072""
","
","","","-1","","","11","7825","4134","&#9761;","elianto","#3366ff99","-1","-1","1","+10","[]","0","0","2","","","","","","","",""
"pit-trial","47","504783","0.0-2.0-11.2-0.2","battery-v0.2","","""event"",""trial"",""time""
""fullscreenenter"",""1"",""2072""
","
","
","""event"",""trial"",""time""
""fullscreenenter"",""1"",""2072""
","
","","","-1","","","11","7825","4134","&#9761;","elianto","#3366ff99","-1","-1","1","+10","[]","0","0","2","","","","","","","",""
"pit-trial","48","509636","0.0-2.0-11.2-1.2","battery-v0.2","","""event"",""trial"",""time""
""fullscreenenter"",""1"",""2072""
","
","
","""event"",""trial"",""time""
""fullscreenenter"",""1"",""2072""
","
","","","-1","","","11","7825","4134","&#9761;","elianto","#3366ff99","-1","-1","1","+10","[]","0","0","2","","","","","","","",""
"pit-trial","49","514502","0.0-2.0-11.2-2.2","battery-v0.2","","""event"",""trial"",""time""
""fullscreenenter"",""1"",""2072""
","
","
","""event"",""trial"",""time""
""fullscreenenter"",""1"",""2072""
","
","","","-1","","","11","7825","4134","&#9761;","elianto","#3366ff99","-1","-1","1","+10","[]","0","0","2","","","","","","","",""
"pit-trial","50","519365","0.0-2.0-11.2-3.2","battery-v0.2","","""event"",""trial"",""time""
""fullscreenenter"",""1"",""2072""
","
","
","""event"",""trial"",""time""
""fullscreenenter"",""1"",""2072""
","
","","","-1","","","11","7825","4134","&#9761;","elianto","#3366ff99","-1","-1","1","0","[]","0","0","2","","","","","","","",""
"pit-trial","51","524230","0.0-2.0-11.2-4.2","battery-v0.2","","""event"",""trial"",""time""
""fullscreenenter"",""1"",""2072""
","
","
","""event"",""trial"",""time""
""fullscreenenter"",""1"",""2072""
","
","","","-1","","","11","7825","4134","&#9761;","elianto","#3366ff99","-1","-1","1","+10","[]","0","0","2","","","","","","","",""
"pit-trial","52","529086","0.0-2.0-11.3-0.3","battery-v0.2","","""event"",""trial"",""time""
""fullscreenenter"",""1"",""2072""
","
","
","""event"",""trial"",""time""
""fullscreenenter"",""1"",""2072""
","
","","","-1","","","11","7825","4134","&#9761;","elianto","#3366ff99","-1","-1","1","+10","[]","0","0","2","","","","","","","",""
"pit-trial","53","533951","0.0-2.0-11.3-1.3","battery-v0.2","","""event"",""trial"",""time""
""fullscreenenter"",""1"",""2072""
","
","
","""event"",""trial"",""time""
""fullscreenenter"",""1"",""2072""
","
","","","-1","","","11","7825","4134","&#9761;","elianto","#3366ff99","-1","-1","1","+10","[]","0","0","2","","","","","","","",""
"pit-trial","54","538820","0.0-2.0-11.3-2.3","battery-v0.2","","""event"",""trial"",""time""
""fullscreenenter"",""1"",""2072""
","
","
","""event"",""trial"",""time""
""fullscreenenter"",""1"",""2072""
","
","","","-1","","","11","7825","4134","&#9761;","elianto","#3366ff99","-1","-1","1","+10","[]","0","0","2","","","","","","","",""
"pit-trial","55","543684","0.0-2.0-11.3-3.3","battery-v0.2","","""event"",""trial"",""time""
""fullscreenenter"",""1"",""2072""
","
","
","""event"",""trial"",""time""
""fullscreenenter"",""1"",""2072""
","
","","","-1","","","11","7825","4134","&#9761;","elianto","#3366ff99","-1","-1","1","0","[]","0","0","2","","","","","","","",""
"pit-trial","56","548536","0.0-2.0-11.3-4.3","battery-v0.2","","""event"",""trial"",""time""
""fullscreenenter"",""1"",""2072""
","
","
","""event"",""trial"",""time""
""fullscreenenter"",""1"",""2072""
","
","","","-1","","","11","7825","4134","&#9761;","elianto","#3366ff99","-1","-1","1","+10","[]","0","0","2","","","","","","","",""
"call-function","57","548537","0.0-2.0-12.0","battery-v0.2","","""event"",""trial"",""time""
""fullscreenenter"",""1"",""2072""
","
","
","""event"",""trial"",""time""
""fullscreenenter"",""1"",""2072""
","
","","","","","","","","","","","","","","","","","","","","","","","","","","",""
"pit-instructions","58","587347","0.0-2.0-13.0","battery-v0.2","","""event"",""trial"",""time""
""fullscreenenter"",""1"",""2072""
","
","
","""event"",""trial"",""time""
""fullscreenenter"",""1"",""2072""
","
","","[{""page_index"":0,""viewing_time"":4852.600000023842},{""page_index"":1,""viewing_time"":6772.599999964237},{""page_index"":2,""viewing_time"":5731.100000023842},{""page_index"":3,""viewing_time"":17243},{""page_index"":4,""viewing_time"":4210.5}]","38810","","","","","","","","","","","","","","","","","","","","","","","",""
"pit-trial","59","592201","0.0-2.0-14.0-0.0","battery-v0.2","","""event"",""trial"",""time""
""fullscreenenter"",""1"",""2072""
","
","
","""event"",""trial"",""time""
""fullscreenenter"",""1"",""2072""
","
","","","-1","","","11","7825","4134","&#9826;","elianto","#f73b6a7A","-1","-1","1","0","[]","0","0","3","","","","","","","",""
"pit-trial","60","597066","0.0-2.0-14.0-1.0","battery-v0.2","","""event"",""trial"",""time""
""fullscreenenter"",""1"",""2072""
","
","
","""event"",""trial"",""time""
""fullscreenenter"",""1"",""2072""
","
","","","-1","","","11","7825","4134","&#9826;","elianto","#f73b6a7A","-1","-1","1","0","[]","0","0","3","","","","","","","",""
"pit-trial","61","601935","0.0-2.0-14.0-2.0","battery-v0.2","","""event"",""trial"",""time""
""fullscreenenter"",""1"",""2072""
","
","
","""event"",""trial"",""time""
""fullscreenenter"",""1"",""2072""
","
","","","-1","","","11","7825","4134","&#9826;","elianto","#f73b6a7A","-1","-1","1","0","[]","0","0","3","","","","","","","",""
"pit-trial","62","606798","0.0-2.0-14.0-3.0","battery-v0.2","","""event"",""trial"",""time""
""fullscreenenter"",""1"",""2072""
","
","
","""event"",""trial"",""time""
""fullscreenenter"",""1"",""2072""
","
","","","-1","","","11","7825","4134","&#9826;","elianto","#f73b6a7A","-1","-1","1","-10","[]","0","0","3","","","","","","","",""
"pit-trial","63","611661","0.0-2.0-14.0-4.0","battery-v0.2","","""event"",""trial"",""time""
""fullscreenenter"",""1"",""2072""
","
","
","""event"",""trial"",""time""
""fullscreenenter"",""1"",""2072""
","
","","","-1","","","11","7825","4134","&#9826;","elianto","#f73b6a7A","-1","-1","1","0","[]","0","0","3","","","","","","","",""
"pit-trial","64","616518","0.0-2.0-14.1-0.1","battery-v0.2","","""event"",""trial"",""time""
""fullscreenenter"",""1"",""2072""
","
","
","""event"",""trial"",""time""
""fullscreenenter"",""1"",""2072""
","
","","","-1","","","11","7825","4134","&#9826;","elianto","#f73b6a7A","-1","-1","1","0","[]","0","0","3","","","","","","","",""
"pit-trial","65","621382","0.0-2.0-14.1-1.1","battery-v0.2","","""event"",""trial"",""time""
""fullscreenenter"",""1"",""2072""
","
","
","""event"",""trial"",""time""
""fullscreenenter"",""1"",""2072""
","
","","","-1","","","11","7825","4134","&#9826;","elianto","#f73b6a7A","-1","-1","1","0","[]","0","0","3","","","","","","","",""
"pit-trial","66","626246","0.0-2.0-14.1-2.1","battery-v0.2","","""event"",""trial"",""time""
""fullscreenenter"",""1"",""2072""
","
","
","""event"",""trial"",""time""
""fullscreenenter"",""1"",""2072""
","
","","","-1","","","11","7825","4134","&#9826;","elianto","#f73b6a7A","-1","-1","1","0","[]","0","0","3","","","","","","","",""
"pit-trial","67","631100","0.0-2.0-14.1-3.1","battery-v0.2","","""event"",""trial"",""time""
""fullscreenenter"",""1"",""2072""
","
","
","""event"",""trial"",""time""
""fullscreenenter"",""1"",""2072""
","
","","","-1","","","11","7825","4134","&#9826;","elianto","#f73b6a7A","-1","-1","1","-10","[]","0","0","3","","","","","","","",""
"pit-trial","68","635965","0.0-2.0-14.1-4.1","battery-v0.2","","""event"",""trial"",""time""
""fullscreenenter"",""1"",""2072""
","
","
","""event"",""trial"",""time""
""fullscreenenter"",""1"",""2072""
","
","","","-1","","","11","7825","4134","&#9826;","elianto","#f73b6a7A","-1","-1","1","0","[]","0","0","3","","","","","","","",""
"pit-trial","69","640826","0.0-2.0-14.2-0.2","battery-v0.2","","""event"",""trial"",""time""
""fullscreenenter"",""1"",""2072""
","
","
","""event"",""trial"",""time""
""fullscreenenter"",""1"",""2072""
","
","","","-1","","","11","7825","4134","&#9826;","elianto","#f73b6a7A","-1","-1","1","0","[]","0","0","3","","","","","","","",""
"pit-trial","70","645691","0.0-2.0-14.2-1.2","battery-v0.2","","""event"",""trial"",""time""
""fullscreenenter"",""1"",""2072""
","
","
","""event"",""trial"",""time""
""fullscreenenter"",""1"",""2072""
","
","","","-1","","","11","7825","4134","&#9826;","elianto","#f73b6a7A","-1","-1","1","0","[]","0","0","3","","","","","","","",""
"pit-trial","71","650550","0.0-2.0-14.2-2.2","battery-v0.2","","""event"",""trial"",""time""
""fullscreenenter"",""1"",""2072""
","
","
","""event"",""trial"",""time""
""fullscreenenter"",""1"",""2072""
","
","","","-1","","","11","7825","4134","&#9826;","elianto","#f73b6a7A","-1","-1","1","0","[]","0","0","3","","","","","","","",""
"pit-trial","72","655413","0.0-2.0-14.2-3.2","battery-v0.2","","""event"",""trial"",""time""
""fullscreenenter"",""1"",""2072""
","
","
","""event"",""trial"",""time""
""fullscreenenter"",""1"",""2072""
","
","","","-1","","","11","7825","4134","&#9826;","elianto","#f73b6a7A","-1","-1","1","-10","[]","0","0","3","","","","","","","",""
"pit-trial","73","660278","0.0-2.0-14.2-4.2","battery-v0.2","","""event"",""trial"",""time""
""fullscreenenter"",""1"",""2072""
","
","
","""event"",""trial"",""time""
""fullscreenenter"",""1"",""2072""
","
","","","-1","","","11","7825","4134","&#9826;","elianto","#f73b6a7A","-1","-1","1","0","[]","0","0","3","","","","","","","",""
"pit-trial","74","665140","0.0-2.0-14.3-0.3","battery-v0.2","","""event"",""trial"",""time""
""fullscreenenter"",""1"",""2072""
","
","
","""event"",""trial"",""time""
""fullscreenenter"",""1"",""2072""
","
","","","-1","","","11","7825","4134","&#9826;","elianto","#f73b6a7A","-1","-1","1","0","[]","0","0","3","","","","","","","",""
"pit-trial","75","670000","0.0-2.0-14.3-1.3","battery-v0.2","","""event"",""trial"",""time""
""fullscreenenter"",""1"",""2072""
","
","
","""event"",""trial"",""time""
""fullscreenenter"",""1"",""2072""
","
","","","-1","","","11","7825","4134","&#9826;","elianto","#f73b6a7A","-1","-1","1","0","[]","0","0","3","","","","","","","",""
"pit-trial","76","674864","0.0-2.0-14.3-2.3","battery-v0.2","","""event"",""trial"",""time""
""fullscreenenter"",""1"",""2072""
","
","
","""event"",""trial"",""time""
""fullscreenenter"",""1"",""2072""
","
","","","-1","","","11","7825","4134","&#9826;","elianto","#f73b6a7A","-1","-1","1","0","[]","0","0","3","","","","","","","",""
"pit-trial","77","679724","0.0-2.0-14.3-3.3","battery-v0.2","","""event"",""trial"",""time""
""fullscreenenter"",""1"",""2072""
","
","
","""event"",""trial"",""time""
""fullscreenenter"",""1"",""2072""
","
","","","-1","","","11","7825","4134","&#9826;","elianto","#f73b6a7A","-1","-1","1","-10","[]","0","0","3","","","","","","","",""
"pit-trial","78","684590","0.0-2.0-14.3-4.3","battery-v0.2","","""event"",""trial"",""time""
""fullscreenenter"",""1"",""2072""
","
","
","""event"",""trial"",""time""
""fullscreenenter"",""1"",""2072""
","
","","","-1","","","11","7825","4134","&#9826;","elianto","#f73b6a7A","-1","-1","1","0","[]","0","0","3","","","","","","","",""
"call-function","79","684591","0.0-2.0-15.0","battery-v0.2","","""event"",""trial"",""time""
""fullscreenenter"",""1"",""2072""
","
","
","""event"",""trial"",""time""
""fullscreenenter"",""1"",""2072""
","
","","","","","","","","","","","","","","","","","","","","","","","","","","",""
"pit-instructions","80","729452","0.0-2.0-16.0","battery-v0.2","","""event"",""trial"",""time""
""fullscreenenter"",""1"",""2072""
","
","
","""event"",""trial"",""time""
""fullscreenenter"",""1"",""2072""
","
","","[{""page_index"":0,""viewing_time"":23734.899999976158},{""page_index"":1,""viewing_time"":8473.100000023842},{""page_index"":2,""viewing_time"":5726.099999964237},{""page_index"":3,""viewing_time"":6926.800000011921}]","44861.09999996424","","","","","","","","","","","","","","","","","","","","","","","",""
"pit-trial","81","733211","0.0-2.0-17.0-0.0","battery-v0.2","","""event"",""trial"",""time""
""fullscreenenter"",""1"",""2072""
","
","
","""event"",""trial"",""time""
""fullscreenenter"",""1"",""2072""
","
","","","893.1999999880791","","","11","7825","4134","&#9789;","elianto","#f73b6a7A"," "," ","1","0","[1748.800000011921]","1","0","4","","","","","","","",""
"pit-trial","82","736265","0.0-2.0-17.0-1.0","battery-v0.2","","""event"",""trial"",""time""
""fullscreenenter"",""1"",""2072""
","
","
","""event"",""trial"",""time""
""fullscreenenter"",""1"",""2072""
","
","","","202","","","11","7825","4134","&#9789;","elianto","#f73b6a7A"," "," ","1","0","[841.1999999880791,1052.300000011921,1257,1432.199999988079,1640.699999988079,1832.1000000238419,2012.9000000357628,2203.100000023842,2384.699999988079,2568.900000035763,2752.600000023842,2955.800000011921]","12","0","4","","","","","","","",""
"pit-trial","83","739179","0.0-2.0-17.0-2.0","battery-v0.2","","""event"",""trial"",""time""
""fullscreenenter"",""1"",""2072""
","
","
","""event"",""trial"",""time""
""fullscreenenter"",""1"",""2072""
","
","","","53.90000003576279","","","11","7825","4134","&#9789;","elianto","#f73b6a7A"," "," ","1","0","[102.30000001192093,310,507.5,708,911.6999999880791,1099.5999999642372,1308.300000011921,1507.5999999642372,1707.5999999642372,1902.3999999761581,2091.399999976158,2306.800000011921,2523.699999988079]","13","0","4","","","","","","","",""
"pit-trial","84","742250","0.0-2.0-17.0-3.0","battery-v0.2","","""event"",""trial"",""time""
""fullscreenenter"",""1"",""2072""
","
","
","""event"",""trial"",""time""
""fullscreenenter"",""1"",""2072""
","
","","","211.60000002384186","","","11","7825","4134","&#9789;","elianto","#f73b6a7A"," "," ","1","-10","[1065.9000000357628,1749.7000000476837,2324.600000023842,2681.400000035763,3016.7000000476837]","5","0","4","","","","","","","",""
"pit-trial","85","745530","0.0-2.0-17.0-4.0","battery-v0.2","","""event"",""trial"",""time""
""fullscreenenter"",""1"",""2072""
","
","
","""event"",""trial"",""time""
""fullscreenenter"",""1"",""2072""
","
","","","415.69999998807907","","","11","7825","4134","&#9789;","elianto","#f73b6a7A"," "," ","1","0","[312.2000000476837,661.7000000476837,1273.6000000238419]","3","0","4","","","","","","","",""
"pit-trial","86","748578","0.0-2.0-17.1-0.1","battery-v0.2","","""event"",""trial"",""time""
""fullscreenenter"",""1"",""2072""
","
","
","""event"",""trial"",""time""
""fullscreenenter"",""1"",""2072""
","
","","","189.30000001192093","","","11","7825","4134","&#9789;","elianto","#f73b6a7A"," "," ","1","0","[1039.699999988079]","1","0","4","","","","","","","",""
"pit-trial","87","751465","0.0-2.0-17.1-1.1","battery-v0.2","","""event"",""trial"",""time""
""fullscreenenter"",""1"",""2072""
","
","
","""event"",""trial"",""time""
""fullscreenenter"",""1"",""2072""
","
","","","24.5","","","11","7825","4134","&#9789;","elianto","#f73b6a7A"," "," ","1","0","[878.6999999880791,2455.399999976158]","2","0","4","","","","","","","",""
"pit-trial","88","754429","0.0-2.0-17.1-2.1","battery-v0.2","","""event"",""trial"",""time""
""fullscreenenter"",""1"",""2072""
","
","
","""event"",""trial"",""time""
""fullscreenenter"",""1"",""2072""
","
","","","104.40000003576279","","","11","7825","4134","&#9789;","elianto","#f73b6a7A"," "," ","1","0","[427.60000002384186,691.6000000238419,960.1000000238419,1227.300000011921,1497.1000000238419,1710.5,1940.699999988079,2151.199999988079,2357.600000023842]","9","0","4","","","","","","","",""
"pit-trial","89","757459","0.0-2.0-17.1-3.1","battery-v0.2","","""event"",""trial"",""time""
""fullscreenenter"",""1"",""2072""
","
","
","""event"",""trial"",""time""
""fullscreenenter"",""1"",""2072""
","
","","","170.80000001192093","","","11","7825","4134","&#9789;","elianto","#f73b6a7A"," "," ","1","-10","[1020.6999999880791]","1","0","4","","","","","","","",""
"pit-trial","90","760562","0.0-2.0-17.1-4.1","battery-v0.2","","""event"",""trial"",""time""
""fullscreenenter"",""1"",""2072""
","
","
","""event"",""trial"",""time""
""fullscreenenter"",""1"",""2072""
","
","","","246.30000001192093","","","11","7825","4134","&#9789;","elianto","#f73b6a7A"," "," ","1","0","[1099.199999988079]","1","0","4","","","","","","","",""
"pit-trial","91","764980","0.0-2.0-17.2-0.2","battery-v0.2","","""event"",""trial"",""time""
""fullscreenenter"",""1"",""2072""
","
","
","""event"",""trial"",""time""
""fullscreenenter"",""1"",""2072""
","
","","","1562.199999988079","","","11","7825","4134","&#9789;","elianto","#f73b6a7A"," "," ","1","0","[2413.5]","1","0","4","","","","","","","",""
"pit-trial","92","768228","0.0-2.0-17.2-1.2","battery-v0.2","","""event"",""trial"",""time""
""fullscreenenter"",""1"",""2072""
","
","
","""event"",""trial"",""time""
""fullscreenenter"",""1"",""2072""
","
","","","387.39999997615814","","","11","7825","4134","&#9789;","elianto","#f73b6a7A"," "," ","1","0","[1237.800000011921,2563.100000023842]","2","0","4","","","","","","","",""
"pit-trial","93","771377","0.0-2.0-17.2-2.2","battery-v0.2","","""event"",""trial"",""time""
""fullscreenenter"",""1"",""2072""
","
","
","""event"",""trial"",""time""
""fullscreenenter"",""1"",""2072""
","
","","","289.69999998807907","","","11","7825","4134","&#9789;","elianto","#f73b6a7A"," "," ","1","0","[500.30000001192093,810.1000000238419,1141.1000000238419,2420.199999988079,2982.600000023842]","5","0","4","","","","","","","",""
"pit-trial","94","774325","0.0-2.0-17.2-3.2","battery-v0.2","","""event"",""trial"",""time""
""fullscreenenter"",""1"",""2072""
","
","
","""event"",""trial"",""time""
""fullscreenenter"",""1"",""2072""
","
","","","86.30000001192093","","","11","7825","4134","&#9789;","elianto","#f73b6a7A"," "," ","1","-10","[354.9000000357628,691.3000000119209,937.4000000357628,1201.7000000476837,1445.4000000357628,1928.300000011921,2258.5]","7","0","4","","","","","","","",""
"pit-trial","95","777868","0.0-2.0-17.2-4.2","battery-v0.2","","""event"",""trial"",""time""
""fullscreenenter"",""1"",""2072""
","
","
","""event"",""trial"",""time""
""fullscreenenter"",""1"",""2072""
","
","","","685.5999999642372","","","11","7825","4134","&#9789;","elianto","#f73b6a7A"," "," ","1","0","[1538]","1","0","4","","","","","","","",""
"pit-trial","96","781178","0.0-2.0-17.3-0.3","battery-v0.2","","""event"",""trial"",""time""
""fullscreenenter"",""1"",""2072""
","
","
","""event"",""trial"",""time""
""fullscreenenter"",""1"",""2072""
","
","","","446.30000001192093","","","11","7825","4134","&#9789;","elianto","#f73b6a7A"," "," ","1","0","[1300.1000000238419,2944.300000011921]","2","0","4","","","","","","","",""
"pit-trial","97","786045","0.0-2.0-17.3-1.3","battery-v0.2","","""event"",""trial"",""time""
""fullscreenenter"",""1"",""2072""
","
","
","""event"",""trial"",""time""
""fullscreenenter"",""1"",""2072""
","
","","","-1","","","11","7825","4134","&#9789;","elianto","#f73b6a7A"," ","-1","0","-10","[4244]","1","0","4","","","","","","","",""
"pit-trial","98","789397","0.0-2.0-17.3-2.3","battery-v0.2","","""event"",""trial"",""time""
""fullscreenenter"",""1"",""2072""
","
","
","""event"",""trial"",""time""
""fullscreenenter"",""1"",""2072""
","
","","","495.10000002384186","","","11","7825","4134","&#9789;","elianto","#f73b6a7A"," "," ","1","0","[1345.4000000357628,3272.300000011921]","2","0","4","","","","","","","",""
"pit-trial","99","792289","0.0-2.0-17.3-3.3","battery-v0.2","","""event"",""trial"",""time""
""fullscreenenter"",""1"",""2072""
","
","
","""event"",""trial"",""time""
""fullscreenenter"",""1"",""2072""
","
","","","23.600000023841858","","","11","7825","4134","&#9789;","elianto","#f73b6a7A"," "," ","1","-10","[284.80000001192093,637.8999999761581,884.5,1086.199999988079,1431.0999999642372,1643.8999999761581,1869.3999999761581,2079.399999976158,2282.099999964237,2491.399999976158,2694.099999964237]","11","0","4","","","","","","","",""
"pit-trial","100","795179","0.0-2.0-17.3-4.3","battery-v0.2","","""event"",""trial"",""time""
""fullscreenenter"",""1"",""2072""
","
","
","""event"",""trial"",""time""
""fullscreenenter"",""1"",""2072""
","
","","","25.30000001192093","","","11","7825","4134","&#9789;","elianto","#f73b6a7A"," "," ","1","0","[29.100000023841858,230.30000001192093,441.5,657.4000000357628,880.5,1091.1000000238419,1286.5,1518.6000000238419,1749.1000000238419,1981.5,2168.300000011921,2377.400000035763,2569.300000011921,2781.5]","14","0","4","","","","","","","",""
"call-function","101","795180","0.0-2.0-18.0","battery-v0.2","","""event"",""trial"",""time""
""fullscreenenter"",""1"",""2072""
","
","
","""event"",""trial"",""time""
""fullscreenenter"",""1"",""2072""
","
","","","","","","","","","","","","","","","","","","","","","","","","","","",""
"pit-instructions","102","874714","0.0-2.0-19.0","battery-v0.2","","""event"",""trial"",""time""
""fullscreenenter"",""1"",""2072""
","
","
","""event"",""trial"",""time""
""fullscreenenter"",""1"",""2072""
","
","","[{""page_index"":0,""viewing_time"":6691.099999964237},{""page_index"":1,""viewing_time"":6473.600000023842},{""page_index"":2,""viewing_time"":8593.800000011921},{""page_index"":3,""viewing_time"":8597.699999988079},{""page_index"":4,""viewing_time"":7790.300000011921},{""page_index"":5,""viewing_time"":8388},{""page_index"":6,""viewing_time"":17504.30000001192},{""page_index"":7,""viewing_time"":11573.699999988079},{""page_index"":8,""viewing_time"":3920.899999976158}]","79533.59999996424","","","","","","","","","","","","","","","","","","","","","","","",""
"pit-comprehension","103","879918","0.0-2.0-20.0-0.0","battery-v0.2","","""event"",""trial"",""time""
""fullscreenenter"",""1"",""2072""
","
","
","""event"",""trial"",""time""
""fullscreenenter"",""1"",""2072""
","
","","","5201.100000023842","[""SPACE""]","0","11","7825","4134","","","","","","","","","","","","","","","","","","",""
"pit-instructions","104","882598","0.0-2.0-20.0-1.0","battery-v0.2","","""event"",""trial"",""time""
""fullscreenenter"",""1"",""2072""
","
","
","""event"",""trial"",""time""
""fullscreenenter"",""1"",""2072""
","
","","[{""page_index"":0,""viewing_time"":2650.7000000476837}]","2650.900000035763","","","","","","","","","","","","","","","","","","","","","","","",""
"pit-comprehension","105","888356","0.0-2.0-21.0-0.0","battery-v0.2","","""event"",""trial"",""time""
""fullscreenenter"",""1"",""2072""
","
","
","""event"",""trial"",""time""
""fullscreenenter"",""1"",""2072""
","
","","","5755","[""10""]","0","11","7825","4134","","","","","","","","","","","","","","","","","","",""
"pit-instructions","106","890669","0.0-2.0-21.0-1.0","battery-v0.2","","""event"",""trial"",""time""
""fullscreenenter"",""1"",""2072""
","
","
","""event"",""trial"",""time""
""fullscreenenter"",""1"",""2072""
","
","","[{""page_index"":0,""viewing_time"":2283.699999988079}]","2283.899999976158","","","","","","","","","","","","","","","","","","","","","","","",""
"pit-comprehension","107","897125","0.0-2.0-22.0-0.0","battery-v0.2","","""event"",""trial"",""time""
""fullscreenenter"",""1"",""2072""
","
","
","""event"",""trial"",""time""
""fullscreenenter"",""1"",""2072""
","
","","","6453.899999976158","[""-10""]","1","11","7825","4134","","","","","","","","","","","","","","","","","","",""
"pit-instructions","108","903320","0.0-2.0-22.0-1.0","battery-v0.2","","""event"",""trial"",""time""
""fullscreenenter"",""1"",""2072""
","
","
","""event"",""trial"",""time""
""fullscreenenter"",""1"",""2072""
","
","","[{""page_index"":0,""viewing_time"":6162}]","6162.200000047684","","","","","","","","","","","","","","","","","","","","","","","",""
"pit-instructions","109","904494","0.0-2.0-22.0-2.0-0.0","battery-v0.2","","""event"",""trial"",""time""
""fullscreenenter"",""1"",""2072""
","
","
","""event"",""trial"",""time""
""fullscreenenter"",""1"",""2072""
","
","","[{""page_index"":0,""viewing_time"":1172.5}]","1172.699999988079","","","","","","","","","","","","","","","","","","","","","","","",""
"pit-comprehension","110","939802","0.0-2.0-22.1-0.1","battery-v0.2","","""event"",""trial"",""time""
""fullscreenenter"",""1"",""2072""
","
","
","""event"",""trial"",""time""
""fullscreenenter"",""1"",""2072""
","
","","","35305.90000003576","[""0""]","0","11","7825","4134","","","","","","","","","","","","","","","","","","",""
"pit-instructions","111","941584","0.0-2.0-22.1-1.1","battery-v0.2","","""event"",""trial"",""time""
""fullscreenenter"",""1"",""2072""
","
","
","""event"",""trial"",""time""
""fullscreenenter"",""1"",""2072""
","
","","[{""page_index"":0,""viewing_time"":1758.199999988079}]","1758.300000011921","","","","","","","","","","","","","","","","","","","","","","","",""
"pit-comprehension","112","953530","0.0-2.0-23.0-0.0","battery-v0.2","","""event"",""trial"",""time""
""fullscreenenter"",""1"",""2072""
","
","
","""event"",""trial"",""time""
""fullscreenenter"",""1"",""2072""
","
","","","11944.700000047684","[""True""]","0","11","7825","4134","","","","","","","","","","","","","","","","","","",""
"pit-instructions","113","955692","0.0-2.0-23.0-1.0","battery-v0.2","","""event"",""trial"",""time""
""fullscreenenter"",""1"",""2072""
","
","
","""event"",""trial"",""time""
""fullscreenenter"",""1"",""2072""
","
","","[{""page_index"":0,""viewing_time"":2134.100000023842}]","2134.199999988079","","","","","","","","","","","","","","","","","","","","","","","",""
"pit-comprehension","114","967099","0.0-2.0-24.0-0.0","battery-v0.2","","""event"",""trial"",""time""
""fullscreenenter"",""1"",""2072""
","
","
","""event"",""trial"",""time""
""fullscreenenter"",""1"",""2072""
","
","","","11405.400000035763","[""False""]","1","11","7825","4134","","","","","","","","","","","","","","","","","","",""
"pit-instructions","115","969063","0.0-2.0-24.0-1.0","battery-v0.2","","""event"",""trial"",""time""
""fullscreenenter"",""1"",""2072""
","
","
","""event"",""trial"",""time""
""fullscreenenter"",""1"",""2072""
","
","","[{""page_index"":0,""viewing_time"":1936.6000000238419}]","1936.800000011921","","","","","","","","","","","","","","","","","","","","","","","",""
"pit-instructions","116","969774","0.0-2.0-24.0-2.0-0.0","battery-v0.2","","""event"",""trial"",""time""
""fullscreenenter"",""1"",""2072""
","
","
","""event"",""trial"",""time""
""fullscreenenter"",""1"",""2072""
","
","","[{""page_index"":0,""viewing_time"":709.6999999880791}]","709.8999999761581","","","","","","","","","","","","","","","","","","","","","","","",""
"pit-comprehension","117","977203","0.0-2.0-24.1-0.1","battery-v0.2","","""event"",""trial"",""time""
""fullscreenenter"",""1"",""2072""
","
","
","""event"",""trial"",""time""
""fullscreenenter"",""1"",""2072""
","
","","","7427","[""True""]","0","11","7825","4134","","","","","","","","","","","","","","","","","","",""
"pit-instructions","118","978956","0.0-2.0-24.1-1.1","battery-v0.2","","""event"",""trial"",""time""
""fullscreenenter"",""1"",""2072""
","
","
","""event"",""trial"",""time""
""fullscreenenter"",""1"",""2072""
","
","","[{""page_index"":0,""viewing_time"":1722}]","1722.199999988079","","","","","","","","","","","","","","","","","","","","","","","",""
"pit-comprehension","119","994661","0.0-2.0-25.0-0.0","battery-v0.2","","""event"",""trial"",""time""
""fullscreenenter"",""1"",""2072""
","
","
","""event"",""trial"",""time""
""fullscreenenter"",""1"",""2072""
","
","","","15702.800000011921","[""True""]","0","11","7825","4134","","","","","","","","","","","","","","","","","","",""
"pit-instructions","120","998119","0.0-2.0-25.0-1.0","battery-v0.2","","""event"",""trial"",""time""
""fullscreenenter"",""1"",""2072""
","
","
","""event"",""trial"",""time""
""fullscreenenter"",""1"",""2072""
","
","","[{""page_index"":0,""viewing_time"":3427.899999976158}]","3428.099999964237","","","","","","","","","","","","","","","","","","","","","","","",""
"pit-comprehension","121","1003388","0.0-2.0-26.0-0.0","battery-v0.2","","""event"",""trial"",""time""
""fullscreenenter"",""1"",""2072""
","
","
","""event"",""trial"",""time""
""fullscreenenter"",""1"",""2072""
","
","","","5267.600000023842","[""False""]","0","11","7825","4134","","","","","","","","","","","","","","","","","","",""
"pit-instructions","122","1010221","0.0-2.0-26.0-1.0","battery-v0.2","","""event"",""trial"",""time""
""fullscreenenter"",""1"",""2072""
","
","
","""event"",""trial"",""time""
""fullscreenenter"",""1"",""2072""
","
","","[{""page_index"":0,""viewing_time"":6801.099999964237}]","6801.300000011921","","","","","","","","","","","","","","","","","","","","","","","",""
"pit-instructions","123","1038865","0.0-3.0","battery-v0.2","","""event"",""trial"",""time""
""fullscreenenter"",""1"",""2072""
","
","
","""event"",""trial"",""time""
""fullscreenenter"",""1"",""2072""
","
","","[{""page_index"":0,""viewing_time"":5247.400000035763},{""page_index"":1,""viewing_time"":16005.599999964237},{""page_index"":2,""viewing_time"":7389.300000011921}]","28642.5","","","","","","","","","","","","","","","","","","","","","","","",""
"pit-trial","124","1042624","0.0-4.0","battery-v0.2","","""event"",""trial"",""time""
""fullscreenenter"",""1"",""2072""
","
","
","""event"",""trial"",""time""
""fullscreenenter"",""1"",""2072""
","
","","","900.8000000119209","","","11","7825","4134","&#9730;","elianto","#3366ff99"," "," ","1","+10","[1753.8999999761581]","1","1","","","7825","1","1","1","win","go","0"
"pit-trial","125","1047487","0.0-5.0","battery-v0.2","","""event"",""trial"",""time""
""fullscreenenter"",""1"",""2072""
","
","
","""event"",""trial"",""time""
""fullscreenenter"",""1"",""2072""
","
","","","-1","","","11","7825","4134","&#9728;","elianto","#f73b6a7A","-1","-1","1","0","[]","0","1","","","7825","2","0","4","lose","no-go","0"
"pit-trial","126","1051407","0.0-6.0","battery-v0.2","","""event"",""trial"",""time""
""fullscreenenter"",""1"",""2072""
","
","
","""event"",""trial"",""time""
""fullscreenenter"",""1"",""2072""
","
","","","1059.800000011921","","","11","7825","4134","&#9733;","elianto","#3366ff99","-1"," ","0","0","[1912.800000011921]","1","1","","","7825","3","2","2","win","no-go","0"
"pit-trial","127","1055447","0.0-7.0","battery-v0.2","","""event"",""trial"",""time""
""fullscreenenter"",""1"",""2072""
","
","
","""event"",""trial"",""time""
""fullscreenenter"",""1"",""2072""
","
","","","1185.5","","","11","7825","4134","&#9752;","elianto","#f73b6a7A"," "," ","1","0","[2036]","1","1","","","7825","4","3","3","lose","go","0"
"pit-trial","128","1060308","0.0-8.0","battery-v0.2","","""event"",""trial"",""time""
""fullscreenenter"",""1"",""2072""
","
","
","""event"",""trial"",""time""
""fullscreenenter"",""1"",""2072""
","
","","","-1","","","11","7825","4134","&#9728;","elianto","#f73b6a7A","-1","-1","1","-10","[]","0","1","","","7825","5","0","4","lose","no-go","1"
"pit-trial","129","1063791","0.0-9.0","battery-v0.2","","""event"",""trial"",""time""
""fullscreenenter"",""1"",""2072""
","
","
","""event"",""trial"",""time""
""fullscreenenter"",""1"",""2072""
","
","","","615.5","","","11","7825","4134","&#9733;","elianto","#3366ff99","-1"," ","0","+10","[1472.5999999642372]","1","1","","","7825","6","2","2","win","no-go","1"
"pit-trial","130","1067466","0.0-10.0","battery-v0.2","","""event"",""trial"",""time""
""fullscreenenter"",""1"",""2072""
","
","
","""event"",""trial"",""time""
""fullscreenenter"",""1"",""2072""
","
","","","811.6000000238419","","","11","7825","4134","&#9730;","elianto","#3366ff99"," "," ","1","+10","[1669.1000000238419]","1","1","","","7825","7","1","1","win","go","0"
"pit-trial","131","1071915","0.0-11.0","battery-v0.2","","""event"",""trial"",""time""
""fullscreenenter"",""1"",""2072""
","
","
","""event"",""trial"",""time""
""fullscreenenter"",""1"",""2072""
","
","","","1583.5","","","11","7825","4134","&#9752;","elianto","#f73b6a7A"," "," ","1","0","[2437.399999976158]","1","1","","","7825","8","3","3","lose","go","0"
"pit-trial","132","1075546","0.0-12.0","battery-v0.2","","""event"",""trial"",""time""
""fullscreenenter"",""1"",""2072""
","
","
","""event"",""trial"",""time""
""fullscreenenter"",""1"",""2072""
","
","","","768.5999999642372","","","11","7825","4134","&#9730;","elianto","#3366ff99"," "," ","1","+10","[1625.300000011921]","1","1","","","7825","9","1","1","win","go","0"
"pit-trial","133","1079186","0.0-13.0","battery-v0.2","","""event"",""trial"",""time""
""fullscreenenter"",""1"",""2072""
","
","
","""event"",""trial"",""time""
""fullscreenenter"",""1"",""2072""
","
","","","779","","","11","7825","4134","&#9733;","elianto","#3366ff99","-1"," ","0","0","[1631.800000011921]","1","1","","","7825","10","2","2","win","no-go","0"
"pit-trial","134","1084047","0.0-14.0","battery-v0.2","","""event"",""trial"",""time""
""fullscreenenter"",""1"",""2072""
","
","
","""event"",""trial"",""time""
""fullscreenenter"",""1"",""2072""
","
","","","-1","","","11","7825","4134","&#9752;","elianto","#f73b6a7A"," ","-1","0","-10","[2929]","1","1","","","7825","11","3","3","lose","go","0"
"pit-trial","135","1087206","0.0-15.0","battery-v0.2","","""event"",""trial"",""time""
""fullscreenenter"",""1"",""2072""
","
","
","""event"",""trial"",""time""
""fullscreenenter"",""1"",""2072""
","
","","","299.30000001192093","","","11","7825","4134","&#9728;","elianto","#f73b6a7A","-1"," ","0","-10","[1155.7000000476837]","1","1","","","7825","12","0","4","lose","no-go","0"
"pit-trial","136","1090586","0.0-16.0","battery-v0.2","","""event"",""trial"",""time""
""fullscreenenter"",""1"",""2072""
","
","
","""event"",""trial"",""time""
""fullscreenenter"",""1"",""2072""
","
","","","514.2000000476837","","","11","7825","4134","&#9730;","elianto","#3366ff99"," "," ","1","+10","[1373.9000000357628]","1","1","","","7825","13","1","1","win","go","0"
"pit-trial","137","1095441","0.0-17.0","battery-v0.2","","""event"",""trial"",""time""
""fullscreenenter"",""1"",""2072""
","
","
","""event"",""trial"",""time""
""fullscreenenter"",""1"",""2072""
","
","","","-1","","","11","7825","4134","&#9728;","elianto","#f73b6a7A","-1","-1","1","0","[]","0","1","","","7825","14","0","4","lose","no-go","0"
"pit-trial","138","1100306","0.0-18.0","battery-v0.2","","""event"",""trial"",""time""
""fullscreenenter"",""1"",""2072""
","
","
","""event"",""trial"",""time""
""fullscreenenter"",""1"",""2072""
","
","","","-1","","","11","7825","4134","&#9733;","elianto","#3366ff99","-1","-1","1","+10","[]","0","1","","","7825","15","2","2","win","no-go","0"
"pit-trial","139","1105173","0.0-19.0","battery-v0.2","","""event"",""trial"",""time""
""fullscreenenter"",""1"",""2072""
","
","
","""event"",""trial"",""time""
""fullscreenenter"",""1"",""2072""
","
","","","-1","","","11","7825","4134","&#9752;","elianto","#f73b6a7A"," ","-1","0","-10","[]","0","1","","","7825","16","3","3","lose","go","0"
"pit-trial","140","1108370","0.0-20.0","battery-v0.2","","""event"",""trial"",""time""
""fullscreenenter"",""1"",""2072""
","
","
","""event"",""trial"",""time""
""fullscreenenter"",""1"",""2072""
","
","","","331.19999998807907","","","11","7825","4134","&#9752;","elianto","#f73b6a7A"," "," ","1","-10","[1190.7999999523163]","1","1","","","7825","17","3","3","lose","go","1"
"pit-trial","141","1111574","0.0-21.0","battery-v0.2","","""event"",""trial"",""time""
""fullscreenenter"",""1"",""2072""
","
","
","""event"",""trial"",""time""
""fullscreenenter"",""1"",""2072""
","
","","","350.39999997615814","","","11","7825","4134","&#9728;","elianto","#f73b6a7A","-1"," ","0","0","[1200.5]","1","1","","","7825","18","0","4","lose","no-go","1"
"pit-trial","142","1115320","0.0-22.0","battery-v0.2","","""event"",""trial"",""time""
""fullscreenenter"",""1"",""2072""
","
","
","""event"",""trial"",""time""
""fullscreenenter"",""1"",""2072""
","
","","","883","","","11","7825","4134","&#9733;","elianto","#3366ff99","-1"," ","0","0","[1738.8999999761581]","1","1","","","7825","19","2","2","win","no-go","0"
"pit-trial","143","1119974","0.0-23.0","battery-v0.2","","""event"",""trial"",""time""
""fullscreenenter"",""1"",""2072""
","
","
","""event"",""trial"",""time""
""fullscreenenter"",""1"",""2072""
","
","","","1795.6000000238419","","","11","7825","4134","&#9730;","elianto","#3366ff99"," "," ","1","+10","[2647.300000011921]","1","1","","","7825","20","1","1","win","go","0"
"pit-instructions","144","1133208","0.0-24.0","battery-v0.2","","""event"",""trial"",""time""
""fullscreenenter"",""1"",""2072""
","
","
","""event"",""trial"",""time""
""fullscreenenter"",""1"",""2072""
","
","","[{""page_index"":0,""viewing_time"":6016},{""page_index"":1,""viewing_time"":7215.900000035763}]","13232.100000023842","","","","","","","","","","","","","","","","","","","","","","","",""
"pit-trial","145","1136567","0.0-25.0","battery-v0.2","","""event"",""trial"",""time""
""fullscreenenter"",""1"",""2072""
","
","
","""event"",""trial"",""time""
""fullscreenenter"",""1"",""2072""
","
","","","493.89999997615814","","","11","7825","4134","d","elianto","#3366ff99","-1"," ","0","0","[1350.300000011921]","1","2","","","7825","21","1","2","win","no-go","0"
"pit-trial","146","1140086","0.0-26.0","battery-v0.2","","""event"",""trial"",""time""
""fullscreenenter"",""1"",""2072""
","
","
","""event"",""trial"",""time""
""fullscreenenter"",""1"",""2072""
","
","","","659.7000000476837","","","11","7825","4134","e","elianto","#f73b6a7A"," "," ","1","0","[1514.5]","1","2","","","7825","22","2","3","lose","go","0"
"pit-trial","147","1144806","0.0-27.0","battery-v0.2","","""event"",""trial"",""time""
""fullscreenenter"",""1"",""2072""
","
","
","""event"",""trial"",""time""
""fullscreenenter"",""1"",""2072""
","
","","","1865.800000011921","","","11","7825","4134","j","elianto","#f73b6a7A"," "," ","1","0","[2716.100000023842]","1","2","","","7825","23","0","3","lose","go","0"
"pit-trial","148","1148537","0.0-28.0","battery-v0.2","","""event"",""trial"",""time""
""fullscreenenter"",""1"",""2072""
","
","
","""event"",""trial"",""time""
""fullscreenenter"",""1"",""2072""
","
","","","870","","","11","7825","4134","w","elianto","#f73b6a7A","-1"," ","0","-10","[1727.699999988079]","1","2","","","7825","24","3","4","lose","no-go","0"
"pit-trial","149","1151631","0.0-29.0","battery-v0.2","","""event"",""trial"",""time""
""fullscreenenter"",""1"",""2072""
","
","
","""event"",""trial"",""time""
""fullscreenenter"",""1"",""2072""
","
","","","230.80000001192093","","","11","7825","4134","e","elianto","#f73b6a7A"," "," ","1","-10","[1084]","1","2","","","7825","25","2","3","lose","go","1"
"pit-trial","150","1154791","0.0-30.0","battery-v0.2","","""event"",""trial"",""time""
""fullscreenenter"",""1"",""2072""
","
","
","""event"",""trial"",""time""
""fullscreenenter"",""1"",""2072""
","
","","","303.30000001192093","","","11","7825","4134","d","elianto","#3366ff99","-1"," ","0","0","[1156.5999999642372]","1","2","","","7825","26","1","2","win","no-go","0"
"pit-trial","151","1159653","0.0-31.0","battery-v0.2","","""event"",""trial"",""time""
""fullscreenenter"",""1"",""2072""
","
","
","""event"",""trial"",""time""
""fullscreenenter"",""1"",""2072""
","
","","","-1","","","11","7825","4134","j","elianto","#f73b6a7A"," ","-1","0","-10","[]","0","2","","","7825","27","0","3","lose","go","0"
"pit-trial","152","1162881","0.0-32.0","battery-v0.2","","""event"",""trial"",""time""
""fullscreenenter"",""1"",""2072""
","
","
","""event"",""trial"",""time""
""fullscreenenter"",""1"",""2072""
","
","","","371.60000002384186","","","11","7825","4134","w","elianto","#f73b6a7A","-1"," ","0","-10","[1221.699999988079]","1","2","","","7825","28","3","4","lose","no-go","0"
"pit-trial","153","1167636","0.0-33.0","battery-v0.2","","""event"",""trial"",""time""
""fullscreenenter"",""1"",""2072""
","
","
","""event"",""trial"",""time""
""fullscreenenter"",""1"",""2072""
","
","","","1899.300000011921","","","11","7825","4134","d","elianto","#3366ff99","-1"," ","0","0","[2753.199999988079]","1","2","","","7825","29","1","2","win","no-go","0"
"pit-trial","154","1171036","0.0-34.0","battery-v0.2","","""event"",""trial"",""time""
""fullscreenenter"",""1"",""2072""
","
","
","""event"",""trial"",""time""
""fullscreenenter"",""1"",""2072""
","
","","","538.1000000238419","","","11","7825","4134","j","elianto","#f73b6a7A"," "," ","1","0","[1397.0999999642372]","1","2","","","7825","30","0","3","lose","go","0"
"pit-trial","155","1175897","0.0-35.0","battery-v0.2","","""event"",""trial"",""time""
""fullscreenenter"",""1"",""2072""
","
","
","""event"",""trial"",""time""
""fullscreenenter"",""1"",""2072""
","
","","","-1","","","11","7825","4134","w","elianto","#f73b6a7A","-1","-1","1","0","[]","0","2","","","7825","31","3","4","lose","no-go","0"
"pit-trial","156","1180754","0.0-36.0","battery-v0.2","","""event"",""trial"",""time""
""fullscreenenter"",""1"",""2072""
","
","
","""event"",""trial"",""time""
""fullscreenenter"",""1"",""2072""
","
","","","-1","","","11","7825","4134","e","elianto","#f73b6a7A"," ","-1","0","-10","[3411.600000023842,3637.800000011921,3782,4010,4232.800000011921,4404.700000047684]","6","2","","","7825","32","2","3","lose","go","0"
"pit-trial","157","1185616","0.0-37.0","battery-v0.2","","""event"",""trial"",""time""
""fullscreenenter"",""1"",""2072""
","
","
","""event"",""trial"",""time""
""fullscreenenter"",""1"",""2072""
","
","","","-1","","","11","7825","4134","d","elianto","#3366ff99","-1","-1","1","+10","[]","0","2","","","7825","33","1","2","win","no-go","0"
"pit-trial","158","1188936","0.0-38.0","battery-v0.2","","""event"",""trial"",""time""
""fullscreenenter"",""1"",""2072""
","
","
","""event"",""trial"",""time""
""fullscreenenter"",""1"",""2072""
","
","","","456.60000002384186","","","11","7825","4134","j","elianto","#f73b6a7A"," "," ","1","0","[1308.8999999761581]","1","2","","","7825","34","0","3","lose","go","0"
"pit-trial","159","1193801","0.0-39.0","battery-v0.2","","""event"",""trial"",""time""
""fullscreenenter"",""1"",""2072""
","
","
","""event"",""trial"",""time""
""fullscreenenter"",""1"",""2072""
","
","","","-1","","","11","7825","4134","e","elianto","#f73b6a7A"," ","-1","0","-10","[4535.099999964237]","1","2","","","7825","35","2","3","lose","go","0"
"pit-trial","160","1197386","0.0-40.0","battery-v0.2","","""event"",""trial"",""time""
""fullscreenenter"",""1"",""2072""
","
","
","""event"",""trial"",""time""
""fullscreenenter"",""1"",""2072""
","
","","","726.5999999642372","","","11","7825","4134","w","elianto","#f73b6a7A","-1"," ","0","-10","[826.6000000238419,1577.5]","2","2","","","7825","36","3","4","lose","no-go","0"
"pit-trial","161","1200446","0.0-41.0","battery-v0.2","","""event"",""trial"",""time""
""fullscreenenter"",""1"",""2072""
","
","
","""event"",""trial"",""time""
""fullscreenenter"",""1"",""2072""
","
","","","189.69999998807907","","","11","7825","4134","w","elianto","#f73b6a7A","-1"," ","0","0","[1052.199999988079]","1","2","","","7825","37","3","4","lose","no-go","1"
"pit-trial","162","1203604","0.0-42.0","battery-v0.2","","""event"",""trial"",""time""
""fullscreenenter"",""1"",""2072""
","
","
","""event"",""trial"",""time""
""fullscreenenter"",""1"",""2072""
","
","","","296.10000002384186","","","11","7825","4134","d","elianto","#3366ff99","-1"," ","0","0","[1149.4000000357628]","1","2","","","7825","38","1","2","win","no-go","0"
"pit-trial","163","1208469","0.0-43.0","battery-v0.2","","""event"",""trial"",""time""
""fullscreenenter"",""1"",""2072""
","
","
","""event"",""trial"",""time""
""fullscreenenter"",""1"",""2072""
","
","","","-1","","","11","7825","4134","j","elianto","#f73b6a7A"," ","-1","0","-10","[]","0","2","","","7825","39","0","3","lose","go","0"
"pit-trial","164","1212046","0.0-44.0","battery-v0.2","","""event"",""trial"",""time""
""fullscreenenter"",""1"",""2072""
","
","
","""event"",""trial"",""time""
""fullscreenenter"",""1"",""2072""
","
","","","717.8999999761581","","","11","7825","4134","e","elianto","#f73b6a7A"," "," ","1","-10","[1569.199999988079]","1","2","","","7825","40","2","3","lose","go","1"
"pit-trial","165","1216201","0.0-45.0","battery-v0.2","","""event"",""trial"",""time""
""fullscreenenter"",""1"",""2072""
","
","
","""event"",""trial"",""time""
""fullscreenenter"",""1"",""2072""
","
","","","1295.6000000238419","","","11","7825","4134","d","elianto","#3366ff99","-1"," ","0","0","[2148.800000011921]","1","2","","","7825","41","1","2","win","no-go","0"
"pit-trial","166","1221064","0.0-46.0","battery-v0.2","","""event"",""trial"",""time""
""fullscreenenter"",""1"",""2072""
","
","
","""event"",""trial"",""time""
""fullscreenenter"",""1"",""2072""
","
","","","-1","","","11","7825","4134","e","elianto","#f73b6a7A"," ","-1","0","-10","[]","0","2","","","7825","42","2","3","lose","go","0"
"pit-trial","167","1225921","0.0-47.0","battery-v0.2","","""event"",""trial"",""time""
""fullscreenenter"",""1"",""2072""
","
","
","""event"",""trial"",""time""
""fullscreenenter"",""1"",""2072""
","
","","","-1","","","11","7825","4134","j","elianto","#f73b6a7A"," ","-1","0","-10","[4740.800000011921]","1","2","","","7825","43","0","3","lose","go","0"
"pit-trial","168","1228984","0.0-48.0","battery-v0.2","","""event"",""trial"",""time""
""fullscreenenter"",""1"",""2072""
","
","
","""event"",""trial"",""time""
""fullscreenenter"",""1"",""2072""
","
","","","197.79999995231628","","","11","7825","4134","w","elianto","#f73b6a7A","-1"," ","0","0","[1052.7999999523163]","1","2","","","7825","44","3","4","lose","no-go","1"
"pit-trial","169","1233849","0.0-49.0","battery-v0.2","","""event"",""trial"",""time""
""fullscreenenter"",""1"",""2072""
","
","
","""event"",""trial"",""time""
""fullscreenenter"",""1"",""2072""
","
","","","-1","","","11","7825","4134","e","elianto","#f73b6a7A"," ","-1","0","-10","[]","0","2","","","7825","45","2","3","lose","go","0"
"pit-trial","170","1238704","0.0-50.0","battery-v0.2","","""event"",""trial"",""time""
""fullscreenenter"",""1"",""2072""
","
","
","""event"",""trial"",""time""
""fullscreenenter"",""1"",""2072""
","
","","","-1","","","11","7825","4134","w","elianto","#f73b6a7A","-1","-1","1","-10","[]","0","2","","","7825","46","3","4","lose","no-go","1"
"pit-trial","171","1242473","0.0-51.0","battery-v0.2","","""event"",""trial"",""time""
""fullscreenenter"",""1"",""2072""
","
","
","""event"",""trial"",""time""
""fullscreenenter"",""1"",""2072""
","
","","","908","","","11","7825","4134","d","elianto","#3366ff99","-1"," ","0","0","[1762.0999999642372]","1","2","","","7825","47","1","2","win","no-go","0"
"pit-trial","172","1247345","0.0-52.0","battery-v0.2","","""event"",""trial"",""time""
""fullscreenenter"",""1"",""2072""
","
","
","""event"",""trial"",""time""
""fullscreenenter"",""1"",""2072""
","
","","","-1","","","11","7825","4134","j","elianto","#f73b6a7A"," ","-1","0","-10","[]","0","2","","","7825","48","0","3","lose","go","0"
"pit-trial","173","1252205","0.0-53.0","battery-v0.2","","""event"",""trial"",""time""
""fullscreenenter"",""1"",""2072""
","
","
","""event"",""trial"",""time""
""fullscreenenter"",""1"",""2072""
","
","","","-1","","","11","7825","4134","j","elianto","#f73b6a7A"," ","-1","0","0","[]","0","2","","","7825","49","0","3","lose","go","1"
"pit-trial","174","1257066","0.0-54.0","battery-v0.2","","""event"",""trial"",""time""
""fullscreenenter"",""1"",""2072""
","
","
","""event"",""trial"",""time""
""fullscreenenter"",""1"",""2072""
","
","","","-1","","","11","7825","4134","d","elianto","#3366ff99","-1","-1","1","+10","[2895]","1","2","","","7825","50","1","2","win","no-go","0"
"pit-trial","175","1260575","0.0-55.0","battery-v0.2","","""event"",""trial"",""time""
""fullscreenenter"",""1"",""2072""
","
","
","""event"",""trial"",""time""
""fullscreenenter"",""1"",""2072""
","
","","","654","","","11","7825","4134","e","elianto","#f73b6a7A"," "," ","1","0","[1505.1000000238419]","1","2","","","7825","51","2","3","lose","go","0"
"pit-trial","176","1263900","0.0-56.0","battery-v0.2","","""event"",""trial"",""time""
""fullscreenenter"",""1"",""2072""
","
","
","""event"",""trial"",""time""
""fullscreenenter"",""1"",""2072""
","
","","","470.30000001192093","","","11","7825","4134","w","elianto","#f73b6a7A","-1"," ","0","-10","[1323.199999988079]","1","2","","","7825","52","3","4","lose","no-go","0"
"pit-trial","177","1267162","0.0-57.0","battery-v0.2","","""event"",""trial"",""time""
""fullscreenenter"",""1"",""2072""
","
","
","""event"",""trial"",""time""
""fullscreenenter"",""1"",""2072""
","
","","","403.19999998807907","","","11","7825","4134","e","elianto","#f73b6a7A"," "," ","1","0","[816.8999999761581,1253.3999999761581,1587.8999999761581,1861.8999999761581,2393,2853.199999988079,3252.099999964237]","7","2","","","7825","53","2","3","lose","go","0"
"pit-trial","178","1270478","0.0-58.0","battery-v0.2","","""event"",""trial"",""time""
""fullscreenenter"",""1"",""2072""
","
","
","""event"",""trial"",""time""
""fullscreenenter"",""1"",""2072""
","
","","","453.80000001192093","","","11","7825","4134","j","elianto","#f73b6a7A"," "," ","1","0","[694.8000000119209,1307.5]","2","2","","","7825","54","0","3","lose","go","0"
"pit-trial","179","1274450","0.0-59.0","battery-v0.2","","""event"",""trial"",""time""
""fullscreenenter"",""1"",""2072""
","
","
","""event"",""trial"",""time""
""fullscreenenter"",""1"",""2072""
","
","","","1106.1000000238419","","","11","7825","4134","d","elianto","#3366ff99","-1"," ","0","0","[514.8000000119209,1963.4000000357628,3714.199999988079]","3","2","","","7825","55","1","2","win","no-go","0"
"pit-trial","180","1278233","0.0-60.0","battery-v0.2","","""event"",""trial"",""time""
""fullscreenenter"",""1"",""2072""
","
","
","""event"",""trial"",""time""
""fullscreenenter"",""1"",""2072""
","
","","","923.7000000476837","","","11","7825","4134","w","elianto","#f73b6a7A","-1"," ","0","-10","[1773.800000011921,2234.5,2563.699999988079,2906.800000011921,3229.099999964237,3550.300000011921]","6","2","","","7825","56","3","4","lose","no-go","0"
"pit-trial","181","1281127","0.0-61.0","battery-v0.2","","""event"",""trial"",""time""
""fullscreenenter"",""1"",""2072""
","
","
","""event"",""trial"",""time""
""fullscreenenter"",""1"",""2072""
","
","","","37.19999998807907","","","11","7825","4134","j","elianto","#f73b6a7A"," "," ","1","0","[39.80000001192093,339.4000000357628,607.1000000238419,887.9000000357628,1139.5,1402.5,1684.9000000357628,1958.7000000476837,2241.100000023842,2502.7000000476837,2757.7000000476837]","11","2","","","7825","57","0","3","lose","go","0"
"pit-trial","182","1284545","0.0-62.0","battery-v0.2","","""event"",""trial"",""time""
""fullscreenenter"",""1"",""2072""
","
","
","""event"",""trial"",""time""
""fullscreenenter"",""1"",""2072""
","
","","","553.6000000238419","","","11","7825","4134","e","elianto","#f73b6a7A"," "," ","1","0","[135.39999997615814,399.80000001192093,1408.5999999642372]","3","2","","","7825","58","2","3","lose","go","0"
"pit-trial","183","1288684","0.0-63.0","battery-v0.2","","""event"",""trial"",""time""
""fullscreenenter"",""1"",""2072""
","
","
","""event"",""trial"",""time""
""fullscreenenter"",""1"",""2072""
","
","","","1276.199999988079","","","11","7825","4134","s","elianto","#3366ff99"," "," ","1","+10","[2130.7999999523163]","1","2","","","7825","59","4","1","win","go","0"
"pit-trial","184","1293550","0.0-64.0","battery-v0.2","","""event"",""trial"",""time""
""fullscreenenter"",""1"",""2072""
","
","
","""event"",""trial"",""time""
""fullscreenenter"",""1"",""2072""
","
","","","-1","","","11","7825","4134","w","elianto","#f73b6a7A","-1","-1","1","0","[]","0","2","","","7825","60","3","4","lose","no-go","0"
"pit-trial","185","1298409","0.0-65.0","battery-v0.2","","""event"",""trial"",""time""
""fullscreenenter"",""1"",""2072""
","
","
","""event"",""trial"",""time""
""fullscreenenter"",""1"",""2072""
","
","","","-1","","","11","7825","4134","s","elianto","#3366ff99"," ","-1","0","0","[]","0","2","","","7825","61","4","1","win","go","0"
"pit-trial","186","1302500","0.0-66.0","battery-v0.2","","""event"",""trial"",""time""
""fullscreenenter"",""1"",""2072""
","
","
","""event"",""trial"",""time""
""fullscreenenter"",""1"",""2072""
","
","","","1237.1000000238419","","","11","7825","4134","w","elianto","#f73b6a7A","-1"," ","0","-10","[2087.899999976158,3962.300000011921]","2","2","","","7825","62","3","4","lose","no-go","0"
"pit-trial","187","1307285","0.0-67.0","battery-v0.2","","""event"",""trial"",""time""
""fullscreenenter"",""1"",""2072""
","
","
","""event"",""trial"",""time""
""fullscreenenter"",""1"",""2072""
","
","","","1927.5","","","11","7825","4134","e","elianto","#f73b6a7A"," "," ","1","0","[2777.7000000476837,3345.300000011921,3626.400000035763,3880]","4","2","","","7825","63","2","3","lose","go","0"
"pit-trial","188","1312151","0.0-68.0","battery-v0.2","","""event"",""trial"",""time""
""fullscreenenter"",""1"",""2072""
","
","
","""event"",""trial"",""time""
""fullscreenenter"",""1"",""2072""
","
","","","-1","","","11","7825","4134","d","elianto","#3366ff99","-1","-1","1","+10","[4372.100000023842]","1","2","","","7825","64","1","2","win","no-go","0"
"pit-trial","189","1317015","0.0-69.0","battery-v0.2","","""event"",""trial"",""time""
""fullscreenenter"",""1"",""2072""
","
","
","""event"",""trial"",""time""
""fullscreenenter"",""1"",""2072""
","
","","","-1","","","11","7825","4134","p","elianto","#3366ff99","-1","-1","1","+10","[2960.400000035763]","1","2","","","7825","65","5","2","win","no-go","0"
"pit-trial","190","1320343","0.0-70.0","battery-v0.2","","""event"",""trial"",""time""
""fullscreenenter"",""1"",""2072""
","
","
","""event"",""trial"",""time""
""fullscreenenter"",""1"",""2072""
","
","","","467.5999999642372","","","11","7825","4134","d","elianto","#3366ff99","-1"," ","0","+10","[1318.699999988079]","1","2","","","7825","66","1","2","win","no-go","1"
"pit-trial","191","1325200","0.0-71.0","battery-v0.2","","""event"",""trial"",""time""
""fullscreenenter"",""1"",""2072""
","
","
","""event"",""trial"",""time""
""fullscreenenter"",""1"",""2072""
","
","","","-1","","","11","7825","4134","w","elianto","#f73b6a7A","-1","-1","1","0","[]","0","2","","","7825","67","3","4","lose","no-go","0"
"pit-trial","192","1330057","0.0-72.0","battery-v0.2","","""event"",""trial"",""time""
""fullscreenenter"",""1"",""2072""
","
","
","""event"",""trial"",""time""
""fullscreenenter"",""1"",""2072""
","
","","","-1","","","11","7825","4134","s","elianto","#3366ff99"," ","-1","0","0","[]","0","2","","","7825","68","4","1","win","go","0"
"pit-trial","193","1334924","0.0-73.0","battery-v0.2","","""event"",""trial"",""time""
""fullscreenenter"",""1"",""2072""
","
","
","""event"",""trial"",""time""
""fullscreenenter"",""1"",""2072""
","
","","","-1","","","11","7825","4134","s","elianto","#3366ff99"," ","-1","0","0","[4053.399999976158]","1","2","","","7825","69","4","1","win","go","0"
"pit-trial","194","1339784","0.0-74.0","battery-v0.2","","""event"",""trial"",""time""
""fullscreenenter"",""1"",""2072""
","
","
","""event"",""trial"",""time""
""fullscreenenter"",""1"",""2072""
","
","","","-1","","","11","7825","4134","e","elianto","#f73b6a7A"," ","-1","0","-10","[]","0","2","","","7825","70","2","3","lose","go","0"
"pit-trial","195","1343465","0.0-75.0","battery-v0.2","","""event"",""trial"",""time""
""fullscreenenter"",""1"",""2072""
","
","
","""event"",""trial"",""time""
""fullscreenenter"",""1"",""2072""
","
","","","822.3000000119209","","","11","7825","4134","d","elianto","#3366ff99","-1"," ","0","0","[71.09999996423721,1672.3999999761581]","2","2","","","7825","71","1","2","win","no-go","0"
"pit-trial","196","1348334","0.0-76.0","battery-v0.2","","""event"",""trial"",""time""
""fullscreenenter"",""1"",""2072""
","
","
","""event"",""trial"",""time""
""fullscreenenter"",""1"",""2072""
","
","","","-1","","","11","7825","4134","p","elianto","#3366ff99","-1","-1","1","+10","[]","0","2","","","7825","72","5","2","win","no-go","0"
"pit-trial","197","1352229","0.0-77.0","battery-v0.2","","""event"",""trial"",""time""
""fullscreenenter"",""1"",""2072""
","
","
","""event"",""trial"",""time""
""fullscreenenter"",""1"",""2072""
","
","","","1033.2000000476837","","","11","7825","4134","s","elianto","#3366ff99"," "," ","1","+10","[1887.199999988079,3012.399999976158]","2","2","","","7825","73","4","1","win","go","0"
"pit-trial","198","1356830","0.0-78.0","battery-v0.2","","""event"",""trial"",""time""
""fullscreenenter"",""1"",""2072""
","
","
","""event"",""trial"",""time""
""fullscreenenter"",""1"",""2072""
","
","","","1739.800000011921","","","11","7825","4134","p","elianto","#3366ff99","-1"," ","0","0","[2592.600000023842,4324.600000023842]","2","2","","","7825","74","5","2","win","no-go","0"
"pit-trial","199","1360450","0.0-79.0","battery-v0.2","","""event"",""trial"",""time""
""fullscreenenter"",""1"",""2072""
","
","
","""event"",""trial"",""time""
""fullscreenenter"",""1"",""2072""
","
","","","762.7999999523163","","","11","7825","4134","d","elianto","#3366ff99","-1"," ","0","0","[15.399999976158142,1614.7999999523163]","2","2","","","7825","75","1","2","win","no-go","0"
"pit-trial","200","1363584","0.0-80.0","battery-v0.2","","""event"",""trial"",""time""
""fullscreenenter"",""1"",""2072""
","
","
","""event"",""trial"",""time""
""fullscreenenter"",""1"",""2072""
","
","","","279.69999998807907","","","11","7825","4134","w","elianto","#f73b6a7A","-1"," ","0","-10","[1130.300000011921,2926.199999988079]","2","2","","","7825","76","3","4","lose","no-go","0"
"pit-trial","201","1368144","0.0-81.0","battery-v0.2","","""event"",""trial"",""time""
""fullscreenenter"",""1"",""2072""
","
","
","""event"",""trial"",""time""
""fullscreenenter"",""1"",""2072""
","
","","","1699.1000000238419","","","11","7825","4134","s","elianto","#3366ff99"," "," ","1","0","[2551.800000011921,4522.100000023842]","2","2","","","7825","77","4","1","win","go","1"
"pit-trial","202","1372283","0.0-82.0","battery-v0.2","","""event"",""trial"",""time""
""fullscreenenter"",""1"",""2072""
","
","
","""event"",""trial"",""time""
""fullscreenenter"",""1"",""2072""
","
","","","1281.300000011921","","","11","7825","4134","w","elianto","#f73b6a7A","-1"," ","0","-10","[250.19999998807907,503.7999999523163,763,2134]","4","2","","","7825","78","3","4","lose","no-go","0"
"pit-trial","203","1375711","0.0-83.0","battery-v0.2","","""event"",""trial"",""time""
""fullscreenenter"",""1"",""2072""
","
","
","""event"",""trial"",""time""
""fullscreenenter"",""1"",""2072""
","
","","","562.1000000238419","","","11","7825","4134","s","elianto","#3366ff99"," "," ","1","+10","[1421.5999999642372,1694.300000011921]","2","2","","","7825","79","4","1","win","go","0"
"pit-trial","204","1379183","0.0-84.0","battery-v0.2","","""event"",""trial"",""time""
""fullscreenenter"",""1"",""2072""
","
","
","""event"",""trial"",""time""
""fullscreenenter"",""1"",""2072""
","
","","","615.3000000119209","","","11","7825","4134","p","elianto","#3366ff99","-1"," ","0","0","[1467.3999999761581]","1","2","","","7825","80","5","2","win","no-go","0"
"pit-trial","205","1382564","0.0-85.0","battery-v0.2","","""event"",""trial"",""time""
""fullscreenenter"",""1"",""2072""
","
","
","""event"",""trial"",""time""
""fullscreenenter"",""1"",""2072""
","
","","","522","","","11","7825","4134","s","elianto","#3366ff99"," "," ","1","0","[1375.6000000238419,3269.5]","2","2","","","7825","81","4","1","win","go","1"
"pit-trial","206","1385648","0.0-86.0","battery-v0.2","","""event"",""trial"",""time""
""fullscreenenter"",""1"",""2072""
","
","
","""event"",""trial"",""time""
""fullscreenenter"",""1"",""2072""
","
","","","224.19999998807907","","","11","7825","4134","p","elianto","#3366ff99","-1"," ","0","0","[670.6999999880791,1075.4000000357628,1497.1000000238419]","3","2","","","7825","82","5","2","win","no-go","0"
"pit-trial","207","1389879","0.0-87.0","battery-v0.2","","""event"",""trial"",""time""
""fullscreenenter"",""1"",""2072""
","
","
","""event"",""trial"",""time""
""fullscreenenter"",""1"",""2072""
","
","","","1366.8999999761581","","","11","7825","4134","a","elianto","#f73b6a7A","-1"," ","0","-10","[2218.2000000476837]","1","2","","","7825","83","7","4","lose","no-go","0"
"pit-trial","208","1394744","0.0-88.0","battery-v0.2","","""event"",""trial"",""time""
""fullscreenenter"",""1"",""2072""
","
","
","""event"",""trial"",""time""
""fullscreenenter"",""1"",""2072""
","
","","","-1","","","11","7825","4134","w","elianto","#f73b6a7A","-1","-1","1","0","[]","0","2","","","7825","84","3","4","lose","no-go","0"
"pit-trial","209","1398398","0.0-89.0","battery-v0.2","","""event"",""trial"",""time""
""fullscreenenter"",""1"",""2072""
","
","
","""event"",""trial"",""time""
""fullscreenenter"",""1"",""2072""
","
","","","789.7999999523163","","","11","7825","4134","p","elianto","#3366ff99","-1"," ","0","0","[748.4000000357628,1642.199999988079]","2","2","","","7825","85","5","2","win","no-go","0"
"pit-trial","210","1403263","0.0-90.0","battery-v0.2","","""event"",""trial"",""time""
""fullscreenenter"",""1"",""2072""
","
","
","""event"",""trial"",""time""
""fullscreenenter"",""1"",""2072""
","
","","","-1","","","11","7825","4134","s","elianto","#3366ff99"," ","-1","0","0","[2943.100000023842]","1","2","","","7825","86","4","1","win","go","0"
"pit-trial","211","1408116","0.0-91.0","battery-v0.2","","""event"",""trial"",""time""
""fullscreenenter"",""1"",""2072""
","
","
","""event"",""trial"",""time""
""fullscreenenter"",""1"",""2072""
","
","","","-1","","","11","7825","4134","g","elianto","#f73b6a7A"," ","-1","0","0","[]","0","2","","","7825","87","6","3","lose","go","1"
"pit-trial","212","1411498","0.0-92.0","battery-v0.2","","""event"",""trial"",""time""
""fullscreenenter"",""1"",""2072""
","
","
","""event"",""trial"",""time""
""fullscreenenter"",""1"",""2072""
","
","","","522.1000000238419","","","11","7825","4134","a","elianto","#f73b6a7A","-1"," ","0","-10","[1379.1000000238419]","1","2","","","7825","88","7","4","lose","no-go","0"
"pit-trial","213","1415558","0.0-93.0","battery-v0.2","","""event"",""trial"",""time""
""fullscreenenter"",""1"",""2072""
","
","
","""event"",""trial"",""time""
""fullscreenenter"",""1"",""2072""
","
","","","1203.4000000357628","","","11","7825","4134","p","elianto","#3366ff99","-1"," ","0","0","[2053.800000011921]","1","2","","","7825","89","5","2","win","no-go","0"
"pit-trial","214","1419229","0.0-94.0","battery-v0.2","","""event"",""trial"",""time""
""fullscreenenter"",""1"",""2072""
","
","
","""event"",""trial"",""time""
""fullscreenenter"",""1"",""2072""
","
","","","805.3000000119209","","","11","7825","4134","s","elianto","#3366ff99"," "," ","1","0","[1660]","1","2","","","7825","90","4","1","win","go","1"
"pit-trial","215","1423032","0.0-95.0","battery-v0.2","","""event"",""trial"",""time""
""fullscreenenter"",""1"",""2072""
","
","
","""event"",""trial"",""time""
""fullscreenenter"",""1"",""2072""
","
","","","942.6999999880791","","","11","7825","4134","a","elianto","#f73b6a7A","-1"," ","0","0","[1793.5]","1","2","","","7825","91","7","4","lose","no-go","1"
"pit-trial","216","1427898","0.0-96.0","battery-v0.2","","""event"",""trial"",""time""
""fullscreenenter"",""1"",""2072""
","
","
","""event"",""trial"",""time""
""fullscreenenter"",""1"",""2072""
","
","","","-1","","","11","7825","4134","g","elianto","#f73b6a7A"," ","-1","0","-10","[4251.900000035763]","1","2","","","7825","92","6","3","lose","go","0"
"pit-trial","217","1430974","0.0-97.0","battery-v0.2","","""event"",""trial"",""time""
""fullscreenenter"",""1"",""2072""
","
","
","""event"",""trial"",""time""
""fullscreenenter"",""1"",""2072""
","
","","","220.10000002384186","","","11","7825","4134","a","elianto","#f73b6a7A","-1"," ","0","-10","[1070.5,1611.699999988079,1951.199999988079,2208.600000023842]","4","2","","","7825","93","7","4","lose","no-go","0"
"pit-trial","218","1434882","0.0-98.0","battery-v0.2","","""event"",""trial"",""time""
""fullscreenenter"",""1"",""2072""
","
","
","""event"",""trial"",""time""
""fullscreenenter"",""1"",""2072""
","
","","","1047.6000000238419","","","11","7825","4134","l","elianto","#3366ff99"," "," ","1","+10","[824.6999999880791,1902]","2","2","","","7825","94","8","1","win","go","0"
"pit-trial","219","1438496","0.0-99.0","battery-v0.2","","""event"",""trial"",""time""
""fullscreenenter"",""1"",""2072""
","
","
","""event"",""trial"",""time""
""fullscreenenter"",""1"",""2072""
","
","","","742.6000000238419","","","11","7825","4134","p","elianto","#3366ff99","-1"," ","0","0","[1601.800000011921]","1","2","","","7825","95","5","2","win","no-go","0"
"pit-trial","220","1441846","0.0-100.0","battery-v0.2","","""event"",""trial"",""time""
""fullscreenenter"",""1"",""2072""
","
","
","""event"",""trial"",""time""
""fullscreenenter"",""1"",""2072""
","
","","","490.80000001192093","","","11","7825","4134","g","elianto","#f73b6a7A"," "," ","1","0","[1341.3999999761581]","1","2","","","7825","96","6","3","lose","go","0"
"pit-trial","221","1445125","0.0-101.0","battery-v0.2","","""event"",""trial"",""time""
""fullscreenenter"",""1"",""2072""
","
","
","""event"",""trial"",""time""
""fullscreenenter"",""1"",""2072""
","
","","","418.9000000357628","","","11","7825","4134","l","elianto","#3366ff99"," "," ","1","+10","[1269.4000000357628]","1","2","","","7825","97","8","1","win","go","0"
"pit-trial","222","1449981","0.0-102.0","battery-v0.2","","""event"",""trial"",""time""
""fullscreenenter"",""1"",""2072""
","
","
","""event"",""trial"",""time""
""fullscreenenter"",""1"",""2072""
","
","","","-1","","","11","7825","4134","a","elianto","#f73b6a7A","-1","-1","1","0","[]","0","2","","","7825","98","7","4","lose","no-go","0"
"pit-trial","223","1453479","0.0-103.0","battery-v0.2","","""event"",""trial"",""time""
""fullscreenenter"",""1"",""2072""
","
","
","""event"",""trial"",""time""
""fullscreenenter"",""1"",""2072""
","
","","","639","","","11","7825","4134","p","elianto","#3366ff99","-1"," ","0","0","[1489.199999988079]","1","2","","","7825","99","5","2","win","no-go","0"
"pit-trial","224","1458331","0.0-104.0","battery-v0.2","","""event"",""trial"",""time""
""fullscreenenter"",""1"",""2072""
","
","
","""event"",""trial"",""time""
""fullscreenenter"",""1"",""2072""
","
","","","-1","","","11","7825","4134","g","elianto","#f73b6a7A"," ","-1","0","-10","[3545.899999976158,3925.699999988079]","2","2","","","7825","100","6","3","lose","go","0"
"pit-trial","225","1461543","0.0-105.0","battery-v0.2","","""event"",""trial"",""time""
""fullscreenenter"",""1"",""2072""
","
","
","""event"",""trial"",""time""
""fullscreenenter"",""1"",""2072""
","
","","","345.5999999642372","","","11","7825","4134","a","elianto","#f73b6a7A","-1"," ","0","-10","[1204.199999988079]","1","2","","","7825","101","7","4","lose","no-go","0"
"pit-trial","226","1466398","0.0-106.0","battery-v0.2","","""event"",""trial"",""time""
""fullscreenenter"",""1"",""2072""
","
","
","""event"",""trial"",""time""
""fullscreenenter"",""1"",""2072""
","
","","","-1","","","11","7825","4134","l","elianto","#3366ff99"," ","-1","0","0","[2970.7000000476837]","1","2","","","7825","102","8","1","win","go","0"
"pit-trial","227","1471263","0.0-107.0","battery-v0.2","","""event"",""trial"",""time""
""fullscreenenter"",""1"",""2072""
","
","
","""event"",""trial"",""time""
""fullscreenenter"",""1"",""2072""
","
","","","-1","","","11","7825","4134","u","elianto","#3366ff99"," ","-1","0","+10","[3170.899999976158]","1","2","","","7825","103","9","1","win","go","1"
"pit-trial","228","1475506","0.0-108.0","battery-v0.2","","""event"",""trial"",""time""
""fullscreenenter"",""1"",""2072""
","
","
","""event"",""trial"",""time""
""fullscreenenter"",""1"",""2072""
","
","","","1381.6000000238419","","","11","7825","4134","p","elianto","#3366ff99","-1"," ","0","0","[2235.699999988079]","1","2","","","7825","104","5","2","win","no-go","0"
"pit-trial","229","1479125","0.0-109.0","battery-v0.2","","""event"",""trial"",""time""
""fullscreenenter"",""1"",""2072""
","
","
","""event"",""trial"",""time""
""fullscreenenter"",""1"",""2072""
","
","","","755.3999999761581","","","11","7825","4134","l","elianto","#3366ff99"," "," ","1","+10","[1610.5]","1","2","","","7825","105","8","1","win","go","0"
"pit-trial","230","1482683","0.0-110.0","battery-v0.2","","""event"",""trial"",""time""
""fullscreenenter"",""1"",""2072""
","
","
","""event"",""trial"",""time""
""fullscreenenter"",""1"",""2072""
","
","","","703.4000000357628","","","11","7825","4134","u","elianto","#3366ff99"," "," ","1","+10","[1555.1000000238419]","1","2","","","7825","106","9","1","win","go","0"
"pit-trial","231","1486797","0.0-111.0","battery-v0.2","","""event"",""trial"",""time""
""fullscreenenter"",""1"",""2072""
","
","
","""event"",""trial"",""time""
""fullscreenenter"",""1"",""2072""
","
","","","1248.8999999761581","","","11","7825","4134","g","elianto","#f73b6a7A"," "," ","1","0","[2107]","1","2","","","7825","107","6","3","lose","go","0"
"pit-trial","232","1490588","0.0-112.0","battery-v0.2","","""event"",""trial"",""time""
""fullscreenenter"",""1"",""2072""
","
","
","""event"",""trial"",""time""
""fullscreenenter"",""1"",""2072""
","
","","","927.9000000357628","","","11","7825","4134","s","elianto","#3366ff99"," "," ","1","+10","[1782.4000000357628]","1","2","","","7825","108","4","1","win","go","0"
"pit-trial","233","1494131","0.0-113.0","battery-v0.2","","""event"",""trial"",""time""
""fullscreenenter"",""1"",""2072""
","
","
","""event"",""trial"",""time""
""fullscreenenter"",""1"",""2072""
","
","","","685.5","","","11","7825","4134","l","elianto","#3366ff99"," "," ","1","+10","[1539.3999999761581]","1","2","","","7825","109","8","1","win","go","0"
"pit-trial","234","1497713","0.0-114.0","battery-v0.2","","""event"",""trial"",""time""
""fullscreenenter"",""1"",""2072""
","
","
","""event"",""trial"",""time""
""fullscreenenter"",""1"",""2072""
","
","","","717.5","","","11","7825","4134","p","elianto","#3366ff99","-1"," ","0","0","[1574.5]","1","2","","","7825","110","5","2","win","no-go","0"
"pit-trial","235","1502578","0.0-115.0","battery-v0.2","","""event"",""trial"",""time""
""fullscreenenter"",""1"",""2072""
","
","
","""event"",""trial"",""time""
""fullscreenenter"",""1"",""2072""
","
","","","-1","","","11","7825","4134","g","elianto","#f73b6a7A"," ","-1","0","-10","[]","0","2","","","7825","111","6","3","lose","go","0"
"pit-trial","236","1506157","0.0-116.0","battery-v0.2","","""event"",""trial"",""time""
""fullscreenenter"",""1"",""2072""
","
","
","""event"",""trial"",""time""
""fullscreenenter"",""1"",""2072""
","
","","","722.1999999880791","","","11","7825","4134","u","elianto","#3366ff99"," "," ","1","+10","[1572.6000000238419]","1","2","","","7825","112","9","1","win","go","0"
"pit-trial","237","1511023","0.0-117.0","battery-v0.2","","""event"",""trial"",""time""
""fullscreenenter"",""1"",""2072""
","
","
","""event"",""trial"",""time""
""fullscreenenter"",""1"",""2072""
","
","","","-1","","","11","7825","4134","p","elianto","#3366ff99","-1","-1","1","+10","[]","0","2","","","7825","113","5","2","win","no-go","0"
"pit-trial","238","1515613","0.0-118.0","battery-v0.2","","""event"",""trial"",""time""
""fullscreenenter"",""1"",""2072""
","
","
","""event"",""trial"",""time""
""fullscreenenter"",""1"",""2072""
","
","","","1730.8999999761581","","","11","7825","4134","g","elianto","#f73b6a7A"," "," ","1","0","[2586.899999976158]","1","2","","","7825","114","6","3","lose","go","0"
"pit-trial","239","1519460","0.0-119.0","battery-v0.2","","""event"",""trial"",""time""
""fullscreenenter"",""1"",""2072""
","
","
","""event"",""trial"",""time""
""fullscreenenter"",""1"",""2072""
","
","","","986.6000000238419","","","11","7825","4134","l","elianto","#3366ff99"," "," ","1","0","[1841.199999988079]","1","2","","","7825","115","8","1","win","go","1"
"pit-trial","240","1523820","0.0-120.0","battery-v0.2","","""event"",""trial"",""time""
""fullscreenenter"",""1"",""2072""
","
","
","""event"",""trial"",""time""
""fullscreenenter"",""1"",""2072""
","
","","","1503.8999999761581","","","11","7825","4134","u","elianto","#3366ff99"," "," ","1","0","[2354.800000011921]","1","2","","","7825","116","9","1","win","go","1"
"pit-trial","241","1527894","0.0-121.0","battery-v0.2","","""event"",""trial"",""time""
""fullscreenenter"",""1"",""2072""
","
","
","""event"",""trial"",""time""
""fullscreenenter"",""1"",""2072""
","
","","","1213.1000000238419","","","11","7825","4134","p","elianto","#3366ff99","-1"," ","0","0","[2068.900000035763]","1","2","","","7825","117","5","2","win","no-go","0"
"pit-trial","242","1531445","0.0-122.0","battery-v0.2","","""event"",""trial"",""time""
""fullscreenenter"",""1"",""2072""
","
","
","""event"",""trial"",""time""
""fullscreenenter"",""1"",""2072""
","
","","","689.3000000119209","","","11","7825","4134","l","elianto","#3366ff99"," "," ","1","+10","[1539.5]","1","2","","","7825","118","8","1","win","go","0"
"pit-trial","243","1534987","0.0-123.0","battery-v0.2","","""event"",""trial"",""time""
""fullscreenenter"",""1"",""2072""
","
","
","""event"",""trial"",""time""
""fullscreenenter"",""1"",""2072""
","
","","","682.9000000357628","","","11","7825","4134","u","elianto","#3366ff99"," "," ","1","0","[1538.699999988079]","1","2","","","7825","119","9","1","win","go","1"
"pit-trial","244","1539845","0.0-124.0","battery-v0.2","","""event"",""trial"",""time""
""fullscreenenter"",""1"",""2072""
","
","
","""event"",""trial"",""time""
""fullscreenenter"",""1"",""2072""
","
","","","-1","","","11","7825","4134","g","elianto","#f73b6a7A"," ","-1","0","-10","[]","0","2","","","7825","120","6","3","lose","go","0"
"pit-trial","245","1543325","0.0-125.0","battery-v0.2","","""event"",""trial"",""time""
""fullscreenenter"",""1"",""2072""
","
","
","""event"",""trial"",""time""
""fullscreenenter"",""1"",""2072""
","
","","","624.1000000238419","","","11","7825","4134","u","elianto","#3366ff99"," "," ","1","0","[318.7000000476837,1474.2000000476837]","2","2","","","7825","121","9","1","win","go","1"
"pit-trial","246","1546878","0.0-126.0","battery-v0.2","","""event"",""trial"",""time""
""fullscreenenter"",""1"",""2072""
","
","
","""event"",""trial"",""time""
""fullscreenenter"",""1"",""2072""
","
","","","698","","","11","7825","4134","l","elianto","#3366ff99"," "," ","1","+10","[1550.6000000238419]","1","2","","","7825","122","8","1","win","go","0"
"pit-trial","247","1551743","0.0-127.0","battery-v0.2","","""event"",""trial"",""time""
""fullscreenenter"",""1"",""2072""
","
","
","""event"",""trial"",""time""
""fullscreenenter"",""1"",""2072""
","
","","","-1","","","11","7825","4134","g","elianto","#f73b6a7A"," ","-1","0","0","[]","0","2","","","7825","123","6","3","lose","go","1"
"pit-trial","248","1556612","0.0-128.0","battery-v0.2","","""event"",""trial"",""time""
""fullscreenenter"",""1"",""2072""
","
","
","""event"",""trial"",""time""
""fullscreenenter"",""1"",""2072""
","
","","","-1","","","11","7825","4134","a","elianto","#f73b6a7A","-1","-1","1","0","[]","0","2","","","7825","124","7","4","lose","no-go","0"
"pit-trial","249","1559496","0.0-129.0","battery-v0.2","","""event"",""trial"",""time""
""fullscreenenter"",""1"",""2072""
","
","
","""event"",""trial"",""time""
""fullscreenenter"",""1"",""2072""
","
","","","27","","","11","7825","4134","g","elianto","#f73b6a7A"," "," ","1","0","[880.8000000119209]","1","2","","","7825","125","6","3","lose","go","0"
"pit-trial","250","1563077","0.0-130.0","battery-v0.2","","""event"",""trial"",""time""
""fullscreenenter"",""1"",""2072""
","
","
","""event"",""trial"",""time""
""fullscreenenter"",""1"",""2072""
","
","","","722.2000000476837","","","11","7825","4134","l","elianto","#3366ff99"," "," ","1","+10","[1578.9000000357628]","1","2","","","7825","126","8","1","win","go","0"
"pit-trial","251","1567757","0.0-131.0","battery-v0.2","","""event"",""trial"",""time""
""fullscreenenter"",""1"",""2072""
","
","
","""event"",""trial"",""time""
""fullscreenenter"",""1"",""2072""
","
","","","1820.300000011921","","","11","7825","4134","a","elianto","#f73b6a7A","-1"," ","0","-10","[2674.600000023842]","1","2","","","7825","127","7","4","lose","no-go","0"
"pit-trial","252","1572095","0.0-132.0","battery-v0.2","","""event"",""trial"",""time""
""fullscreenenter"",""1"",""2072""
","
","
","""event"",""trial"",""time""
""fullscreenenter"",""1"",""2072""
","
","","","1471.699999988079","","","11","7825","4134","u","elianto","#3366ff99"," "," ","1","+10","[2324.5]","1","2","","","7825","128","9","1","win","go","0"
"pit-trial","253","1576961","0.0-133.0","battery-v0.2","","""event"",""trial"",""time""
""fullscreenenter"",""1"",""2072""
","
","
","""event"",""trial"",""time""
""fullscreenenter"",""1"",""2072""
","
","","","-1","","","11","7825","4134","g","elianto","#f73b6a7A"," ","-1","0","-10","[]","0","2","","","7825","129","6","3","lose","go","0"
"pit-trial","254","1581356","0.0-134.0","battery-v0.2","","""event"",""trial"",""time""
""fullscreenenter"",""1"",""2072""
","
","
","""event"",""trial"",""time""
""fullscreenenter"",""1"",""2072""
","
","","","1533.800000011921","","","11","7825","4134","a","elianto","#f73b6a7A","-1"," ","0","-10","[2384.699999988079]","1","2","","","7825","130","7","4","lose","no-go","0"
"pit-trial","255","1586222","0.0-135.0","battery-v0.2","","""event"",""trial"",""time""
""fullscreenenter"",""1"",""2072""
","
","
","""event"",""trial"",""time""
""fullscreenenter"",""1"",""2072""
","
","","","-1","","","11","7825","4134","l","elianto","#3366ff99"," ","-1","0","0","[3047.600000023842]","1","2","","","7825","131","8","1","win","go","0"
"pit-trial","256","1589773","0.0-136.0","battery-v0.2","","""event"",""trial"",""time""
""fullscreenenter"",""1"",""2072""
","
","
","""event"",""trial"",""time""
""fullscreenenter"",""1"",""2072""
","
","","","692.3000000119209","","","11","7825","4134","u","elianto","#3366ff99"," "," ","1","0","[1545]","1","2","","","7825","132","9","1","win","go","1"
"pit-trial","257","1593405","0.0-137.0","battery-v0.2","","""event"",""trial"",""time""
""fullscreenenter"",""1"",""2072""
","
","
","""event"",""trial"",""time""
""fullscreenenter"",""1"",""2072""
","
","","","773.1999999880791","","","11","7825","4134","u","elianto","#3366ff99"," "," ","1","0","[1625.3999999761581]","1","2","","","7825","133","9","1","win","go","1"
"pit-trial","258","1596844","0.0-138.0","battery-v0.2","","""event"",""trial"",""time""
""fullscreenenter"",""1"",""2072""
","
","
","""event"",""trial"",""time""
""fullscreenenter"",""1"",""2072""
","
","","","578.2000000476837","","","11","7825","4134","l","elianto","#3366ff99"," "," ","1","0","[1431.2000000476837]","1","2","","","7825","134","8","1","win","go","1"
"pit-trial","259","1601261","0.0-139.0","battery-v0.2","","""event"",""trial"",""time""
""fullscreenenter"",""1"",""2072""
","
","
","""event"",""trial"",""time""
""fullscreenenter"",""1"",""2072""
","
","","","1562.4000000357628","","","11","7825","4134","g","elianto","#f73b6a7A"," "," ","1","0","[2412.600000023842]","1","2","","","7825","135","6","3","lose","go","0"
"pit-trial","260","1606125","0.0-140.0","battery-v0.2","","""event"",""trial"",""time""
""fullscreenenter"",""1"",""2072""
","
","
","""event"",""trial"",""time""
""fullscreenenter"",""1"",""2072""
","
