"trial_type","trial_index","time_elapsed","internal_node_id","task_version","subject_id","interactions","blur_events","focus_events","fullscreenenter_events","fullscreenexit_events","success","view_history","rt","responses","num_errors","age","subject","participantId","rune","rune_set","hex","correct","choice","accuracy","outcome","keys","total_keys","block","practice","value","sub","trial","stimulus","robot","valence","action","sham"
"pavlovia","0","9","0.0-0.0","battery-v0.2","","""event"",""trial"",""time""
""fullscreenenter"",""1"",""21040""
","
","
","""event"",""trial"",""time""
""fullscreenenter"",""1"",""21040""
","
","","","","","","","","","","","","","","","","","","","","","","","","","","",""
"fullscreen","1","22033","0.0-1.0","battery-v0.2","","""event"",""trial"",""time""
""fullscreenenter"",""1"",""21040""
","
","
","""event"",""trial"",""time""
""fullscreenenter"",""1"",""21040""
","
","true","","","","","","","","","","","","","","","","","","","","","","","","","",""
"pit-instructions","2","32293","0.0-2.0-0.0","battery-v0.2","","""event"",""trial"",""time""
""fullscreenenter"",""1"",""21040""
","
","
","""event"",""trial"",""time""
""fullscreenenter"",""1"",""21040""
","
","","[{""page_index"":0,""viewing_time"":10253.60000038147}]","10254.200000286102","","","","","","","","","","","","","","","","","","","","","","","",""
"pit-comprehension","3","38047","0.0-2.0-1.0-0.0","battery-v0.2","","""event"",""trial"",""time""
""fullscreenenter"",""1"",""21040""
","
","
","""event"",""trial"",""time""
""fullscreenenter"",""1"",""21040""
","
","","","5745.799999713898","[""shark""]","0","13","5940","3413","","","","","","","","","","","","","","","","","","",""
"pit-instructions","4","39936","0.0-2.0-1.0-1.0","battery-v0.2","","""event"",""trial"",""time""
""fullscreenenter"",""1"",""21040""
","
","
","""event"",""trial"",""time""
""fullscreenenter"",""1"",""21040""
","
","","[{""page_index"":0,""viewing_time"":1858.2000002861023}]","1859.2000002861023","","","","","","","","","","","","","","","","","","","","","","","",""
"pit-comprehension","5","44022","0.0-2.0-2.0-0.0","battery-v0.2","","""event"",""trial"",""time""
""fullscreenenter"",""1"",""21040""
","
","
","""event"",""trial"",""time""
""fullscreenenter"",""1"",""21040""
","
","","","4078.5","[""tiger""]","0","13","5940","3413","","","","","","","","","","","","","","","","","","",""
"pit-instructions","6","46137","0.0-2.0-2.0-1.0","battery-v0.2","","""event"",""trial"",""time""
""fullscreenenter"",""1"",""21040""
","
","
","""event"",""trial"",""time""
""fullscreenenter"",""1"",""21040""
","
","","[{""page_index"":0,""viewing_time"":2108.1000003814697}]","2108.9000000953674","","","","","","","","","","","","","","","","","","","","","","","",""
"pit-instructions","7","212498","0.0-2.0-3.0","battery-v0.2","","""event"",""trial"",""time""
""fullscreenenter"",""1"",""21040""
","
","
","""event"",""trial"",""time""
""fullscreenenter"",""1"",""21040""
","
","","[{""page_index"":0,""viewing_time"":9956},{""page_index"":1,""viewing_time"":8411.800000190735},{""page_index"":2,""viewing_time"":16913.300000190735},{""page_index"":3,""viewing_time"":7235.89999961853},{""page_index"":4,""viewing_time"":10382.800000190735},{""page_index"":5,""viewing_time"":17111.099999904633},{""page_index"":6,""viewing_time"":30148.400000095367},{""page_index"":7,""viewing_time"":8595.5},{""page_index"":8,""viewing_time"":12012.099999904633},{""page_index"":9,""viewing_time"":10531.099999904633},{""page_index"":10,""viewing_time"":14094.5},{""page_index"":11,""viewing_time"":8303.700000286102},{""page_index"":12,""viewing_time"":7619.299999713898},{""page_index"":13,""viewing_time"":5038.5}]","166355","","","","","","","","","","","","","","","","","","","","","","","",""
"pit-trial","8","216014","0.0-2.0-4.0-0.0","battery-v0.2","","""event"",""trial"",""time""
""fullscreenenter"",""1"",""21040""
","
","
","""event"",""trial"",""time""
""fullscreenenter"",""1"",""21040""
","
","","","631.3000001907349","","","13","5940","3413","&#9784;","elianto","#FFFFF080"," "," ","1","&#10004","[1492.5]","1","0","0","","","","","","","",""
"pit-trial","9","219773","0.0-2.0-4.1-0.1","battery-v0.2","","""event"",""trial"",""time""
""fullscreenenter"",""1"",""21040""
","
","
","""event"",""trial"",""time""
""fullscreenenter"",""1"",""21040""
","
","","","879.1000003814697","","","13","5940","3413","&#9784;","elianto","#FFFFF080"," "," ","1","&#10004","[1740.4000000953674]","1","0","0","","","","","","","",""
"pit-trial","10","223384","0.0-2.0-4.2-0.2","battery-v0.2","","""event"",""trial"",""time""
""fullscreenenter"",""1"",""21040""
","
","
","""event"",""trial"",""time""
""fullscreenenter"",""1"",""21040""
","
","","","736.7000002861023","","","13","5940","3413","&#9784;","elianto","#FFFFF080"," "," ","1","&#10004","[1589.5999999046326]","1","0","0","","","","","","","",""
"pit-trial","11","226963","0.0-2.0-4.3-0.3","battery-v0.2","","""event"",""trial"",""time""
""fullscreenenter"",""1"",""21040""
","
","
","""event"",""trial"",""time""
""fullscreenenter"",""1"",""21040""
","
","","","697.0999999046326","","","13","5940","3413","&#9784;","elianto","#FFFFF080"," "," ","1","&#10004","[1554.9000000953674]","1","0","0","","","","","","","",""
"pit-trial","12","230464","0.0-2.0-4.4-0.4","battery-v0.2","","""event"",""trial"",""time""
""fullscreenenter"",""1"",""21040""
","
","
","""event"",""trial"",""time""
""fullscreenenter"",""1"",""21040""
","
","","","631.7999997138977","","","13","5940","3413","&#9784;","elianto","#FFFFF080"," "," ","1","&#10004","[1482.1999998092651]","1","0","0","","","","","","","",""
"pit-instructions","13","258445","0.0-2.0-5.0","battery-v0.2","","""event"",""trial"",""time""
""fullscreenenter"",""1"",""21040""
","
","
","""event"",""trial"",""time""
""fullscreenenter"",""1"",""21040""
","
","","[{""page_index"":0,""viewing_time"":7114.900000095367},{""page_index"":1,""viewing_time"":7632.099999904633},{""page_index"":2,""viewing_time"":5485},{""page_index"":3,""viewing_time"":7743}]","27975.800000190735","","","","","","","","","","","","","","","","","","","","","","","",""
"pit-trial","14","263323","0.0-2.0-6.0-0.0","battery-v0.2","","""event"",""trial"",""time""
""fullscreenenter"",""1"",""21040""
","
","
","""event"",""trial"",""time""
""fullscreenenter"",""1"",""21040""
","
","","","-1","","","13","5940","3413","&#9854;","elianto","#FFFFF080","-1","-1","1","&#10004","[]","0","0","1","","","","","","","",""
"pit-trial","15","268223","0.0-2.0-6.1-0.1","battery-v0.2","","""event"",""trial"",""time""
""fullscreenenter"",""1"",""21040""
","
","
","""event"",""trial"",""time""
""fullscreenenter"",""1"",""21040""
","
","","","-1","","","13","5940","3413","&#9854;","elianto","#FFFFF080","-1","-1","1","&#10004","[]","0","0","1","","","","","","","",""
"pit-trial","16","273112","0.0-2.0-6.2-0.2","battery-v0.2","","""event"",""trial"",""time""
""fullscreenenter"",""1"",""21040""
","
","
","""event"",""trial"",""time""
""fullscreenenter"",""1"",""21040""
","
","","","-1","","","13","5940","3413","&#9854;","elianto","#FFFFF080","-1","-1","1","&#10004","[]","0","0","1","","","","","","","",""
"pit-trial","17","277993","0.0-2.0-6.3-0.3","battery-v0.2","","""event"",""trial"",""time""
""fullscreenenter"",""1"",""21040""
","
","
","""event"",""trial"",""time""
""fullscreenenter"",""1"",""21040""
","
","","","-1","","","13","5940","3413","&#9854;","elianto","#FFFFF080","-1","-1","1","&#10004","[]","0","0","1","","","","","","","",""
"pit-trial","18","282862","0.0-2.0-6.4-0.4","battery-v0.2","","""event"",""trial"",""time""
""fullscreenenter"",""1"",""21040""
","
","
","""event"",""trial"",""time""
""fullscreenenter"",""1"",""21040""
","
","","","-1","","","13","5940","3413","&#9854;","elianto","#FFFFF080","-1","-1","1","&#10004","[]","0","0","1","","","","","","","",""
"pit-instructions","19","528550","0.0-2.0-7.0","battery-v0.2","","""event"",""trial"",""time""
""fullscreenenter"",""1"",""21040""
","
","
","""event"",""trial"",""time""
""fullscreenenter"",""1"",""21040""
","
","","[{""page_index"":0,""viewing_time"":15186.099999904633},{""page_index"":1,""viewing_time"":11584.5},{""page_index"":2,""viewing_time"":7804.900000095367},{""page_index"":3,""viewing_time"":11105.099999904633},{""page_index"":4,""viewing_time"":12135.199999809265},{""page_index"":5,""viewing_time"":9232},{""page_index"":6,""viewing_time"":6428.400000095367},{""page_index"":7,""viewing_time"":14313.800000190735},{""page_index"":8,""viewing_time"":7022.799999713898},{""page_index"":9,""viewing_time"":5590.5},{""page_index"":10,""viewing_time"":10131},{""page_index"":11,""viewing_time"":11227.200000286102},{""page_index"":12,""viewing_time"":7488.699999809265},{""page_index"":13,""viewing_time"":66486.30000019073},{""page_index"":14,""viewing_time"":10083.099999904633},{""page_index"":15,""viewing_time"":8291.5},{""page_index"":16,""viewing_time"":6946},{""page_index"":17,""viewing_time"":24625}]","245683.09999990463","","","","","","","","","","","","","","","","","","","","","","","",""
"pit-trial","20","533424","0.0-2.0-8.0-0.0","battery-v0.2","","""event"",""trial"",""time""
""fullscreenenter"",""1"",""21040""
","
","
","""event"",""trial"",""time""
""fullscreenenter"",""1"",""21040""
","
","","","-1","","","13","5940","3413","&#9776;","elianto","#3366ff99"," ","-1","0","0","[]","0","0","1","","","","","","","",""
"pit-trial","21","538304","0.0-2.0-8.0-1.0","battery-v0.2","","""event"",""trial"",""time""
""fullscreenenter"",""1"",""21040""
","
","
","""event"",""trial"",""time""
""fullscreenenter"",""1"",""21040""
","
","","","-1","","","13","5940","3413","&#9776;","elianto","#3366ff99"," ","-1","0","0","[]","0","0","1","","","","","","","",""
"pit-trial","22","542622","0.0-2.0-8.0-2.0","battery-v0.2","","""event"",""trial"",""time""
""fullscreenenter"",""1"",""21040""
","
","
","""event"",""trial"",""time""
""fullscreenenter"",""1"",""21040""
","
","","","1452.1000003814697","","","13","5940","3413","&#9776;","elianto","#3366ff99"," "," ","1","+10","[2308]","1","0","1","","","","","","","",""
"pit-trial","23","546527","0.0-2.0-8.0-3.0","battery-v0.2","","""event"",""trial"",""time""
""fullscreenenter"",""1"",""21040""
","
","
","""event"",""trial"",""time""
""fullscreenenter"",""1"",""21040""
","
","","","1029.2999997138977","","","13","5940","3413","&#9776;","elianto","#3366ff99"," "," ","1","0","[1889.5999999046326]","1","0","1","","","","","","","",""
"pit-trial","24","551407","0.0-2.0-8.0-4.0","battery-v0.2","","""event"",""trial"",""time""
""fullscreenenter"",""1"",""21040""
","
","
","""event"",""trial"",""time""
""fullscreenenter"",""1"",""21040""
","
","","","-1","","","13","5940","3413","&#9776;","elianto","#3366ff99"," ","-1","0","0","[]","0","0","1","","","","","","","",""
"pit-trial","25","554761","0.0-2.0-8.1-0.1","battery-v0.2","","""event"",""trial"",""time""
""fullscreenenter"",""1"",""21040""
","
","
","""event"",""trial"",""time""
""fullscreenenter"",""1"",""21040""
","
","","","488.40000009536743","","","13","5940","3413","&#9776;","elianto","#3366ff99"," "," ","1","+10","[1342.8000001907349]","1","0","1","","","","","","","",""
"pit-trial","26","558022","0.0-2.0-8.1-1.1","battery-v0.2","","""event"",""trial"",""time""
""fullscreenenter"",""1"",""21040""
","
","
","""event"",""trial"",""time""
""fullscreenenter"",""1"",""21040""
","
","","","398.2000002861023","","","13","5940","3413","&#9776;","elianto","#3366ff99"," "," ","1","+10","[1249.9000000953674]","1","0","1","","","","","","","",""
"pit-trial","27","561247","0.0-2.0-8.1-2.1","battery-v0.2","","""event"",""trial"",""time""
""fullscreenenter"",""1"",""21040""
","
","
","""event"",""trial"",""time""
""fullscreenenter"",""1"",""21040""
","
","","","366.80000019073486","","","13","5940","3413","&#9776;","elianto","#3366ff99"," "," ","1","+10","[1221.2000002861023]","1","0","1","","","","","","","",""
"pit-trial","28","565149","0.0-2.0-8.1-3.1","battery-v0.2","","""event"",""trial"",""time""
""fullscreenenter"",""1"",""21040""
","
","
","""event"",""trial"",""time""
""fullscreenenter"",""1"",""21040""
","
","","","1031.9000000953674","","","13","5940","3413","&#9776;","elianto","#3366ff99"," "," ","1","0","[1890.5]","1","0","1","","","","","","","",""
"pit-trial","29","568811","0.0-2.0-8.1-4.1","battery-v0.2","","""event"",""trial"",""time""
""fullscreenenter"",""1"",""21040""
","
","
","""event"",""trial"",""time""
""fullscreenenter"",""1"",""21040""
","
","","","787.8999996185303","","","13","5940","3413","&#9776;","elianto","#3366ff99"," "," ","1","+10","[1648.5]","1","0","1","","","","","","","",""
"pit-trial","30","572357","0.0-2.0-8.2-0.2","battery-v0.2","","""event"",""trial"",""time""
""fullscreenenter"",""1"",""21040""
","
","
","""event"",""trial"",""time""
""fullscreenenter"",""1"",""21040""
","
","","","683.3000001907349","","","13","5940","3413","&#9776;","elianto","#3366ff99"," "," ","1","+10","[1534.8000001907349]","1","0","1","","","","","","","",""
"pit-trial","31","576380","0.0-2.0-8.2-1.2","battery-v0.2","","""event"",""trial"",""time""
""fullscreenenter"",""1"",""21040""
","
","
","""event"",""trial"",""time""
""fullscreenenter"",""1"",""21040""
","
","","","1155.9000000953674","","","13","5940","3413","&#9776;","elianto","#3366ff99"," "," ","1","+10","[2008.8000001907349]","1","0","1","","","","","","","",""
"pit-trial","32","579927","0.0-2.0-8.2-2.2","battery-v0.2","","""event"",""trial"",""time""
""fullscreenenter"",""1"",""21040""
","
","
","""event"",""trial"",""time""
""fullscreenenter"",""1"",""21040""
","
","","","682.6999998092651","","","13","5940","3413","&#9776;","elianto","#3366ff99"," "," ","1","+10","[1542.4000000953674]","1","0","1","","","","","","","",""
"pit-trial","33","583151","0.0-2.0-8.2-3.2","battery-v0.2","","""event"",""trial"",""time""
""fullscreenenter"",""1"",""21040""
","
","
","""event"",""trial"",""time""
""fullscreenenter"",""1"",""21040""
","
","","","357.6000003814697","","","13","5940","3413","&#9776;","elianto","#3366ff99"," "," ","1","0","[1209.8000001907349]","1","0","1","","","","","","","",""
"pit-trial","34","586439","0.0-2.0-8.2-4.2","battery-v0.2","","""event"",""trial"",""time""
""fullscreenenter"",""1"",""21040""
","
","
","""event"",""trial"",""time""
""fullscreenenter"",""1"",""21040""
","
","","","419.30000019073486","","","13","5940","3413","&#9776;","elianto","#3366ff99"," "," ","1","+10","[1275.8000001907349]","1","0","1","","","","","","","",""
"call-function","35","586442","0.0-2.0-9.0","battery-v0.2","","""event"",""trial"",""time""
""fullscreenenter"",""1"",""21040""
","
","
","""event"",""trial"",""time""
""fullscreenenter"",""1"",""21040""
","
","","","","","","","","","","","","","","","","","","","","","","","","","","",""
"pit-instructions","36","706409","0.0-2.0-10.0","battery-v0.2","","""event"",""trial"",""time""
""fullscreenenter"",""1"",""21040""
","
","
","""event"",""trial"",""time""
""fullscreenenter"",""1"",""21040""
","
","","[{""page_index"":0,""viewing_time"":43914.90000009537},{""page_index"":1,""viewing_time"":20628.599999904633},{""page_index"":2,""viewing_time"":14509.199999809265},{""page_index"":3,""viewing_time"":31246},{""page_index"":4,""viewing_time"":9665.300000190735}]","119964.7999997139","","","","","","","","","","","","","","","","","","","","","","","",""
"pit-trial","37","709956","0.0-2.0-11.0-0.0","battery-v0.2","","""event"",""trial"",""time""
""fullscreenenter"",""1"",""21040""
","
","
","""event"",""trial"",""time""
""fullscreenenter"",""1"",""21040""
","
","","","685.0999999046326","","","13","5940","3413","&#9761;","elianto","#3366ff99","-1"," ","0","0","[1536.6000003814697]","1","0","2","","","","","","","",""
"pit-trial","38","714836","0.0-2.0-11.0-1.0","battery-v0.2","","""event"",""trial"",""time""
""fullscreenenter"",""1"",""21040""
","
","
","""event"",""trial"",""time""
""fullscreenenter"",""1"",""21040""
","
","","","-1","","","13","5940","3413","&#9761;","elianto","#3366ff99","-1","-1","1","+10","[542.3999996185303]","1","0","2","","","","","","","",""
"pit-trial","39","719726","0.0-2.0-11.0-2.0","battery-v0.2","","""event"",""trial"",""time""
""fullscreenenter"",""1"",""21040""
","
","
","""event"",""trial"",""time""
""fullscreenenter"",""1"",""21040""
","
","","","-1","","","13","5940","3413","&#9761;","elianto","#3366ff99","-1","-1","1","+10","[]","0","0","2","","","","","","","",""
"pit-trial","40","724617","0.0-2.0-11.0-3.0","battery-v0.2","","""event"",""trial"",""time""
""fullscreenenter"",""1"",""21040""
","
","
","""event"",""trial"",""time""
""fullscreenenter"",""1"",""21040""
","
","","","-1","","","13","5940","3413","&#9761;","elianto","#3366ff99","-1","-1","1","0","[]","0","0","2","","","","","","","",""
"pit-trial","41","727876","0.0-2.0-11.0-4.0","battery-v0.2","","""event"",""trial"",""time""
""fullscreenenter"",""1"",""21040""
","
","
","""event"",""trial"",""time""
""fullscreenenter"",""1"",""21040""
","
","","","381.30000019073486","","","13","5940","3413","&#9761;","elianto","#3366ff99","-1"," ","0","0","[1241]","1","0","2","","","","","","","",""
"pit-trial","42","731926","0.0-2.0-11.1-0.1","battery-v0.2","","""event"",""trial"",""time""
""fullscreenenter"",""1"",""21040""
","
","
","""event"",""trial"",""time""
""fullscreenenter"",""1"",""21040""
","
","","","1184.4000000953674","","","13","5940","3413","&#9761;","elianto","#3366ff99","-1"," ","0","0","[2037.5]","1","0","2","","","","","","","",""
"pit-trial","43","736792","0.0-2.0-11.1-1.1","battery-v0.2","","""event"",""trial"",""time""
""fullscreenenter"",""1"",""21040""
","
","
","""event"",""trial"",""time""
""fullscreenenter"",""1"",""21040""
","
","","","-1","","","13","5940","3413","&#9761;","elianto","#3366ff99","-1","-1","1","+10","[]","0","0","2","","","","","","","",""
"pit-trial","44","741659","0.0-2.0-11.1-2.1","battery-v0.2","","""event"",""trial"",""time""
""fullscreenenter"",""1"",""21040""
","
","
","""event"",""trial"",""time""
""fullscreenenter"",""1"",""21040""
","
","","","-1","","","13","5940","3413","&#9761;","elianto","#3366ff99","-1","-1","1","+10","[]","0","0","2","","","","","","","",""
"pit-trial","45","746528","0.0-2.0-11.1-3.1","battery-v0.2","","""event"",""trial"",""time""
""fullscreenenter"",""1"",""21040""
","
","
","""event"",""trial"",""time""
""fullscreenenter"",""1"",""21040""
","
","","","-1","","","13","5940","3413","&#9761;","elianto","#3366ff99","-1","-1","1","0","[]","0","0","2","","","","","","","",""
"pit-trial","46","751398","0.0-2.0-11.1-4.1","battery-v0.2","","""event"",""trial"",""time""
""fullscreenenter"",""1"",""21040""
","
","
","""event"",""trial"",""time""
""fullscreenenter"",""1"",""21040""
","
","","","-1","","","13","5940","3413","&#9761;","elianto","#3366ff99","-1","-1","1","+10","[]","0","0","2","","","","","","","",""
"pit-trial","47","756269","0.0-2.0-11.2-0.2","battery-v0.2","","""event"",""trial"",""time""
""fullscreenenter"",""1"",""21040""
","
","
","""event"",""trial"",""time""
""fullscreenenter"",""1"",""21040""
","
","","","-1","","","13","5940","3413","&#9761;","elianto","#3366ff99","-1","-1","1","+10","[]","0","0","2","","","","","","","",""
"pit-trial","48","761138","0.0-2.0-11.2-1.2","battery-v0.2","","""event"",""trial"",""time""
""fullscreenenter"",""1"",""21040""
","
","
","""event"",""trial"",""time""
""fullscreenenter"",""1"",""21040""
","
","","","-1","","","13","5940","3413","&#9761;","elianto","#3366ff99","-1","-1","1","+10","[]","0","0","2","","","","","","","",""
"pit-trial","49","766010","0.0-2.0-11.2-2.2","battery-v0.2","","""event"",""trial"",""time""
""fullscreenenter"",""1"",""21040""
","
","
","""event"",""trial"",""time""
""fullscreenenter"",""1"",""21040""
","
","","","-1","","","13","5940","3413","&#9761;","elianto","#3366ff99","-1","-1","1","+10","[]","0","0","2","","","","","","","",""
"pit-trial","50","770888","0.0-2.0-11.2-3.2","battery-v0.2","","""event"",""trial"",""time""
""fullscreenenter"",""1"",""21040""
","
","
","""event"",""trial"",""time""
""fullscreenenter"",""1"",""21040""
","
","","","-1","","","13","5940","3413","&#9761;","elianto","#3366ff99","-1","-1","1","0","[]","0","0","2","","","","","","","",""
"pit-trial","51","775756","0.0-2.0-11.2-4.2","battery-v0.2","","""event"",""trial"",""time""
""fullscreenenter"",""1"",""21040""
","
","
","""event"",""trial"",""time""
""fullscreenenter"",""1"",""21040""
","
","","","-1","","","13","5940","3413","&#9761;","elianto","#3366ff99","-1","-1","1","+10","[]","0","0","2","","","","","","","",""
"pit-trial","52","780642","0.0-2.0-11.3-0.3","battery-v0.2","","""event"",""trial"",""time""
""fullscreenenter"",""1"",""21040""
","
","
","""event"",""trial"",""time""
""fullscreenenter"",""1"",""21040""
","
","","","-1","","","13","5940","3413","&#9761;","elianto","#3366ff99","-1","-1","1","+10","[]","0","0","2","","","","","","","",""
"pit-trial","53","785519","0.0-2.0-11.3-1.3","battery-v0.2","","""event"",""trial"",""time""
""fullscreenenter"",""1"",""21040""
","
","
","""event"",""trial"",""time""
""fullscreenenter"",""1"",""21040""
","
","","","-1","","","13","5940","3413","&#9761;","elianto","#3366ff99","-1","-1","1","+10","[]","0","0","2","","","","","","","",""
"pit-trial","54","790397","0.0-2.0-11.3-2.3","battery-v0.2","","""event"",""trial"",""time""
""fullscreenenter"",""1"",""21040""
","
","
","""event"",""trial"",""time""
""fullscreenenter"",""1"",""21040""
","
","","","-1","","","13","5940","3413","&#9761;","elianto","#3366ff99","-1","-1","1","+10","[]","0","0","2","","","","","","","",""
"pit-trial","55","795269","0.0-2.0-11.3-3.3","battery-v0.2","","""event"",""trial"",""time""
""fullscreenenter"",""1"",""21040""
","
","
","""event"",""trial"",""time""
""fullscreenenter"",""1"",""21040""
","
","","","-1","","","13","5940","3413","&#9761;","elianto","#3366ff99","-1","-1","1","0","[]","0","0","2","","","","","","","",""
"pit-trial","56","800141","0.0-2.0-11.3-4.3","battery-v0.2","","""event"",""trial"",""time""
""fullscreenenter"",""1"",""21040""
","
","
","""event"",""trial"",""time""
""fullscreenenter"",""1"",""21040""
","
","","","-1","","","13","5940","3413","&#9761;","elianto","#3366ff99","-1","-1","1","+10","[]","0","0","2","","","","","","","",""
"call-function","57","800143","0.0-2.0-12.0","battery-v0.2","","""event"",""trial"",""time""
""fullscreenenter"",""1"",""21040""
","
","
","""event"",""trial"",""time""
""fullscreenenter"",""1"",""21040""
","
","","","","","","","","","","","","","","","","","","","","","","","","","","",""
"pit-instructions","58","873832","0.0-2.0-13.0","battery-v0.2","","""event"",""trial"",""time""
""fullscreenenter"",""1"",""21040""
","
","
","""event"",""trial"",""time""
""fullscreenenter"",""1"",""21040""
","
","","[{""page_index"":0,""viewing_time"":8933.5},{""page_index"":1,""viewing_time"":6553.799999713898},{""page_index"":2,""viewing_time"":5903.200000286102},{""page_index"":3,""viewing_time"":15505.199999809265},{""page_index"":4,""viewing_time"":36790.800000190735}]","73687.59999990463","","","","","","","","","","","","","","","","","","","","","","","",""
"pit-trial","59","878701","0.0-2.0-14.0-0.0","battery-v0.2","","""event"",""trial"",""time""
""fullscreenenter"",""1"",""21040""
","
","
","""event"",""trial"",""time""
""fullscreenenter"",""1"",""21040""
","
","","","-1","","","13","5940","3413","&#9826;","elianto","#f73b6a7A","-1","-1","1","0","[]","0","0","3","","","","","","","",""
"pit-trial","60","882110","0.0-2.0-14.0-1.0","battery-v0.2","","""event"",""trial"",""time""
""fullscreenenter"",""1"",""21040""
","
","
","""event"",""trial"",""time""
""fullscreenenter"",""1"",""21040""
","
","","","539.3000001907349","","","13","5940","3413","&#9826;","elianto","#f73b6a7A","-1"," ","0","-10","[1396.6999998092651]","1","0","3","","","","","","","",""
"pit-trial","61","886998","0.0-2.0-14.0-2.0","battery-v0.2","","""event"",""trial"",""time""
""fullscreenenter"",""1"",""21040""
","
","
","""event"",""trial"",""time""
""fullscreenenter"",""1"",""21040""
","
","","","-1","","","13","5940","3413","&#9826;","elianto","#f73b6a7A","-1","-1","1","0","[]","0","0","3","","","","","","","",""
"pit-trial","62","891873","0.0-2.0-14.0-3.0","battery-v0.2","","""event"",""trial"",""time""
""fullscreenenter"",""1"",""21040""
","
","
","""event"",""trial"",""time""
""fullscreenenter"",""1"",""21040""
","
","","","-1","","","13","5940","3413","&#9826;","elianto","#f73b6a7A","-1","-1","1","-10","[]","0","0","3","","","","","","","",""
"pit-trial","63","896749","0.0-2.0-14.0-4.0","battery-v0.2","","""event"",""trial"",""time""
""fullscreenenter"",""1"",""21040""
","
","
","""event"",""trial"",""time""
""fullscreenenter"",""1"",""21040""
","
","","","-1","","","13","5940","3413","&#9826;","elianto","#f73b6a7A","-1","-1","1","0","[]","0","0","3","","","","","","","",""
"pit-trial","64","901617","0.0-2.0-14.1-0.1","battery-v0.2","","""event"",""trial"",""time""
""fullscreenenter"",""1"",""21040""
","
","
","""event"",""trial"",""time""
""fullscreenenter"",""1"",""21040""
","
","","","-1","","","13","5940","3413","&#9826;","elianto","#f73b6a7A","-1","-1","1","0","[]","0","0","3","","","","","","","",""
"pit-trial","65","906488","0.0-2.0-14.1-1.1","battery-v0.2","","""event"",""trial"",""time""
""fullscreenenter"",""1"",""21040""
","
","
","""event"",""trial"",""time""
""fullscreenenter"",""1"",""21040""
","
","","","-1","","","13","5940","3413","&#9826;","elianto","#f73b6a7A","-1","-1","1","0","[]","0","0","3","","","","","","","",""
"pit-trial","66","911360","0.0-2.0-14.1-2.1","battery-v0.2","","""event"",""trial"",""time""
""fullscreenenter"",""1"",""21040""
","
","
","""event"",""trial"",""time""
""fullscreenenter"",""1"",""21040""
","
","","","-1","","","13","5940","3413","&#9826;","elianto","#f73b6a7A","-1","-1","1","0","[]","0","0","3","","","","","","","",""
"pit-trial","67","915261","0.0-2.0-14.1-3.1","battery-v0.2","","""event"",""trial"",""time""
""fullscreenenter"",""1"",""21040""
","
","
","""event"",""trial"",""time""
""fullscreenenter"",""1"",""21040""
","
","","","1040.5999999046326","","","13","5940","3413","&#9826;","elianto","#f73b6a7A","-1"," ","0","0","[764.5999999046326,1890.9000000953674]","2","0","3","","","","","","","",""
"pit-trial","68","920136","0.0-2.0-14.1-4.1","battery-v0.2","","""event"",""trial"",""time""
""fullscreenenter"",""1"",""21040""
","
","
","""event"",""trial"",""time""
""fullscreenenter"",""1"",""21040""
","
","","","-1","","","13","5940","3413","&#9826;","elianto","#f73b6a7A","-1","-1","1","0","[3558.0999999046326]","1","0","3","","","","","","","",""
"pit-trial","69","925011","0.0-2.0-14.2-0.2","battery-v0.2","","""event"",""trial"",""time""
""fullscreenenter"",""1"",""21040""
","
","
","""event"",""trial"",""time""
""fullscreenenter"",""1"",""21040""
","
","","","-1","","","13","5940","3413","&#9826;","elianto","#f73b6a7A","-1","-1","1","0","[]","0","0","3","","","","","","","",""
"pit-trial","70","928329","0.0-2.0-14.2-1.2","battery-v0.2","","""event"",""trial"",""time""
""fullscreenenter"",""1"",""21040""
","
","
","""event"",""trial"",""time""
""fullscreenenter"",""1"",""21040""
","
","","","445.30000019073486","","","13","5940","3413","&#9826;","elianto","#f73b6a7A","-1"," ","0","-10","[62.40000009536743,1298.3000001907349]","2","0","3","","","","","","","",""
"pit-trial","71","933194","0.0-2.0-14.2-2.2","battery-v0.2","","""event"",""trial"",""time""
""fullscreenenter"",""1"",""21040""
","
","
","""event"",""trial"",""time""
""fullscreenenter"",""1"",""21040""
","
","","","-1","","","13","5940","3413","&#9826;","elianto","#f73b6a7A","-1","-1","1","0","[]","0","0","3","","","","","","","",""
"pit-trial","72","938058","0.0-2.0-14.2-3.2","battery-v0.2","","""event"",""trial"",""time""
""fullscreenenter"",""1"",""21040""
","
","
","""event"",""trial"",""time""
""fullscreenenter"",""1"",""21040""
","
","","","-1","","","13","5940","3413","&#9826;","elianto","#f73b6a7A","-1","-1","1","-10","[]","0","0","3","","","","","","","",""
"pit-trial","73","942920","0.0-2.0-14.2-4.2","battery-v0.2","","""event"",""trial"",""time""
""fullscreenenter"",""1"",""21040""
","
","
","""event"",""trial"",""time""
""fullscreenenter"",""1"",""21040""
","
","","","-1","","","13","5940","3413","&#9826;","elianto","#f73b6a7A","-1","-1","1","0","[]","0","0","3","","","","","","","",""
"pit-trial","74","947802","0.0-2.0-14.3-0.3","battery-v0.2","","""event"",""trial"",""time""
""fullscreenenter"",""1"",""21040""
","
","
","""event"",""trial"",""time""
""fullscreenenter"",""1"",""21040""
","
","","","-1","","","13","5940","3413","&#9826;","elianto","#f73b6a7A","-1","-1","1","0","[]","0","0","3","","","","","","","",""
"pit-trial","75","952687","0.0-2.0-14.3-1.3","battery-v0.2","","""event"",""trial"",""time""
""fullscreenenter"",""1"",""21040""
","
","
","""event"",""trial"",""time""
""fullscreenenter"",""1"",""21040""
","
","","","-1","","","13","5940","3413","&#9826;","elianto","#f73b6a7A","-1","-1","1","0","[]","0","0","3","","","","","","","",""
"pit-trial","76","957567","0.0-2.0-14.3-2.3","battery-v0.2","","""event"",""trial"",""time""
""fullscreenenter"",""1"",""21040""
","
","
","""event"",""trial"",""time""
""fullscreenenter"",""1"",""21040""
","
","","","-1","","","13","5940","3413","&#9826;","elianto","#f73b6a7A","-1","-1","1","0","[]","0","0","3","","","","","","","",""
"pit-trial","77","962432","0.0-2.0-14.3-3.3","battery-v0.2","","""event"",""trial"",""time""
""fullscreenenter"",""1"",""21040""
","
","
","""event"",""trial"",""time""
""fullscreenenter"",""1"",""21040""
","
","","","-1","","","13","5940","3413","&#9826;","elianto","#f73b6a7A","-1","-1","1","-10","[]","0","0","3","","","","","","","",""
"pit-trial","78","965311","0.0-2.0-14.3-4.3","battery-v0.2","","""event"",""trial"",""time""
""fullscreenenter"",""1"",""21040""
","
","
","""event"",""trial"",""time""
""fullscreenenter"",""1"",""21040""
","
","","","9.099999904632568","","","13","5940","3413","&#9826;","elianto","#f73b6a7A","-1"," ","0","-10","[866.1999998092651,1762]","2","0","3","","","","","","","",""
"call-function","79","965313","0.0-2.0-15.0","battery-v0.2","","""event"",""trial"",""time""
""fullscreenenter"",""1"",""21040""
","
","
","""event"",""trial"",""time""
""fullscreenenter"",""1"",""21040""
","
","","","","","","","","","","","","","","","","","","","","","","","","","","",""
"pit-instructions","80","1002917","0.0-2.0-16.0","battery-v0.2","","""event"",""trial"",""time""
""fullscreenenter"",""1"",""21040""
","
","
","""event"",""trial"",""time""
""fullscreenenter"",""1"",""21040""
","
","","[{""page_index"":0,""viewing_time"":16861.799999713898},{""page_index"":1,""viewing_time"":8200.700000286102},{""page_index"":2,""viewing_time"":6915.799999713898},{""page_index"":3,""viewing_time"":5623.60000038147}]","37602.90000009537","","","","","","","","","","","","","","","","","","","","","","","",""
"pit-trial","81","1007788","0.0-2.0-17.0-0.0","battery-v0.2","","""event"",""trial"",""time""
""fullscreenenter"",""1"",""21040""
","
","
","""event"",""trial"",""time""
""fullscreenenter"",""1"",""21040""
","
","","","-1","","","13","5940","3413","&#9789;","elianto","#f73b6a7A"," ","-1","0","-10","[]","0","0","4","","","","","","","",""
"pit-trial","82","1012678","0.0-2.0-17.0-1.0","battery-v0.2","","""event"",""trial"",""time""
""fullscreenenter"",""1"",""21040""
","
","
","""event"",""trial"",""time""
""fullscreenenter"",""1"",""21040""
","
","","","-1","","","13","5940","3413","&#9789;","elianto","#f73b6a7A"," ","-1","0","-10","[]","0","0","4","","","","","","","",""
"pit-trial","83","1017557","0.0-2.0-17.0-2.0","battery-v0.2","","""event"",""trial"",""time""
""fullscreenenter"",""1"",""21040""
","
","
","""event"",""trial"",""time""
""fullscreenenter"",""1"",""21040""
","
","","","-1","","","13","5940","3413","&#9789;","elianto","#f73b6a7A"," ","-1","0","-10","[]","0","0","4","","","","","","","",""
"pit-trial","84","1022437","0.0-2.0-17.0-3.0","battery-v0.2","","""event"",""trial"",""time""
""fullscreenenter"",""1"",""21040""
","
","
","""event"",""trial"",""time""
""fullscreenenter"",""1"",""21040""
","
","","","-1","","","13","5940","3413","&#9789;","elianto","#f73b6a7A"," ","-1","0","0","[]","0","0","4","","","","","","","",""
"pit-trial","85","1027328","0.0-2.0-17.0-4.0","battery-v0.2","","""event"",""trial"",""time""
""fullscreenenter"",""1"",""21040""
","
","
","""event"",""trial"",""time""
""fullscreenenter"",""1"",""21040""
","
","","","-1","","","13","5940","3413","&#9789;","elianto","#f73b6a7A"," ","-1","0","-10","[]","0","0","4","","","","","","","",""
"pit-trial","86","1032218","0.0-2.0-17.1-0.1","battery-v0.2","","""event"",""trial"",""time""
""fullscreenenter"",""1"",""21040""
","
","
","""event"",""trial"",""time""
""fullscreenenter"",""1"",""21040""
","
","","","-1","","","13","5940","3413","&#9789;","elianto","#f73b6a7A"," ","-1","0","-10","[]","0","0","4","","","","","","","",""
"pit-trial","87","1037090","0.0-2.0-17.1-1.1","battery-v0.2","","""event"",""trial"",""time""
""fullscreenenter"",""1"",""21040""
","
","
","""event"",""trial"",""time""
""fullscreenenter"",""1"",""21040""
","
","","","-1","","","13","5940","3413","&#9789;","elianto","#f73b6a7A"," ","-1","0","-10","[]","0","0","4","","","","","","","",""
"pit-trial","88","1040542","0.0-2.0-17.1-2.1","battery-v0.2","","""event"",""trial"",""time""
""fullscreenenter"",""1"",""21040""
","
","
","""event"",""trial"",""time""
""fullscreenenter"",""1"",""21040""
","
","","","584.3000001907349","","","13","5940","3413","&#9789;","elianto","#f73b6a7A"," "," ","1","0","[1437.5]","1","0","4","","","","","","","",""
"pit-trial","89","1043740","0.0-2.0-17.1-3.1","battery-v0.2","","""event"",""trial"",""time""
""fullscreenenter"",""1"",""21040""
","
","
","""event"",""trial"",""time""
""fullscreenenter"",""1"",""21040""
","
","","","333.90000009536743","","","13","5940","3413","&#9789;","elianto","#f73b6a7A"," "," ","1","-10","[1184.5999999046326]","1","0","4","","","","","","","",""
"pit-trial","90","1046944","0.0-2.0-17.1-4.1","battery-v0.2","","""event"",""trial"",""time""
""fullscreenenter"",""1"",""21040""
","
","
","""event"",""trial"",""time""
""fullscreenenter"",""1"",""21040""
","
","","","345.40000009536743","","","13","5940","3413","&#9789;","elianto","#f73b6a7A"," "," ","1","0","[1198.2000002861023]","1","0","4","","","","","","","",""
"pit-trial","91","1050364","0.0-2.0-17.2-0.2","battery-v0.2","","""event"",""trial"",""time""
""fullscreenenter"",""1"",""21040""
","
","
","""event"",""trial"",""time""
""fullscreenenter"",""1"",""21040""
","
","","","557","","","13","5940","3413","&#9789;","elianto","#f73b6a7A"," "," ","1","0","[1409.9000000953674]","1","0","4","","","","","","","",""
"pit-trial","92","1053570","0.0-2.0-17.2-1.2","battery-v0.2","","""event"",""trial"",""time""
""fullscreenenter"",""1"",""21040""
","
","
","""event"",""trial"",""time""
""fullscreenenter"",""1"",""21040""
","
","","","337.40000009536743","","","13","5940","3413","&#9789;","elianto","#f73b6a7A"," "," ","1","0","[1187.5999999046326]","1","0","4","","","","","","","",""
"pit-trial","93","1056897","0.0-2.0-17.2-2.2","battery-v0.2","","""event"",""trial"",""time""
""fullscreenenter"",""1"",""21040""
","
","
","""event"",""trial"",""time""
""fullscreenenter"",""1"",""21040""
","
","","","464.7000002861023","","","13","5940","3413","&#9789;","elianto","#f73b6a7A"," "," ","1","0","[1318.7000002861023]","1","0","4","","","","","","","",""
"pit-trial","94","1061763","0.0-2.0-17.2-3.2","battery-v0.2","","""event"",""trial"",""time""
""fullscreenenter"",""1"",""21040""
","
","
","""event"",""trial"",""time""
""fullscreenenter"",""1"",""21040""
","
","","","-1","","","13","5940","3413","&#9789;","elianto","#f73b6a7A"," ","-1","0","0","[818.5999999046326,4128.5]","2","0","4","","","","","","","",""
"pit-trial","95","1064715","0.0-2.0-17.2-4.2","battery-v0.2","","""event"",""trial"",""time""
""fullscreenenter"",""1"",""21040""
","
","
","""event"",""trial"",""time""
""fullscreenenter"",""1"",""21040""
","
","","","85.89999961853027","","","13","5940","3413","&#9789;","elianto","#f73b6a7A"," "," ","1","0","[936.1999998092651]","1","0","4","","","","","","","",""
"pit-trial","96","1067995","0.0-2.0-17.3-0.3","battery-v0.2","","""event"",""trial"",""time""
""fullscreenenter"",""1"",""21040""
","
","
","""event"",""trial"",""time""
""fullscreenenter"",""1"",""21040""
","
","","","402.09999990463257","","","13","5940","3413","&#9789;","elianto","#f73b6a7A"," "," ","1","0","[1262.4000000953674]","1","0","4","","","","","","","",""
"pit-trial","97","1071405","0.0-2.0-17.3-1.3","battery-v0.2","","""event"",""trial"",""time""
""fullscreenenter"",""1"",""21040""
","
","
","""event"",""trial"",""time""
""fullscreenenter"",""1"",""21040""
","
","","","548","","","13","5940","3413","&#9789;","elianto","#f73b6a7A"," "," ","1","0","[1399.9000000953674]","1","0","4","","","","","","","",""
"pit-trial","98","1074767","0.0-2.0-17.3-2.3","battery-v0.2","","""event"",""trial"",""time""
""fullscreenenter"",""1"",""21040""
","
","
","""event"",""trial"",""time""
""fullscreenenter"",""1"",""21040""
","
","","","492.3999996185303","","","13","5940","3413","&#9789;","elianto","#f73b6a7A"," "," ","1","0","[1347,2397.2000002861023]","2","0","4","","","","","","","",""
"pit-trial","99","1079345","0.0-2.0-17.3-3.3","battery-v0.2","","""event"",""trial"",""time""
""fullscreenenter"",""1"",""21040""
","
","
","""event"",""trial"",""time""
""fullscreenenter"",""1"",""21040""
","
","","","1710.6999998092651","","","13","5940","3413","&#9789;","elianto","#f73b6a7A"," "," ","1","-10","[2569.800000190735]","1","0","4","","","","","","","",""
"pit-trial","100","1083182","0.0-2.0-17.3-4.3","battery-v0.2","","""event"",""trial"",""time""
""fullscreenenter"",""1"",""21040""
","
","
","""event"",""trial"",""time""
""fullscreenenter"",""1"",""21040""
","
","","","973.5","","","13","5940","3413","&#9789;","elianto","#f73b6a7A"," "," ","1","0","[629.9000000953674,1824.5]","2","0","4","","","","","","","",""
"call-function","101","1083185","0.0-2.0-18.0","battery-v0.2","","""event"",""trial"",""time""
""fullscreenenter"",""1"",""21040""
","
","
","""event"",""trial"",""time""
""fullscreenenter"",""1"",""21040""
","
","","","","","","","","","","","","","","","","","","","","","","","","","","",""
"pit-instructions","102","1415981","0.0-2.0-19.0","battery-v0.2","","""event"",""trial"",""time""
""fullscreenenter"",""1"",""21040""
","
","
","""event"",""trial"",""time""
""fullscreenenter"",""1"",""21040""
","
","","[{""page_index"":0,""viewing_time"":15742},{""page_index"":1,""viewing_time"":30533.699999809265},{""page_index"":2,""viewing_time"":250525},{""page_index"":3,""viewing_time"":4129.5},{""page_index"":4,""viewing_time"":8421.800000190735},{""page_index"":5,""viewing_time"":9069.799999713898},{""page_index"":6,""viewing_time"":4438.400000095367},{""page_index"":7,""viewing_time"":5098.300000190735},{""page_index"":8,""viewing_time"":4835.599999904633}]","332794.90000009537","","","","","","","","","","","","","","","","","","","","","","","",""
"pit-comprehension","103","1420619","0.0-2.0-20.0-0.0","battery-v0.2","","""event"",""trial"",""time""
""fullscreenenter"",""1"",""21040""
","
","
","""event"",""trial"",""time""
""fullscreenenter"",""1"",""21040""
","
","","","4630.800000190735","[""SPACE""]","0","13","5940","3413","","","","","","","","","","","","","","","","","","",""
"pit-instructions","104","1423311","0.0-2.0-20.0-1.0","battery-v0.2","","""event"",""trial"",""time""
""fullscreenenter"",""1"",""21040""
","
","
","""event"",""trial"",""time""
""fullscreenenter"",""1"",""21040""
","
","","[{""page_index"":0,""viewing_time"":2588.199999809265}]","2588.800000190735","","","","","","","","","","","","","","","","","","","","","","","",""
"pit-comprehension","105","1429395","0.0-2.0-21.0-0.0","battery-v0.2","","""event"",""trial"",""time""
""fullscreenenter"",""1"",""21040""
","
","
","""event"",""trial"",""time""
""fullscreenenter"",""1"",""21040""
","
","","","6079.099999904633","[""0""]","1","13","5940","3413","","","","","","","","","","","","","","","","","","",""
"pit-instructions","106","1432010","0.0-2.0-21.0-1.0","battery-v0.2","","""event"",""trial"",""time""
""fullscreenenter"",""1"",""21040""
","
","
","""event"",""trial"",""time""
""fullscreenenter"",""1"",""21040""
","
","","[{""page_index"":0,""viewing_time"":2548.5999999046326}]","2549","","","","","","","","","","","","","","","","","","","","","","","",""
"pit-instructions","107","1432989","0.0-2.0-21.0-2.0-0.0","battery-v0.2","","""event"",""trial"",""time""
""fullscreenenter"",""1"",""21040""
","
","
","""event"",""trial"",""time""
""fullscreenenter"",""1"",""21040""
","
","","[{""page_index"":0,""viewing_time"":976.6999998092651}]","977","","","","","","","","","","","","","","","","","","","","","","","",""
"pit-comprehension","108","1437059","0.0-2.0-21.1-0.1","battery-v0.2","","""event"",""trial"",""time""
""fullscreenenter"",""1"",""21040""
","
","
","""event"",""trial"",""time""
""fullscreenenter"",""1"",""21040""
","
","","","4067.0999999046326","[""10""]","0","13","5940","3413","","","","","","","","","","","","","","","","","","",""
"pit-instructions","109","1438399","0.0-2.0-21.1-1.1","battery-v0.2","","""event"",""trial"",""time""
""fullscreenenter"",""1"",""21040""
","
","
","""event"",""trial"",""time""
""fullscreenenter"",""1"",""21040""
","
","","[{""page_index"":0,""viewing_time"":1273.9000000953674}]","1274.4000000953674","","","","","","","","","","","","","","","","","","","","","","","",""
"pit-comprehension","110","1445113","0.0-2.0-22.0-0.0","battery-v0.2","","""event"",""trial"",""time""
""fullscreenenter"",""1"",""21040""
","
","
","""event"",""trial"",""time""
""fullscreenenter"",""1"",""21040""
","
","","","6708.199999809265","[""0""]","0","13","5940","3413","","","","","","","","","","","","","","","","","","",""
"pit-instructions","111","1446800","0.0-2.0-22.0-1.0","battery-v0.2","","""event"",""trial"",""time""
""fullscreenenter"",""1"",""21040""
","
","
","""event"",""trial"",""time""
""fullscreenenter"",""1"",""21040""
","
","","[{""page_index"":0,""viewing_time"":1606.8000001907349}]","1607.0999999046326","","","","","","","","","","","","","","","","","","","","","","","",""
"pit-comprehension","112","1455424","0.0-2.0-23.0-0.0","battery-v0.2","","""event"",""trial"",""time""
""fullscreenenter"",""1"",""21040""
","
","
","""event"",""trial"",""time""
""fullscreenenter"",""1"",""21040""
","
","","","8621.400000095367","[""True""]","0","13","5940","3413","","","","","","","","","","","","","","","","","","",""
"pit-instructions","113","1456937","0.0-2.0-23.0-1.0","battery-v0.2","","""event"",""trial"",""time""
""fullscreenenter"",""1"",""21040""
","
","
","""event"",""trial"",""time""
""fullscreenenter"",""1"",""21040""
","
","","[{""page_index"":0,""viewing_time"":1457.5}]","1457.6999998092651","","","","","","","","","","","","","","","","","","","","","","","",""
"pit-comprehension","114","1464452","0.0-2.0-24.0-0.0","battery-v0.2","","""event"",""trial"",""time""
""fullscreenenter"",""1"",""21040""
","
","
","""event"",""trial"",""time""
""fullscreenenter"",""1"",""21040""
","
","","","7513.800000190735","[""True""]","0","13","5940","3413","","","","","","","","","","","","","","","","","","",""
"pit-instructions","115","1469125","0.0-2.0-24.0-1.0","battery-v0.2","","""event"",""trial"",""time""
""fullscreenenter"",""1"",""21040""
","
","
","""event"",""trial"",""time""
""fullscreenenter"",""1"",""21040""
","
","","[{""page_index"":0,""viewing_time"":4644}]","4644.60000038147","","","","","","","","","","","","","","","","","","","","","","","",""
"pit-comprehension","116","1476139","0.0-2.0-25.0-0.0","battery-v0.2","","""event"",""trial"",""time""
""fullscreenenter"",""1"",""21040""
","
","
","""event"",""trial"",""time""
""fullscreenenter"",""1"",""21040""
","
","","","7009","[""True""]","0","13","5940","3413","","","","","","","","","","","","","","","","","","",""
"pit-instructions","117","1481562","0.0-2.0-25.0-1.0","battery-v0.2","","""event"",""trial"",""time""
""fullscreenenter"",""1"",""21040""
","
","
","""event"",""trial"",""time""
""fullscreenenter"",""1"",""21040""
","
","","[{""page_index"":0,""viewing_time"":5347.400000095367}]","5347.800000190735","","","","","","","","","","","","","","","","","","","","","","","",""
"pit-comprehension","118","1487260","0.0-2.0-26.0-0.0","battery-v0.2","","""event"",""trial"",""time""
""fullscreenenter"",""1"",""21040""
","
","
","""event"",""trial"",""time""
""fullscreenenter"",""1"",""21040""
","
","","","5694.900000095367","[""True""]","1","13","5940","3413","","","","","","","","","","","","","","","","","","",""
"pit-instructions","119","1488881","0.0-2.0-26.0-1.0","battery-v0.2","","""event"",""trial"",""time""
""fullscreenenter"",""1"",""21040""
","
","
","""event"",""trial"",""time""
""fullscreenenter"",""1"",""21040""
","
","","[{""page_index"":0,""viewing_time"":1553.7999997138977}]","1554.2999997138977","","","","","","","","","","","","","","","","","","","","","","","",""
"pit-instructions","120","1489950","0.0-2.0-26.0-2.0-0.0","battery-v0.2","","""event"",""trial"",""time""
""fullscreenenter"",""1"",""21040""
","
","
","""event"",""trial"",""time""
""fullscreenenter"",""1"",""21040""
","
","","[{""page_index"":0,""viewing_time"":1065.7999997138977}]","1066.4000000953674","","","","","","","","","","","","","","","","","","","","","","","",""
"pit-comprehension","121","1497234","0.0-2.0-26.1-0.1","battery-v0.2","","""event"",""trial"",""time""
""fullscreenenter"",""1"",""21040""
","
","
","""event"",""trial"",""time""
""fullscreenenter"",""1"",""21040""
","
","","","7279.799999713898","[""False""]","0","13","5940","3413","","","","","","","","","","","","","","","","","","",""
"pit-instructions","122","1670338","0.0-2.0-26.1-1.1","battery-v0.2","","""event"",""trial"",""time""
""fullscreenenter"",""1"",""21040""
","
","
","""event"",""trial"",""time""
""fullscreenenter"",""1"",""21040""
","
","","[{""page_index"":0,""viewing_time"":172994.69999980927}]","172995.39999961853","","","","","","","","","","","","","","","","","","","","","","","",""
"pit-instructions","123","1704415","0.0-3.0","battery-v0.2","","""event"",""trial"",""time""
""fullscreenenter"",""1"",""21040""
","
","
","""event"",""trial"",""time""
""fullscreenenter"",""1"",""21040""
","
","","[{""page_index"":0,""viewing_time"":15089.300000190735},{""page_index"":1,""viewing_time"":5769.5},{""page_index"":2,""viewing_time"":13214.299999713898}]","34073.5","","","","","","","","","","","","","","","","","","","","","","","",""
"pit-trial","124","1709300","0.0-4.0","battery-v0.2","","""event"",""trial"",""time""
""fullscreenenter"",""1"",""21040""
","
","
","""event"",""trial"",""time""
""fullscreenenter"",""1"",""21040""
","
","","","-1","","","13","5940","3413","&#9728;","elianto","#f73b6a7A","-1","-1","1","0","[]","0","1","","","5940","1","0","4","lose","no-go","0"
"pit-trial","125","1712649","0.0-5.0","battery-v0.2","","""event"",""trial"",""time""
""fullscreenenter"",""1"",""21040""
","
","
","""event"",""trial"",""time""
""fullscreenenter"",""1"",""21040""
","
","","","472.7000002861023","","","13","5940","3413","&#9733;","elianto","#3366ff99","-1"," ","0","0","[1331.3000001907349]","1","1","","","5940","2","2","2","win","no-go","0"
"pit-trial","126","1716519","0.0-6.0","battery-v0.2","","""event"",""trial"",""time""
""fullscreenenter"",""1"",""21040""
","
","
","""event"",""trial"",""time""
""fullscreenenter"",""1"",""21040""
","
","","","996.9000000953674","","","13","5940","3413","&#9752;","elianto","#f73b6a7A"," "," ","1","-10","[1857.5]","1","1","","","5940","3","3","3","lose","go","1"
"pit-trial","127","1720079","0.0-7.0","battery-v0.2","","""event"",""trial"",""time""
""fullscreenenter"",""1"",""21040""
","
","
","""event"",""trial"",""time""
""fullscreenenter"",""1"",""21040""
","
","","","677.2000002861023","","","13","5940","3413","&#9730;","elianto","#3366ff99"," "," ","1","0","[1534]","1","1","","","5940","4","1","1","win","go","1"
"pit-trial","128","1724960","0.0-8.0","battery-v0.2","","""event"",""trial"",""time""
""fullscreenenter"",""1"",""21040""
","
","
","""event"",""trial"",""time""
""fullscreenenter"",""1"",""21040""
","
","","","-1","","","13","5940","3413","&#9752;","elianto","#f73b6a7A"," ","-1","0","-10","[]","0","1","","","5940","5","3","3","lose","go","0"
"pit-trial","129","1728340","0.0-9.0","battery-v0.2","","""event"",""trial"",""time""
""fullscreenenter"",""1"",""21040""
","
","
","""event"",""trial"",""time""
""fullscreenenter"",""1"",""21040""
","
","","","510.80000019073486","","","13","5940","3413","&#9733;","elianto","#3366ff99","-1"," ","0","0","[1362.9000000953674]","1","1","","","5940","6","2","2","win","no-go","0"
"pit-trial","130","1731723","0.0-10.0","battery-v0.2","","""event"",""trial"",""time""
""fullscreenenter"",""1"",""21040""
","
","
","""event"",""trial"",""time""
""fullscreenenter"",""1"",""21040""
","
","","","522.1999998092651","","","13","5940","3413","&#9730;","elianto","#3366ff99"," "," ","1","+10","[1374.6999998092651]","1","1","","","5940","7","1","1","win","go","0"
"pit-trial","131","1736597","0.0-11.0","battery-v0.2","","""event"",""trial"",""time""
""fullscreenenter"",""1"",""21040""
","
","
","""event"",""trial"",""time""
""fullscreenenter"",""1"",""21040""
","
","","","-1","","","13","5940","3413","&#9728;","elianto","#f73b6a7A","-1","-1","1","0","[]","0","1","","","5940","8","0","4","lose","no-go","0"
"pit-trial","132","1741472","0.0-12.0","battery-v0.2","","""event"",""trial"",""time""
""fullscreenenter"",""1"",""21040""
","
","
","""event"",""trial"",""time""
""fullscreenenter"",""1"",""21040""
","
","","","-1","","","13","5940","3413","&#9728;","elianto","#f73b6a7A","-1","-1","1","-10","[]","0","1","","","5940","9","0","4","lose","no-go","1"
"pit-trial","133","1745245","0.0-13.0","battery-v0.2","","""event"",""trial"",""time""
""fullscreenenter"",""1"",""21040""
","
","
","""event"",""trial"",""time""
""fullscreenenter"",""1"",""21040""
","
","","","903.1999998092651","","","13","5940","3413","&#9733;","elianto","#3366ff99","-1"," ","0","0","[1757.1999998092651]","1","1","","","5940","10","2","2","win","no-go","0"
"pit-trial","134","1750128","0.0-14.0","battery-v0.2","","""event"",""trial"",""time""
""fullscreenenter"",""1"",""21040""
","
","
","""event"",""trial"",""time""
""fullscreenenter"",""1"",""21040""
","
","","","-1","","","13","5940","3413","&#9752;","elianto","#f73b6a7A"," ","-1","0","-10","[]","0","1","","","5940","11","3","3","lose","go","0"
"pit-trial","135","1754299","0.0-15.0","battery-v0.2","","""event"",""trial"",""time""
""fullscreenenter"",""1"",""21040""
","
","
","""event"",""trial"",""time""
""fullscreenenter"",""1"",""21040""
","
","","","1305.5","","","13","5940","3413","&#9730;","elianto","#3366ff99"," "," ","1","+10","[2156.699999809265]","1","1","","","5940","12","1","1","win","go","0"
"pit-trial","136","1759176","0.0-16.0","battery-v0.2","","""event"",""trial"",""time""
""fullscreenenter"",""1"",""21040""
","
","
","""event"",""trial"",""time""
""fullscreenenter"",""1"",""21040""
","
","","","-1","","","13","5940","3413","&#9728;","elianto","#f73b6a7A","-1","-1","1","0","[]","0","1","","","5940","13","0","4","lose","no-go","0"
"pit-trial","137","1763425","0.0-17.0","battery-v0.2","","""event"",""trial"",""time""
""fullscreenenter"",""1"",""21040""
","
","
","""event"",""trial"",""time""
""fullscreenenter"",""1"",""21040""
","
","","","1383.5999999046326","","","13","5940","3413","&#9733;","elianto","#3366ff99","-1"," ","0","0","[2236.0999999046326]","1","1","","","5940","14","2","2","win","no-go","0"
"pit-trial","138","1768291","0.0-18.0","battery-v0.2","","""event"",""trial"",""time""
""fullscreenenter"",""1"",""21040""
","
","
","""event"",""trial"",""time""
""fullscreenenter"",""1"",""21040""
","
","","","-1","","","13","5940","3413","&#9752;","elianto","#f73b6a7A"," ","-1","0","-10","[]","0","1","","","5940","15","3","3","lose","go","0"
"pit-trial","139","1771673","0.0-19.0","battery-v0.2","","""event"",""trial"",""time""
""fullscreenenter"",""1"",""21040""
","
","
","""event"",""trial"",""time""
""fullscreenenter"",""1"",""21040""
","
","","","520.9000000953674","","","13","5940","3413","&#9730;","elianto","#3366ff99"," "," ","1","+10","[1371.1999998092651]","1","1","","","5940","16","1","1","win","go","0"
"pit-trial","140","1776551","0.0-20.0","battery-v0.2","","""event"",""trial"",""time""
""fullscreenenter"",""1"",""21040""
","
","
","""event"",""trial"",""time""
""fullscreenenter"",""1"",""21040""
","
","","","-1","","","13","5940","3413","&#9733;","elianto","#3366ff99","-1","-1","1","0","[3622.199999809265]","1","1","","","5940","17","2","2","win","no-go","1"
"pit-trial","141","1781430","0.0-21.0","battery-v0.2","","""event"",""trial"",""time""
""fullscreenenter"",""1"",""21040""
","
","
","""event"",""trial"",""time""
""fullscreenenter"",""1"",""21040""
","
","","","-1","","","13","5940","3413","&#9752;","elianto","#f73b6a7A"," ","-1","0","-10","[]","0","1","","","5940","18","3","3","lose","go","0"
"pit-trial","142","1784821","0.0-22.0","battery-v0.2","","""event"",""trial"",""time""
""fullscreenenter"",""1"",""21040""
","
","
","""event"",""trial"",""time""
""fullscreenenter"",""1"",""21040""
","
","","","519.2999997138977","","","13","5940","3413","&#9730;","elianto","#3366ff99"," "," ","1","+10","[1380.6999998092651]","1","1","","","5940","19","1","1","win","go","0"
"pit-trial","143","1789703","0.0-23.0","battery-v0.2","","""event"",""trial"",""time""
""fullscreenenter"",""1"",""21040""
","
","
","""event"",""trial"",""time""
""fullscreenenter"",""1"",""21040""
","
","","","-1","","","13","5940","3413","&#9728;","elianto","#f73b6a7A","-1","-1","1","0","[]","0","1","","","5940","20","0","4","lose","no-go","0"
"pit-instructions","144","1984553","0.0-24.0","battery-v0.2","","""event"",""trial"",""time""
""fullscreenenter"",""1"",""21040""
","
","
","""event"",""trial"",""time""
""fullscreenenter"",""1"",""21040""
","
","","[{""page_index"":0,""viewing_time"":187510.90000009537},{""page_index"":1,""viewing_time"":7336.300000190735}]","194847.90000009537","","","","","","","","","","","","","","","","","","","","","","","",""
"pit-trial","145","1989430","0.0-25.0","battery-v0.2","","""event"",""trial"",""time""
""fullscreenenter"",""1"",""21040""
","
","
","""event"",""trial"",""time""
""fullscreenenter"",""1"",""21040""
","
","","","-1","","","13","5940","3413","b","elianto","#f73b6a7A","-1","-1","1","0","[]","0","2","","","5940","21","3","4","lose","no-go","0"
"pit-trial","146","1992819","0.0-26.0","battery-v0.2","","""event"",""trial"",""time""
""fullscreenenter"",""1"",""21040""
","
","
","""event"",""trial"",""time""
""fullscreenenter"",""1"",""21040""
","
","","","525.0999999046326","","","13","5940","3413","f","elianto","#3366ff99","-1"," ","0","+10","[1376]","1","2","","","5940","22","1","2","win","no-go","1"
"pit-trial","147","1997449","0.0-27.0","battery-v0.2","","""event"",""trial"",""time""
""fullscreenenter"",""1"",""21040""
","
","
","""event"",""trial"",""time""
""fullscreenenter"",""1"",""21040""
","
","","","1745.3000001907349","","","13","5940","3413","t","elianto","#f73b6a7A"," "," ","1","0","[2602]","1","2","","","5940","23","2","3","lose","go","0"
"pit-trial","148","2002327","0.0-28.0","battery-v0.2","","""event"",""trial"",""time""
""fullscreenenter"",""1"",""21040""
","
","
","""event"",""trial"",""time""
""fullscreenenter"",""1"",""21040""
","
","","","-1","","","13","5940","3413","n","elianto","#f73b6a7A"," ","-1","0","-10","[]","0","2","","","5940","24","0","3","lose","go","0"
"pit-trial","149","2007194","0.0-29.0","battery-v0.2","","""event"",""trial"",""time""
""fullscreenenter"",""1"",""21040""
","
","
","""event"",""trial"",""time""
""fullscreenenter"",""1"",""21040""
","
","","","-1","","","13","5940","3413","n","elianto","#f73b6a7A"," ","-1","0","-10","[]","0","2","","","5940","25","0","3","lose","go","0"
"pit-trial","150","2012079","0.0-30.0","battery-v0.2","","""event"",""trial"",""time""
""fullscreenenter"",""1"",""21040""
","
","
","""event"",""trial"",""time""
""fullscreenenter"",""1"",""21040""
","
","","","-1","","","13","5940","3413","b","elianto","#f73b6a7A","-1","-1","1","0","[]","0","2","","","5940","26","3","4","lose","no-go","0"
"pit-trial","151","2015629","0.0-31.0","battery-v0.2","","""event"",""trial"",""time""
""fullscreenenter"",""1"",""21040""
","
","
","""event"",""trial"",""time""
""fullscreenenter"",""1"",""21040""
","
","","","694","","","13","5940","3413","f","elianto","#3366ff99","-1"," ","0","0","[1544.2999997138977]","1","2","","","5940","27","1","2","win","no-go","0"
"pit-trial","152","2020498","0.0-32.0","battery-v0.2","","""event"",""trial"",""time""
""fullscreenenter"",""1"",""21040""
","
","
","""event"",""trial"",""time""
""fullscreenenter"",""1"",""21040""
","
","","","-1","","","13","5940","3413","t","elianto","#f73b6a7A"," ","-1","0","-10","[]","0","2","","","5940","28","2","3","lose","go","0"
"pit-trial","153","2025367","0.0-33.0","battery-v0.2","","""event"",""trial"",""time""
""fullscreenenter"",""1"",""21040""
","
","
","""event"",""trial"",""time""
""fullscreenenter"",""1"",""21040""
","
","","","-1","","","13","5940","3413","f","elianto","#3366ff99","-1","-1","1","+10","[3270.199999809265]","1","2","","","5940","29","1","2","win","no-go","0"
"pit-trial","154","2030241","0.0-34.0","battery-v0.2","","""event"",""trial"",""time""
""fullscreenenter"",""1"",""21040""
","
","
","""event"",""trial"",""time""
""fullscreenenter"",""1"",""21040""
","
","","","-1","","","13","5940","3413","b","elianto","#f73b6a7A","-1","-1","1","0","[]","0","2","","","5940","30","3","4","lose","no-go","0"
"pit-trial","155","2035122","0.0-35.0","battery-v0.2","","""event"",""trial"",""time""
""fullscreenenter"",""1"",""21040""
","
","
","""event"",""trial"",""time""
""fullscreenenter"",""1"",""21040""
","
","","","-1","","","13","5940","3413","n","elianto","#f73b6a7A"," ","-1","0","-10","[]","0","2","","","5940","31","0","3","lose","go","0"
"pit-trial","156","2040000","0.0-36.0","battery-v0.2","","""event"",""trial"",""time""
""fullscreenenter"",""1"",""21040""
","
","
","""event"",""trial"",""time""
""fullscreenenter"",""1"",""21040""
","
","","","-1","","","13","5940","3413","t","elianto","#f73b6a7A"," ","-1","0","-10","[]","0","2","","","5940","32","2","3","lose","go","0"
"pit-trial","157","2044876","0.0-37.0","battery-v0.2","","""event"",""trial"",""time""
""fullscreenenter"",""1"",""21040""
","
","
","""event"",""trial"",""time""
""fullscreenenter"",""1"",""21040""
","
","","","-1","","","13","5940","3413","t","elianto","#f73b6a7A"," ","-1","0","-10","[]","0","2","","","5940","33","2","3","lose","go","0"
"pit-trial","158","2049763","0.0-38.0","battery-v0.2","","""event"",""trial"",""time""
""fullscreenenter"",""1"",""21040""
","
","
","""event"",""trial"",""time""
""fullscreenenter"",""1"",""21040""
","
","","","-1","","","13","5940","3413","n","elianto","#f73b6a7A"," ","-1","0","0","[]","0","2","","","5940","34","0","3","lose","go","1"
"pit-trial","159","2053208","0.0-39.0","battery-v0.2","","""event"",""trial"",""time""
""fullscreenenter"",""1"",""21040""
","
","
","""event"",""trial"",""time""
""fullscreenenter"",""1"",""21040""
","
","","","575.4000000953674","","","13","5940","3413","f","elianto","#3366ff99","-1"," ","0","+10","[1426.2999997138977]","1","2","","","5940","35","1","2","win","no-go","1"
"pit-trial","160","2058081","0.0-40.0","battery-v0.2","","""event"",""trial"",""time""
""fullscreenenter"",""1"",""21040""
","
","
","""event"",""trial"",""time""
""fullscreenenter"",""1"",""21040""
","
","","","-1","","","13","5940","3413","b","elianto","#f73b6a7A","-1","-1","1","0","[]","0","2","","","5940","36","3","4","lose","no-go","0"
"pit-trial","161","2062947","0.0-41.0","battery-v0.2","","""event"",""trial"",""time""
""fullscreenenter"",""1"",""21040""
","
","
","""event"",""trial"",""time""
""fullscreenenter"",""1"",""21040""
","
","","","-1","","","13","5940","3413","t","elianto","#f73b6a7A"," ","-1","0","0","[]","0","2","","","5940","37","2","3","lose","go","1"
"pit-trial","162","2067828","0.0-42.0","battery-v0.2","","""event"",""trial"",""time""
""fullscreenenter"",""1"",""21040""
","
","
","""event"",""trial"",""time""
""fullscreenenter"",""1"",""21040""
","
","","","-1","","","13","5940","3413","b","elianto","#f73b6a7A","-1","-1","1","-10","[]","0","2","","","5940","38","3","4","lose","no-go","1"
"pit-trial","163","2071292","0.0-43.0","battery-v0.2","","""event"",""trial"",""time""
""fullscreenenter"",""1"",""21040""
","
","
","""event"",""trial"",""time""
""fullscreenenter"",""1"",""21040""
","
","","","598.5999999046326","","","13","5940","3413","f","elianto","#3366ff99","-1"," ","0","0","[1449.5999999046326]","1","2","","","5940","39","1","2","win","no-go","0"
"pit-trial","164","2076165","0.0-44.0","battery-v0.2","","""event"",""trial"",""time""
""fullscreenenter"",""1"",""21040""
","
","
","""event"",""trial"",""time""
""fullscreenenter"",""1"",""21040""
","
","","","-1","","","13","5940","3413","n","elianto","#f73b6a7A"," ","-1","0","0","[]","0","2","","","5940","40","0","3","lose","go","1"
"pit-trial","165","2081036","0.0-45.0","battery-v0.2","","""event"",""trial"",""time""
""fullscreenenter"",""1"",""21040""
","
","
","""event"",""trial"",""time""
""fullscreenenter"",""1"",""21040""
","
","","","-1","","","13","5940","3413","t","elianto","#f73b6a7A"," ","-1","0","-10","[]","0","2","","","5940","41","2","3","lose","go","0"
"pit-trial","166","2085920","0.0-46.0","battery-v0.2","","""event"",""trial"",""time""
""fullscreenenter"",""1"",""21040""
","
","
","""event"",""trial"",""time""
""fullscreenenter"",""1"",""21040""
","
","","","-1","","","13","5940","3413","b","elianto","#f73b6a7A","-1","-1","1","0","[]","0","2","","","5940","42","3","4","lose","no-go","0"
"pit-trial","167","2090791","0.0-47.0","battery-v0.2","","""event"",""trial"",""time""
""fullscreenenter"",""1"",""21040""
","
","
","""event"",""trial"",""time""
""fullscreenenter"",""1"",""21040""
","
","","","-1","","","13","5940","3413","n","elianto","#f73b6a7A"," ","-1","0","-10","[]","0","2","","","5940","43","0","3","lose","go","0"
"pit-trial","168","2095655","0.0-48.0","battery-v0.2","","""event"",""trial"",""time""
""fullscreenenter"",""1"",""21040""
","
","
","""event"",""trial"",""time""
""fullscreenenter"",""1"",""21040""
","
","","","-1","","","13","5940","3413","f","elianto","#3366ff99","-1","-1","1","0","[4340.599999904633]","1","2","","","5940","44","1","2","win","no-go","1"
"pit-trial","169","2100531","0.0-49.0","battery-v0.2","","""event"",""trial"",""time""
""fullscreenenter"",""1"",""21040""
","
","
","""event"",""trial"",""time""
""fullscreenenter"",""1"",""21040""
","
","","","-1","","","13","5940","3413","b","elianto","#f73b6a7A","-1","-1","1","0","[]","0","2","","","5940","45","3","4","lose","no-go","0"
"pit-trial","170","2103794","0.0-50.0","battery-v0.2","","""event"",""trial"",""time""
""fullscreenenter"",""1"",""21040""
","
","
","""event"",""trial"",""time""
""fullscreenenter"",""1"",""21040""
","
","","","382.5","","","13","5940","3413","t","elianto","#f73b6a7A"," "," ","1","0","[1243.5]","1","2","","","5940","46","2","3","lose","go","0"
"pit-trial","171","2107335","0.0-51.0","battery-v0.2","","""event"",""trial"",""time""
""fullscreenenter"",""1"",""21040""
","
","
","""event"",""trial"",""time""
""fullscreenenter"",""1"",""21040""
","
","","","670.4000000953674","","","13","5940","3413","f","elianto","#3366ff99","-1"," ","0","0","[1521.7000002861023]","1","2","","","5940","47","1","2","win","no-go","0"
"pit-trial","172","2112211","0.0-52.0","battery-v0.2","","""event"",""trial"",""time""
""fullscreenenter"",""1"",""21040""
","
","
","""event"",""trial"",""time""
""fullscreenenter"",""1"",""21040""
","
","","","-1","","","13","5940","3413","n","elianto","#f73b6a7A"," ","-1","0","-10","[]","0","2","","","5940","48","0","3","lose","go","0"
"pit-trial","173","2117088","0.0-53.0","battery-v0.2","","""event"",""trial"",""time""
""fullscreenenter"",""1"",""21040""
","
","
","""event"",""trial"",""time""
""fullscreenenter"",""1"",""21040""
","
","","","-1","","","13","5940","3413","n","elianto","#f73b6a7A"," ","-1","0","-10","[]","0","2","","","5940","49","0","3","lose","go","0"
"pit-trial","174","2121958","0.0-54.0","battery-v0.2","","""event"",""trial"",""time""
""fullscreenenter"",""1"",""21040""
","
","
","""event"",""trial"",""time""
""fullscreenenter"",""1"",""21040""
","
","","","-1","","","13","5940","3413","b","elianto","#f73b6a7A","-1","-1","1","-10","[]","0","2","","","5940","50","3","4","lose","no-go","1"
"pit-trial","175","2125365","0.0-55.0","battery-v0.2","","""event"",""trial"",""time""
""fullscreenenter"",""1"",""21040""
","
","
","""event"",""trial"",""time""
""fullscreenenter"",""1"",""21040""
","
","","","540.5999999046326","","","13","5940","3413","f","elianto","#3366ff99","-1"," ","0","+10","[1391.5999999046326]","1","2","","","5940","51","1","2","win","no-go","1"
"pit-trial","176","2130241","0.0-56.0","battery-v0.2","","""event"",""trial"",""time""
""fullscreenenter"",""1"",""21040""
","
","
","""event"",""trial"",""time""
""fullscreenenter"",""1"",""21040""
","
","","","-1","","","13","5940","3413","t","elianto","#f73b6a7A"," ","-1","0","-10","[]","0","2","","","5940","52","2","3","lose","go","0"
"pit-trial","177","2133497","0.0-57.0","battery-v0.2","","""event"",""trial"",""time""
""fullscreenenter"",""1"",""21040""
","
","
","""event"",""trial"",""time""
""fullscreenenter"",""1"",""21040""
","
","","","390","","","13","5940","3413","b","elianto","#f73b6a7A","-1"," ","0","0","[1240.7000002861023]","1","2","","","5940","53","3","4","lose","no-go","1"
"pit-trial","178","2137116","0.0-58.0","battery-v0.2","","""event"",""trial"",""time""
""fullscreenenter"",""1"",""21040""
","
","
","""event"",""trial"",""time""
""fullscreenenter"",""1"",""21040""
","
","","","760.3999996185303","","","13","5940","3413","f","elianto","#3366ff99","-1"," ","0","0","[1610.4000000953674]","1","2","","","5940","54","1","2","win","no-go","0"
"pit-trial","179","2141990","0.0-59.0","battery-v0.2","","""event"",""trial"",""time""
""fullscreenenter"",""1"",""21040""
","
","
","""event"",""trial"",""time""
""fullscreenenter"",""1"",""21040""
","
","","","-1","","","13","5940","3413","n","elianto","#f73b6a7A"," ","-1","0","-10","[]","0","2","","","5940","55","0","3","lose","go","0"
"pit-trial","180","2146865","0.0-60.0","battery-v0.2","","""event"",""trial"",""time""
""fullscreenenter"",""1"",""21040""
","
","
","""event"",""trial"",""time""
""fullscreenenter"",""1"",""21040""
","
","","","-1","","","13","5940","3413","t","elianto","#f73b6a7A"," ","-1","0","0","[]","0","2","","","5940","56","2","3","lose","go","1"
"pit-trial","181","2151729","0.0-61.0","battery-v0.2","","""event"",""trial"",""time""
""fullscreenenter"",""1"",""21040""
","
","
","""event"",""trial"",""time""
""fullscreenenter"",""1"",""21040""
","
","","","-1","","","13","5940","3413","t","elianto","#f73b6a7A"," ","-1","0","-10","[]","0","2","","","5940","57","2","3","lose","go","0"
"pit-trial","182","2154978","0.0-62.0","battery-v0.2","","""event"",""trial"",""time""
""fullscreenenter"",""1"",""21040""
","
","
","""event"",""trial"",""time""
""fullscreenenter"",""1"",""21040""
","
","","","389.1000003814697","","","13","5940","3413","n","elianto","#f73b6a7A"," "," ","1","0","[1239.2000002861023]","1","2","","","5940","58","0","3","lose","go","0"
"pit-trial","183","2158512","0.0-63.0","battery-v0.2","","""event"",""trial"",""time""
""fullscreenenter"",""1"",""21040""
","
","
","""event"",""trial"",""time""
""fullscreenenter"",""1"",""21040""
","
","","","667.6999998092651","","","13","5940","3413","c","elianto","#3366ff99"," "," ","1","+10","[1518.2000002861023]","1","2","","","5940","59","4","1","win","go","0"
"pit-trial","184","2162917","0.0-64.0","battery-v0.2","","""event"",""trial"",""time""
""fullscreenenter"",""1"",""21040""
","
","
","""event"",""trial"",""time""
""fullscreenenter"",""1"",""21040""
","
","","","1541.5","","","13","5940","3413","b","elianto","#f73b6a7A","-1"," ","0","-10","[2392]","1","2","","","5940","60","3","4","lose","no-go","0"
"pit-trial","185","2166235","0.0-65.0","battery-v0.2","","""event"",""trial"",""time""
""fullscreenenter"",""1"",""21040""
","
","
","""event"",""trial"",""time""
""fullscreenenter"",""1"",""21040""
","
","","","453","","","13","5940","3413","c","elianto","#3366ff99"," "," ","1","+10","[1309.6999998092651]","1","2","","","5940","61","4","1","win","go","0"
"pit-trial","186","2171104","0.0-66.0","battery-v0.2","","""event"",""trial"",""time""
""fullscreenenter"",""1"",""21040""
","
","
","""event"",""trial"",""time""
""fullscreenenter"",""1"",""21040""
","
","","","-1","","","13","5940","3413","t","elianto","#f73b6a7A"," ","-1","0","-10","[]","0","2","","","5940","62","2","3","lose","go","0"
"pit-trial","187","2174392","0.0-67.0","battery-v0.2","","""event"",""trial"",""time""
""fullscreenenter"",""1"",""21040""
","
","
","""event"",""trial"",""time""
""fullscreenenter"",""1"",""21040""
","
","","","417.59999990463257","","","13","5940","3413","f","elianto","#3366ff99","-1"," ","0","+10","[1273.5]","1","2","","","5940","63","1","2","win","no-go","1"
"pit-trial","188","2179261","0.0-68.0","battery-v0.2","","""event"",""trial"",""time""
""fullscreenenter"",""1"",""21040""
","
","
","""event"",""trial"",""time""
""fullscreenenter"",""1"",""21040""
","
","","","-1","","","13","5940","3413","b","elianto","#f73b6a7A","-1","-1","1","0","[]","0","2","","","5940","64","3","4","lose","no-go","0"
"pit-trial","189","2184137","0.0-69.0","battery-v0.2","","""event"",""trial"",""time""
""fullscreenenter"",""1"",""21040""
","
","
","""event"",""trial"",""time""
""fullscreenenter"",""1"",""21040""
","
","","","-1","","","13","5940","3413","b","elianto","#f73b6a7A","-1","-1","1","0","[]","0","2","","","5940","65","3","4","lose","no-go","0"
"pit-trial","190","2187375","0.0-70.0","battery-v0.2","","""event"",""trial"",""time""
""fullscreenenter"",""1"",""21040""
","
","
","""event"",""trial"",""time""
""fullscreenenter"",""1"",""21040""
","
","","","379","","","13","5940","3413","z","elianto","#3366ff99","-1"," ","0","0","[1233.7999997138977]","1","2","","","5940","66","5","2","win","no-go","0"
"pit-trial","191","2192253","0.0-71.0","battery-v0.2","","""event"",""trial"",""time""
""fullscreenenter"",""1"",""21040""
","
","
","""event"",""trial"",""time""
""fullscreenenter"",""1"",""21040""
","
","","","-1","","","13","5940","3413","c","elianto","#3366ff99"," ","-1","0","+10","[3509]","1","2","","","5940","67","4","1","win","go","1"
"pit-trial","192","2195711","0.0-72.0","battery-v0.2","","""event"",""trial"",""time""
""fullscreenenter"",""1"",""21040""
","
","
","""event"",""trial"",""time""
""fullscreenenter"",""1"",""21040""
","
","","","590","","","13","5940","3413","f","elianto","#3366ff99","-1"," ","0","0","[1445.5999999046326]","1","2","","","5940","68","1","2","win","no-go","0"
"pit-trial","193","2200584","0.0-73.0","battery-v0.2","","""event"",""trial"",""time""
""fullscreenenter"",""1"",""21040""
","
","
","""event"",""trial"",""time""
""fullscreenenter"",""1"",""21040""
","
","","","-1","","","13","5940","3413","t","elianto","#f73b6a7A"," ","-1","0","-10","[]","0","2","","","5940","69","2","3","lose","go","0"
"pit-trial","194","2203923","0.0-74.0","battery-v0.2","","""event"",""trial"",""time""
""fullscreenenter"",""1"",""21040""
","
","
","""event"",""trial"",""time""
""fullscreenenter"",""1"",""21040""
","
","","","463","","","13","5940","3413","z","elianto","#3366ff99","-1"," ","0","0","[189.59999990463257,1317.8999996185303]","2","2","","","5940","70","5","2","win","no-go","0"
"pit-trial","195","2208804","0.0-75.0","battery-v0.2","","""event"",""trial"",""time""
""fullscreenenter"",""1"",""21040""
","
","
","""event"",""trial"",""time""
""fullscreenenter"",""1"",""21040""
","
","","","-1","","","13","5940","3413","c","elianto","#3366ff99"," ","-1","0","0","[3233.300000190735]","1","2","","","5940","71","4","1","win","go","0"
"pit-trial","196","2212978","0.0-76.0","battery-v0.2","","""event"",""trial"",""time""
""fullscreenenter"",""1"",""21040""
","
","
","""event"",""trial"",""time""
""fullscreenenter"",""1"",""21040""
","
","","","1311.5","","","13","5940","3413","f","elianto","#3366ff99","-1"," ","0","0","[2166.199999809265]","1","2","","","5940","72","1","2","win","no-go","0"
"pit-trial","197","2216365","0.0-77.0","battery-v0.2","","""event"",""trial"",""time""
""fullscreenenter"",""1"",""21040""
","
","
","""event"",""trial"",""time""
""fullscreenenter"",""1"",""21040""
","
","","","522.5999999046326","","","13","5940","3413","c","elianto","#3366ff99"," "," ","1","+10","[1373.6000003814697]","1","2","","","5940","73","4","1","win","go","0"
"pit-trial","198","2220676","0.0-78.0","battery-v0.2","","""event"",""trial"",""time""
""fullscreenenter"",""1"",""21040""
","
","
","""event"",""trial"",""time""
""fullscreenenter"",""1"",""21040""
","
","","","1441","","","13","5940","3413","f","elianto","#3366ff99","-1"," ","0","0","[2301.300000190735]","1","2","","","5940","74","1","2","win","no-go","0"
"pit-trial","199","2225559","0.0-79.0","battery-v0.2","","""event"",""trial"",""time""
""fullscreenenter"",""1"",""21040""
","
","
","""event"",""trial"",""time""
""fullscreenenter"",""1"",""21040""
","
","","","-1","","","13","5940","3413","b","elianto","#f73b6a7A","-1","-1","1","0","[]","0","2","","","5940","75","3","4","lose","no-go","0"
"pit-trial","200","2229064","0.0-80.0","battery-v0.2","","""event"",""trial"",""time""
""fullscreenenter"",""1"",""21040""
","
","
","""event"",""trial"",""time""
""fullscreenenter"",""1"",""21040""
","
","","","639.7000002861023","","","13","5940","3413","z","elianto","#3366ff99","-1"," ","0","+10","[1489.8000001907349]","1","2","","","5940","76","5","2","win","no-go","1"
"pit-trial","201","2233934","0.0-81.0","battery-v0.2","","""event"",""trial"",""time""
""fullscreenenter"",""1"",""21040""
","
","
","""event"",""trial"",""time""
""fullscreenenter"",""1"",""21040""
","
","","","-1","","","13","5940","3413","b","elianto","#f73b6a7A","-1","-1","1","0","[]","0","2","","","5940","77","3","4","lose","no-go","0"
"pit-trial","202","2237573","0.0-82.0","battery-v0.2","","""event"",""trial"",""time""
""fullscreenenter"",""1"",""21040""
","
","
","""event"",""trial"",""time""
""fullscreenenter"",""1"",""21040""
","
","","","772.0999999046326","","","13","5940","3413","c","elianto","#3366ff99"," "," ","1","+10","[1628.2000002861023]","1","2","","","5940","78","4","1","win","go","0"
"pit-trial","203","2241924","0.0-83.0","battery-v0.2","","""event"",""trial"",""time""
""fullscreenenter"",""1"",""21040""
","
","
","""event"",""trial"",""time""
""fullscreenenter"",""1"",""21040""
","
","","","1484.9000000953674","","","13","5940","3413","c","elianto","#3366ff99"," "," ","1","+10","[2337]","1","2","","","5940","79","4","1","win","go","0"
"pit-trial","204","2245446","0.0-84.0","battery-v0.2","","""event"",""trial"",""time""
""fullscreenenter"",""1"",""21040""
","
","
","""event"",""trial"",""time""
""fullscreenenter"",""1"",""21040""
","
","","","655.2999997138977","","","13","5940","3413","z","elianto","#3366ff99","-1"," ","0","+10","[1505.5999999046326]","1","2","","","5940","80","5","2","win","no-go","1"
"pit-trial","205","2249116","0.0-85.0","battery-v0.2","","""event"",""trial"",""time""
""fullscreenenter"",""1"",""21040""
","
","
","""event"",""trial"",""time""
""fullscreenenter"",""1"",""21040""
","
","","","801.3000001907349","","","13","5940","3413","z","elianto","#3366ff99","-1"," ","0","+10","[1651.9000000953674]","1","2","","","5940","81","5","2","win","no-go","1"
"pit-trial","206","2253987","0.0-86.0","battery-v0.2","","""event"",""trial"",""time""
""fullscreenenter"",""1"",""21040""
","
","
","""event"",""trial"",""time""
""fullscreenenter"",""1"",""21040""
","
","","","-1","","","13","5940","3413","b","elianto","#f73b6a7A","-1","-1","1","0","[]","0","2","","","5940","82","3","4","lose","no-go","0"
"pit-trial","207","2258861","0.0-87.0","battery-v0.2","","""event"",""trial"",""time""
""fullscreenenter"",""1"",""21040""
","
","
","""event"",""trial"",""time""
""fullscreenenter"",""1"",""21040""
","
","","","-1","","","13","5940","3413","y","elianto","#f73b6a7A","-1","-1","1","0","[]","0","2","","","5940","83","7","4","lose","no-go","0"
"pit-trial","208","2262198","0.0-88.0","battery-v0.2","","""event"",""trial"",""time""
""fullscreenenter"",""1"",""21040""
","
","
","""event"",""trial"",""time""
""fullscreenenter"",""1"",""21040""
","
","","","472.69999980926514","","","13","5940","3413","c","elianto","#3366ff99"," "," ","1","+10","[1323.4000000953674]","1","2","","","5940","84","4","1","win","go","0"
"pit-trial","209","2265710","0.0-89.0","battery-v0.2","","""event"",""trial"",""time""
""fullscreenenter"",""1"",""21040""
","
","
","""event"",""trial"",""time""
""fullscreenenter"",""1"",""21040""
","
","","","634.2000002861023","","","13","5940","3413","z","elianto","#3366ff99","-1"," ","0","0","[1495.1000003814697]","1","2","","","5940","85","5","2","win","no-go","0"
"pit-trial","210","2270588","0.0-90.0","battery-v0.2","","""event"",""trial"",""time""
""fullscreenenter"",""1"",""21040""
","
","
","""event"",""trial"",""time""
""fullscreenenter"",""1"",""21040""
","
","","","-1","","","13","5940","3413","h","elianto","#f73b6a7A"," ","-1","0","-10","[]","0","2","","","5940","86","6","3","lose","go","0"
"pit-trial","211","2275459","0.0-91.0","battery-v0.2","","""event"",""trial"",""time""
""fullscreenenter"",""1"",""21040""
","
","
","""event"",""trial"",""time""
""fullscreenenter"",""1"",""21040""
","
","","","-1","","","13","5940","3413","y","elianto","#f73b6a7A","-1","-1","1","-10","[]","0","2","","","5940","87","7","4","lose","no-go","1"
"pit-trial","212","2280333","0.0-92.0","battery-v0.2","","""event"",""trial"",""time""
""fullscreenenter"",""1"",""21040""
","
","
","""event"",""trial"",""time""
""fullscreenenter"",""1"",""21040""
","
","","","-1","","","13","5940","3413","c","elianto","#3366ff99"," ","-1","0","0","[]","0","2","","","5940","88","4","1","win","go","0"
"pit-trial","213","2285200","0.0-93.0","battery-v0.2","","""event"",""trial"",""time""
""fullscreenenter"",""1"",""21040""
","
","
","""event"",""trial"",""time""
""fullscreenenter"",""1"",""21040""
","
","","","-1","","","13","5940","3413","h","elianto","#f73b6a7A"," ","-1","0","-10","[90.69999980926514]","1","2","","","5940","89","6","3","lose","go","0"
"pit-trial","214","2288712","0.0-94.0","battery-v0.2","","""event"",""trial"",""time""
""fullscreenenter"",""1"",""21040""
","
","
","""event"",""trial"",""time""
""fullscreenenter"",""1"",""21040""
","
","","","645","","","13","5940","3413","z","elianto","#3366ff99","-1"," ","0","0","[1499.4000000953674]","1","2","","","5940","90","5","2","win","no-go","0"
"pit-trial","215","2292221","0.0-95.0","battery-v0.2","","""event"",""trial"",""time""
""fullscreenenter"",""1"",""21040""
","
","
","""event"",""trial"",""time""
""fullscreenenter"",""1"",""21040""
","
","","","642.6999998092651","","","13","5940","3413","c","elianto","#3366ff99"," "," ","1","+10","[1493.5999999046326]","1","2","","","5940","91","4","1","win","go","0"
"pit-trial","216","2296331","0.0-96.0","battery-v0.2","","""event"",""trial"",""time""
""fullscreenenter"",""1"",""21040""
","
","
","""event"",""trial"",""time""
""fullscreenenter"",""1"",""21040""
","
","","","1245.5999999046326","","","13","5940","3413","y","elianto","#f73b6a7A","-1"," ","0","-10","[2099.1000003814697]","1","2","","","5940","92","7","4","lose","no-go","0"
"pit-trial","217","2299844","0.0-97.0","battery-v0.2","","""event"",""trial"",""time""
""fullscreenenter"",""1"",""21040""
","
","
","""event"",""trial"",""time""
""fullscreenenter"",""1"",""21040""
","
","","","637.1999998092651","","","13","5940","3413","z","elianto","#3366ff99","-1"," ","0","0","[1498.3000001907349]","1","2","","","5940","93","5","2","win","no-go","0"
"pit-trial","218","2304718","0.0-98.0","battery-v0.2","","""event"",""trial"",""time""
""fullscreenenter"",""1"",""21040""
","
","
","""event"",""trial"",""time""
""fullscreenenter"",""1"",""21040""
","
","","","-1","","","13","5940","3413","y","elianto","#f73b6a7A","-1","-1","1","0","[]","0","2","","","5940","94","7","4","lose","no-go","0"
"pit-trial","219","2309597","0.0-99.0","battery-v0.2","","""event"",""trial"",""time""
""fullscreenenter"",""1"",""21040""
","
","
","""event"",""trial"",""time""
""fullscreenenter"",""1"",""21040""
","
","","","-1","","","13","5940","3413","h","elianto","#f73b6a7A"," ","-1","0","-10","[]","0","2","","","5940","95","6","3","lose","go","0"
"pit-trial","220","2313159","0.0-100.0","battery-v0.2","","""event"",""trial"",""time""
""fullscreenenter"",""1"",""21040""
","
","
","""event"",""trial"",""time""
""fullscreenenter"",""1"",""21040""
","
","","","682.3000001907349","","","13","5940","3413","r","elianto","#3366ff99"," "," ","1","+10","[1543.5999999046326]","1","2","","","5940","96","8","1","win","go","0"
"pit-trial","221","2317954","0.0-101.0","battery-v0.2","","""event"",""trial"",""time""
""fullscreenenter"",""1"",""21040""
","
","
","""event"",""trial"",""time""
""fullscreenenter"",""1"",""21040""
","
","","","1928.7999997138977","","","13","5940","3413","z","elianto","#3366ff99","-1"," ","0","0","[2782]","1","2","","","5940","97","5","2","win","no-go","0"
"pit-trial","222","2321669","0.0-102.0","battery-v0.2","","""event"",""trial"",""time""
""fullscreenenter"",""1"",""21040""
","
","
","""event"",""trial"",""time""
""fullscreenenter"",""1"",""21040""
","
","","","847","","","13","5940","3413","r","elianto","#3366ff99"," "," ","1","+10","[1697.9000000953674]","1","2","","","5940","98","8","1","win","go","0"
"pit-trial","223","2326550","0.0-103.0","battery-v0.2","","""event"",""trial"",""time""
""fullscreenenter"",""1"",""21040""
","
","
","""event"",""trial"",""time""
""fullscreenenter"",""1"",""21040""
","
","","","-1","","","13","5940","3413","y","elianto","#f73b6a7A","-1","-1","1","0","[]","0","2","","","5940","99","7","4","lose","no-go","0"
"pit-trial","224","2331417","0.0-104.0","battery-v0.2","","""event"",""trial"",""time""
""fullscreenenter"",""1"",""21040""
","
","
","""event"",""trial"",""time""
""fullscreenenter"",""1"",""21040""
","
","","","-1","","","13","5940","3413","h","elianto","#f73b6a7A"," ","-1","0","-10","[]","0","2","","","5940","100","6","3","lose","go","0"
"pit-trial","225","2335722","0.0-105.0","battery-v0.2","","""event"",""trial"",""time""
""fullscreenenter"",""1"",""21040""
","
","
","""event"",""trial"",""time""
""fullscreenenter"",""1"",""21040""
","
","","","1439.5999999046326","","","13","5940","3413","z","elianto","#3366ff99","-1"," ","0","0","[2295.4000000953674]","1","2","","","5940","101","5","2","win","no-go","0"
"pit-trial","226","2340597","0.0-106.0","battery-v0.2","","""event"",""trial"",""time""
""fullscreenenter"",""1"",""21040""
","
","
","""event"",""trial"",""time""
""fullscreenenter"",""1"",""21040""
","
","","","-1","","","13","5940","3413","m","elianto","#3366ff99"," ","-1","0","0","[3107.199999809265]","1","2","","","5940","102","9","1","win","go","0"
"pit-trial","227","2345473","0.0-107.0","battery-v0.2","","""event"",""trial"",""time""
""fullscreenenter"",""1"",""21040""
","
","
","""event"",""trial"",""time""
""fullscreenenter"",""1"",""21040""
","
","","","-1","","","13","5940","3413","y","elianto","#f73b6a7A","-1","-1","1","0","[]","0","2","","","5940","103","7","4","lose","no-go","0"
"pit-trial","228","2349196","0.0-108.0","battery-v0.2","","""event"",""trial"",""time""
""fullscreenenter"",""1"",""21040""
","
","
","""event"",""trial"",""time""
""fullscreenenter"",""1"",""21040""
","
","","","862","","","13","5940","3413","r","elianto","#3366ff99"," "," ","1","+10","[1715.8000001907349]","1","2","","","5940","104","8","1","win","go","0"
"pit-trial","229","2354074","0.0-109.0","battery-v0.2","","""event"",""trial"",""time""
""fullscreenenter"",""1"",""21040""
","
","
","""event"",""trial"",""time""
""fullscreenenter"",""1"",""21040""
","
","","","-1","","","13","5940","3413","r","elianto","#3366ff99"," ","-1","0","0","[3044.699999809265]","1","2","","","5940","105","8","1","win","go","0"
"pit-trial","230","2358945","0.0-110.0","battery-v0.2","","""event"",""trial"",""time""
""fullscreenenter"",""1"",""21040""
","
","
","""event"",""trial"",""time""
""fullscreenenter"",""1"",""21040""
","
","","","-1","","","13","5940","3413","h","elianto","#f73b6a7A"," ","-1","0","-10","[]","0","2","","","5940","106","6","3","lose","go","0"
"pit-trial","231","2362345","0.0-111.0","battery-v0.2","","""event"",""trial"",""time""
""fullscreenenter"",""1"",""21040""
","
","
","""event"",""trial"",""time""
""fullscreenenter"",""1"",""21040""
","
","","","535.0999999046326","","","13","5940","3413","c","elianto","#3366ff99"," "," ","1","+10","[1386.1999998092651]","1","2","","","5940","107","4","1","win","go","0"
"pit-trial","232","2365787","0.0-112.0","battery-v0.2","","""event"",""trial"",""time""
""fullscreenenter"",""1"",""21040""
","
","
","""event"",""trial"",""time""
""fullscreenenter"",""1"",""21040""
","
","","","579.4000000953674","","","13","5940","3413","m","elianto","#3366ff99"," "," ","1","+10","[1429.9000000953674]","1","2","","","5940","108","9","1","win","go","0"
"pit-trial","233","2369354","0.0-113.0","battery-v0.2","","""event"",""trial"",""time""
""fullscreenenter"",""1"",""21040""
","
","
","""event"",""trial"",""time""
""fullscreenenter"",""1"",""21040""
","
","","","698.4000000953674","","","13","5940","3413","m","elianto","#3366ff99"," "," ","1","+10","[1553.6000003814697]","1","2","","","5940","109","9","1","win","go","0"
"pit-trial","234","2374232","0.0-114.0","battery-v0.2","","""event"",""trial"",""time""
""fullscreenenter"",""1"",""21040""
","
","
","""event"",""trial"",""time""
""fullscreenenter"",""1"",""21040""
","
","","","-1","","","13","5940","3413","h","elianto","#f73b6a7A"," ","-1","0","-10","[]","0","2","","","5940","110","6","3","lose","go","0"
"pit-trial","235","2377599","0.0-115.0","battery-v0.2","","""event"",""trial"",""time""
""fullscreenenter"",""1"",""21040""
","
","
","""event"",""trial"",""time""
""fullscreenenter"",""1"",""21040""
","
","","","491.09999990463257","","","13","5940","3413","z","elianto","#3366ff99","-1"," ","0","0","[1348.8000001907349]","1","2","","","5940","111","5","2","win","no-go","0"
"pit-trial","236","2381136","0.0-116.0","battery-v0.2","","""event"",""trial"",""time""
""fullscreenenter"",""1"",""21040""
","
","
","""event"",""trial"",""time""
""fullscreenenter"",""1"",""21040""
","
","","","667.2000002861023","","","13","5940","3413","r","elianto","#3366ff99"," "," ","1","+10","[1525.7000002861023]","1","2","","","5940","112","8","1","win","go","0"
"pit-trial","237","2384752","0.0-117.0","battery-v0.2","","""event"",""trial"",""time""
""fullscreenenter"",""1"",""21040""
","
","
","""event"",""trial"",""time""
""fullscreenenter"",""1"",""21040""
","
","","","741.9000000953674","","","13","5940","3413","r","elianto","#3366ff99"," "," ","1","+10","[1598.0999999046326]","1","2","","","5940","113","8","1","win","go","0"
"pit-trial","238","2388332","0.0-118.0","battery-v0.2","","""event"",""trial"",""time""
""fullscreenenter"",""1"",""21040""
","
","
","""event"",""trial"",""time""
""fullscreenenter"",""1"",""21040""
","
","","","710.0999999046326","","","13","5940","3413","m","elianto","#3366ff99"," "," ","1","+10","[1567.5]","1","2","","","5940","114","9","1","win","go","0"
"pit-trial","239","2393216","0.0-119.0","battery-v0.2","","""event"",""trial"",""time""
""fullscreenenter"",""1"",""21040""
","
","
","""event"",""trial"",""time""
""fullscreenenter"",""1"",""21040""
","
","","","-1","","","13","5940","3413","h","elianto","#f73b6a7A"," ","-1","0","0","[]","0","2","","","5940","115","6","3","lose","go","1"
"pit-trial","240","2396583","0.0-120.0","battery-v0.2","","""event"",""trial"",""time""
""fullscreenenter"",""1"",""21040""
","
","
","""event"",""trial"",""time""
""fullscreenenter"",""1"",""21040""
","
","","","501.2999997138977","","","13","5940","3413","z","elianto","#3366ff99","-1"," ","0","+10","[1361.4000000953674]","1","2","","","5940","116","5","2","win","no-go","1"
"pit-trial","241","2399982","0.0-121.0","battery-v0.2","","""event"",""trial"",""time""
""fullscreenenter"",""1"",""21040""
","
","
","""event"",""trial"",""time""
""fullscreenenter"",""1"",""21040""
","
","","","525.2999997138977","","","13","5940","3413","z","elianto","#3366ff99","-1"," ","0","0","[1382.6999998092651]","1","2","","","5940","117","5","2","win","no-go","0"
"pit-trial","242","2403527","0.0-122.0","battery-v0.2","","""event"",""trial"",""time""
""fullscreenenter"",""1"",""21040""
","
","
","""event"",""trial"",""time""
""fullscreenenter"",""1"",""21040""
","
","","","668.1999998092651","","","13","5940","3413","r","elianto","#3366ff99"," "," ","1","+10","[1528.4000000953674]","1","2","","","5940","118","8","1","win","go","0"
"pit-trial","243","2408407","0.0-123.0","battery-v0.2","","""event"",""trial"",""time""
""fullscreenenter"",""1"",""21040""
","
","
","""event"",""trial"",""time""
""fullscreenenter"",""1"",""21040""
","
","","","-1","","","13","5940","3413","h","elianto","#f73b6a7A"," ","-1","0","0","[]","0","2","","","5940","119","6","3","lose","go","1"
"pit-trial","244","2411571","0.0-124.0","battery-v0.2","","""event"",""trial"",""time""
""fullscreenenter"",""1"",""21040""
","
","
","""event"",""trial"",""time""
""fullscreenenter"",""1"",""21040""
","
","","","304.19999980926514","","","13","5940","3413","m","elianto","#3366ff99"," "," ","1","+10","[1155.4000000953674]","1","2","","","5940","120","9","1","win","go","0"
"pit-trial","245","2415241","0.0-125.0","battery-v0.2","","""event"",""trial"",""time""
""fullscreenenter"",""1"",""21040""
","
","
","""event"",""trial"",""time""
""fullscreenenter"",""1"",""21040""
","
","","","799.7000002861023","","","13","5940","3413","m","elianto","#3366ff99"," "," ","1","+10","[1652.8000001907349]","1","2","","","5940","121","9","1","win","go","0"
"pit-trial","246","2420106","0.0-126.0","battery-v0.2","","""event"",""trial"",""time""
""fullscreenenter"",""1"",""21040""
","
","
","""event"",""trial"",""time""
""fullscreenenter"",""1"",""21040""
","
","","","-1","","","13","5940","3413","y","elianto","#f73b6a7A","-1","-1","1","0","[]","0","2","","","5940","122","7","4","lose","no-go","0"
"pit-trial","247","2423421","0.0-127.0","battery-v0.2","","""event"",""trial"",""time""
""fullscreenenter"",""1"",""21040""
","
","
","""event"",""trial"",""time""
""fullscreenenter"",""1"",""21040""
","
","","","441.7000002861023","","","13","5940","3413","r","elianto","#3366ff99"," "," ","1","+10","[1294.2000002861023]","1","2","","","5940","123","8","1","win","go","0"
"pit-trial","248","2428311","0.0-128.0","battery-v0.2","","""event"",""trial"",""time""
""fullscreenenter"",""1"",""21040""
","
","
","""event"",""trial"",""time""
""fullscreenenter"",""1"",""21040""
","
","","","-1","","","13","5940","3413","h","elianto","#f73b6a7A"," ","-1","0","-10","[]","0","2","","","5940","124","6","3","lose","go","0"
"pit-trial","249","2431708","0.0-129.0","battery-v0.2","","""event"",""trial"",""time""
""fullscreenenter"",""1"",""21040""
","
","
","""event"",""trial"",""time""
""fullscreenenter"",""1"",""21040""
","
","","","534.5999999046326","","","13","5940","3413","m","elianto","#3366ff99"," "," ","1","+10","[1385.5]","1","2","","","5940","125","9","1","win","go","0"
"pit-trial","250","2435855","0.0-130.0","battery-v0.2","","""event"",""trial"",""time""
""fullscreenenter"",""1"",""21040""
","
","
","""event"",""trial"",""time""
""fullscreenenter"",""1"",""21040""
","
","","","1283.6999998092651","","","13","5940","3413","r","elianto","#3366ff99"," "," ","1","+10","[2135]","1","2","","","5940","126","8","1","win","go","0"
"pit-trial","251","2440726","0.0-131.0","battery-v0.2","","""event"",""trial"",""time""
""fullscreenenter"",""1"",""21040""
","
","
","""event"",""trial"",""time""
""fullscreenenter"",""1"",""21040""
","
","","","-1","","","13","5940","3413","h","elianto","#f73b6a7A"," ","-1","0","-10","[]","0","2","","","5940","127","6","3","lose","go","0"
"pit-trial","252","2444363","0.0-132.0","battery-v0.2","","""event"",""trial"",""time""
""fullscreenenter"",""1"",""21040""
","
","
","""event"",""trial"",""time""
""fullscreenenter"",""1"",""21040""
","
","","","777.1000003814697","","","13","5940","3413","y","elianto","#f73b6a7A","-1"," ","0","-10","[1629.8999996185303]","1","2","","","5940","128","7","4","lose","no-go","0"
"pit-trial","253","2447849","0.0-133.0","battery-v0.2","","""event"",""trial"",""time""
""fullscreenenter"",""1"",""21040""
","
","
","""event"",""trial"",""time""
""fullscreenenter"",""1"",""21040""
","
","","","625.7000002861023","","","13","5940","3413","r","elianto","#3366ff99"," "," ","1","+10","[1476.5]","1","2","","","5940","129","8","1","win","go","0"
"pit-trial","254","2452728","0.0-134.0","battery-v0.2","","""event"",""trial"",""time""
""fullscreenenter"",""1"",""21040""
","
","
","""event"",""trial"",""time""
""fullscreenenter"",""1"",""21040""
","
","","","-1","","","13","5940","3413","h","elianto","#f73b6a7A"," ","-1","0","-10","[]","0","2","","","5940","130","6","3","lose","go","0"
"pit-trial","255","2456183","0.0-135.0","battery-v0.2","","""event"",""trial"",""time""
""fullscreenenter"",""1"",""21040""
","
","
","""event"",""trial"",""time""
""fullscreenenter"",""1"",""21040""
","
","","","594.8000001907349","","","13","5940","3413","m","elianto","#3366ff99"," "," ","1","+10","[1445.2000002861023]","1","2","","","5940","131","9","1","win","go","0"
"pit-trial","256","2461050","0.0-136.0","battery-v0.2","","""event"",""trial"",""time""
""fullscreenenter"",""1"",""21040""
","
","
","""event"",""trial"",""time""
""fullscreenenter"",""1"",""21040""
","
","","","-1","","","13","5940","3413","y","elianto","#f73b6a7A","-1","-1","1","0","[4469.099999904633]","1","2","","","5940","132","7","4","lose","no-go","0"
"pit-trial","257","2465920","0.0-137.0","battery-v0.2","","""event"",""trial"",""time""
""fullscreenenter"",""1"",""21040""
","
","
","""event"",""trial"",""time""
""fullscreenenter"",""1"",""21040""
","
","","","-1","","","13","5940","3413","h","elianto","#f73b6a7A"," ","-1","0","-10","[]","0","2","","","5940","133","6","3","lose","go","0"
"pit-trial","258","2470802","0.0-138.0","battery-v0.2","","""event"",""trial"",""time""
""fullscreenenter"",""1"",""21040""
","
","
","""event"",""trial"",""time""
""fullscreenenter"",""1"",""21040""
","
","","","-1","","","13","5940","3413","y","elianto","#f73b6a7A","-1","-1","1","-10","[]","0","2","","","5940","134","7","4","lose","no-go","1"
"pit-trial","259","2474086","0.0-139.0","battery-v0.2","","""event"",""trial"",""time""
""fullscreenenter"",""1"",""21040""
","
","
","""event"",""trial"",""time""
""fullscreenenter"",""1"",""21040""
","
","","","414.40000009536743","","","13","5940","3413","m","elianto","#3366ff99"," "," ","1","+10","[1269.3000001907349]","1","2","","","5940","135","9","1","win","go","0"
"pit-trial","260","2478245","0.0-140.0","battery-v0.2","","""event"",""trial"",""time""
""fullscreenenter"",""1"",""21040""
","
","
","""event"",""trial"",""time""
""fullscreenenter"",""1"",""21040""
","
","","","1287.3999996185303","","","13","5940","3413","r","elianto","#3366ff99"," "," ","1","+10","[2146]","1","2","","","5940","136","8","1","win","go","0"
"pit-trial","261","2483119","0.0-141.0","battery-v0.2","","""event"",""trial"",""time""
""fullscreenenter"",""1"",""21040""
","
","
","""event"",""trial"",""time""
""fullscreenenter"",""1"",""21040""
","
","","","-1","","","13","5940","3413","y","elianto","#f73b6a7A","-1","-1","1","0","[]","0","2","","","5940","137","7","4","lose","no-go","0"
"pit-trial","262","2487988","0.0-142.0","battery-v0.2","","""event"",""trial"",""time""
""fullscreenenter"",""1"",""21040""
","
","
","""event"",""trial"",""time""
""fullscreenenter"",""1"",""21040""
","
","","","-1","","","13","5940","3413","h","elianto","#f73b6a7A"," ","-1","0","-10","[]","0","2","","","5940","138","6","3","lose","go","0"
"pit-trial","263","2491344","0.0-143.0","battery-v0.2","","""event"",""trial"",""time""
""fullscreenenter"",""1"",""21040""
","
","
","""event"",""trial"",""time""
""fullscreenenter"",""1"",""21040""
","
","","","482.5","","","13","5940","3413","m","elianto","#3366ff99"," "," ","1","+10","[1336.9000000953674]","1","2","","","5940","139","9","1","win","go","0"
"pit-trial","264","2494856","0.0-144.0","battery-v0.2","","""event"",""trial"",""time""
""fullscreenenter"",""1"",""21040""
","
","
","""event"",""trial"",""time""
""fullscreenenter"",""1"",""21040""
","
","","","645.6999998092651","","","13","5940","3413","r","elianto","#3366ff99"," "," ","1","+10","[1495.9000000953674]","1","2","","","5940","140","8","1","win","go","0"
"pit-instructions","265","3410117","0.0-145.0","battery-v0.2","","""event"",""trial"",""time""
""fullscreenenter"",""1"",""21040""
","
","
","""event"",""trial"",""time""
""fullscreenenter"",""1"",""21040""
","
","","[{""page_index"":0,""viewing_time"":905764.7999997139},{""page_index"":1,""viewing_time"":9492.700000286102}]","915258.3999996185","","","","","","","","","","","","","","","","","","","","","","","",""
"pit-trial","266","3415004","0.0-146.0","battery-v0.2","","""event"",""trial"",""time""
""fullscreenenter"",""1"",""21040""
","
","
","""event"",""trial"",""time""
""fullscreenenter"",""1"",""21040""
","
","","","-1","","","13","5940","3413","u","elianto","#f73b6a7A","-1","-1","1","0","[]","0","3","","","5940","141","0","4","lose","no-go","0"
