"trial_type","trial_index","time_elapsed","internal_node_id","task_version","subject_id","interactions","blur_events","focus_events","fullscreenenter_events","fullscreenexit_events","success","view_history","rt","responses","num_errors","age","subject","participantId","rune","rune_set","hex","correct","choice","accuracy","outcome","keys","total_keys","block","practice","value","sub","trial","stimulus","robot","valence","action","sham"
"pavlovia","0","2","0.0-0.0","battery-v0.2","","""event"",""trial"",""time""
""fullscreenenter"",""1"",""1128""
","
","
","""event"",""trial"",""time""
""fullscreenenter"",""1"",""1128""
","
","","","","","","","","","","","","","","","","","","","","","","","","","","",""
"fullscreen","1","2124","0.0-1.0","battery-v0.2","","""event"",""trial"",""time""
""fullscreenenter"",""1"",""1128""
""fullscreenexit"",""2"",""2947""
","
","
","""event"",""trial"",""time""
""fullscreenenter"",""1"",""1128""
","""event"",""trial"",""time""
""fullscreenexit"",""2"",""2947""
","true","","","","","","","","","","","","","","","","","","","","","","","","","",""
"pit-instructions","2","5223","0.0-2.0-0.0","battery-v0.2","","""event"",""trial"",""time""
""fullscreenenter"",""1"",""1128""
""fullscreenexit"",""2"",""2947""
","
","
","""event"",""trial"",""time""
""fullscreenenter"",""1"",""1128""
","""event"",""trial"",""time""
""fullscreenexit"",""2"",""2947""
","","[{""page_index"":0,""viewing_time"":3096}]","3096.199999999255","","","","","","","","","","","","","","","","","","","","","","","",""
"pit-comprehension","3","7353","0.0-2.0-1.0-0.0","battery-v0.2","","""event"",""trial"",""time""
""fullscreenenter"",""1"",""1128""
""fullscreenexit"",""2"",""2947""
","
","
","""event"",""trial"",""time""
""fullscreenenter"",""1"",""1128""
","""event"",""trial"",""time""
""fullscreenexit"",""2"",""2947""
","","","2127.5","[""shark""]","0","11","4225","626","","","","","","","","","","","","","","","","","","",""
"pit-instructions","4","8360","0.0-2.0-1.0-1.0","battery-v0.2","","""event"",""trial"",""time""
""fullscreenenter"",""1"",""1128""
""fullscreenexit"",""2"",""2947""
","
","
","""event"",""trial"",""time""
""fullscreenenter"",""1"",""1128""
","""event"",""trial"",""time""
""fullscreenexit"",""2"",""2947""
","","[{""page_index"":0,""viewing_time"":1005.2000000001863}]","1005.5","","","","","","","","","","","","","","","","","","","","","","","",""
"pit-comprehension","5","10194","0.0-2.0-2.0-0.0","battery-v0.2","","""event"",""trial"",""time""
""fullscreenenter"",""1"",""1128""
""fullscreenexit"",""2"",""2947""
","
","
","""event"",""trial"",""time""
""fullscreenenter"",""1"",""1128""
","""event"",""trial"",""time""
""fullscreenexit"",""2"",""2947""
","","","1831.7000000001863","[""tiger""]","0","11","4225","626","","","","","","","","","","","","","","","","","","",""
"pit-instructions","6","10770","0.0-2.0-2.0-1.0","battery-v0.2","","""event"",""trial"",""time""
""fullscreenenter"",""1"",""1128""
""fullscreenexit"",""2"",""2947""
","
","
","""event"",""trial"",""time""
""fullscreenenter"",""1"",""1128""
","""event"",""trial"",""time""
""fullscreenexit"",""2"",""2947""
","","[{""page_index"":0,""viewing_time"":573}]","573.2000000001863","","","","","","","","","","","","","","","","","","","","","","","",""
"pit-instructions","7","121720","0.0-2.0-3.0","battery-v0.2","","""event"",""trial"",""time""
""fullscreenenter"",""1"",""1128""
""fullscreenexit"",""2"",""2947""
","
","
","""event"",""trial"",""time""
""fullscreenenter"",""1"",""1128""
","""event"",""trial"",""time""
""fullscreenexit"",""2"",""2947""
","","[{""page_index"":0,""viewing_time"":8231.100000000559},{""page_index"":1,""viewing_time"":8929.899999999441},{""page_index"":2,""viewing_time"":6274.4000000003725},{""page_index"":3,""viewing_time"":5921.5},{""page_index"":4,""viewing_time"":9955.5},{""page_index"":5,""viewing_time"":5984.799999999814},{""page_index"":6,""viewing_time"":9426.100000000559},{""page_index"":7,""viewing_time"":9794.399999999441},{""page_index"":8,""viewing_time"":10482.5},{""page_index"":9,""viewing_time"":9882.799999999814},{""page_index"":10,""viewing_time"":7513},{""page_index"":11,""viewing_time"":7450.100000000559},{""page_index"":12,""viewing_time"":6088.0999999996275},{""page_index"":13,""viewing_time"":5013.9000000003725}]","110948.40000000037","","","","","","","","","","","","","","","","","","","","","","","",""
"pit-trial","8","125241","0.0-2.0-4.0-0.0","battery-v0.2","","""event"",""trial"",""time""
""fullscreenenter"",""1"",""1128""
""fullscreenexit"",""2"",""2947""
","
","
","""event"",""trial"",""time""
""fullscreenenter"",""1"",""1128""
","""event"",""trial"",""time""
""fullscreenexit"",""2"",""2947""
","","","662","","","11","4225","626","&#9784;","elianto","#FFFFF080"," "," ","1","&#10004","[1512.2000000001863]","1","0","0","","","","","","","",""
"pit-trial","9","128928","0.0-2.0-4.1-0.1","battery-v0.2","","""event"",""trial"",""time""
""fullscreenenter"",""1"",""1128""
""fullscreenexit"",""2"",""2947""
","
","
","""event"",""trial"",""time""
""fullscreenenter"",""1"",""1128""
","""event"",""trial"",""time""
""fullscreenexit"",""2"",""2947""
","","","831.2000000001863","","","11","4225","626","&#9784;","elianto","#FFFFF080"," "," ","1","&#10004","[1681.4000000003725]","1","0","0","","","","","","","",""
"pit-trial","10","132296","0.0-2.0-4.2-0.2","battery-v0.2","","""event"",""trial"",""time""
""fullscreenenter"",""1"",""1128""
""fullscreenexit"",""2"",""2947""
","
","
","""event"",""trial"",""time""
""fullscreenenter"",""1"",""1128""
","""event"",""trial"",""time""
""fullscreenexit"",""2"",""2947""
","","","510.59999999962747","","","11","4225","626","&#9784;","elianto","#FFFFF080"," "," ","1","&#10004","[1361]","1","0","0","","","","","","","",""
"pit-trial","11","135777","0.0-2.0-4.3-0.3","battery-v0.2","","""event"",""trial"",""time""
""fullscreenenter"",""1"",""1128""
""fullscreenexit"",""2"",""2947""
","
","
","""event"",""trial"",""time""
""fullscreenenter"",""1"",""1128""
","""event"",""trial"",""time""
""fullscreenexit"",""2"",""2947""
","","","616.2000000001863","","","11","4225","626","&#9784;","elianto","#FFFFF080"," "," ","1","&#10004","[1471.6000000005588]","1","0","0","","","","","","","",""
"pit-trial","12","139081","0.0-2.0-4.4-0.4","battery-v0.2","","""event"",""trial"",""time""
""fullscreenenter"",""1"",""1128""
""fullscreenexit"",""2"",""2947""
","
","
","""event"",""trial"",""time""
""fullscreenenter"",""1"",""1128""
","""event"",""trial"",""time""
""fullscreenexit"",""2"",""2947""
","","","441.90000000037253","","","11","4225","626","&#9784;","elianto","#FFFFF080"," "," ","1","&#10004","[1294.800000000745]","1","0","0","","","","","","","",""
"pit-instructions","13","166319","0.0-2.0-5.0","battery-v0.2","","""event"",""trial"",""time""
""fullscreenenter"",""1"",""1128""
""fullscreenexit"",""2"",""2947""
","
","
","""event"",""trial"",""time""
""fullscreenenter"",""1"",""1128""
","""event"",""trial"",""time""
""fullscreenexit"",""2"",""2947""
","","[{""page_index"":0,""viewing_time"":7973.700000000186},{""page_index"":1,""viewing_time"":8072.5999999996275},{""page_index"":2,""viewing_time"":5336.4000000003725},{""page_index"":3,""viewing_time"":5850.5999999996275}]","27233.60000000056","","","","","","","","","","","","","","","","","","","","","","","",""
"pit-trial","14","171184","0.0-2.0-6.0-0.0","battery-v0.2","","""event"",""trial"",""time""
""fullscreenenter"",""1"",""1128""
""fullscreenexit"",""2"",""2947""
""blur"",""15"",""171351""
""focus"",""15"",""172860""
","""event"",""trial"",""time""
""blur"",""15"",""171351""
","""event"",""trial"",""time""
""focus"",""15"",""172860""
","""event"",""trial"",""time""
""fullscreenenter"",""1"",""1128""
","""event"",""trial"",""time""
""fullscreenexit"",""2"",""2947""
","","","-1","","","11","4225","626","&#9854;","elianto","#FFFFF080","-1","-1","1","&#10004","[]","0","0","1","","","","","","","",""
"pit-trial","15","176048","0.0-2.0-6.1-0.1","battery-v0.2","","""event"",""trial"",""time""
""fullscreenenter"",""1"",""1128""
""fullscreenexit"",""2"",""2947""
""blur"",""15"",""171351""
""focus"",""15"",""172860""
""blur"",""16"",""177095""
","""event"",""trial"",""time""
""blur"",""15"",""171351""
""blur"",""16"",""177095""
","""event"",""trial"",""time""
""focus"",""15"",""172860""
","""event"",""trial"",""time""
""fullscreenenter"",""1"",""1128""
","""event"",""trial"",""time""
""fullscreenexit"",""2"",""2947""
","","","-1","","","11","4225","626","&#9854;","elianto","#FFFFF080","-1","-1","1","&#10004","[]","0","0","1","","","","","","","",""
"pit-trial","16","180913","0.0-2.0-6.2-0.2","battery-v0.2","","""event"",""trial"",""time""
""fullscreenenter"",""1"",""1128""
""fullscreenexit"",""2"",""2947""
""blur"",""15"",""171351""
""focus"",""15"",""172860""
""blur"",""16"",""177095""
","""event"",""trial"",""time""
""blur"",""15"",""171351""
""blur"",""16"",""177095""
","""event"",""trial"",""time""
""focus"",""15"",""172860""
","""event"",""trial"",""time""
""fullscreenenter"",""1"",""1128""
","""event"",""trial"",""time""
""fullscreenexit"",""2"",""2947""
","","","-1","","","11","4225","626","&#9854;","elianto","#FFFFF080","-1","-1","1","&#10004","[]","0","0","1","","","","","","","",""
"pit-trial","17","185778","0.0-2.0-6.3-0.3","battery-v0.2","","""event"",""trial"",""time""
""fullscreenenter"",""1"",""1128""
""fullscreenexit"",""2"",""2947""
""blur"",""15"",""171351""
""focus"",""15"",""172860""
""blur"",""16"",""177095""
","""event"",""trial"",""time""
""blur"",""15"",""171351""
""blur"",""16"",""177095""
","""event"",""trial"",""time""
""focus"",""15"",""172860""
","""event"",""trial"",""time""
""fullscreenenter"",""1"",""1128""
","""event"",""trial"",""time""
""fullscreenexit"",""2"",""2947""
","","","-1","","","11","4225","626","&#9854;","elianto","#FFFFF080","-1","-1","1","&#10004","[]","0","0","1","","","","","","","",""
"pit-trial","18","190641","0.0-2.0-6.4-0.4","battery-v0.2","","""event"",""trial"",""time""
""fullscreenenter"",""1"",""1128""
""fullscreenexit"",""2"",""2947""
""blur"",""15"",""171351""
""focus"",""15"",""172860""
""blur"",""16"",""177095""
""focus"",""19"",""200737""
""blur"",""19"",""212352""
""focus"",""19"",""215932""
""blur"",""19"",""232476""
""focus"",""19"",""319116""
""blur"",""19"",""342561""
""focus"",""19"",""353484""
","""event"",""trial"",""time""
""blur"",""15"",""171351""
""blur"",""16"",""177095""
""blur"",""19"",""212352""
""blur"",""19"",""232476""
""blur"",""19"",""342561""
","""event"",""trial"",""time""
""focus"",""15"",""172860""
""focus"",""19"",""200737""
""focus"",""19"",""215932""
""focus"",""19"",""319116""
""focus"",""19"",""353484""
","""event"",""trial"",""time""
""fullscreenenter"",""1"",""1128""
","""event"",""trial"",""time""
""fullscreenexit"",""2"",""2947""
","","","-1","","","11","4225","626","&#9854;","elianto","#FFFFF080","-1","-1","1","&#10004","[]","0","0","1","","","","","","","",""
"pit-instructions","19","405162","0.0-2.0-7.0","battery-v0.2","","""event"",""trial"",""time""
""fullscreenenter"",""1"",""1128""
""fullscreenexit"",""2"",""2947""
""blur"",""15"",""171351""
""focus"",""15"",""172860""
""blur"",""16"",""177095""
""focus"",""19"",""200737""
""blur"",""19"",""212352""
""focus"",""19"",""215932""
""blur"",""19"",""232476""
""focus"",""19"",""319116""
""blur"",""19"",""342561""
""focus"",""19"",""353484""
","""event"",""trial"",""time""
""blur"",""15"",""171351""
""blur"",""16"",""177095""
""blur"",""19"",""212352""
""blur"",""19"",""232476""
""blur"",""19"",""342561""
","""event"",""trial"",""time""
""focus"",""15"",""172860""
""focus"",""19"",""200737""
""focus"",""19"",""215932""
""focus"",""19"",""319116""
""focus"",""19"",""353484""
","""event"",""trial"",""time""
""fullscreenenter"",""1"",""1128""
","""event"",""trial"",""time""
""fullscreenexit"",""2"",""2947""
","","[{""page_index"":0,""viewing_time"":10177.700000000186},{""page_index"":1,""viewing_time"":7117.299999999814},{""page_index"":2,""viewing_time"":8119.100000000559},{""page_index"":3,""viewing_time"":5968.299999999814},{""page_index"":4,""viewing_time"":5184.899999999441},{""page_index"":5,""viewing_time"":91998},{""page_index"":6,""viewing_time"":4633.600000000559},{""page_index"":7,""viewing_time"":8121.5},{""page_index"":8,""viewing_time"":7922},{""page_index"":9,""viewing_time"":14866.799999999814},{""page_index"":10,""viewing_time"":6402.0999999996275},{""page_index"":11,""viewing_time"":4129.200000000186},{""page_index"":12,""viewing_time"":6699.700000000186},{""page_index"":13,""viewing_time"":6833.299999999814},{""page_index"":14,""viewing_time"":6904.799999999814},{""page_index"":15,""viewing_time"":6098.200000000186},{""page_index"":16,""viewing_time"":6355.200000000186},{""page_index"":17,""viewing_time"":6986.299999999814}]","214518.5","","","","","","","","","","","","","","","","","","","","","","","",""
"pit-trial","20","408824","0.0-2.0-8.0-0.0","battery-v0.2","","""event"",""trial"",""time""
""fullscreenenter"",""1"",""1128""
""fullscreenexit"",""2"",""2947""
""blur"",""15"",""171351""
""focus"",""15"",""172860""
""blur"",""16"",""177095""
""focus"",""19"",""200737""
""blur"",""19"",""212352""
""focus"",""19"",""215932""
""blur"",""19"",""232476""
""focus"",""19"",""319116""
""blur"",""19"",""342561""
""focus"",""19"",""353484""
","""event"",""trial"",""time""
""blur"",""15"",""171351""
""blur"",""16"",""177095""
""blur"",""19"",""212352""
""blur"",""19"",""232476""
""blur"",""19"",""342561""
","""event"",""trial"",""time""
""focus"",""15"",""172860""
""focus"",""19"",""200737""
""focus"",""19"",""215932""
""focus"",""19"",""319116""
""focus"",""19"",""353484""
","""event"",""trial"",""time""
""fullscreenenter"",""1"",""1128""
","""event"",""trial"",""time""
""fullscreenexit"",""2"",""2947""
","","","802.5","","","11","4225","626","&#9776;","elianto","#3366ff99"," "," ","1","+10","[1653.8999999994412]","1","0","1","","","","","","","",""
"pit-trial","21","412041","0.0-2.0-8.0-1.0","battery-v0.2","","""event"",""trial"",""time""
""fullscreenenter"",""1"",""1128""
""fullscreenexit"",""2"",""2947""
""blur"",""15"",""171351""
""focus"",""15"",""172860""
""blur"",""16"",""177095""
""focus"",""19"",""200737""
""blur"",""19"",""212352""
""focus"",""19"",""215932""
""blur"",""19"",""232476""
""focus"",""19"",""319116""
""blur"",""19"",""342561""
""focus"",""19"",""353484""
","""event"",""trial"",""time""
""blur"",""15"",""171351""
""blur"",""16"",""177095""
""blur"",""19"",""212352""
""blur"",""19"",""232476""
""blur"",""19"",""342561""
","""event"",""trial"",""time""
""focus"",""15"",""172860""
""focus"",""19"",""200737""
""focus"",""19"",""215932""
""focus"",""19"",""319116""
""focus"",""19"",""353484""
","""event"",""trial"",""time""
""fullscreenenter"",""1"",""1128""
","""event"",""trial"",""time""
""fullscreenexit"",""2"",""2947""
","","","357.09999999962747","","","11","4225","626","&#9776;","elianto","#3366ff99"," "," ","1","+10","[1212.1000000005588]","1","0","1","","","","","","","",""
"pit-trial","22","415280","0.0-2.0-8.0-2.0","battery-v0.2","","""event"",""trial"",""time""
""fullscreenenter"",""1"",""1128""
""fullscreenexit"",""2"",""2947""
""blur"",""15"",""171351""
""focus"",""15"",""172860""
""blur"",""16"",""177095""
""focus"",""19"",""200737""
""blur"",""19"",""212352""
""focus"",""19"",""215932""
""blur"",""19"",""232476""
""focus"",""19"",""319116""
""blur"",""19"",""342561""
""focus"",""19"",""353484""
","""event"",""trial"",""time""
""blur"",""15"",""171351""
""blur"",""16"",""177095""
""blur"",""19"",""212352""
""blur"",""19"",""232476""
""blur"",""19"",""342561""
","""event"",""trial"",""time""
""focus"",""15"",""172860""
""focus"",""19"",""200737""
""focus"",""19"",""215932""
""focus"",""19"",""319116""
""focus"",""19"",""353484""
","""event"",""trial"",""time""
""fullscreenenter"",""1"",""1128""
","""event"",""trial"",""time""
""fullscreenexit"",""2"",""2947""
","","","381","","","11","4225","626","&#9776;","elianto","#3366ff99"," "," ","1","+10","[1232.5999999996275]","1","0","1","","","","","","","",""
"pit-trial","23","418473","0.0-2.0-8.0-3.0","battery-v0.2","","""event"",""trial"",""time""
""fullscreenenter"",""1"",""1128""
""fullscreenexit"",""2"",""2947""
""blur"",""15"",""171351""
""focus"",""15"",""172860""
""blur"",""16"",""177095""
""focus"",""19"",""200737""
""blur"",""19"",""212352""
""focus"",""19"",""215932""
""blur"",""19"",""232476""
""focus"",""19"",""319116""
""blur"",""19"",""342561""
""focus"",""19"",""353484""
","""event"",""trial"",""time""
""blur"",""15"",""171351""
""blur"",""16"",""177095""
""blur"",""19"",""212352""
""blur"",""19"",""232476""
""blur"",""19"",""342561""
","""event"",""trial"",""time""
""focus"",""15"",""172860""
""focus"",""19"",""200737""
""focus"",""19"",""215932""
""focus"",""19"",""319116""
""focus"",""19"",""353484""
","""event"",""trial"",""time""
""fullscreenenter"",""1"",""1128""
","""event"",""trial"",""time""
""fullscreenexit"",""2"",""2947""
","","","337.79999999981374","","","11","4225","626","&#9776;","elianto","#3366ff99"," "," ","1","0","[1189.2999999998137]","1","0","1","","","","","","","",""
"pit-trial","24","421665","0.0-2.0-8.0-4.0","battery-v0.2","","""event"",""trial"",""time""
""fullscreenenter"",""1"",""1128""
""fullscreenexit"",""2"",""2947""
""blur"",""15"",""171351""
""focus"",""15"",""172860""
""blur"",""16"",""177095""
""focus"",""19"",""200737""
""blur"",""19"",""212352""
""focus"",""19"",""215932""
""blur"",""19"",""232476""
""focus"",""19"",""319116""
""blur"",""19"",""342561""
""focus"",""19"",""353484""
","""event"",""trial"",""time""
""blur"",""15"",""171351""
""blur"",""16"",""177095""
""blur"",""19"",""212352""
""blur"",""19"",""232476""
""blur"",""19"",""342561""
","""event"",""trial"",""time""
""focus"",""15"",""172860""
""focus"",""19"",""200737""
""focus"",""19"",""215932""
""focus"",""19"",""319116""
""focus"",""19"",""353484""
","""event"",""trial"",""time""
""fullscreenenter"",""1"",""1128""
","""event"",""trial"",""time""
""fullscreenexit"",""2"",""2947""
","","","332.70000000018626","","","11","4225","626","&#9776;","elianto","#3366ff99"," "," ","1","+10","[1183.7000000001863]","1","0","1","","","","","","","",""
"pit-trial","25","424664","0.0-2.0-8.1-0.1","battery-v0.2","","""event"",""trial"",""time""
""fullscreenenter"",""1"",""1128""
""fullscreenexit"",""2"",""2947""
""blur"",""15"",""171351""
""focus"",""15"",""172860""
""blur"",""16"",""177095""
""focus"",""19"",""200737""
""blur"",""19"",""212352""
""focus"",""19"",""215932""
""blur"",""19"",""232476""
""focus"",""19"",""319116""
""blur"",""19"",""342561""
""focus"",""19"",""353484""
","""event"",""trial"",""time""
""blur"",""15"",""171351""
""blur"",""16"",""177095""
""blur"",""19"",""212352""
""blur"",""19"",""232476""
""blur"",""19"",""342561""
","""event"",""trial"",""time""
""focus"",""15"",""172860""
""focus"",""19"",""200737""
""focus"",""19"",""215932""
""focus"",""19"",""319116""
""focus"",""19"",""353484""
","""event"",""trial"",""time""
""fullscreenenter"",""1"",""1128""
","""event"",""trial"",""time""
""fullscreenexit"",""2"",""2947""
","","","143.40000000037253","","","11","4225","626","&#9776;","elianto","#3366ff99"," "," ","1","+10","[993.4000000003725]","1","0","1","","","","","","","",""
"pit-trial","26","428136","0.0-2.0-8.1-1.1","battery-v0.2","","""event"",""trial"",""time""
""fullscreenenter"",""1"",""1128""
""fullscreenexit"",""2"",""2947""
""blur"",""15"",""171351""
""focus"",""15"",""172860""
""blur"",""16"",""177095""
""focus"",""19"",""200737""
""blur"",""19"",""212352""
""focus"",""19"",""215932""
""blur"",""19"",""232476""
""focus"",""19"",""319116""
""blur"",""19"",""342561""
""focus"",""19"",""353484""
","""event"",""trial"",""time""
""blur"",""15"",""171351""
""blur"",""16"",""177095""
""blur"",""19"",""212352""
""blur"",""19"",""232476""
""blur"",""19"",""342561""
","""event"",""trial"",""time""
""focus"",""15"",""172860""
""focus"",""19"",""200737""
""focus"",""19"",""215932""
""focus"",""19"",""319116""
""focus"",""19"",""353484""
","""event"",""trial"",""time""
""fullscreenenter"",""1"",""1128""
","""event"",""trial"",""time""
""fullscreenexit"",""2"",""2947""
","","","614.2000000001863","","","11","4225","626","&#9776;","elianto","#3366ff99"," "," ","1","+10","[751.7000000001863,1464.4000000003725,2106.300000000745]","3","0","1","","","","","","","",""
"pit-trial","27","432256","0.0-2.0-8.1-2.1","battery-v0.2","","""event"",""trial"",""time""
""fullscreenenter"",""1"",""1128""
""fullscreenexit"",""2"",""2947""
""blur"",""15"",""171351""
""focus"",""15"",""172860""
""blur"",""16"",""177095""
""focus"",""19"",""200737""
""blur"",""19"",""212352""
""focus"",""19"",""215932""
""blur"",""19"",""232476""
""focus"",""19"",""319116""
""blur"",""19"",""342561""
""focus"",""19"",""353484""
","""event"",""trial"",""time""
""blur"",""15"",""171351""
""blur"",""16"",""177095""
""blur"",""19"",""212352""
""blur"",""19"",""232476""
""blur"",""19"",""342561""
","""event"",""trial"",""time""
""focus"",""15"",""172860""
""focus"",""19"",""200737""
""focus"",""19"",""215932""
""focus"",""19"",""319116""
""focus"",""19"",""353484""
","""event"",""trial"",""time""
""fullscreenenter"",""1"",""1128""
","""event"",""trial"",""time""
""fullscreenexit"",""2"",""2947""
","","","1257.6000000005588","","","11","4225","626","&#9776;","elianto","#3366ff99"," "," ","1","+10","[2111.4000000003725]","1","0","1","","","","","","","",""
"pit-trial","28","436049","0.0-2.0-8.1-3.1","battery-v0.2","","""event"",""trial"",""time""
""fullscreenenter"",""1"",""1128""
""fullscreenexit"",""2"",""2947""
""blur"",""15"",""171351""
""focus"",""15"",""172860""
""blur"",""16"",""177095""
""focus"",""19"",""200737""
""blur"",""19"",""212352""
""focus"",""19"",""215932""
""blur"",""19"",""232476""
""focus"",""19"",""319116""
""blur"",""19"",""342561""
""focus"",""19"",""353484""
","""event"",""trial"",""time""
""blur"",""15"",""171351""
""blur"",""16"",""177095""
""blur"",""19"",""212352""
""blur"",""19"",""232476""
""blur"",""19"",""342561""
","""event"",""trial"",""time""
""focus"",""15"",""172860""
""focus"",""19"",""200737""
""focus"",""19"",""215932""
""focus"",""19"",""319116""
""focus"",""19"",""353484""
","""event"",""trial"",""time""
""fullscreenenter"",""1"",""1128""
","""event"",""trial"",""time""
""fullscreenexit"",""2"",""2947""
","","","928.9000000003725","","","11","4225","626","&#9776;","elianto","#3366ff99"," "," ","1","0","[1782.4000000003725]","1","0","1","","","","","","","",""
"pit-trial","29","440145","0.0-2.0-8.1-4.1","battery-v0.2","","""event"",""trial"",""time""
""fullscreenenter"",""1"",""1128""
""fullscreenexit"",""2"",""2947""
""blur"",""15"",""171351""
""focus"",""15"",""172860""
""blur"",""16"",""177095""
""focus"",""19"",""200737""
""blur"",""19"",""212352""
""focus"",""19"",""215932""
""blur"",""19"",""232476""
""focus"",""19"",""319116""
""blur"",""19"",""342561""
""focus"",""19"",""353484""
","""event"",""trial"",""time""
""blur"",""15"",""171351""
""blur"",""16"",""177095""
""blur"",""19"",""212352""
""blur"",""19"",""232476""
""blur"",""19"",""342561""
","""event"",""trial"",""time""
""focus"",""15"",""172860""
""focus"",""19"",""200737""
""focus"",""19"",""215932""
""focus"",""19"",""319116""
""focus"",""19"",""353484""
","""event"",""trial"",""time""
""fullscreenenter"",""1"",""1128""
","""event"",""trial"",""time""
""fullscreenexit"",""2"",""2947""
","","","1234","","","11","4225","626","&#9776;","elianto","#3366ff99"," "," ","1","+10","[2087.2000000001863]","1","0","1","","","","","","","",""
"pit-trial","30","443598","0.0-2.0-8.2-0.2","battery-v0.2","","""event"",""trial"",""time""
""fullscreenenter"",""1"",""1128""
""fullscreenexit"",""2"",""2947""
""blur"",""15"",""171351""
""focus"",""15"",""172860""
""blur"",""16"",""177095""
""focus"",""19"",""200737""
""blur"",""19"",""212352""
""focus"",""19"",""215932""
""blur"",""19"",""232476""
""focus"",""19"",""319116""
""blur"",""19"",""342561""
""focus"",""19"",""353484""
","""event"",""trial"",""time""
""blur"",""15"",""171351""
""blur"",""16"",""177095""
""blur"",""19"",""212352""
""blur"",""19"",""232476""
""blur"",""19"",""342561""
","""event"",""trial"",""time""
""focus"",""15"",""172860""
""focus"",""19"",""200737""
""focus"",""19"",""215932""
""focus"",""19"",""319116""
""focus"",""19"",""353484""
","""event"",""trial"",""time""
""fullscreenenter"",""1"",""1128""
","""event"",""trial"",""time""
""fullscreenexit"",""2"",""2947""
","","","581","","","11","4225","626","&#9776;","elianto","#3366ff99"," "," ","1","+10","[1433.0999999996275]","1","0","1","","","","","","","",""
"pit-trial","31","446880","0.0-2.0-8.2-1.2","battery-v0.2","","""event"",""trial"",""time""
""fullscreenenter"",""1"",""1128""
""fullscreenexit"",""2"",""2947""
""blur"",""15"",""171351""
""focus"",""15"",""172860""
""blur"",""16"",""177095""
""focus"",""19"",""200737""
""blur"",""19"",""212352""
""focus"",""19"",""215932""
""blur"",""19"",""232476""
""focus"",""19"",""319116""
""blur"",""19"",""342561""
""focus"",""19"",""353484""
","""event"",""trial"",""time""
""blur"",""15"",""171351""
""blur"",""16"",""177095""
""blur"",""19"",""212352""
""blur"",""19"",""232476""
""blur"",""19"",""342561""
","""event"",""trial"",""time""
""focus"",""15"",""172860""
""focus"",""19"",""200737""
""focus"",""19"",""215932""
""focus"",""19"",""319116""
""focus"",""19"",""353484""
","""event"",""trial"",""time""
""fullscreenenter"",""1"",""1128""
","""event"",""trial"",""time""
""fullscreenexit"",""2"",""2947""
","","","420.5","","","11","4225","626","&#9776;","elianto","#3366ff99"," "," ","1","+10","[1277]","1","0","1","","","","","","","",""
"pit-trial","32","449912","0.0-2.0-8.2-2.2","battery-v0.2","","""event"",""trial"",""time""
""fullscreenenter"",""1"",""1128""
""fullscreenexit"",""2"",""2947""
""blur"",""15"",""171351""
""focus"",""15"",""172860""
""blur"",""16"",""177095""
""focus"",""19"",""200737""
""blur"",""19"",""212352""
""focus"",""19"",""215932""
""blur"",""19"",""232476""
""focus"",""19"",""319116""
""blur"",""19"",""342561""
""focus"",""19"",""353484""
","""event"",""trial"",""time""
""blur"",""15"",""171351""
""blur"",""16"",""177095""
""blur"",""19"",""212352""
""blur"",""19"",""232476""
""blur"",""19"",""342561""
","""event"",""trial"",""time""
""focus"",""15"",""172860""
""focus"",""19"",""200737""
""focus"",""19"",""215932""
""focus"",""19"",""319116""
""focus"",""19"",""353484""
","""event"",""trial"",""time""
""fullscreenenter"",""1"",""1128""
","""event"",""trial"",""time""
""fullscreenexit"",""2"",""2947""
","","","170.3999999994412","","","11","4225","626","&#9776;","elianto","#3366ff99"," "," ","1","+10","[1024.7000000001863]","1","0","1","","","","","","","",""
"pit-trial","33","452925","0.0-2.0-8.2-3.2","battery-v0.2","","""event"",""trial"",""time""
""fullscreenenter"",""1"",""1128""
""fullscreenexit"",""2"",""2947""
""blur"",""15"",""171351""
""focus"",""15"",""172860""
""blur"",""16"",""177095""
""focus"",""19"",""200737""
""blur"",""19"",""212352""
""focus"",""19"",""215932""
""blur"",""19"",""232476""
""focus"",""19"",""319116""
""blur"",""19"",""342561""
""focus"",""19"",""353484""
","""event"",""trial"",""time""
""blur"",""15"",""171351""
""blur"",""16"",""177095""
""blur"",""19"",""212352""
""blur"",""19"",""232476""
""blur"",""19"",""342561""
","""event"",""trial"",""time""
""focus"",""15"",""172860""
""focus"",""19"",""200737""
""focus"",""19"",""215932""
""focus"",""19"",""319116""
""focus"",""19"",""353484""
","""event"",""trial"",""time""
""fullscreenenter"",""1"",""1128""
","""event"",""trial"",""time""
""fullscreenexit"",""2"",""2947""
","","","144.3999999994412","","","11","4225","626","&#9776;","elianto","#3366ff99"," "," ","1","0","[999]","1","0","1","","","","","","","",""
"pit-trial","34","455792","0.0-2.0-8.2-4.2","battery-v0.2","","""event"",""trial"",""time""
""fullscreenenter"",""1"",""1128""
""fullscreenexit"",""2"",""2947""
""blur"",""15"",""171351""
""focus"",""15"",""172860""
""blur"",""16"",""177095""
""focus"",""19"",""200737""
""blur"",""19"",""212352""
""focus"",""19"",""215932""
""blur"",""19"",""232476""
""focus"",""19"",""319116""
""blur"",""19"",""342561""
""focus"",""19"",""353484""
","""event"",""trial"",""time""
""blur"",""15"",""171351""
""blur"",""16"",""177095""
""blur"",""19"",""212352""
""blur"",""19"",""232476""
""blur"",""19"",""342561""
","""event"",""trial"",""time""
""focus"",""15"",""172860""
""focus"",""19"",""200737""
""focus"",""19"",""215932""
""focus"",""19"",""319116""
""focus"",""19"",""353484""
","""event"",""trial"",""time""
""fullscreenenter"",""1"",""1128""
","""event"",""trial"",""time""
""fullscreenexit"",""2"",""2947""
","","","0.599999999627471","","","11","4225","626","&#9776;","elianto","#3366ff99"," "," ","1","+10","[857.3999999994412]","1","0","1","","","","","","","",""
"call-function","35","455794","0.0-2.0-9.0","battery-v0.2","","""event"",""trial"",""time""
""fullscreenenter"",""1"",""1128""
""fullscreenexit"",""2"",""2947""
""blur"",""15"",""171351""
""focus"",""15"",""172860""
""blur"",""16"",""177095""
""focus"",""19"",""200737""
""blur"",""19"",""212352""
""focus"",""19"",""215932""
""blur"",""19"",""232476""
""focus"",""19"",""319116""
""blur"",""19"",""342561""
""focus"",""19"",""353484""
","""event"",""trial"",""time""
""blur"",""15"",""171351""
""blur"",""16"",""177095""
""blur"",""19"",""212352""
""blur"",""19"",""232476""
""blur"",""19"",""342561""
","""event"",""trial"",""time""
""focus"",""15"",""172860""
""focus"",""19"",""200737""
""focus"",""19"",""215932""
""focus"",""19"",""319116""
""focus"",""19"",""353484""
","""event"",""trial"",""time""
""fullscreenenter"",""1"",""1128""
","""event"",""trial"",""time""
""fullscreenexit"",""2"",""2947""
","","","","","","","","","","","","","","","","","","","","","","","","","","",""
"pit-instructions","36","507874","0.0-2.0-10.0","battery-v0.2","","""event"",""trial"",""time""
""fullscreenenter"",""1"",""1128""
""fullscreenexit"",""2"",""2947""
""blur"",""15"",""171351""
""focus"",""15"",""172860""
""blur"",""16"",""177095""
""focus"",""19"",""200737""
""blur"",""19"",""212352""
""focus"",""19"",""215932""
""blur"",""19"",""232476""
""focus"",""19"",""319116""
""blur"",""19"",""342561""
""focus"",""19"",""353484""
","""event"",""trial"",""time""
""blur"",""15"",""171351""
""blur"",""16"",""177095""
""blur"",""19"",""212352""
""blur"",""19"",""232476""
""blur"",""19"",""342561""
","""event"",""trial"",""time""
""focus"",""15"",""172860""
""focus"",""19"",""200737""
""focus"",""19"",""215932""
""focus"",""19"",""319116""
""focus"",""19"",""353484""
","""event"",""trial"",""time""
""fullscreenenter"",""1"",""1128""
","""event"",""trial"",""time""
""fullscreenexit"",""2"",""2947""
","","[{""page_index"":0,""viewing_time"":8379.799999999814},{""page_index"":1,""viewing_time"":8696.799999999814},{""page_index"":2,""viewing_time"":10419},{""page_index"":3,""viewing_time"":15988.5},{""page_index"":4,""viewing_time"":8593.700000000186}]","52078.200000000186","","","","","","","","","","","","","","","","","","","","","","","",""
"pit-trial","37","511840","0.0-2.0-11.0-0.0","battery-v0.2","","""event"",""trial"",""time""
""fullscreenenter"",""1"",""1128""
""fullscreenexit"",""2"",""2947""
""blur"",""15"",""171351""
""focus"",""15"",""172860""
""blur"",""16"",""177095""
""focus"",""19"",""200737""
""blur"",""19"",""212352""
""focus"",""19"",""215932""
""blur"",""19"",""232476""
""focus"",""19"",""319116""
""blur"",""19"",""342561""
""focus"",""19"",""353484""
","""event"",""trial"",""time""
""blur"",""15"",""171351""
""blur"",""16"",""177095""
""blur"",""19"",""212352""
""blur"",""19"",""232476""
""blur"",""19"",""342561""
","""event"",""trial"",""time""
""focus"",""15"",""172860""
""focus"",""19"",""200737""
""focus"",""19"",""215932""
""focus"",""19"",""319116""
""focus"",""19"",""353484""
","""event"",""trial"",""time""
""fullscreenenter"",""1"",""1128""
","""event"",""trial"",""time""
""fullscreenexit"",""2"",""2947""
","","","1109.7999999998137","","","11","4225","626","&#9761;","elianto","#3366ff99","-1"," ","0","0","[1962.0999999996275]","1","0","2","","","","","","","",""
"pit-trial","38","516705","0.0-2.0-11.0-1.0","battery-v0.2","","""event"",""trial"",""time""
""fullscreenenter"",""1"",""1128""
""fullscreenexit"",""2"",""2947""
""blur"",""15"",""171351""
""focus"",""15"",""172860""
""blur"",""16"",""177095""
""focus"",""19"",""200737""
""blur"",""19"",""212352""
""focus"",""19"",""215932""
""blur"",""19"",""232476""
""focus"",""19"",""319116""
""blur"",""19"",""342561""
""focus"",""19"",""353484""
","""event"",""trial"",""time""
""blur"",""15"",""171351""
""blur"",""16"",""177095""
""blur"",""19"",""212352""
""blur"",""19"",""232476""
""blur"",""19"",""342561""
","""event"",""trial"",""time""
""focus"",""15"",""172860""
""focus"",""19"",""200737""
""focus"",""19"",""215932""
""focus"",""19"",""319116""
""focus"",""19"",""353484""
","""event"",""trial"",""time""
""fullscreenenter"",""1"",""1128""
","""event"",""trial"",""time""
""fullscreenexit"",""2"",""2947""
","","","-1","","","11","4225","626","&#9761;","elianto","#3366ff99","-1","-1","1","+10","[]","0","0","2","","","","","","","",""
"pit-trial","39","521569","0.0-2.0-11.0-2.0","battery-v0.2","","""event"",""trial"",""time""
""fullscreenenter"",""1"",""1128""
""fullscreenexit"",""2"",""2947""
""blur"",""15"",""171351""
""focus"",""15"",""172860""
""blur"",""16"",""177095""
""focus"",""19"",""200737""
""blur"",""19"",""212352""
""focus"",""19"",""215932""
""blur"",""19"",""232476""
""focus"",""19"",""319116""
""blur"",""19"",""342561""
""focus"",""19"",""353484""
","""event"",""trial"",""time""
""blur"",""15"",""171351""
""blur"",""16"",""177095""
""blur"",""19"",""212352""
""blur"",""19"",""232476""
""blur"",""19"",""342561""
","""event"",""trial"",""time""
""focus"",""15"",""172860""
""focus"",""19"",""200737""
""focus"",""19"",""215932""
""focus"",""19"",""319116""
""focus"",""19"",""353484""
","""event"",""trial"",""time""
""fullscreenenter"",""1"",""1128""
","""event"",""trial"",""time""
""fullscreenexit"",""2"",""2947""
","","","-1","","","11","4225","626","&#9761;","elianto","#3366ff99","-1","-1","1","+10","[]","0","0","2","","","","","","","",""
"pit-trial","40","526432","0.0-2.0-11.0-3.0","battery-v0.2","","""event"",""trial"",""time""
""fullscreenenter"",""1"",""1128""
""fullscreenexit"",""2"",""2947""
""blur"",""15"",""171351""
""focus"",""15"",""172860""
""blur"",""16"",""177095""
""focus"",""19"",""200737""
""blur"",""19"",""212352""
""focus"",""19"",""215932""
""blur"",""19"",""232476""
""focus"",""19"",""319116""
""blur"",""19"",""342561""
""focus"",""19"",""353484""
","""event"",""trial"",""time""
""blur"",""15"",""171351""
""blur"",""16"",""177095""
""blur"",""19"",""212352""
""blur"",""19"",""232476""
""blur"",""19"",""342561""
","""event"",""trial"",""time""
""focus"",""15"",""172860""
""focus"",""19"",""200737""
""focus"",""19"",""215932""
""focus"",""19"",""319116""
""focus"",""19"",""353484""
","""event"",""trial"",""time""
""fullscreenenter"",""1"",""1128""
","""event"",""trial"",""time""
""fullscreenexit"",""2"",""2947""
","","","-1","","","11","4225","626","&#9761;","elianto","#3366ff99","-1","-1","1","0","[]","0","0","2","","","","","","","",""
"pit-trial","41","531297","0.0-2.0-11.0-4.0","battery-v0.2","","""event"",""trial"",""time""
""fullscreenenter"",""1"",""1128""
""fullscreenexit"",""2"",""2947""
""blur"",""15"",""171351""
""focus"",""15"",""172860""
""blur"",""16"",""177095""
""focus"",""19"",""200737""
""blur"",""19"",""212352""
""focus"",""19"",""215932""
""blur"",""19"",""232476""
""focus"",""19"",""319116""
""blur"",""19"",""342561""
""focus"",""19"",""353484""
","""event"",""trial"",""time""
""blur"",""15"",""171351""
""blur"",""16"",""177095""
""blur"",""19"",""212352""
""blur"",""19"",""232476""
""blur"",""19"",""342561""
","""event"",""trial"",""time""
""focus"",""15"",""172860""
""focus"",""19"",""200737""
""focus"",""19"",""215932""
""focus"",""19"",""319116""
""focus"",""19"",""353484""
","""event"",""trial"",""time""
""fullscreenenter"",""1"",""1128""
","""event"",""trial"",""time""
""fullscreenexit"",""2"",""2947""
","","","-1","","","11","4225","626","&#9761;","elianto","#3366ff99","-1","-1","1","+10","[]","0","0","2","","","","","","","",""
"pit-trial","42","536161","0.0-2.0-11.1-0.1","battery-v0.2","","""event"",""trial"",""time""
""fullscreenenter"",""1"",""1128""
""fullscreenexit"",""2"",""2947""
""blur"",""15"",""171351""
""focus"",""15"",""172860""
""blur"",""16"",""177095""
""focus"",""19"",""200737""
""blur"",""19"",""212352""
""focus"",""19"",""215932""
""blur"",""19"",""232476""
""focus"",""19"",""319116""
""blur"",""19"",""342561""
""focus"",""19"",""353484""
","""event"",""trial"",""time""
""blur"",""15"",""171351""
""blur"",""16"",""177095""
""blur"",""19"",""212352""
""blur"",""19"",""232476""
""blur"",""19"",""342561""
","""event"",""trial"",""time""
""focus"",""15"",""172860""
""focus"",""19"",""200737""
""focus"",""19"",""215932""
""focus"",""19"",""319116""
""focus"",""19"",""353484""
","""event"",""trial"",""time""
""fullscreenenter"",""1"",""1128""
","""event"",""trial"",""time""
""fullscreenexit"",""2"",""2947""
","","","-1","","","11","4225","626","&#9761;","elianto","#3366ff99","-1","-1","1","+10","[]","0","0","2","","","","","","","",""
"pit-trial","43","541025","0.0-2.0-11.1-1.1","battery-v0.2","","""event"",""trial"",""time""
""fullscreenenter"",""1"",""1128""
""fullscreenexit"",""2"",""2947""
""blur"",""15"",""171351""
""focus"",""15"",""172860""
""blur"",""16"",""177095""
""focus"",""19"",""200737""
""blur"",""19"",""212352""
""focus"",""19"",""215932""
""blur"",""19"",""232476""
""focus"",""19"",""319116""
""blur"",""19"",""342561""
""focus"",""19"",""353484""
","""event"",""trial"",""time""
""blur"",""15"",""171351""
""blur"",""16"",""177095""
""blur"",""19"",""212352""
""blur"",""19"",""232476""
""blur"",""19"",""342561""
","""event"",""trial"",""time""
""focus"",""15"",""172860""
""focus"",""19"",""200737""
""focus"",""19"",""215932""
""focus"",""19"",""319116""
""focus"",""19"",""353484""
","""event"",""trial"",""time""
""fullscreenenter"",""1"",""1128""
","""event"",""trial"",""time""
""fullscreenexit"",""2"",""2947""
","","","-1","","","11","4225","626","&#9761;","elianto","#3366ff99","-1","-1","1","+10","[]","0","0","2","","","","","","","",""
"pit-trial","44","545900","0.0-2.0-11.1-2.1","battery-v0.2","","""event"",""trial"",""time""
""fullscreenenter"",""1"",""1128""
""fullscreenexit"",""2"",""2947""
""blur"",""15"",""171351""
""focus"",""15"",""172860""
""blur"",""16"",""177095""
""focus"",""19"",""200737""
""blur"",""19"",""212352""
""focus"",""19"",""215932""
""blur"",""19"",""232476""
""focus"",""19"",""319116""
""blur"",""19"",""342561""
""focus"",""19"",""353484""
","""event"",""trial"",""time""
""blur"",""15"",""171351""
""blur"",""16"",""177095""
""blur"",""19"",""212352""
""blur"",""19"",""232476""
""blur"",""19"",""342561""
","""event"",""trial"",""time""
""focus"",""15"",""172860""
""focus"",""19"",""200737""
""focus"",""19"",""215932""
""focus"",""19"",""319116""
""focus"",""19"",""353484""
","""event"",""trial"",""time""
""fullscreenenter"",""1"",""1128""
","""event"",""trial"",""time""
""fullscreenexit"",""2"",""2947""
","","","-1","","","11","4225","626","&#9761;","elianto","#3366ff99","-1","-1","1","+10","[]","0","0","2","","","","","","","",""
"pit-trial","45","550764","0.0-2.0-11.1-3.1","battery-v0.2","","""event"",""trial"",""time""
""fullscreenenter"",""1"",""1128""
""fullscreenexit"",""2"",""2947""
""blur"",""15"",""171351""
""focus"",""15"",""172860""
""blur"",""16"",""177095""
""focus"",""19"",""200737""
""blur"",""19"",""212352""
""focus"",""19"",""215932""
""blur"",""19"",""232476""
""focus"",""19"",""319116""
""blur"",""19"",""342561""
""focus"",""19"",""353484""
","""event"",""trial"",""time""
""blur"",""15"",""171351""
""blur"",""16"",""177095""
""blur"",""19"",""212352""
""blur"",""19"",""232476""
""blur"",""19"",""342561""
","""event"",""trial"",""time""
""focus"",""15"",""172860""
""focus"",""19"",""200737""
""focus"",""19"",""215932""
""focus"",""19"",""319116""
""focus"",""19"",""353484""
","""event"",""trial"",""time""
""fullscreenenter"",""1"",""1128""
","""event"",""trial"",""time""
""fullscreenexit"",""2"",""2947""
","","","-1","","","11","4225","626","&#9761;","elianto","#3366ff99","-1","-1","1","0","[]","0","0","2","","","","","","","",""
"pit-trial","46","555625","0.0-2.0-11.1-4.1","battery-v0.2","","""event"",""trial"",""time""
""fullscreenenter"",""1"",""1128""
""fullscreenexit"",""2"",""2947""
""blur"",""15"",""171351""
""focus"",""15"",""172860""
""blur"",""16"",""177095""
""focus"",""19"",""200737""
""blur"",""19"",""212352""
""focus"",""19"",""215932""
""blur"",""19"",""232476""
""focus"",""19"",""319116""
""blur"",""19"",""342561""
""focus"",""19"",""353484""
""blur"",""47"",""559654""
","""event"",""trial"",""time""
""blur"",""15"",""171351""
""blur"",""16"",""177095""
""blur"",""19"",""212352""
""blur"",""19"",""232476""
""blur"",""19"",""342561""
""blur"",""47"",""559654""
","""event"",""trial"",""time""
""focus"",""15"",""172860""
""focus"",""19"",""200737""
""focus"",""19"",""215932""
""focus"",""19"",""319116""
""focus"",""19"",""353484""
","""event"",""trial"",""time""
""fullscreenenter"",""1"",""1128""
","""event"",""trial"",""time""
""fullscreenexit"",""2"",""2947""
","","","-1","","","11","4225","626","&#9761;","elianto","#3366ff99","-1","-1","1","+10","[]","0","0","2","","","","","","","",""
"pit-trial","47","560489","0.0-2.0-11.2-0.2","battery-v0.2","","""event"",""trial"",""time""
""fullscreenenter"",""1"",""1128""
""fullscreenexit"",""2"",""2947""
""blur"",""15"",""171351""
""focus"",""15"",""172860""
""blur"",""16"",""177095""
""focus"",""19"",""200737""
""blur"",""19"",""212352""
""focus"",""19"",""215932""
""blur"",""19"",""232476""
""focus"",""19"",""319116""
""blur"",""19"",""342561""
""focus"",""19"",""353484""
""blur"",""47"",""559654""
","""event"",""trial"",""time""
""blur"",""15"",""171351""
""blur"",""16"",""177095""
""blur"",""19"",""212352""
""blur"",""19"",""232476""
""blur"",""19"",""342561""
""blur"",""47"",""559654""
","""event"",""trial"",""time""
""focus"",""15"",""172860""
""focus"",""19"",""200737""
""focus"",""19"",""215932""
""focus"",""19"",""319116""
""focus"",""19"",""353484""
","""event"",""trial"",""time""
""fullscreenenter"",""1"",""1128""
","""event"",""trial"",""time""
""fullscreenexit"",""2"",""2947""
","","","-1","","","11","4225","626","&#9761;","elianto","#3366ff99","-1","-1","1","+10","[]","0","0","2","","","","","","","",""
"pit-trial","48","565353","0.0-2.0-11.2-1.2","battery-v0.2","","""event"",""trial"",""time""
""fullscreenenter"",""1"",""1128""
""fullscreenexit"",""2"",""2947""
""blur"",""15"",""171351""
""focus"",""15"",""172860""
""blur"",""16"",""177095""
""focus"",""19"",""200737""
""blur"",""19"",""212352""
""focus"",""19"",""215932""
""blur"",""19"",""232476""
""focus"",""19"",""319116""
""blur"",""19"",""342561""
""focus"",""19"",""353484""
""blur"",""47"",""559654""
","""event"",""trial"",""time""
""blur"",""15"",""171351""
""blur"",""16"",""177095""
""blur"",""19"",""212352""
""blur"",""19"",""232476""
""blur"",""19"",""342561""
""blur"",""47"",""559654""
","""event"",""trial"",""time""
""focus"",""15"",""172860""
""focus"",""19"",""200737""
""focus"",""19"",""215932""
""focus"",""19"",""319116""
""focus"",""19"",""353484""
","""event"",""trial"",""time""
""fullscreenenter"",""1"",""1128""
","""event"",""trial"",""time""
""fullscreenexit"",""2"",""2947""
","","","-1","","","11","4225","626","&#9761;","elianto","#3366ff99","-1","-1","1","+10","[]","0","0","2","","","","","","","",""
"pit-trial","49","570216","0.0-2.0-11.2-2.2","battery-v0.2","","""event"",""trial"",""time""
""fullscreenenter"",""1"",""1128""
""fullscreenexit"",""2"",""2947""
""blur"",""15"",""171351""
""focus"",""15"",""172860""
""blur"",""16"",""177095""
""focus"",""19"",""200737""
""blur"",""19"",""212352""
""focus"",""19"",""215932""
""blur"",""19"",""232476""
""focus"",""19"",""319116""
""blur"",""19"",""342561""
""focus"",""19"",""353484""
""blur"",""47"",""559654""
","""event"",""trial"",""time""
""blur"",""15"",""171351""
""blur"",""16"",""177095""
""blur"",""19"",""212352""
""blur"",""19"",""232476""
""blur"",""19"",""342561""
""blur"",""47"",""559654""
","""event"",""trial"",""time""
""focus"",""15"",""172860""
""focus"",""19"",""200737""
""focus"",""19"",""215932""
""focus"",""19"",""319116""
""focus"",""19"",""353484""
","""event"",""trial"",""time""
""fullscreenenter"",""1"",""1128""
","""event"",""trial"",""time""
""fullscreenexit"",""2"",""2947""
","","","-1","","","11","4225","626","&#9761;","elianto","#3366ff99","-1","-1","1","+10","[]","0","0","2","","","","","","","",""
"pit-trial","50","575094","0.0-2.0-11.2-3.2","battery-v0.2","","""event"",""trial"",""time""
""fullscreenenter"",""1"",""1128""
""fullscreenexit"",""2"",""2947""
""blur"",""15"",""171351""
""focus"",""15"",""172860""
""blur"",""16"",""177095""
""focus"",""19"",""200737""
""blur"",""19"",""212352""
""focus"",""19"",""215932""
""blur"",""19"",""232476""
""focus"",""19"",""319116""
""blur"",""19"",""342561""
""focus"",""19"",""353484""
""blur"",""47"",""559654""
","""event"",""trial"",""time""
""blur"",""15"",""171351""
""blur"",""16"",""177095""
""blur"",""19"",""212352""
""blur"",""19"",""232476""
""blur"",""19"",""342561""
""blur"",""47"",""559654""
","""event"",""trial"",""time""
""focus"",""15"",""172860""
""focus"",""19"",""200737""
""focus"",""19"",""215932""
""focus"",""19"",""319116""
""focus"",""19"",""353484""
","""event"",""trial"",""time""
""fullscreenenter"",""1"",""1128""
","""event"",""trial"",""time""
""fullscreenexit"",""2"",""2947""
","","","-1","","","11","4225","626","&#9761;","elianto","#3366ff99","-1","-1","1","0","[]","0","0","2","","","","","","","",""
"pit-trial","51","579960","0.0-2.0-11.2-4.2","battery-v0.2","","""event"",""trial"",""time""
""fullscreenenter"",""1"",""1128""
""fullscreenexit"",""2"",""2947""
""blur"",""15"",""171351""
""focus"",""15"",""172860""
""blur"",""16"",""177095""
""focus"",""19"",""200737""
""blur"",""19"",""212352""
""focus"",""19"",""215932""
""blur"",""19"",""232476""
""focus"",""19"",""319116""
""blur"",""19"",""342561""
""focus"",""19"",""353484""
""blur"",""47"",""559654""
","""event"",""trial"",""time""
""blur"",""15"",""171351""
""blur"",""16"",""177095""
""blur"",""19"",""212352""
""blur"",""19"",""232476""
""blur"",""19"",""342561""
""blur"",""47"",""559654""
","""event"",""trial"",""time""
""focus"",""15"",""172860""
""focus"",""19"",""200737""
""focus"",""19"",""215932""
""focus"",""19"",""319116""
""focus"",""19"",""353484""
","""event"",""trial"",""time""
""fullscreenenter"",""1"",""1128""
","""event"",""trial"",""time""
""fullscreenexit"",""2"",""2947""
","","","-1","","","11","4225","626","&#9761;","elianto","#3366ff99","-1","-1","1","+10","[]","0","0","2","","","","","","","",""
"pit-trial","52","584825","0.0-2.0-11.3-0.3","battery-v0.2","","""event"",""trial"",""time""
""fullscreenenter"",""1"",""1128""
""fullscreenexit"",""2"",""2947""
""blur"",""15"",""171351""
""focus"",""15"",""172860""
""blur"",""16"",""177095""
""focus"",""19"",""200737""
""blur"",""19"",""212352""
""focus"",""19"",""215932""
""blur"",""19"",""232476""
""focus"",""19"",""319116""
""blur"",""19"",""342561""
""focus"",""19"",""353484""
""blur"",""47"",""559654""
","""event"",""trial"",""time""
""blur"",""15"",""171351""
""blur"",""16"",""177095""
""blur"",""19"",""212352""
""blur"",""19"",""232476""
""blur"",""19"",""342561""
""blur"",""47"",""559654""
","""event"",""trial"",""time""
""focus"",""15"",""172860""
""focus"",""19"",""200737""
""focus"",""19"",""215932""
""focus"",""19"",""319116""
""focus"",""19"",""353484""
","""event"",""trial"",""time""
""fullscreenenter"",""1"",""1128""
","""event"",""trial"",""time""
""fullscreenexit"",""2"",""2947""
","","","-1","","","11","4225","626","&#9761;","elianto","#3366ff99","-1","-1","1","+10","[]","0","0","2","","","","","","","",""
"pit-trial","53","589688","0.0-2.0-11.3-1.3","battery-v0.2","","""event"",""trial"",""time""
""fullscreenenter"",""1"",""1128""
""fullscreenexit"",""2"",""2947""
""blur"",""15"",""171351""
""focus"",""15"",""172860""
""blur"",""16"",""177095""
""focus"",""19"",""200737""
""blur"",""19"",""212352""
""focus"",""19"",""215932""
""blur"",""19"",""232476""
""focus"",""19"",""319116""
""blur"",""19"",""342561""
""focus"",""19"",""353484""
""blur"",""47"",""559654""
","""event"",""trial"",""time""
""blur"",""15"",""171351""
""blur"",""16"",""177095""
""blur"",""19"",""212352""
""blur"",""19"",""232476""
""blur"",""19"",""342561""
""blur"",""47"",""559654""
","""event"",""trial"",""time""
""focus"",""15"",""172860""
""focus"",""19"",""200737""
""focus"",""19"",""215932""
""focus"",""19"",""319116""
""focus"",""19"",""353484""
","""event"",""trial"",""time""
""fullscreenenter"",""1"",""1128""
","""event"",""trial"",""time""
""fullscreenexit"",""2"",""2947""
","","","-1","","","11","4225","626","&#9761;","elianto","#3366ff99","-1","-1","1","+10","[]","0","0","2","","","","","","","",""
"pit-trial","54","594553","0.0-2.0-11.3-2.3","battery-v0.2","","""event"",""trial"",""time""
""fullscreenenter"",""1"",""1128""
""fullscreenexit"",""2"",""2947""
""blur"",""15"",""171351""
""focus"",""15"",""172860""
""blur"",""16"",""177095""
""focus"",""19"",""200737""
""blur"",""19"",""212352""
""focus"",""19"",""215932""
""blur"",""19"",""232476""
""focus"",""19"",""319116""
""blur"",""19"",""342561""
""focus"",""19"",""353484""
""blur"",""47"",""559654""
""focus"",""55"",""598246""
","""event"",""trial"",""time""
""blur"",""15"",""171351""
""blur"",""16"",""177095""
""blur"",""19"",""212352""
""blur"",""19"",""232476""
""blur"",""19"",""342561""
""blur"",""47"",""559654""
","""event"",""trial"",""time""
""focus"",""15"",""172860""
""focus"",""19"",""200737""
""focus"",""19"",""215932""
""focus"",""19"",""319116""
""focus"",""19"",""353484""
""focus"",""55"",""598246""
","""event"",""trial"",""time""
""fullscreenenter"",""1"",""1128""
","""event"",""trial"",""time""
""fullscreenexit"",""2"",""2947""
","","","-1","","","11","4225","626","&#9761;","elianto","#3366ff99","-1","-1","1","+10","[]","0","0","2","","","","","","","",""
"pit-trial","55","599416","0.0-2.0-11.3-3.3","battery-v0.2","","""event"",""trial"",""time""
""fullscreenenter"",""1"",""1128""
""fullscreenexit"",""2"",""2947""
""blur"",""15"",""171351""
""focus"",""15"",""172860""
""blur"",""16"",""177095""
""focus"",""19"",""200737""
""blur"",""19"",""212352""
""focus"",""19"",""215932""
""blur"",""19"",""232476""
""focus"",""19"",""319116""
""blur"",""19"",""342561""
""focus"",""19"",""353484""
""blur"",""47"",""559654""
""focus"",""55"",""598246""
","""event"",""trial"",""time""
""blur"",""15"",""171351""
""blur"",""16"",""177095""
""blur"",""19"",""212352""
""blur"",""19"",""232476""
""blur"",""19"",""342561""
""blur"",""47"",""559654""
","""event"",""trial"",""time""
""focus"",""15"",""172860""
""focus"",""19"",""200737""
""focus"",""19"",""215932""
""focus"",""19"",""319116""
""focus"",""19"",""353484""
""focus"",""55"",""598246""
","""event"",""trial"",""time""
""fullscreenenter"",""1"",""1128""
","""event"",""trial"",""time""
""fullscreenexit"",""2"",""2947""
","","","-1","","","11","4225","626","&#9761;","elianto","#3366ff99","-1","-1","1","0","[]","0","0","2","","","","","","","",""
"pit-trial","56","602352","0.0-2.0-11.3-4.3","battery-v0.2","","""event"",""trial"",""time""
""fullscreenenter"",""1"",""1128""
""fullscreenexit"",""2"",""2947""
""blur"",""15"",""171351""
""focus"",""15"",""172860""
""blur"",""16"",""177095""
""focus"",""19"",""200737""
""blur"",""19"",""212352""
""focus"",""19"",""215932""
""blur"",""19"",""232476""
""focus"",""19"",""319116""
""blur"",""19"",""342561""
""focus"",""19"",""353484""
""blur"",""47"",""559654""
""focus"",""55"",""598246""
","""event"",""trial"",""time""
""blur"",""15"",""171351""
""blur"",""16"",""177095""
""blur"",""19"",""212352""
""blur"",""19"",""232476""
""blur"",""19"",""342561""
""blur"",""47"",""559654""
","""event"",""trial"",""time""
""focus"",""15"",""172860""
""focus"",""19"",""200737""
""focus"",""19"",""215932""
""focus"",""19"",""319116""
""focus"",""19"",""353484""
""focus"",""55"",""598246""
","""event"",""trial"",""time""
""fullscreenenter"",""1"",""1128""
","""event"",""trial"",""time""
""fullscreenexit"",""2"",""2947""
","","","74.70000000018626","","","11","4225","626","&#9761;","elianto","#3366ff99","-1"," ","0","0","[928.2999999998137]","1","0","2","","","","","","","",""
"call-function","57","602353","0.0-2.0-12.0","battery-v0.2","","""event"",""trial"",""time""
""fullscreenenter"",""1"",""1128""
""fullscreenexit"",""2"",""2947""
""blur"",""15"",""171351""
""focus"",""15"",""172860""
""blur"",""16"",""177095""
""focus"",""19"",""200737""
""blur"",""19"",""212352""
""focus"",""19"",""215932""
""blur"",""19"",""232476""
""focus"",""19"",""319116""
""blur"",""19"",""342561""
""focus"",""19"",""353484""
""blur"",""47"",""559654""
""focus"",""55"",""598246""
""blur"",""58"",""610669""
""focus"",""58"",""618069""
""blur"",""58"",""638699""
""focus"",""58"",""660986""
""blur"",""58"",""660996""
""focus"",""58"",""683474""
","""event"",""trial"",""time""
""blur"",""15"",""171351""
""blur"",""16"",""177095""
""blur"",""19"",""212352""
""blur"",""19"",""232476""
""blur"",""19"",""342561""
""blur"",""47"",""559654""
""blur"",""58"",""610669""
""blur"",""58"",""638699""
""blur"",""58"",""660996""
","""event"",""trial"",""time""
""focus"",""15"",""172860""
""focus"",""19"",""200737""
""focus"",""19"",""215932""
""focus"",""19"",""319116""
""focus"",""19"",""353484""
""focus"",""55"",""598246""
""focus"",""58"",""618069""
""focus"",""58"",""660986""
""focus"",""58"",""683474""
","""event"",""trial"",""time""
""fullscreenenter"",""1"",""1128""
","""event"",""trial"",""time""
""fullscreenexit"",""2"",""2947""
","","","","","","","","","","","","","","","","","","","","","","","","","","",""
"pit-instructions","58","712429","0.0-2.0-13.0","battery-v0.2","","""event"",""trial"",""time""
""fullscreenenter"",""1"",""1128""
""fullscreenexit"",""2"",""2947""
""blur"",""15"",""171351""
""focus"",""15"",""172860""
""blur"",""16"",""177095""
""focus"",""19"",""200737""
""blur"",""19"",""212352""
""focus"",""19"",""215932""
""blur"",""19"",""232476""
""focus"",""19"",""319116""
""blur"",""19"",""342561""
""focus"",""19"",""353484""
""blur"",""47"",""559654""
""focus"",""55"",""598246""
""blur"",""58"",""610669""
""focus"",""58"",""618069""
""blur"",""58"",""638699""
""focus"",""58"",""660986""
""blur"",""58"",""660996""
""focus"",""58"",""683474""
","""event"",""trial"",""time""
""blur"",""15"",""171351""
""blur"",""16"",""177095""
""blur"",""19"",""212352""
""blur"",""19"",""232476""
""blur"",""19"",""342561""
""blur"",""47"",""559654""
""blur"",""58"",""610669""
""blur"",""58"",""638699""
""blur"",""58"",""660996""
","""event"",""trial"",""time""
""focus"",""15"",""172860""
""focus"",""19"",""200737""
""focus"",""19"",""215932""
""focus"",""19"",""319116""
""focus"",""19"",""353484""
""focus"",""55"",""598246""
""focus"",""58"",""618069""
""focus"",""58"",""660986""
""focus"",""58"",""683474""
","""event"",""trial"",""time""
""fullscreenenter"",""1"",""1128""
","""event"",""trial"",""time""
""fullscreenexit"",""2"",""2947""
","","[{""page_index"":0,""viewing_time"":15796.900000000373},{""page_index"":1,""viewing_time"":9394.900000000373},{""page_index"":0,""viewing_time"":479.5},{""page_index"":1,""viewing_time"":9843.299999999814},{""page_index"":2,""viewing_time"":46701.799999999814},{""page_index"":3,""viewing_time"":5866.5999999996275},{""page_index"":2,""viewing_time"":3505.7000000001863},{""page_index"":3,""viewing_time"":12523.700000000186},{""page_index"":4,""viewing_time"":5962.0999999996275}]","110074.70000000019","","","","","","","","","","","","","","","","","","","","","","","",""
"pit-trial","59","717296","0.0-2.0-14.0-0.0","battery-v0.2","","""event"",""trial"",""time""
""fullscreenenter"",""1"",""1128""
""fullscreenexit"",""2"",""2947""
""blur"",""15"",""171351""
""focus"",""15"",""172860""
""blur"",""16"",""177095""
""focus"",""19"",""200737""
""blur"",""19"",""212352""
""focus"",""19"",""215932""
""blur"",""19"",""232476""
""focus"",""19"",""319116""
""blur"",""19"",""342561""
""focus"",""19"",""353484""
""blur"",""47"",""559654""
""focus"",""55"",""598246""
""blur"",""58"",""610669""
""focus"",""58"",""618069""
""blur"",""58"",""638699""
""focus"",""58"",""660986""
""blur"",""58"",""660996""
""focus"",""58"",""683474""
","""event"",""trial"",""time""
""blur"",""15"",""171351""
""blur"",""16"",""177095""
""blur"",""19"",""212352""
""blur"",""19"",""232476""
""blur"",""19"",""342561""
""blur"",""47"",""559654""
""blur"",""58"",""610669""
""blur"",""58"",""638699""
""blur"",""58"",""660996""
","""event"",""trial"",""time""
""focus"",""15"",""172860""
""focus"",""19"",""200737""
""focus"",""19"",""215932""
""focus"",""19"",""319116""
""focus"",""19"",""353484""
""focus"",""55"",""598246""
""focus"",""58"",""618069""
""focus"",""58"",""660986""
""focus"",""58"",""683474""
","""event"",""trial"",""time""
""fullscreenenter"",""1"",""1128""
","""event"",""trial"",""time""
""fullscreenexit"",""2"",""2947""
","","","-1","","","11","4225","626","&#9826;","elianto","#f73b6a7A","-1","-1","1","0","[]","0","0","3","","","","","","","",""
"pit-trial","60","722161","0.0-2.0-14.0-1.0","battery-v0.2","","""event"",""trial"",""time""
""fullscreenenter"",""1"",""1128""
""fullscreenexit"",""2"",""2947""
""blur"",""15"",""171351""
""focus"",""15"",""172860""
""blur"",""16"",""177095""
""focus"",""19"",""200737""
""blur"",""19"",""212352""
""focus"",""19"",""215932""
""blur"",""19"",""232476""
""focus"",""19"",""319116""
""blur"",""19"",""342561""
""focus"",""19"",""353484""
""blur"",""47"",""559654""
""focus"",""55"",""598246""
""blur"",""58"",""610669""
""focus"",""58"",""618069""
""blur"",""58"",""638699""
""focus"",""58"",""660986""
""blur"",""58"",""660996""
""focus"",""58"",""683474""
","""event"",""trial"",""time""
""blur"",""15"",""171351""
""blur"",""16"",""177095""
""blur"",""19"",""212352""
""blur"",""19"",""232476""
""blur"",""19"",""342561""
""blur"",""47"",""559654""
""blur"",""58"",""610669""
""blur"",""58"",""638699""
""blur"",""58"",""660996""
","""event"",""trial"",""time""
""focus"",""15"",""172860""
""focus"",""19"",""200737""
""focus"",""19"",""215932""
""focus"",""19"",""319116""
""focus"",""19"",""353484""
""focus"",""55"",""598246""
""focus"",""58"",""618069""
""focus"",""58"",""660986""
""focus"",""58"",""683474""
","""event"",""trial"",""time""
""fullscreenenter"",""1"",""1128""
","""event"",""trial"",""time""
""fullscreenexit"",""2"",""2947""
","","","-1","","","11","4225","626","&#9826;","elianto","#f73b6a7A","-1","-1","1","0","[]","0","0","3","","","","","","","",""
"pit-trial","61","727025","0.0-2.0-14.0-2.0","battery-v0.2","","""event"",""trial"",""time""
""fullscreenenter"",""1"",""1128""
""fullscreenexit"",""2"",""2947""
""blur"",""15"",""171351""
""focus"",""15"",""172860""
""blur"",""16"",""177095""
""focus"",""19"",""200737""
""blur"",""19"",""212352""
""focus"",""19"",""215932""
""blur"",""19"",""232476""
""focus"",""19"",""319116""
""blur"",""19"",""342561""
""focus"",""19"",""353484""
""blur"",""47"",""559654""
""focus"",""55"",""598246""
""blur"",""58"",""610669""
""focus"",""58"",""618069""
""blur"",""58"",""638699""
""focus"",""58"",""660986""
""blur"",""58"",""660996""
""focus"",""58"",""683474""
","""event"",""trial"",""time""
""blur"",""15"",""171351""
""blur"",""16"",""177095""
""blur"",""19"",""212352""
""blur"",""19"",""232476""
""blur"",""19"",""342561""
""blur"",""47"",""559654""
""blur"",""58"",""610669""
""blur"",""58"",""638699""
""blur"",""58"",""660996""
","""event"",""trial"",""time""
""focus"",""15"",""172860""
""focus"",""19"",""200737""
""focus"",""19"",""215932""
""focus"",""19"",""319116""
""focus"",""19"",""353484""
""focus"",""55"",""598246""
""focus"",""58"",""618069""
""focus"",""58"",""660986""
""focus"",""58"",""683474""
","""event"",""trial"",""time""
""fullscreenenter"",""1"",""1128""
","""event"",""trial"",""time""
""fullscreenexit"",""2"",""2947""
","","","-1","","","11","4225","626","&#9826;","elianto","#f73b6a7A","-1","-1","1","0","[]","0","0","3","","","","","","","",""
"pit-trial","62","731888","0.0-2.0-14.0-3.0","battery-v0.2","","""event"",""trial"",""time""
""fullscreenenter"",""1"",""1128""
""fullscreenexit"",""2"",""2947""
""blur"",""15"",""171351""
""focus"",""15"",""172860""
""blur"",""16"",""177095""
""focus"",""19"",""200737""
""blur"",""19"",""212352""
""focus"",""19"",""215932""
""blur"",""19"",""232476""
""focus"",""19"",""319116""
""blur"",""19"",""342561""
""focus"",""19"",""353484""
""blur"",""47"",""559654""
""focus"",""55"",""598246""
""blur"",""58"",""610669""
""focus"",""58"",""618069""
""blur"",""58"",""638699""
""focus"",""58"",""660986""
""blur"",""58"",""660996""
""focus"",""58"",""683474""
","""event"",""trial"",""time""
""blur"",""15"",""171351""
""blur"",""16"",""177095""
""blur"",""19"",""212352""
""blur"",""19"",""232476""
""blur"",""19"",""342561""
""blur"",""47"",""559654""
""blur"",""58"",""610669""
""blur"",""58"",""638699""
""blur"",""58"",""660996""
","""event"",""trial"",""time""
""focus"",""15"",""172860""
""focus"",""19"",""200737""
""focus"",""19"",""215932""
""focus"",""19"",""319116""
""focus"",""19"",""353484""
""focus"",""55"",""598246""
""focus"",""58"",""618069""
""focus"",""58"",""660986""
""focus"",""58"",""683474""
","""event"",""trial"",""time""
""fullscreenenter"",""1"",""1128""
","""event"",""trial"",""time""
""fullscreenexit"",""2"",""2947""
","","","-1","","","11","4225","626","&#9826;","elianto","#f73b6a7A","-1","-1","1","-10","[]","0","0","3","","","","","","","",""
"pit-trial","63","736752","0.0-2.0-14.0-4.0","battery-v0.2","","""event"",""trial"",""time""
""fullscreenenter"",""1"",""1128""
""fullscreenexit"",""2"",""2947""
""blur"",""15"",""171351""
""focus"",""15"",""172860""
""blur"",""16"",""177095""
""focus"",""19"",""200737""
""blur"",""19"",""212352""
""focus"",""19"",""215932""
""blur"",""19"",""232476""
""focus"",""19"",""319116""
""blur"",""19"",""342561""
""focus"",""19"",""353484""
""blur"",""47"",""559654""
""focus"",""55"",""598246""
""blur"",""58"",""610669""
""focus"",""58"",""618069""
""blur"",""58"",""638699""
""focus"",""58"",""660986""
""blur"",""58"",""660996""
""focus"",""58"",""683474""
","""event"",""trial"",""time""
""blur"",""15"",""171351""
""blur"",""16"",""177095""
""blur"",""19"",""212352""
""blur"",""19"",""232476""
""blur"",""19"",""342561""
""blur"",""47"",""559654""
""blur"",""58"",""610669""
""blur"",""58"",""638699""
""blur"",""58"",""660996""
","""event"",""trial"",""time""
""focus"",""15"",""172860""
""focus"",""19"",""200737""
""focus"",""19"",""215932""
""focus"",""19"",""319116""
""focus"",""19"",""353484""
""focus"",""55"",""598246""
""focus"",""58"",""618069""
""focus"",""58"",""660986""
""focus"",""58"",""683474""
","""event"",""trial"",""time""
""fullscreenenter"",""1"",""1128""
","""event"",""trial"",""time""
""fullscreenexit"",""2"",""2947""
","","","-1","","","11","4225","626","&#9826;","elianto","#f73b6a7A","-1","-1","1","0","[]","0","0","3","","","","","","","",""
"pit-trial","64","741617","0.0-2.0-14.1-0.1","battery-v0.2","","""event"",""trial"",""time""
""fullscreenenter"",""1"",""1128""
""fullscreenexit"",""2"",""2947""
""blur"",""15"",""171351""
""focus"",""15"",""172860""
""blur"",""16"",""177095""
""focus"",""19"",""200737""
""blur"",""19"",""212352""
""focus"",""19"",""215932""
""blur"",""19"",""232476""
""focus"",""19"",""319116""
""blur"",""19"",""342561""
""focus"",""19"",""353484""
""blur"",""47"",""559654""
""focus"",""55"",""598246""
""blur"",""58"",""610669""
""focus"",""58"",""618069""
""blur"",""58"",""638699""
""focus"",""58"",""660986""
""blur"",""58"",""660996""
""focus"",""58"",""683474""
","""event"",""trial"",""time""
""blur"",""15"",""171351""
""blur"",""16"",""177095""
""blur"",""19"",""212352""
""blur"",""19"",""232476""
""blur"",""19"",""342561""
""blur"",""47"",""559654""
""blur"",""58"",""610669""
""blur"",""58"",""638699""
""blur"",""58"",""660996""
","""event"",""trial"",""time""
""focus"",""15"",""172860""
""focus"",""19"",""200737""
""focus"",""19"",""215932""
""focus"",""19"",""319116""
""focus"",""19"",""353484""
""focus"",""55"",""598246""
""focus"",""58"",""618069""
""focus"",""58"",""660986""
""focus"",""58"",""683474""
","""event"",""trial"",""time""
""fullscreenenter"",""1"",""1128""
","""event"",""trial"",""time""
""fullscreenexit"",""2"",""2947""
","","","-1","","","11","4225","626","&#9826;","elianto","#f73b6a7A","-1","-1","1","0","[]","0","0","3","","","","","","","",""
"pit-trial","65","746481","0.0-2.0-14.1-1.1","battery-v0.2","","""event"",""trial"",""time""
""fullscreenenter"",""1"",""1128""
""fullscreenexit"",""2"",""2947""
""blur"",""15"",""171351""
""focus"",""15"",""172860""
""blur"",""16"",""177095""
""focus"",""19"",""200737""
""blur"",""19"",""212352""
""focus"",""19"",""215932""
""blur"",""19"",""232476""
""focus"",""19"",""319116""
""blur"",""19"",""342561""
""focus"",""19"",""353484""
""blur"",""47"",""559654""
""focus"",""55"",""598246""
""blur"",""58"",""610669""
""focus"",""58"",""618069""
""blur"",""58"",""638699""
""focus"",""58"",""660986""
""blur"",""58"",""660996""
""focus"",""58"",""683474""
","""event"",""trial"",""time""
""blur"",""15"",""171351""
""blur"",""16"",""177095""
""blur"",""19"",""212352""
""blur"",""19"",""232476""
""blur"",""19"",""342561""
""blur"",""47"",""559654""
""blur"",""58"",""610669""
""blur"",""58"",""638699""
""blur"",""58"",""660996""
","""event"",""trial"",""time""
""focus"",""15"",""172860""
""focus"",""19"",""200737""
""focus"",""19"",""215932""
""focus"",""19"",""319116""
""focus"",""19"",""353484""
""focus"",""55"",""598246""
""focus"",""58"",""618069""
""focus"",""58"",""660986""
""focus"",""58"",""683474""
","""event"",""trial"",""time""
""fullscreenenter"",""1"",""1128""
","""event"",""trial"",""time""
""fullscreenexit"",""2"",""2947""
","","","-1","","","11","4225","626","&#9826;","elianto","#f73b6a7A","-1","-1","1","0","[]","0","0","3","","","","","","","",""
"pit-trial","66","751345","0.0-2.0-14.1-2.1","battery-v0.2","","""event"",""trial"",""time""
""fullscreenenter"",""1"",""1128""
""fullscreenexit"",""2"",""2947""
""blur"",""15"",""171351""
""focus"",""15"",""172860""
""blur"",""16"",""177095""
""focus"",""19"",""200737""
""blur"",""19"",""212352""
""focus"",""19"",""215932""
""blur"",""19"",""232476""
""focus"",""19"",""319116""
""blur"",""19"",""342561""
""focus"",""19"",""353484""
""blur"",""47"",""559654""
""focus"",""55"",""598246""
""blur"",""58"",""610669""
""focus"",""58"",""618069""
""blur"",""58"",""638699""
""focus"",""58"",""660986""
""blur"",""58"",""660996""
""focus"",""58"",""683474""
","""event"",""trial"",""time""
""blur"",""15"",""171351""
""blur"",""16"",""177095""
""blur"",""19"",""212352""
""blur"",""19"",""232476""
""blur"",""19"",""342561""
""blur"",""47"",""559654""
""blur"",""58"",""610669""
""blur"",""58"",""638699""
""blur"",""58"",""660996""
","""event"",""trial"",""time""
""focus"",""15"",""172860""
""focus"",""19"",""200737""
""focus"",""19"",""215932""
""focus"",""19"",""319116""
""focus"",""19"",""353484""
""focus"",""55"",""598246""
""focus"",""58"",""618069""
""focus"",""58"",""660986""
""focus"",""58"",""683474""
","""event"",""trial"",""time""
""fullscreenenter"",""1"",""1128""
","""event"",""trial"",""time""
""fullscreenexit"",""2"",""2947""
","","","-1","","","11","4225","626","&#9826;","elianto","#f73b6a7A","-1","-1","1","0","[]","0","0","3","","","","","","","",""
"pit-trial","67","756208","0.0-2.0-14.1-3.1","battery-v0.2","","""event"",""trial"",""time""
""fullscreenenter"",""1"",""1128""
""fullscreenexit"",""2"",""2947""
""blur"",""15"",""171351""
""focus"",""15"",""172860""
""blur"",""16"",""177095""
""focus"",""19"",""200737""
""blur"",""19"",""212352""
""focus"",""19"",""215932""
""blur"",""19"",""232476""
""focus"",""19"",""319116""
""blur"",""19"",""342561""
""focus"",""19"",""353484""
""blur"",""47"",""559654""
""focus"",""55"",""598246""
""blur"",""58"",""610669""
""focus"",""58"",""618069""
""blur"",""58"",""638699""
""focus"",""58"",""660986""
""blur"",""58"",""660996""
""focus"",""58"",""683474""
","""event"",""trial"",""time""
""blur"",""15"",""171351""
""blur"",""16"",""177095""
""blur"",""19"",""212352""
""blur"",""19"",""232476""
""blur"",""19"",""342561""
""blur"",""47"",""559654""
""blur"",""58"",""610669""
""blur"",""58"",""638699""
""blur"",""58"",""660996""
","""event"",""trial"",""time""
""focus"",""15"",""172860""
""focus"",""19"",""200737""
""focus"",""19"",""215932""
""focus"",""19"",""319116""
""focus"",""19"",""353484""
""focus"",""55"",""598246""
""focus"",""58"",""618069""
""focus"",""58"",""660986""
""focus"",""58"",""683474""
","""event"",""trial"",""time""
""fullscreenenter"",""1"",""1128""
","""event"",""trial"",""time""
""fullscreenexit"",""2"",""2947""
","","","-1","","","11","4225","626","&#9826;","elianto","#f73b6a7A","-1","-1","1","-10","[]","0","0","3","","","","","","","",""
"pit-trial","68","761084","0.0-2.0-14.1-4.1","battery-v0.2","","""event"",""trial"",""time""
""fullscreenenter"",""1"",""1128""
""fullscreenexit"",""2"",""2947""
""blur"",""15"",""171351""
""focus"",""15"",""172860""
""blur"",""16"",""177095""
""focus"",""19"",""200737""
""blur"",""19"",""212352""
""focus"",""19"",""215932""
""blur"",""19"",""232476""
""focus"",""19"",""319116""
""blur"",""19"",""342561""
""focus"",""19"",""353484""
""blur"",""47"",""559654""
""focus"",""55"",""598246""
""blur"",""58"",""610669""
""focus"",""58"",""618069""
""blur"",""58"",""638699""
""focus"",""58"",""660986""
""blur"",""58"",""660996""
""focus"",""58"",""683474""
","""event"",""trial"",""time""
""blur"",""15"",""171351""
""blur"",""16"",""177095""
""blur"",""19"",""212352""
""blur"",""19"",""232476""
""blur"",""19"",""342561""
""blur"",""47"",""559654""
""blur"",""58"",""610669""
""blur"",""58"",""638699""
""blur"",""58"",""660996""
","""event"",""trial"",""time""
""focus"",""15"",""172860""
""focus"",""19"",""200737""
""focus"",""19"",""215932""
""focus"",""19"",""319116""
""focus"",""19"",""353484""
""focus"",""55"",""598246""
""focus"",""58"",""618069""
""focus"",""58"",""660986""
""focus"",""58"",""683474""
","""event"",""trial"",""time""
""fullscreenenter"",""1"",""1128""
","""event"",""trial"",""time""
""fullscreenexit"",""2"",""2947""
","","","-1","","","11","4225","626","&#9826;","elianto","#f73b6a7A","-1","-1","1","0","[]","0","0","3","","","","","","","",""
"pit-trial","69","765952","0.0-2.0-14.2-0.2","battery-v0.2","","""event"",""trial"",""time""
""fullscreenenter"",""1"",""1128""
""fullscreenexit"",""2"",""2947""
""blur"",""15"",""171351""
""focus"",""15"",""172860""
""blur"",""16"",""177095""
""focus"",""19"",""200737""
""blur"",""19"",""212352""
""focus"",""19"",""215932""
""blur"",""19"",""232476""
""focus"",""19"",""319116""
""blur"",""19"",""342561""
""focus"",""19"",""353484""
""blur"",""47"",""559654""
""focus"",""55"",""598246""
""blur"",""58"",""610669""
""focus"",""58"",""618069""
""blur"",""58"",""638699""
""focus"",""58"",""660986""
""blur"",""58"",""660996""
""focus"",""58"",""683474""
","""event"",""trial"",""time""
""blur"",""15"",""171351""
""blur"",""16"",""177095""
""blur"",""19"",""212352""
""blur"",""19"",""232476""
""blur"",""19"",""342561""
""blur"",""47"",""559654""
""blur"",""58"",""610669""
""blur"",""58"",""638699""
""blur"",""58"",""660996""
","""event"",""trial"",""time""
""focus"",""15"",""172860""
""focus"",""19"",""200737""
""focus"",""19"",""215932""
""focus"",""19"",""319116""
""focus"",""19"",""353484""
""focus"",""55"",""598246""
""focus"",""58"",""618069""
""focus"",""58"",""660986""
""focus"",""58"",""683474""
","""event"",""trial"",""time""
""fullscreenenter"",""1"",""1128""
","""event"",""trial"",""time""
""fullscreenexit"",""2"",""2947""
","","","-1","","","11","4225","626","&#9826;","elianto","#f73b6a7A","-1","-1","1","0","[]","0","0","3","","","","","","","",""
"pit-trial","70","770816","0.0-2.0-14.2-1.2","battery-v0.2","","""event"",""trial"",""time""
""fullscreenenter"",""1"",""1128""
""fullscreenexit"",""2"",""2947""
""blur"",""15"",""171351""
""focus"",""15"",""172860""
""blur"",""16"",""177095""
""focus"",""19"",""200737""
""blur"",""19"",""212352""
""focus"",""19"",""215932""
""blur"",""19"",""232476""
""focus"",""19"",""319116""
""blur"",""19"",""342561""
""focus"",""19"",""353484""
""blur"",""47"",""559654""
""focus"",""55"",""598246""
""blur"",""58"",""610669""
""focus"",""58"",""618069""
""blur"",""58"",""638699""
""focus"",""58"",""660986""
""blur"",""58"",""660996""
""focus"",""58"",""683474""
""blur"",""71"",""773578""
","""event"",""trial"",""time""
""blur"",""15"",""171351""
""blur"",""16"",""177095""
""blur"",""19"",""212352""
""blur"",""19"",""232476""
""blur"",""19"",""342561""
""blur"",""47"",""559654""
""blur"",""58"",""610669""
""blur"",""58"",""638699""
""blur"",""58"",""660996""
""blur"",""71"",""773578""
","""event"",""trial"",""time""
""focus"",""15"",""172860""
""focus"",""19"",""200737""
""focus"",""19"",""215932""
""focus"",""19"",""319116""
""focus"",""19"",""353484""
""focus"",""55"",""598246""
""focus"",""58"",""618069""
""focus"",""58"",""660986""
""focus"",""58"",""683474""
","""event"",""trial"",""time""
""fullscreenenter"",""1"",""1128""
","""event"",""trial"",""time""
""fullscreenexit"",""2"",""2947""
","","","-1","","","11","4225","626","&#9826;","elianto","#f73b6a7A","-1","-1","1","0","[]","0","0","3","","","","","","","",""
"pit-trial","71","775689","0.0-2.0-14.2-2.2","battery-v0.2","","""event"",""trial"",""time""
""fullscreenenter"",""1"",""1128""
""fullscreenexit"",""2"",""2947""
""blur"",""15"",""171351""
""focus"",""15"",""172860""
""blur"",""16"",""177095""
""focus"",""19"",""200737""
""blur"",""19"",""212352""
""focus"",""19"",""215932""
""blur"",""19"",""232476""
""focus"",""19"",""319116""
""blur"",""19"",""342561""
""focus"",""19"",""353484""
""blur"",""47"",""559654""
""focus"",""55"",""598246""
""blur"",""58"",""610669""
""focus"",""58"",""618069""
""blur"",""58"",""638699""
""focus"",""58"",""660986""
""blur"",""58"",""660996""
""focus"",""58"",""683474""
""blur"",""71"",""773578""
","""event"",""trial"",""time""
""blur"",""15"",""171351""
""blur"",""16"",""177095""
""blur"",""19"",""212352""
""blur"",""19"",""232476""
""blur"",""19"",""342561""
""blur"",""47"",""559654""
""blur"",""58"",""610669""
""blur"",""58"",""638699""
""blur"",""58"",""660996""
""blur"",""71"",""773578""
","""event"",""trial"",""time""
""focus"",""15"",""172860""
""focus"",""19"",""200737""
""focus"",""19"",""215932""
""focus"",""19"",""319116""
""focus"",""19"",""353484""
""focus"",""55"",""598246""
""focus"",""58"",""618069""
""focus"",""58"",""660986""
""focus"",""58"",""683474""
","""event"",""trial"",""time""
""fullscreenenter"",""1"",""1128""
","""event"",""trial"",""time""
""fullscreenexit"",""2"",""2947""
","","","-1","","","11","4225","626","&#9826;","elianto","#f73b6a7A","-1","-1","1","0","[]","0","0","3","","","","","","","",""
"pit-trial","72","780568","0.0-2.0-14.2-3.2","battery-v0.2","","""event"",""trial"",""time""
""fullscreenenter"",""1"",""1128""
""fullscreenexit"",""2"",""2947""
""blur"",""15"",""171351""
""focus"",""15"",""172860""
""blur"",""16"",""177095""
""focus"",""19"",""200737""
""blur"",""19"",""212352""
""focus"",""19"",""215932""
""blur"",""19"",""232476""
""focus"",""19"",""319116""
""blur"",""19"",""342561""
""focus"",""19"",""353484""
""blur"",""47"",""559654""
""focus"",""55"",""598246""
""blur"",""58"",""610669""
""focus"",""58"",""618069""
""blur"",""58"",""638699""
""focus"",""58"",""660986""
""blur"",""58"",""660996""
""focus"",""58"",""683474""
""blur"",""71"",""773578""
","""event"",""trial"",""time""
""blur"",""15"",""171351""
""blur"",""16"",""177095""
""blur"",""19"",""212352""
""blur"",""19"",""232476""
""blur"",""19"",""342561""
""blur"",""47"",""559654""
""blur"",""58"",""610669""
""blur"",""58"",""638699""
""blur"",""58"",""660996""
""blur"",""71"",""773578""
","""event"",""trial"",""time""
""focus"",""15"",""172860""
""focus"",""19"",""200737""
""focus"",""19"",""215932""
""focus"",""19"",""319116""
""focus"",""19"",""353484""
""focus"",""55"",""598246""
""focus"",""58"",""618069""
""focus"",""58"",""660986""
""focus"",""58"",""683474""
","""event"",""trial"",""time""
""fullscreenenter"",""1"",""1128""
","""event"",""trial"",""time""
""fullscreenexit"",""2"",""2947""
","","","-1","","","11","4225","626","&#9826;","elianto","#f73b6a7A","-1","-1","1","-10","[]","0","0","3","","","","","","","",""
"pit-trial","73","785433","0.0-2.0-14.2-4.2","battery-v0.2","","""event"",""trial"",""time""
""fullscreenenter"",""1"",""1128""
""fullscreenexit"",""2"",""2947""
""blur"",""15"",""171351""
""focus"",""15"",""172860""
""blur"",""16"",""177095""
""focus"",""19"",""200737""
""blur"",""19"",""212352""
""focus"",""19"",""215932""
""blur"",""19"",""232476""
""focus"",""19"",""319116""
""blur"",""19"",""342561""
""focus"",""19"",""353484""
""blur"",""47"",""559654""
""focus"",""55"",""598246""
""blur"",""58"",""610669""
""focus"",""58"",""618069""
""blur"",""58"",""638699""
""focus"",""58"",""660986""
""blur"",""58"",""660996""
""focus"",""58"",""683474""
""blur"",""71"",""773578""
","""event"",""trial"",""time""
""blur"",""15"",""171351""
""blur"",""16"",""177095""
""blur"",""19"",""212352""
""blur"",""19"",""232476""
""blur"",""19"",""342561""
""blur"",""47"",""559654""
""blur"",""58"",""610669""
""blur"",""58"",""638699""
""blur"",""58"",""660996""
""blur"",""71"",""773578""
","""event"",""trial"",""time""
""focus"",""15"",""172860""
""focus"",""19"",""200737""
""focus"",""19"",""215932""
""focus"",""19"",""319116""
""focus"",""19"",""353484""
""focus"",""55"",""598246""
""focus"",""58"",""618069""
""focus"",""58"",""660986""
""focus"",""58"",""683474""
","""event"",""trial"",""time""
""fullscreenenter"",""1"",""1128""
","""event"",""trial"",""time""
""fullscreenexit"",""2"",""2947""
","","","-1","","","11","4225","626","&#9826;","elianto","#f73b6a7A","-1","-1","1","0","[]","0","0","3","","","","","","","",""
"pit-trial","74","790300","0.0-2.0-14.3-0.3","battery-v0.2","","""event"",""trial"",""time""
""fullscreenenter"",""1"",""1128""
""fullscreenexit"",""2"",""2947""
""blur"",""15"",""171351""
""focus"",""15"",""172860""
""blur"",""16"",""177095""
""focus"",""19"",""200737""
""blur"",""19"",""212352""
""focus"",""19"",""215932""
""blur"",""19"",""232476""
""focus"",""19"",""319116""
""blur"",""19"",""342561""
""focus"",""19"",""353484""
""blur"",""47"",""559654""
""focus"",""55"",""598246""
""blur"",""58"",""610669""
""focus"",""58"",""618069""
""blur"",""58"",""638699""
""focus"",""58"",""660986""
""blur"",""58"",""660996""
""focus"",""58"",""683474""
""blur"",""71"",""773578""
","""event"",""trial"",""time""
""blur"",""15"",""171351""
""blur"",""16"",""177095""
""blur"",""19"",""212352""
""blur"",""19"",""232476""
""blur"",""19"",""342561""
""blur"",""47"",""559654""
""blur"",""58"",""610669""
""blur"",""58"",""638699""
""blur"",""58"",""660996""
""blur"",""71"",""773578""
","""event"",""trial"",""time""
""focus"",""15"",""172860""
""focus"",""19"",""200737""
""focus"",""19"",""215932""
""focus"",""19"",""319116""
""focus"",""19"",""353484""
""focus"",""55"",""598246""
""focus"",""58"",""618069""
""focus"",""58"",""660986""
""focus"",""58"",""683474""
","""event"",""trial"",""time""
""fullscreenenter"",""1"",""1128""
","""event"",""trial"",""time""
""fullscreenexit"",""2"",""2947""
","","","-1","","","11","4225","626","&#9826;","elianto","#f73b6a7A","-1","-1","1","0","[]","0","0","3","","","","","","","",""
"pit-trial","75","795169","0.0-2.0-14.3-1.3","battery-v0.2","","""event"",""trial"",""time""
""fullscreenenter"",""1"",""1128""
""fullscreenexit"",""2"",""2947""
""blur"",""15"",""171351""
""focus"",""15"",""172860""
""blur"",""16"",""177095""
""focus"",""19"",""200737""
""blur"",""19"",""212352""
""focus"",""19"",""215932""
""blur"",""19"",""232476""
""focus"",""19"",""319116""
""blur"",""19"",""342561""
""focus"",""19"",""353484""
""blur"",""47"",""559654""
""focus"",""55"",""598246""
""blur"",""58"",""610669""
""focus"",""58"",""618069""
""blur"",""58"",""638699""
""focus"",""58"",""660986""
""blur"",""58"",""660996""
""focus"",""58"",""683474""
""blur"",""71"",""773578""
","""event"",""trial"",""time""
""blur"",""15"",""171351""
""blur"",""16"",""177095""
""blur"",""19"",""212352""
""blur"",""19"",""232476""
""blur"",""19"",""342561""
""blur"",""47"",""559654""
""blur"",""58"",""610669""
""blur"",""58"",""638699""
""blur"",""58"",""660996""
""blur"",""71"",""773578""
","""event"",""trial"",""time""
""focus"",""15"",""172860""
""focus"",""19"",""200737""
""focus"",""19"",""215932""
""focus"",""19"",""319116""
""focus"",""19"",""353484""
""focus"",""55"",""598246""
""focus"",""58"",""618069""
""focus"",""58"",""660986""
""focus"",""58"",""683474""
","""event"",""trial"",""time""
""fullscreenenter"",""1"",""1128""
","""event"",""trial"",""time""
""fullscreenexit"",""2"",""2947""
","","","-1","","","11","4225","626","&#9826;","elianto","#f73b6a7A","-1","-1","1","0","[]","0","0","3","","","","","","","",""
"pit-trial","76","800033","0.0-2.0-14.3-2.3","battery-v0.2","","""event"",""trial"",""time""
""fullscreenenter"",""1"",""1128""
""fullscreenexit"",""2"",""2947""
""blur"",""15"",""171351""
""focus"",""15"",""172860""
""blur"",""16"",""177095""
""focus"",""19"",""200737""
""blur"",""19"",""212352""
""focus"",""19"",""215932""
""blur"",""19"",""232476""
""focus"",""19"",""319116""
""blur"",""19"",""342561""
""focus"",""19"",""353484""
""blur"",""47"",""559654""
""focus"",""55"",""598246""
""blur"",""58"",""610669""
""focus"",""58"",""618069""
""blur"",""58"",""638699""
""focus"",""58"",""660986""
""blur"",""58"",""660996""
""focus"",""58"",""683474""
""blur"",""71"",""773578""
","""event"",""trial"",""time""
""blur"",""15"",""171351""
""blur"",""16"",""177095""
""blur"",""19"",""212352""
""blur"",""19"",""232476""
""blur"",""19"",""342561""
""blur"",""47"",""559654""
""blur"",""58"",""610669""
""blur"",""58"",""638699""
""blur"",""58"",""660996""
""blur"",""71"",""773578""
","""event"",""trial"",""time""
""focus"",""15"",""172860""
""focus"",""19"",""200737""
""focus"",""19"",""215932""
""focus"",""19"",""319116""
""focus"",""19"",""353484""
""focus"",""55"",""598246""
""focus"",""58"",""618069""
""focus"",""58"",""660986""
""focus"",""58"",""683474""
","""event"",""trial"",""time""
""fullscreenenter"",""1"",""1128""
","""event"",""trial"",""time""
""fullscreenexit"",""2"",""2947""
","","","-1","","","11","4225","626","&#9826;","elianto","#f73b6a7A","-1","-1","1","0","[]","0","0","3","","","","","","","",""
"pit-trial","77","804896","0.0-2.0-14.3-3.3","battery-v0.2","","""event"",""trial"",""time""
""fullscreenenter"",""1"",""1128""
""fullscreenexit"",""2"",""2947""
""blur"",""15"",""171351""
""focus"",""15"",""172860""
""blur"",""16"",""177095""
""focus"",""19"",""200737""
""blur"",""19"",""212352""
""focus"",""19"",""215932""
""blur"",""19"",""232476""
""focus"",""19"",""319116""
""blur"",""19"",""342561""
""focus"",""19"",""353484""
""blur"",""47"",""559654""
""focus"",""55"",""598246""
""blur"",""58"",""610669""
""focus"",""58"",""618069""
""blur"",""58"",""638699""
""focus"",""58"",""660986""
""blur"",""58"",""660996""
""focus"",""58"",""683474""
""blur"",""71"",""773578""
""focus"",""78"",""809235""
","""event"",""trial"",""time""
""blur"",""15"",""171351""
""blur"",""16"",""177095""
""blur"",""19"",""212352""
""blur"",""19"",""232476""
""blur"",""19"",""342561""
""blur"",""47"",""559654""
""blur"",""58"",""610669""
""blur"",""58"",""638699""
""blur"",""58"",""660996""
""blur"",""71"",""773578""
","""event"",""trial"",""time""
""focus"",""15"",""172860""
""focus"",""19"",""200737""
""focus"",""19"",""215932""
""focus"",""19"",""319116""
""focus"",""19"",""353484""
""focus"",""55"",""598246""
""focus"",""58"",""618069""
""focus"",""58"",""660986""
""focus"",""58"",""683474""
""focus"",""78"",""809235""
","""event"",""trial"",""time""
""fullscreenenter"",""1"",""1128""
","""event"",""trial"",""time""
""fullscreenexit"",""2"",""2947""
","","","-1","","","11","4225","626","&#9826;","elianto","#f73b6a7A","-1","-1","1","-10","[]","0","0","3","","","","","","","",""
"pit-trial","78","809759","0.0-2.0-14.3-4.3","battery-v0.2","","""event"",""trial"",""time""
""fullscreenenter"",""1"",""1128""
""fullscreenexit"",""2"",""2947""
""blur"",""15"",""171351""
""focus"",""15"",""172860""
""blur"",""16"",""177095""
""focus"",""19"",""200737""
""blur"",""19"",""212352""
""focus"",""19"",""215932""
""blur"",""19"",""232476""
""focus"",""19"",""319116""
""blur"",""19"",""342561""
""focus"",""19"",""353484""
""blur"",""47"",""559654""
""focus"",""55"",""598246""
""blur"",""58"",""610669""
""focus"",""58"",""618069""
""blur"",""58"",""638699""
""focus"",""58"",""660986""
""blur"",""58"",""660996""
""focus"",""58"",""683474""
""blur"",""71"",""773578""
""focus"",""78"",""809235""
","""event"",""trial"",""time""
""blur"",""15"",""171351""
""blur"",""16"",""177095""
""blur"",""19"",""212352""
""blur"",""19"",""232476""
""blur"",""19"",""342561""
""blur"",""47"",""559654""
""blur"",""58"",""610669""
""blur"",""58"",""638699""
""blur"",""58"",""660996""
""blur"",""71"",""773578""
","""event"",""trial"",""time""
""focus"",""15"",""172860""
""focus"",""19"",""200737""
""focus"",""19"",""215932""
""focus"",""19"",""319116""
""focus"",""19"",""353484""
""focus"",""55"",""598246""
""focus"",""58"",""618069""
""focus"",""58"",""660986""
""focus"",""58"",""683474""
""focus"",""78"",""809235""
","""event"",""trial"",""time""
""fullscreenenter"",""1"",""1128""
","""event"",""trial"",""time""
""fullscreenexit"",""2"",""2947""
","","","-1","","","11","4225","626","&#9826;","elianto","#f73b6a7A","-1","-1","1","0","[]","0","0","3","","","","","","","",""
"call-function","79","809760","0.0-2.0-15.0","battery-v0.2","","""event"",""trial"",""time""
""fullscreenenter"",""1"",""1128""
""fullscreenexit"",""2"",""2947""
""blur"",""15"",""171351""
""focus"",""15"",""172860""
""blur"",""16"",""177095""
""focus"",""19"",""200737""
""blur"",""19"",""212352""
""focus"",""19"",""215932""
""blur"",""19"",""232476""
""focus"",""19"",""319116""
""blur"",""19"",""342561""
""focus"",""19"",""353484""
""blur"",""47"",""559654""
""focus"",""55"",""598246""
""blur"",""58"",""610669""
""focus"",""58"",""618069""
""blur"",""58"",""638699""
""focus"",""58"",""660986""
""blur"",""58"",""660996""
""focus"",""58"",""683474""
""blur"",""71"",""773578""
""focus"",""78"",""809235""
""blur"",""80"",""823215""
""focus"",""80"",""835472""
""blur"",""80"",""847791""
""focus"",""80"",""850502""
","""event"",""trial"",""time""
""blur"",""15"",""171351""
""blur"",""16"",""177095""
""blur"",""19"",""212352""
""blur"",""19"",""232476""
""blur"",""19"",""342561""
""blur"",""47"",""559654""
""blur"",""58"",""610669""
""blur"",""58"",""638699""
""blur"",""58"",""660996""
""blur"",""71"",""773578""
""blur"",""80"",""823215""
""blur"",""80"",""847791""
","""event"",""trial"",""time""
""focus"",""15"",""172860""
""focus"",""19"",""200737""
""focus"",""19"",""215932""
""focus"",""19"",""319116""
""focus"",""19"",""353484""
""focus"",""55"",""598246""
""focus"",""58"",""618069""
""focus"",""58"",""660986""
""focus"",""58"",""683474""
""focus"",""78"",""809235""
""focus"",""80"",""835472""
""focus"",""80"",""850502""
","""event"",""trial"",""time""
""fullscreenenter"",""1"",""1128""
","""event"",""trial"",""time""
""fullscreenexit"",""2"",""2947""
","","","","","","","","","","","","","","","","","","","","","","","","","","",""
"pit-instructions","80","855241","0.0-2.0-16.0","battery-v0.2","","""event"",""trial"",""time""
""fullscreenenter"",""1"",""1128""
""fullscreenexit"",""2"",""2947""
""blur"",""15"",""171351""
""focus"",""15"",""172860""
""blur"",""16"",""177095""
""focus"",""19"",""200737""
""blur"",""19"",""212352""
""focus"",""19"",""215932""
""blur"",""19"",""232476""
""focus"",""19"",""319116""
""blur"",""19"",""342561""
""focus"",""19"",""353484""
""blur"",""47"",""559654""
""focus"",""55"",""598246""
""blur"",""58"",""610669""
""focus"",""58"",""618069""
""blur"",""58"",""638699""
""focus"",""58"",""660986""
""blur"",""58"",""660996""
""focus"",""58"",""683474""
""blur"",""71"",""773578""
""focus"",""78"",""809235""
""blur"",""80"",""823215""
""focus"",""80"",""835472""
""blur"",""80"",""847791""
""focus"",""80"",""850502""
","""event"",""trial"",""time""
""blur"",""15"",""171351""
""blur"",""16"",""177095""
""blur"",""19"",""212352""
""blur"",""19"",""232476""
""blur"",""19"",""342561""
""blur"",""47"",""559654""
""blur"",""58"",""610669""
""blur"",""58"",""638699""
""blur"",""58"",""660996""
""blur"",""71"",""773578""
""blur"",""80"",""823215""
""blur"",""80"",""847791""
","""event"",""trial"",""time""
""focus"",""15"",""172860""
""focus"",""19"",""200737""
""focus"",""19"",""215932""
""focus"",""19"",""319116""
""focus"",""19"",""353484""
""focus"",""55"",""598246""
""focus"",""58"",""618069""
""focus"",""58"",""660986""
""focus"",""58"",""683474""
""focus"",""78"",""809235""
""focus"",""80"",""835472""
""focus"",""80"",""850502""
","""event"",""trial"",""time""
""fullscreenenter"",""1"",""1128""
","""event"",""trial"",""time""
""fullscreenexit"",""2"",""2947""
","","[{""page_index"":0,""viewing_time"":8539.599999999627},{""page_index"":1,""viewing_time"":17261.799999999814},{""page_index"":2,""viewing_time"":15044.300000000745},{""page_index"":3,""viewing_time"":4633.699999999255}]","45479.700000000186","","","","","","","","","","","","","","","","","","","","","","","",""
"pit-trial","81","858304","0.0-2.0-17.0-0.0","battery-v0.2","","""event"",""trial"",""time""
""fullscreenenter"",""1"",""1128""
""fullscreenexit"",""2"",""2947""
""blur"",""15"",""171351""
""focus"",""15"",""172860""
""blur"",""16"",""177095""
""focus"",""19"",""200737""
""blur"",""19"",""212352""
""focus"",""19"",""215932""
""blur"",""19"",""232476""
""focus"",""19"",""319116""
""blur"",""19"",""342561""
""focus"",""19"",""353484""
""blur"",""47"",""559654""
""focus"",""55"",""598246""
""blur"",""58"",""610669""
""focus"",""58"",""618069""
""blur"",""58"",""638699""
""focus"",""58"",""660986""
""blur"",""58"",""660996""
""focus"",""58"",""683474""
""blur"",""71"",""773578""
""focus"",""78"",""809235""
""blur"",""80"",""823215""
""focus"",""80"",""835472""
""blur"",""80"",""847791""
""focus"",""80"",""850502""
","""event"",""trial"",""time""
""blur"",""15"",""171351""
""blur"",""16"",""177095""
""blur"",""19"",""212352""
""blur"",""19"",""232476""
""blur"",""19"",""342561""
""blur"",""47"",""559654""
""blur"",""58"",""610669""
""blur"",""58"",""638699""
""blur"",""58"",""660996""
""blur"",""71"",""773578""
""blur"",""80"",""823215""
""blur"",""80"",""847791""
","""event"",""trial"",""time""
""focus"",""15"",""172860""
""focus"",""19"",""200737""
""focus"",""19"",""215932""
""focus"",""19"",""319116""
""focus"",""19"",""353484""
""focus"",""55"",""598246""
""focus"",""58"",""618069""
""focus"",""58"",""660986""
""focus"",""58"",""683474""
""focus"",""78"",""809235""
""focus"",""80"",""835472""
""focus"",""80"",""850502""
","""event"",""trial"",""time""
""fullscreenenter"",""1"",""1128""
","""event"",""trial"",""time""
""fullscreenexit"",""2"",""2947""
","","","209.29999999981374","","","11","4225","626","&#9789;","elianto","#f73b6a7A"," "," ","1","0","[1060]","1","0","4","","","","","","","",""
"pit-trial","82","861655","0.0-2.0-17.0-1.0","battery-v0.2","","""event"",""trial"",""time""
""fullscreenenter"",""1"",""1128""
""fullscreenexit"",""2"",""2947""
""blur"",""15"",""171351""
""focus"",""15"",""172860""
""blur"",""16"",""177095""
""focus"",""19"",""200737""
""blur"",""19"",""212352""
""focus"",""19"",""215932""
""blur"",""19"",""232476""
""focus"",""19"",""319116""
""blur"",""19"",""342561""
""focus"",""19"",""353484""
""blur"",""47"",""559654""
""focus"",""55"",""598246""
""blur"",""58"",""610669""
""focus"",""58"",""618069""
""blur"",""58"",""638699""
""focus"",""58"",""660986""
""blur"",""58"",""660996""
""focus"",""58"",""683474""
""blur"",""71"",""773578""
""focus"",""78"",""809235""
""blur"",""80"",""823215""
""focus"",""80"",""835472""
""blur"",""80"",""847791""
""focus"",""80"",""850502""
","""event"",""trial"",""time""
""blur"",""15"",""171351""
""blur"",""16"",""177095""
""blur"",""19"",""212352""
""blur"",""19"",""232476""
""blur"",""19"",""342561""
""blur"",""47"",""559654""
""blur"",""58"",""610669""
""blur"",""58"",""638699""
""blur"",""58"",""660996""
""blur"",""71"",""773578""
""blur"",""80"",""823215""
""blur"",""80"",""847791""
","""event"",""trial"",""time""
""focus"",""15"",""172860""
""focus"",""19"",""200737""
""focus"",""19"",""215932""
""focus"",""19"",""319116""
""focus"",""19"",""353484""
""focus"",""55"",""598246""
""focus"",""58"",""618069""
""focus"",""58"",""660986""
""focus"",""58"",""683474""
""focus"",""78"",""809235""
""focus"",""80"",""835472""
""focus"",""80"",""850502""
","""event"",""trial"",""time""
""fullscreenenter"",""1"",""1128""
","""event"",""trial"",""time""
""fullscreenexit"",""2"",""2947""
","","","494.79999999981374","","","11","4225","626","&#9789;","elianto","#f73b6a7A"," "," ","1","0","[1345]","1","0","4","","","","","","","",""
"pit-trial","83","865368","0.0-2.0-17.0-2.0","battery-v0.2","","""event"",""trial"",""time""
""fullscreenenter"",""1"",""1128""
""fullscreenexit"",""2"",""2947""
""blur"",""15"",""171351""
""focus"",""15"",""172860""
""blur"",""16"",""177095""
""focus"",""19"",""200737""
""blur"",""19"",""212352""
""focus"",""19"",""215932""
""blur"",""19"",""232476""
""focus"",""19"",""319116""
""blur"",""19"",""342561""
""focus"",""19"",""353484""
""blur"",""47"",""559654""
""focus"",""55"",""598246""
""blur"",""58"",""610669""
""focus"",""58"",""618069""
""blur"",""58"",""638699""
""focus"",""58"",""660986""
""blur"",""58"",""660996""
""focus"",""58"",""683474""
""blur"",""71"",""773578""
""focus"",""78"",""809235""
""blur"",""80"",""823215""
""focus"",""80"",""835472""
""blur"",""80"",""847791""
""focus"",""80"",""850502""
","""event"",""trial"",""time""
""blur"",""15"",""171351""
""blur"",""16"",""177095""
""blur"",""19"",""212352""
""blur"",""19"",""232476""
""blur"",""19"",""342561""
""blur"",""47"",""559654""
""blur"",""58"",""610669""
""blur"",""58"",""638699""
""blur"",""58"",""660996""
""blur"",""71"",""773578""
""blur"",""80"",""823215""
""blur"",""80"",""847791""
","""event"",""trial"",""time""
""focus"",""15"",""172860""
""focus"",""19"",""200737""
""focus"",""19"",""215932""
""focus"",""19"",""319116""
""focus"",""19"",""353484""
""focus"",""55"",""598246""
""focus"",""58"",""618069""
""focus"",""58"",""660986""
""focus"",""58"",""683474""
""focus"",""78"",""809235""
""focus"",""80"",""835472""
""focus"",""80"",""850502""
","""event"",""trial"",""time""
""fullscreenenter"",""1"",""1128""
","""event"",""trial"",""time""
""fullscreenexit"",""2"",""2947""
","","","851.7000000001863","","","11","4225","626","&#9789;","elianto","#f73b6a7A"," "," ","1","0","[1702.2000000001863]","1","0","4","","","","","","","",""
"pit-trial","84","868592","0.0-2.0-17.0-3.0","battery-v0.2","","""event"",""trial"",""time""
""fullscreenenter"",""1"",""1128""
""fullscreenexit"",""2"",""2947""
""blur"",""15"",""171351""
""focus"",""15"",""172860""
""blur"",""16"",""177095""
""focus"",""19"",""200737""
""blur"",""19"",""212352""
""focus"",""19"",""215932""
""blur"",""19"",""232476""
""focus"",""19"",""319116""
""blur"",""19"",""342561""
""focus"",""19"",""353484""
""blur"",""47"",""559654""
""focus"",""55"",""598246""
""blur"",""58"",""610669""
""focus"",""58"",""618069""
""blur"",""58"",""638699""
""focus"",""58"",""660986""
""blur"",""58"",""660996""
""focus"",""58"",""683474""
""blur"",""71"",""773578""
""focus"",""78"",""809235""
""blur"",""80"",""823215""
""focus"",""80"",""835472""
""blur"",""80"",""847791""
""focus"",""80"",""850502""
","""event"",""trial"",""time""
""blur"",""15"",""171351""
""blur"",""16"",""177095""
""blur"",""19"",""212352""
""blur"",""19"",""232476""
""blur"",""19"",""342561""
""blur"",""47"",""559654""
""blur"",""58"",""610669""
""blur"",""58"",""638699""
""blur"",""58"",""660996""
""blur"",""71"",""773578""
""blur"",""80"",""823215""
""blur"",""80"",""847791""
","""event"",""trial"",""time""
""focus"",""15"",""172860""
""focus"",""19"",""200737""
""focus"",""19"",""215932""
""focus"",""19"",""319116""
""focus"",""19"",""353484""
""focus"",""55"",""598246""
""focus"",""58"",""618069""
""focus"",""58"",""660986""
""focus"",""58"",""683474""
""focus"",""78"",""809235""
""focus"",""80"",""835472""
""focus"",""80"",""850502""
","""event"",""trial"",""time""
""fullscreenenter"",""1"",""1128""
","""event"",""trial"",""time""
""fullscreenexit"",""2"",""2947""
