"trial_type","trial_index","time_elapsed","internal_node_id","task_version","subject_id","interactions","blur_events","focus_events","fullscreenenter_events","fullscreenexit_events","success","view_history","rt","responses","num_errors","age","subject","participantId","rune","rune_set","hex","correct","choice","accuracy","outcome","keys","total_keys","block","practice","value","sub","trial","stimulus","robot","valence","action","sham"
"pavlovia","0","9","0.0-0.0","battery-v0.2","","""event"",""trial"",""time""
""fullscreenenter"",""1"",""2087""
","
","
","""event"",""trial"",""time""
""fullscreenenter"",""1"",""2087""
","
","","","","","","","","","","","","","","","","","","","","","","","","","","",""
"fullscreen","1","3074","0.0-1.0","battery-v0.2","","""event"",""trial"",""time""
""fullscreenenter"",""1"",""2087""
","
","
","""event"",""trial"",""time""
""fullscreenenter"",""1"",""2087""
","
","true","","","","","","","","","","","","","","","","","","","","","","","","","",""
"pit-instructions","2","7007","0.0-2.0-0.0","battery-v0.2","","""event"",""trial"",""time""
""fullscreenenter"",""1"",""2087""
","
","
","""event"",""trial"",""time""
""fullscreenenter"",""1"",""2087""
","
","","[{""page_index"":0,""viewing_time"":3921.599999964237}]","3922.5","","","","","","","","","","","","","","","","","","","","","","","",""
"pit-comprehension","3","9493","0.0-2.0-1.0-0.0","battery-v0.2","","""event"",""trial"",""time""
""fullscreenenter"",""1"",""2087""
","
","
","""event"",""trial"",""time""
""fullscreenenter"",""1"",""2087""
","
","","","2478.400000035763","[""shark""]","0","19","9688","1780","","","","","","","","","","","","","","","","","","",""
"pit-instructions","4","10584","0.0-2.0-1.0-1.0","battery-v0.2","","""event"",""trial"",""time""
""fullscreenenter"",""1"",""2087""
","
","
","""event"",""trial"",""time""
""fullscreenenter"",""1"",""2087""
","
","","[{""page_index"":0,""viewing_time"":1076.0999999642372}]","1076.699999988079","","","","","","","","","","","","","","","","","","","","","","","",""
"pit-comprehension","5","13234","0.0-2.0-2.0-0.0","battery-v0.2","","""event"",""trial"",""time""
""fullscreenenter"",""1"",""2087""
","
","
","""event"",""trial"",""time""
""fullscreenenter"",""1"",""2087""
","
","","","2643.300000011921","[""tiger""]","0","19","9688","1780","","","","","","","","","","","","","","","","","","",""
"pit-instructions","6","14666","0.0-2.0-2.0-1.0","battery-v0.2","","""event"",""trial"",""time""
""fullscreenenter"",""1"",""2087""
","
","
","""event"",""trial"",""time""
""fullscreenenter"",""1"",""2087""
","
","","[{""page_index"":0,""viewing_time"":1425.800000011921}]","1426.699999988079","","","","","","","","","","","","","","","","","","","","","","","",""
"pit-instructions","7","116545","0.0-2.0-3.0","battery-v0.2","","""event"",""trial"",""time""
""fullscreenenter"",""1"",""2087""
","
","
","""event"",""trial"",""time""
""fullscreenenter"",""1"",""2087""
","
","","[{""page_index"":0,""viewing_time"":7845.300000011921},{""page_index"":1,""viewing_time"":7817.199999988079},{""page_index"":2,""viewing_time"":7081.400000035763},{""page_index"":3,""viewing_time"":6299.099999964237},{""page_index"":4,""viewing_time"":6641.400000035763},{""page_index"":5,""viewing_time"":6977.799999952316},{""page_index"":6,""viewing_time"":7630.900000035763},{""page_index"":7,""viewing_time"":7086.199999988079},{""page_index"":8,""viewing_time"":6868.899999976158},{""page_index"":9,""viewing_time"":9801},{""page_index"":10,""viewing_time"":7722.900000035763},{""page_index"":11,""viewing_time"":8162.699999988079},{""page_index"":12,""viewing_time"":6678.100000023842},{""page_index"":13,""viewing_time"":5254.599999964237}]","101868.60000002384","","","","","","","","","","","","","","","","","","","","","","","",""
"pit-trial","8","120116","0.0-2.0-4.0-0.0","battery-v0.2","","""event"",""trial"",""time""
""fullscreenenter"",""1"",""2087""
","
","
","""event"",""trial"",""time""
""fullscreenenter"",""1"",""2087""
","
","","","705.1000000238419","","","19","9688","1780","&#9784;","elianto","#FFFFF080"," "," ","1","&#10004","[1561.1000000238419]","1","0","0","","","","","","","",""
"pit-trial","9","123818","0.0-2.0-4.1-0.1","battery-v0.2","","""event"",""trial"",""time""
""fullscreenenter"",""1"",""2087""
","
","
","""event"",""trial"",""time""
""fullscreenenter"",""1"",""2087""
","
","","","829","","","19","9688","1780","&#9784;","elianto","#FFFFF080"," "," ","1","&#10004","[1679.300000011921]","1","0","0","","","","","","","",""
"pit-trial","10","127616","0.0-2.0-4.2-0.2","battery-v0.2","","""event"",""trial"",""time""
""fullscreenenter"",""1"",""2087""
","
","
","""event"",""trial"",""time""
""fullscreenenter"",""1"",""2087""
","
","","","931","","","19","9688","1780","&#9784;","elianto","#FFFFF080"," "," ","1","&#10004","[1783.699999988079]","1","0","0","","","","","","","",""
"pit-trial","11","131248","0.0-2.0-4.3-0.3","battery-v0.2","","""event"",""trial"",""time""
""fullscreenenter"",""1"",""2087""
","
","
","""event"",""trial"",""time""
""fullscreenenter"",""1"",""2087""
","
","","","770.8999999761581","","","19","9688","1780","&#9784;","elianto","#FFFFF080"," "," ","1","&#10004","[1623.300000011921]","1","0","0","","","","","","","",""
"pit-trial","12","134823","0.0-2.0-4.4-0.4","battery-v0.2","","""event"",""trial"",""time""
""fullscreenenter"",""1"",""2087""
","
","
","""event"",""trial"",""time""
""fullscreenenter"",""1"",""2087""
","
","","","709.4000000357628","","","19","9688","1780","&#9784;","elianto","#FFFFF080"," "," ","1","&#10004","[1562.300000011921]","1","0","0","","","","","","","",""
"pit-instructions","13","156093","0.0-2.0-5.0","battery-v0.2","","""event"",""trial"",""time""
""fullscreenenter"",""1"",""2087""
","
","
","""event"",""trial"",""time""
""fullscreenenter"",""1"",""2087""
","
","","[{""page_index"":0,""viewing_time"":5160.700000047684},{""page_index"":1,""viewing_time"":5670},{""page_index"":2,""viewing_time"":4830},{""page_index"":3,""viewing_time"":5600.799999952316}]","21262.400000035763","","","","","","","","","","","","","","","","","","","","","","","",""
"pit-trial","14","160965","0.0-2.0-6.0-0.0","battery-v0.2","","""event"",""trial"",""time""
""fullscreenenter"",""1"",""2087""
","
","
","""event"",""trial"",""time""
""fullscreenenter"",""1"",""2087""
","
","","","-1","","","19","9688","1780","&#9854;","elianto","#FFFFF080","-1","-1","1","&#10004","[]","0","0","1","","","","","","","",""
"pit-trial","15","165828","0.0-2.0-6.1-0.1","battery-v0.2","","""event"",""trial"",""time""
""fullscreenenter"",""1"",""2087""
","
","
","""event"",""trial"",""time""
""fullscreenenter"",""1"",""2087""
","
","","","-1","","","19","9688","1780","&#9854;","elianto","#FFFFF080","-1","-1","1","&#10004","[]","0","0","1","","","","","","","",""
"pit-trial","16","170698","0.0-2.0-6.2-0.2","battery-v0.2","","""event"",""trial"",""time""
""fullscreenenter"",""1"",""2087""
","
","
","""event"",""trial"",""time""
""fullscreenenter"",""1"",""2087""
","
","","","-1","","","19","9688","1780","&#9854;","elianto","#FFFFF080","-1","-1","1","&#10004","[]","0","0","1","","","","","","","",""
"pit-trial","17","175570","0.0-2.0-6.3-0.3","battery-v0.2","","""event"",""trial"",""time""
""fullscreenenter"",""1"",""2087""
","
","
","""event"",""trial"",""time""
""fullscreenenter"",""1"",""2087""
","
","","","-1","","","19","9688","1780","&#9854;","elianto","#FFFFF080","-1","-1","1","&#10004","[]","0","0","1","","","","","","","",""
"pit-trial","18","180459","0.0-2.0-6.4-0.4","battery-v0.2","","""event"",""trial"",""time""
""fullscreenenter"",""1"",""2087""
","
","
","""event"",""trial"",""time""
""fullscreenenter"",""1"",""2087""
","
","","","-1","","","19","9688","1780","&#9854;","elianto","#FFFFF080","-1","-1","1","&#10004","[]","0","0","1","","","","","","","",""
"pit-instructions","19","306839","0.0-2.0-7.0","battery-v0.2","","""event"",""trial"",""time""
""fullscreenenter"",""1"",""2087""
","
","
","""event"",""trial"",""time""
""fullscreenenter"",""1"",""2087""
","
","","[{""page_index"":0,""viewing_time"":7461.699999988079},{""page_index"":1,""viewing_time"":7471.700000047684},{""page_index"":2,""viewing_time"":7234.699999988079},{""page_index"":3,""viewing_time"":7693.300000011921},{""page_index"":4,""viewing_time"":6319.699999988079},{""page_index"":5,""viewing_time"":6113.599999964237},{""page_index"":6,""viewing_time"":6147.700000047684},{""page_index"":7,""viewing_time"":8039.199999988079},{""page_index"":8,""viewing_time"":6829.199999988079},{""page_index"":9,""viewing_time"":6339.800000011921},{""page_index"":10,""viewing_time"":6921.5},{""page_index"":11,""viewing_time"":4599.899999976158},{""page_index"":12,""viewing_time"":8010.900000035763},{""page_index"":13,""viewing_time"":7700},{""page_index"":14,""viewing_time"":7598.099999964237},{""page_index"":15,""viewing_time"":7207.5},{""page_index"":16,""viewing_time"":6813.600000023842},{""page_index"":17,""viewing_time"":7868}]","126371.19999998808","","","","","","","","","","","","","","","","","","","","","","","",""
"pit-trial","20","310639","0.0-2.0-8.0-0.0","battery-v0.2","","""event"",""trial"",""time""
""fullscreenenter"",""1"",""2087""
","
","
","""event"",""trial"",""time""
""fullscreenenter"",""1"",""2087""
","
","","","938.1999999880791","","","19","9688","1780","&#9776;","elianto","#3366ff99"," "," ","1","+10","[1789.300000011921]","1","0","1","","","","","","","",""
"pit-trial","21","314464","0.0-2.0-8.0-1.0","battery-v0.2","","""event"",""trial"",""time""
""fullscreenenter"",""1"",""2087""
","
","
","""event"",""trial"",""time""
""fullscreenenter"",""1"",""2087""
","
","","","952.5","","","19","9688","1780","&#9776;","elianto","#3366ff99"," "," ","1","+10","[1810.5]","1","0","1","","","","","","","",""
"pit-trial","22","318164","0.0-2.0-8.0-2.0","battery-v0.2","","""event"",""trial"",""time""
""fullscreenenter"",""1"",""2087""
","
","
","""event"",""trial"",""time""
""fullscreenenter"",""1"",""2087""
","
","","","837.6999999880791","","","19","9688","1780","&#9776;","elianto","#3366ff99"," "," ","1","+10","[1689.3999999761581]","1","0","1","","","","","","","",""
"pit-trial","23","321804","0.0-2.0-8.0-3.0","battery-v0.2","","""event"",""trial"",""time""
""fullscreenenter"",""1"",""2087""
","
","
","""event"",""trial"",""time""
""fullscreenenter"",""1"",""2087""
","
","","","775.6999999880791","","","19","9688","1780","&#9776;","elianto","#3366ff99"," "," ","1","0","[1629.5999999642372]","1","0","1","","","","","","","",""
"pit-trial","24","325623","0.0-2.0-8.0-4.0","battery-v0.2","","""event"",""trial"",""time""
""fullscreenenter"",""1"",""2087""
","
","
","""event"",""trial"",""time""
""fullscreenenter"",""1"",""2087""
","
","","","949","","","19","9688","1780","&#9776;","elianto","#3366ff99"," "," ","1","+10","[1803.5]","1","0","1","","","","","","","",""
"pit-trial","25","329172","0.0-2.0-8.1-0.1","battery-v0.2","","""event"",""trial"",""time""
""fullscreenenter"",""1"",""2087""
","
","
","""event"",""trial"",""time""
""fullscreenenter"",""1"",""2087""
","
","","","689.8999999761581","","","19","9688","1780","&#9776;","elianto","#3366ff99"," "," ","1","+10","[1541]","1","0","1","","","","","","","",""
"pit-trial","26","333062","0.0-2.0-8.1-1.1","battery-v0.2","","""event"",""trial"",""time""
""fullscreenenter"",""1"",""2087""
","
","
","""event"",""trial"",""time""
""fullscreenenter"",""1"",""2087""
","
","","","1023.5","","","19","9688","1780","&#9776;","elianto","#3366ff99"," "," ","1","+10","[1874.3999999761581]","1","0","1","","","","","","","",""
"pit-trial","27","336838","0.0-2.0-8.1-2.1","battery-v0.2","","""event"",""trial"",""time""
""fullscreenenter"",""1"",""2087""
","
","
","""event"",""trial"",""time""
""fullscreenenter"",""1"",""2087""
","
","","","911.6999999880791","","","19","9688","1780","&#9776;","elianto","#3366ff99"," "," ","1","+10","[1766]","1","0","1","","","","","","","",""
"pit-trial","28","340529","0.0-2.0-8.1-3.1","battery-v0.2","","""event"",""trial"",""time""
""fullscreenenter"",""1"",""2087""
","
","
","""event"",""trial"",""time""
""fullscreenenter"",""1"",""2087""
","
","","","823","","","19","9688","1780","&#9776;","elianto","#3366ff99"," "," ","1","0","[1678]","1","0","1","","","","","","","",""
"pit-trial","29","344136","0.0-2.0-8.1-4.1","battery-v0.2","","""event"",""trial"",""time""
""fullscreenenter"",""1"",""2087""
","
","
","""event"",""trial"",""time""
""fullscreenenter"",""1"",""2087""
","
","","","739.6999999880791","","","19","9688","1780","&#9776;","elianto","#3366ff99"," "," ","1","+10","[1594.199999988079]","1","0","1","","","","","","","",""
"pit-trial","30","347777","0.0-2.0-8.2-0.2","battery-v0.2","","""event"",""trial"",""time""
""fullscreenenter"",""1"",""2087""
","
","
","""event"",""trial"",""time""
""fullscreenenter"",""1"",""2087""
","
","","","780.4000000357628","","","19","9688","1780","&#9776;","elianto","#3366ff99"," "," ","1","+10","[1632.5]","1","0","1","","","","","","","",""
"pit-trial","31","351362","0.0-2.0-8.2-1.2","battery-v0.2","","""event"",""trial"",""time""
""fullscreenenter"",""1"",""2087""
","
","
","""event"",""trial"",""time""
""fullscreenenter"",""1"",""2087""
","
","","","718.6999999880791","","","19","9688","1780","&#9776;","elianto","#3366ff99"," "," ","1","+10","[1573.0999999642372]","1","0","1","","","","","","","",""
"pit-trial","32","354619","0.0-2.0-8.2-2.2","battery-v0.2","","""event"",""trial"",""time""
""fullscreenenter"",""1"",""2087""
","
","
","""event"",""trial"",""time""
""fullscreenenter"",""1"",""2087""
","
","","","399.60000002384186","","","19","9688","1780","&#9776;","elianto","#3366ff99"," "," ","1","+10","[1251.800000011921]","1","0","1","","","","","","","",""
"pit-trial","33","357959","0.0-2.0-8.2-3.2","battery-v0.2","","""event"",""trial"",""time""
""fullscreenenter"",""1"",""2087""
","
","
","""event"",""trial"",""time""
""fullscreenenter"",""1"",""2087""
","
","","","479.30000001192093","","","19","9688","1780","&#9776;","elianto","#3366ff99"," "," ","1","0","[1333.699999988079]","1","0","1","","","","","","","",""
"pit-trial","34","361209","0.0-2.0-8.2-4.2","battery-v0.2","","""event"",""trial"",""time""
""fullscreenenter"",""1"",""2087""
","
","
","""event"",""trial"",""time""
""fullscreenenter"",""1"",""2087""
","
","","","388.80000001192093","","","19","9688","1780","&#9776;","elianto","#3366ff99"," "," ","1","+10","[1243.3999999761581]","1","0","1","","","","","","","",""
"call-function","35","361212","0.0-2.0-9.0","battery-v0.2","","""event"",""trial"",""time""
""fullscreenenter"",""1"",""2087""
","
","
","""event"",""trial"",""time""
""fullscreenenter"",""1"",""2087""
","
","","","","","","","","","","","","","","","","","","","","","","","","","","",""
"pit-instructions","36","405131","0.0-2.0-10.0","battery-v0.2","","""event"",""trial"",""time""
""fullscreenenter"",""1"",""2087""
","
","
","""event"",""trial"",""time""
""fullscreenenter"",""1"",""2087""
","
","","[{""page_index"":0,""viewing_time"":6199.099999964237},{""page_index"":1,""viewing_time"":7229.400000035763},{""page_index"":2,""viewing_time"":10326.899999976158},{""page_index"":3,""viewing_time"":13132.5},{""page_index"":4,""viewing_time"":7029.199999988079}]","43918.39999997616","","","","","","","","","","","","","","","","","","","","","","","",""
"pit-trial","37","410007","0.0-2.0-11.0-0.0","battery-v0.2","","""event"",""trial"",""time""
""fullscreenenter"",""1"",""2087""
","
","
","""event"",""trial"",""time""
""fullscreenenter"",""1"",""2087""
","
","","","-1","","","19","9688","1780","&#9761;","elianto","#3366ff99","-1","-1","1","+10","[]","0","0","2","","","","","","","",""
"pit-trial","38","414870","0.0-2.0-11.0-1.0","battery-v0.2","","""event"",""trial"",""time""
""fullscreenenter"",""1"",""2087""
","
","
","""event"",""trial"",""time""
""fullscreenenter"",""1"",""2087""
","
","","","-1","","","19","9688","1780","&#9761;","elianto","#3366ff99","-1","-1","1","+10","[]","0","0","2","","","","","","","",""
"pit-trial","39","419749","0.0-2.0-11.0-2.0","battery-v0.2","","""event"",""trial"",""time""
""fullscreenenter"",""1"",""2087""
","
","
","""event"",""trial"",""time""
""fullscreenenter"",""1"",""2087""
","
","","","-1","","","19","9688","1780","&#9761;","elianto","#3366ff99","-1","-1","1","+10","[]","0","0","2","","","","","","","",""
"pit-trial","40","424626","0.0-2.0-11.0-3.0","battery-v0.2","","""event"",""trial"",""time""
""fullscreenenter"",""1"",""2087""
","
","
","""event"",""trial"",""time""
""fullscreenenter"",""1"",""2087""
","
","","","-1","","","19","9688","1780","&#9761;","elianto","#3366ff99","-1","-1","1","0","[]","0","0","2","","","","","","","",""
"pit-trial","41","429489","0.0-2.0-11.0-4.0","battery-v0.2","","""event"",""trial"",""time""
""fullscreenenter"",""1"",""2087""
","
","
","""event"",""trial"",""time""
""fullscreenenter"",""1"",""2087""
","
","","","-1","","","19","9688","1780","&#9761;","elianto","#3366ff99","-1","-1","1","+10","[]","0","0","2","","","","","","","",""
"pit-trial","42","434358","0.0-2.0-11.1-0.1","battery-v0.2","","""event"",""trial"",""time""
""fullscreenenter"",""1"",""2087""
","
","
","""event"",""trial"",""time""
""fullscreenenter"",""1"",""2087""
","
","","","-1","","","19","9688","1780","&#9761;","elianto","#3366ff99","-1","-1","1","+10","[]","0","0","2","","","","","","","",""
"pit-trial","43","439214","0.0-2.0-11.1-1.1","battery-v0.2","","""event"",""trial"",""time""
""fullscreenenter"",""1"",""2087""
","
","
","""event"",""trial"",""time""
""fullscreenenter"",""1"",""2087""
","
","","","-1","","","19","9688","1780","&#9761;","elianto","#3366ff99","-1","-1","1","+10","[]","0","0","2","","","","","","","",""
"pit-trial","44","444085","0.0-2.0-11.1-2.1","battery-v0.2","","""event"",""trial"",""time""
""fullscreenenter"",""1"",""2087""
","
","
","""event"",""trial"",""time""
""fullscreenenter"",""1"",""2087""
","
","","","-1","","","19","9688","1780","&#9761;","elianto","#3366ff99","-1","-1","1","+10","[]","0","0","2","","","","","","","",""
"pit-trial","45","448944","0.0-2.0-11.1-3.1","battery-v0.2","","""event"",""trial"",""time""
""fullscreenenter"",""1"",""2087""
","
","
","""event"",""trial"",""time""
""fullscreenenter"",""1"",""2087""
","
","","","-1","","","19","9688","1780","&#9761;","elianto","#3366ff99","-1","-1","1","0","[]","0","0","2","","","","","","","",""
"pit-trial","46","453807","0.0-2.0-11.1-4.1","battery-v0.2","","""event"",""trial"",""time""
""fullscreenenter"",""1"",""2087""
","
","
","""event"",""trial"",""time""
""fullscreenenter"",""1"",""2087""
","
","","","-1","","","19","9688","1780","&#9761;","elianto","#3366ff99","-1","-1","1","+10","[]","0","0","2","","","","","","","",""
"pit-trial","47","458670","0.0-2.0-11.2-0.2","battery-v0.2","","""event"",""trial"",""time""
""fullscreenenter"",""1"",""2087""
","
","
","""event"",""trial"",""time""
""fullscreenenter"",""1"",""2087""
","
","","","-1","","","19","9688","1780","&#9761;","elianto","#3366ff99","-1","-1","1","+10","[]","0","0","2","","","","","","","",""
"pit-trial","48","463530","0.0-2.0-11.2-1.2","battery-v0.2","","""event"",""trial"",""time""
""fullscreenenter"",""1"",""2087""
","
","
","""event"",""trial"",""time""
""fullscreenenter"",""1"",""2087""
","
","","","-1","","","19","9688","1780","&#9761;","elianto","#3366ff99","-1","-1","1","+10","[]","0","0","2","","","","","","","",""
"pit-trial","49","468396","0.0-2.0-11.2-2.2","battery-v0.2","","""event"",""trial"",""time""
""fullscreenenter"",""1"",""2087""
","
","
","""event"",""trial"",""time""
""fullscreenenter"",""1"",""2087""
","
","","","-1","","","19","9688","1780","&#9761;","elianto","#3366ff99","-1","-1","1","+10","[]","0","0","2","","","","","","","",""
"pit-trial","50","473260","0.0-2.0-11.2-3.2","battery-v0.2","","""event"",""trial"",""time""
""fullscreenenter"",""1"",""2087""
","
","
","""event"",""trial"",""time""
""fullscreenenter"",""1"",""2087""
","
","","","-1","","","19","9688","1780","&#9761;","elianto","#3366ff99","-1","-1","1","0","[]","0","0","2","","","","","","","",""
"pit-trial","51","478129","0.0-2.0-11.2-4.2","battery-v0.2","","""event"",""trial"",""time""
""fullscreenenter"",""1"",""2087""
","
","
","""event"",""trial"",""time""
""fullscreenenter"",""1"",""2087""
","
","","","-1","","","19","9688","1780","&#9761;","elianto","#3366ff99","-1","-1","1","+10","[]","0","0","2","","","","","","","",""
"pit-trial","52","483000","0.0-2.0-11.3-0.3","battery-v0.2","","""event"",""trial"",""time""
""fullscreenenter"",""1"",""2087""
","
","
","""event"",""trial"",""time""
""fullscreenenter"",""1"",""2087""
","
","","","-1","","","19","9688","1780","&#9761;","elianto","#3366ff99","-1","-1","1","+10","[]","0","0","2","","","","","","","",""
"pit-trial","53","487861","0.0-2.0-11.3-1.3","battery-v0.2","","""event"",""trial"",""time""
""fullscreenenter"",""1"",""2087""
","
","
","""event"",""trial"",""time""
""fullscreenenter"",""1"",""2087""
","
","","","-1","","","19","9688","1780","&#9761;","elianto","#3366ff99","-1","-1","1","+10","[]","0","0","2","","","","","","","",""
"pit-trial","54","492725","0.0-2.0-11.3-2.3","battery-v0.2","","""event"",""trial"",""time""
""fullscreenenter"",""1"",""2087""
","
","
","""event"",""trial"",""time""
""fullscreenenter"",""1"",""2087""
","
","","","-1","","","19","9688","1780","&#9761;","elianto","#3366ff99","-1","-1","1","+10","[]","0","0","2","","","","","","","",""
"pit-trial","55","497588","0.0-2.0-11.3-3.3","battery-v0.2","","""event"",""trial"",""time""
""fullscreenenter"",""1"",""2087""
","
","
","""event"",""trial"",""time""
""fullscreenenter"",""1"",""2087""
","
","","","-1","","","19","9688","1780","&#9761;","elianto","#3366ff99","-1","-1","1","0","[]","0","0","2","","","","","","","",""
"pit-trial","56","502456","0.0-2.0-11.3-4.3","battery-v0.2","","""event"",""trial"",""time""
""fullscreenenter"",""1"",""2087""
","
","
","""event"",""trial"",""time""
""fullscreenenter"",""1"",""2087""
","
","","","-1","","","19","9688","1780","&#9761;","elianto","#3366ff99","-1","-1","1","+10","[]","0","0","2","","","","","","","",""
"call-function","57","502458","0.0-2.0-12.0","battery-v0.2","","""event"",""trial"",""time""
""fullscreenenter"",""1"",""2087""
","
","
","""event"",""trial"",""time""
""fullscreenenter"",""1"",""2087""
","
","","","","","","","","","","","","","","","","","","","","","","","","","","",""
"pit-instructions","58","537486","0.0-2.0-13.0","battery-v0.2","","""event"",""trial"",""time""
""fullscreenenter"",""1"",""2087""
","
","
","""event"",""trial"",""time""
""fullscreenenter"",""1"",""2087""
","
","","[{""page_index"":0,""viewing_time"":5945.100000023842},{""page_index"":1,""viewing_time"":6748.699999988079},{""page_index"":2,""viewing_time"":3823.300000011921},{""page_index"":3,""viewing_time"":10959.800000011921},{""page_index"":4,""viewing_time"":7549.099999964237}]","35026.60000002384","","","","","","","","","","","","","","","","","","","","","","","",""
"pit-trial","59","540922","0.0-2.0-14.0-0.0","battery-v0.2","","""event"",""trial"",""time""
""fullscreenenter"",""1"",""2087""
","
","
","""event"",""trial"",""time""
""fullscreenenter"",""1"",""2087""
","
","","","574.3000000119209","","","19","9688","1780","&#9826;","elianto","#f73b6a7A","-1"," ","0","-10","[1431.199999988079]","1","0","3","","","","","","","",""
"pit-trial","60","545798","0.0-2.0-14.0-1.0","battery-v0.2","","""event"",""trial"",""time""
""fullscreenenter"",""1"",""2087""
","
","
","""event"",""trial"",""time""
""fullscreenenter"",""1"",""2087""
","
","","","-1","","","19","9688","1780","&#9826;","elianto","#f73b6a7A","-1","-1","1","0","[]","0","0","3","","","","","","","",""
"pit-trial","61","550680","0.0-2.0-14.0-2.0","battery-v0.2","","""event"",""trial"",""time""
""fullscreenenter"",""1"",""2087""
","
","
","""event"",""trial"",""time""
""fullscreenenter"",""1"",""2087""
","
","","","-1","","","19","9688","1780","&#9826;","elianto","#f73b6a7A","-1","-1","1","0","[]","0","0","3","","","","","","","",""
"pit-trial","62","555549","0.0-2.0-14.0-3.0","battery-v0.2","","""event"",""trial"",""time""
""fullscreenenter"",""1"",""2087""
","
","
","""event"",""trial"",""time""
""fullscreenenter"",""1"",""2087""
","
","","","-1","","","19","9688","1780","&#9826;","elianto","#f73b6a7A","-1","-1","1","-10","[]","0","0","3","","","","","","","",""
"pit-trial","63","560416","0.0-2.0-14.0-4.0","battery-v0.2","","""event"",""trial"",""time""
""fullscreenenter"",""1"",""2087""
","
","
","""event"",""trial"",""time""
""fullscreenenter"",""1"",""2087""
","
","","","-1","","","19","9688","1780","&#9826;","elianto","#f73b6a7A","-1","-1","1","0","[]","0","0","3","","","","","","","",""
"pit-trial","64","565303","0.0-2.0-14.1-0.1","battery-v0.2","","""event"",""trial"",""time""
""fullscreenenter"",""1"",""2087""
","
","
","""event"",""trial"",""time""
""fullscreenenter"",""1"",""2087""
","
","","","-1","","","19","9688","1780","&#9826;","elianto","#f73b6a7A","-1","-1","1","0","[]","0","0","3","","","","","","","",""
"pit-trial","65","570164","0.0-2.0-14.1-1.1","battery-v0.2","","""event"",""trial"",""time""
""fullscreenenter"",""1"",""2087""
","
","
","""event"",""trial"",""time""
""fullscreenenter"",""1"",""2087""
","
","","","-1","","","19","9688","1780","&#9826;","elianto","#f73b6a7A","-1","-1","1","0","[]","0","0","3","","","","","","","",""
"pit-trial","66","575026","0.0-2.0-14.1-2.1","battery-v0.2","","""event"",""trial"",""time""
""fullscreenenter"",""1"",""2087""
","
","
","""event"",""trial"",""time""
""fullscreenenter"",""1"",""2087""
","
","","","-1","","","19","9688","1780","&#9826;","elianto","#f73b6a7A","-1","-1","1","0","[]","0","0","3","","","","","","","",""
"pit-trial","67","579888","0.0-2.0-14.1-3.1","battery-v0.2","","""event"",""trial"",""time""
""fullscreenenter"",""1"",""2087""
","
","
","""event"",""trial"",""time""
""fullscreenenter"",""1"",""2087""
","
","","","-1","","","19","9688","1780","&#9826;","elianto","#f73b6a7A","-1","-1","1","-10","[]","0","0","3","","","","","","","",""
"pit-trial","68","584754","0.0-2.0-14.1-4.1","battery-v0.2","","""event"",""trial"",""time""
""fullscreenenter"",""1"",""2087""
","
","
","""event"",""trial"",""time""
""fullscreenenter"",""1"",""2087""
","
","","","-1","","","19","9688","1780","&#9826;","elianto","#f73b6a7A","-1","-1","1","0","[]","0","0","3","","","","","","","",""
"pit-trial","69","589614","0.0-2.0-14.2-0.2","battery-v0.2","","""event"",""trial"",""time""
""fullscreenenter"",""1"",""2087""
","
","
","""event"",""trial"",""time""
""fullscreenenter"",""1"",""2087""
","
","","","-1","","","19","9688","1780","&#9826;","elianto","#f73b6a7A","-1","-1","1","0","[]","0","0","3","","","","","","","",""
"pit-trial","70","594477","0.0-2.0-14.2-1.2","battery-v0.2","","""event"",""trial"",""time""
""fullscreenenter"",""1"",""2087""
","
","
","""event"",""trial"",""time""
""fullscreenenter"",""1"",""2087""
","
","","","-1","","","19","9688","1780","&#9826;","elianto","#f73b6a7A","-1","-1","1","0","[]","0","0","3","","","","","","","",""
"pit-trial","71","599343","0.0-2.0-14.2-2.2","battery-v0.2","","""event"",""trial"",""time""
""fullscreenenter"",""1"",""2087""
","
","
","""event"",""trial"",""time""
""fullscreenenter"",""1"",""2087""
","
","","","-1","","","19","9688","1780","&#9826;","elianto","#f73b6a7A","-1","-1","1","0","[]","0","0","3","","","","","","","",""
"pit-trial","72","604209","0.0-2.0-14.2-3.2","battery-v0.2","","""event"",""trial"",""time""
""fullscreenenter"",""1"",""2087""
","
","
","""event"",""trial"",""time""
""fullscreenenter"",""1"",""2087""
","
","","","-1","","","19","9688","1780","&#9826;","elianto","#f73b6a7A","-1","-1","1","-10","[]","0","0","3","","","","","","","",""
"pit-trial","73","609075","0.0-2.0-14.2-4.2","battery-v0.2","","""event"",""trial"",""time""
""fullscreenenter"",""1"",""2087""
","
","
","""event"",""trial"",""time""
""fullscreenenter"",""1"",""2087""
","
","","","-1","","","19","9688","1780","&#9826;","elianto","#f73b6a7A","-1","-1","1","0","[]","0","0","3","","","","","","","",""
"pit-trial","74","613940","0.0-2.0-14.3-0.3","battery-v0.2","","""event"",""trial"",""time""
""fullscreenenter"",""1"",""2087""
","
","
","""event"",""trial"",""time""
""fullscreenenter"",""1"",""2087""
","
","","","-1","","","19","9688","1780","&#9826;","elianto","#f73b6a7A","-1","-1","1","0","[]","0","0","3","","","","","","","",""
"pit-trial","75","618802","0.0-2.0-14.3-1.3","battery-v0.2","","""event"",""trial"",""time""
""fullscreenenter"",""1"",""2087""
","
","
","""event"",""trial"",""time""
""fullscreenenter"",""1"",""2087""
","
","","","-1","","","19","9688","1780","&#9826;","elianto","#f73b6a7A","-1","-1","1","0","[]","0","0","3","","","","","","","",""
"pit-trial","76","623674","0.0-2.0-14.3-2.3","battery-v0.2","","""event"",""trial"",""time""
""fullscreenenter"",""1"",""2087""
","
","
","""event"",""trial"",""time""
""fullscreenenter"",""1"",""2087""
","
","","","-1","","","19","9688","1780","&#9826;","elianto","#f73b6a7A","-1","-1","1","0","[]","0","0","3","","","","","","","",""
"pit-trial","77","628541","0.0-2.0-14.3-3.3","battery-v0.2","","""event"",""trial"",""time""
""fullscreenenter"",""1"",""2087""
","
","
","""event"",""trial"",""time""
""fullscreenenter"",""1"",""2087""
","
","","","-1","","","19","9688","1780","&#9826;","elianto","#f73b6a7A","-1","-1","1","-10","[]","0","0","3","","","","","","","",""
"pit-trial","78","633404","0.0-2.0-14.3-4.3","battery-v0.2","","""event"",""trial"",""time""
""fullscreenenter"",""1"",""2087""
","
","
","""event"",""trial"",""time""
""fullscreenenter"",""1"",""2087""
","
","","","-1","","","19","9688","1780","&#9826;","elianto","#f73b6a7A","-1","-1","1","0","[]","0","0","3","","","","","","","",""
"call-function","79","633407","0.0-2.0-15.0","battery-v0.2","","""event"",""trial"",""time""
""fullscreenenter"",""1"",""2087""
","
","
","""event"",""trial"",""time""
""fullscreenenter"",""1"",""2087""
","
","","","","","","","","","","","","","","","","","","","","","","","","","","",""
"pit-instructions","80","670211","0.0-2.0-16.0","battery-v0.2","","""event"",""trial"",""time""
""fullscreenenter"",""1"",""2087""
","
","
","""event"",""trial"",""time""
""fullscreenenter"",""1"",""2087""
","
","","[{""page_index"":0,""viewing_time"":12343.400000035763},{""page_index"":1,""viewing_time"":13154.5},{""page_index"":2,""viewing_time"":5527.199999988079},{""page_index"":3,""viewing_time"":5777.5}]","36803.40000003576","","","","","","","","","","","","","","","","","","","","","","","",""
"pit-trial","81","673541","0.0-2.0-17.0-0.0","battery-v0.2","","""event"",""trial"",""time""
""fullscreenenter"",""1"",""2087""
","
","
","""event"",""trial"",""time""
""fullscreenenter"",""1"",""2087""
","
","","","451.30000001192093","","","19","9688","1780","&#9789;","elianto","#f73b6a7A"," "," ","1","0","[1312]","1","0","4","","","","","","","",""
"pit-trial","82","676825","0.0-2.0-17.0-1.0","battery-v0.2","","""event"",""trial"",""time""
""fullscreenenter"",""1"",""2087""
","
","
","""event"",""trial"",""time""
""fullscreenenter"",""1"",""2087""
","
","","","421.39999997615814","","","19","9688","1780","&#9789;","elianto","#f73b6a7A"," "," ","1","0","[1272.5]","1","0","4","","","","","","","",""
"pit-trial","83","680088","0.0-2.0-17.0-2.0","battery-v0.2","","""event"",""trial"",""time""
""fullscreenenter"",""1"",""2087""
","
","
","""event"",""trial"",""time""
""fullscreenenter"",""1"",""2087""
","
","","","395.19999998807907","","","19","9688","1780","&#9789;","elianto","#f73b6a7A"," "," ","1","0","[1249]","1","0","4","","","","","","","",""
"pit-trial","84","683326","0.0-2.0-17.0-3.0","battery-v0.2","","""event"",""trial"",""time""
""fullscreenenter"",""1"",""2087""
","
","
","""event"",""trial"",""time""
""fullscreenenter"",""1"",""2087""
","
","","","378.19999998807907","","","19","9688","1780","&#9789;","elianto","#f73b6a7A"," "," ","1","-10","[1232]","1","0","4","","","","","","","",""
"pit-trial","85","686724","0.0-2.0-17.0-4.0","battery-v0.2","","""event"",""trial"",""time""
""fullscreenenter"",""1"",""2087""
","
","
","""event"",""trial"",""time""
""fullscreenenter"",""1"",""2087""
","
","","","528.8000000119209","","","19","9688","1780","&#9789;","elianto","#f73b6a7A"," "," ","1","0","[1383.1000000238419]","1","0","4","","","","","","","",""
"pit-trial","86","689664","0.0-2.0-17.1-0.1","battery-v0.2","","""event"",""trial"",""time""
""fullscreenenter"",""1"",""2087""
","
","
","""event"",""trial"",""time""
""fullscreenenter"",""1"",""2087""
","
","","","74.5","","","19","9688","1780","&#9789;","elianto","#f73b6a7A"," "," ","1","0","[672.8000000119209,925.5999999642372,1184.800000011921,1464,1745.5,2001.800000011921,2277.399999976158,2530.800000011921,2798.199999988079]","9","0","4","","","","","","","",""
"pit-trial","87","692579","0.0-2.0-17.1-1.1","battery-v0.2","","""event"",""trial"",""time""
""fullscreenenter"",""1"",""2087""
","
","
","""event"",""trial"",""time""
""fullscreenenter"",""1"",""2087""
","
","","","54.09999996423721","","","19","9688","1780","&#9789;","elianto","#f73b6a7A"," "," ","1","0","[128,386.60000002384186,645.6000000238419,906.5,1166.6000000238419,1435.4000000357628,1687.800000011921,1949.9000000357628,2234.2000000476837,2496.800000011921,2766.5]","11","0","4","","","","","","","",""
"pit-trial","88","695448","0.0-2.0-17.1-2.1","battery-v0.2","","""event"",""trial"",""time""
""fullscreenenter"",""1"",""2087""
","
","
","""event"",""trial"",""time""
""fullscreenenter"",""1"",""2087""
","
","","","8.199999988079071","","","19","9688","1780","&#9789;","elianto","#f73b6a7A"," "," ","1","0","[92.5,344.19999998807907,591.6000000238419,860.5,1101.699999988079,1365,1619.199999988079,1911.1000000238419,2145,2379.199999988079,2581.199999988079,2803.400000035763]","12","0","4","","","","","","","",""
"pit-trial","89","698412","0.0-2.0-17.1-3.1","battery-v0.2","","""event"",""trial"",""time""
""fullscreenenter"",""1"",""2087""
","
","
","""event"",""trial"",""time""
""fullscreenenter"",""1"",""2087""
","
","","","108.59999996423721","","","19","9688","1780","&#9789;","elianto","#f73b6a7A"," "," ","1","-10","[135.60000002384186,345.10000002384186,554.3000000119209,759.1999999880791,958.6000000238419,1166.300000011921,1372.800000011921,1611.6000000238419,1809,2023.199999988079,2247,2445.600000023842,2811.100000023842]","13","0","4","","","","","","","",""
"pit-trial","90","701482","0.0-2.0-17.1-4.1","battery-v0.2","","""event"",""trial"",""time""
""fullscreenenter"",""1"",""2087""
","
","
","""event"",""trial"",""time""
""fullscreenenter"",""1"",""2087""
","
","","","199.30000001192093","","","19","9688","1780","&#9789;","elianto","#f73b6a7A"," "," ","1","0","[49.69999998807907,253.69999998807907,441.69999998807907,659.1000000238419,835.1000000238419,1051.3999999761581,1250.1000000238419,1460.6000000238419,1635.3999999761581,1819.8999999761581,2016.5,2281.899999976158,2485.699999988079,2681.300000011921,3002.399999976158]","15","0","4","","","","","","","",""
"pit-trial","91","704442","0.0-2.0-17.2-0.2","battery-v0.2","","""event"",""trial"",""time""
""fullscreenenter"",""1"",""2087""
","
","
","""event"",""trial"",""time""
""fullscreenenter"",""1"",""2087""
","
","","","98.60000002384186","","","19","9688","1780","&#9789;","elianto","#f73b6a7A"," "," ","1","0","[584.6000000238419,950.8000000119209,1120.5,1481.6000000238419,1669.1000000238419,2021.5,2398.300000011921,2532.600000023842,2879.5]","9","0","4","","","","","","","",""
"pit-trial","92","707323","0.0-2.0-17.2-1.2","battery-v0.2","","""event"",""trial"",""time""
""fullscreenenter"",""1"",""2087""
","
","
","""event"",""trial"",""time""
""fullscreenenter"",""1"",""2087""
","
","","","22.899999976158142","","","19","9688","1780","&#9789;","elianto","#f73b6a7A"," "," ","1","0","[134.5,503.39999997615814,873.5999999642372,1063.5,1434.8999999761581,1611.8999999761581,1996,2423.599999964237,2614]","9","0","4","","","","","","","",""
"pit-trial","93","710403","0.0-2.0-17.2-2.2","battery-v0.2","","""event"",""trial"",""time""
""fullscreenenter"",""1"",""2087""
","
","
","""event"",""trial"",""time""
""fullscreenenter"",""1"",""2087""
","
","","","217.70000004768372","","","19","9688","1780","&#9789;","elianto","#f73b6a7A"," "," ","1","0","[116.40000003576279,308.5,675.4000000357628,1068.800000011921,1270.800000011921,1662,1862.9000000357628,2244.800000011921,2610.900000035763,2794.400000035763]","10","0","4","","","","","","","",""
"pit-trial","94","713576","0.0-2.0-17.2-3.2","battery-v0.2","","""event"",""trial"",""time""
""fullscreenenter"",""1"",""2087""
","
","
","""event"",""trial"",""time""
""fullscreenenter"",""1"",""2087""
","
","","","311.10000002384186","","","19","9688","1780","&#9789;","elianto","#f73b6a7A"," "," ","1","-10","[126.19999998807907,344.10000002384186,753.3000000119209,1162,1378.5,1785.1000000238419,2002.8999999761581,2393.5,2795,2984]","10","0","4","","","","","","","",""
"pit-trial","95","716814","0.0-2.0-17.2-4.2","battery-v0.2","","""event"",""trial"",""time""
""fullscreenenter"",""1"",""2087""
","
","
","""event"",""trial"",""time""
""fullscreenenter"",""1"",""2087""
","
","","","375.30000001192093","","","19","9688","1780","&#9789;","elianto","#f73b6a7A"," "," ","1","0","[229.89999997615814,426.5,841.8999999761581,1227.699999988079,1443.300000011921,1844,2047.6000000238419,2445.600000023842,2842.600000023842,3043.199999988079]","10","0","4","","","","","","","",""
"pit-trial","96","719983","0.0-2.0-17.3-0.3","battery-v0.2","","""event"",""trial"",""time""
""fullscreenenter"",""1"",""2087""
","
","
","""event"",""trial"",""time""
""fullscreenenter"",""1"",""2087""
","
","","","303.10000002384186","","","19","9688","1780","&#9789;","elianto","#f73b6a7A"," "," ","1","0","[165.70000004768372,354,740.4000000357628,1155.6000000238419,1338,1739.5,1942.9000000357628,2314.400000035763,2773.600000023842,3013.400000035763]","10","0","4","","","","","","","",""
"pit-trial","97","722887","0.0-2.0-17.3-1.3","battery-v0.2","","""event"",""trial"",""time""
""fullscreenenter"",""1"",""2087""
","
","
","""event"",""trial"",""time""
""fullscreenenter"",""1"",""2087""
","
","","","39.90000003576279","","","19","9688","1780","&#9789;","elianto","#f73b6a7A"," "," ","1","0","[280,479.80000001192093,893.3000000119209,1338.1000000238419,1532.800000011921,2005.7000000476837,2194.2000000476837,2609.600000023842]","8","0","4","","","","","","","",""
"pit-trial","98","725770","0.0-2.0-17.3-2.3","battery-v0.2","","""event"",""trial"",""time""
""fullscreenenter"",""1"",""2087""
","
","
","""event"",""trial"",""time""
""fullscreenenter"",""1"",""2087""
","
","","","25.19999998807907","","","19","9688","1780","&#9789;","elianto","#f73b6a7A"," "," ","1","0","[72.10000002384186,285.5,678.6000000238419,879.1000000238419,1253.4000000357628,1638.800000011921,1854.9000000357628,2214.300000011921,2450.699999988079,2843.699999988079]","10","0","4","","","","","","","",""
"pit-trial","99","728712","0.0-2.0-17.3-3.3","battery-v0.2","","""event"",""trial"",""time""
""fullscreenenter"",""1"",""2087""
","
","
","""event"",""trial"",""time""
""fullscreenenter"",""1"",""2087""
","
","","","79.90000003576279","","","19","9688","1780","&#9789;","elianto","#f73b6a7A"," "," ","1","-10","[305.69999998807907,528.1999999880791,934.5,1138.300000011921,1478.5,1813.199999988079,2014.6000000238419,2364.699999988079,2562.800000011921]","9","0","4","","","","","","","",""
"pit-trial","100","731635","0.0-2.0-17.3-4.3","battery-v0.2","","""event"",""trial"",""time""
""fullscreenenter"",""1"",""2087""
","
","
","""event"",""trial"",""time""
""fullscreenenter"",""1"",""2087""
","
","","","55.69999998807907","","","19","9688","1780","&#9789;","elianto","#f73b6a7A"," "," ","1","0","[35.90000003576279,308.10000002384186,526.1999999880791,724.6000000238419,907.9000000357628,1118.6000000238419,1316,1510.6000000238419,1745,1919.9000000357628,2141,2345.900000035763,2558.199999988079,2760.800000011921]","14","0","4","","","","","","","",""
"call-function","101","731638","0.0-2.0-18.0","battery-v0.2","","""event"",""trial"",""time""
""fullscreenenter"",""1"",""2087""
","
","
","""event"",""trial"",""time""
""fullscreenenter"",""1"",""2087""
","
","","","","","","","","","","","","","","","","","","","","","","","","","","",""
"pit-instructions","102","786993","0.0-2.0-19.0","battery-v0.2","","""event"",""trial"",""time""
""fullscreenenter"",""1"",""2087""
","
","
","""event"",""trial"",""time""
""fullscreenenter"",""1"",""2087""
","
","","[{""page_index"":0,""viewing_time"":6507.099999964237},{""page_index"":1,""viewing_time"":4172.100000023842},{""page_index"":2,""viewing_time"":8296.800000011921},{""page_index"":3,""viewing_time"":5119.399999976158},{""page_index"":4,""viewing_time"":8592.100000023842},{""page_index"":5,""viewing_time"":8600.599999964237},{""page_index"":6,""viewing_time"":4872.400000035763},{""page_index"":7,""viewing_time"":4921.599999964237},{""page_index"":8,""viewing_time"":4269.400000035763}]","55352.5","","","","","","","","","","","","","","","","","","","","","","","",""
"pit-comprehension","103","794507","0.0-2.0-20.0-0.0","battery-v0.2","","""event"",""trial"",""time""
""fullscreenenter"",""1"",""2087""
","
","
","""event"",""trial"",""time""
""fullscreenenter"",""1"",""2087""
","
","","","7502.899999976158","[""SPACE""]","0","19","9688","1780","","","","","","","","","","","","","","","","","","",""
"pit-instructions","104","797298","0.0-2.0-20.0-1.0","battery-v0.2","","""event"",""trial"",""time""
""fullscreenenter"",""1"",""2087""
","
","
","""event"",""trial"",""time""
""fullscreenenter"",""1"",""2087""
","
","","[{""page_index"":0,""viewing_time"":2717.899999976158}]","2718.699999988079","","","","","","","","","","","","","","","","","","","","","","","",""
"pit-comprehension","105","804023","0.0-2.0-21.0-0.0","battery-v0.2","","""event"",""trial"",""time""
""fullscreenenter"",""1"",""2087""
","
","
","""event"",""trial"",""time""
""fullscreenenter"",""1"",""2087""
","
","","","6715.399999976158","[""10""]","0","19","9688","1780","","","","","","","","","","","","","","","","","","",""
"pit-instructions","106","808647","0.0-2.0-21.0-1.0","battery-v0.2","","""event"",""trial"",""time""
""fullscreenenter"",""1"",""2087""
","
","
","""event"",""trial"",""time""
""fullscreenenter"",""1"",""2087""
","
","","[{""page_index"":0,""viewing_time"":4566}]","4567","","","","","","","","","","","","","","","","","","","","","","","",""
"pit-comprehension","107","815119","0.0-2.0-22.0-0.0","battery-v0.2","","""event"",""trial"",""time""
""fullscreenenter"",""1"",""2087""
","
","
","""event"",""trial"",""time""
""fullscreenenter"",""1"",""2087""
","
","","","6466.099999964237","[""0""]","0","19","9688","1780","","","","","","","","","","","","","","","","","","",""
"pit-instructions","108","818594","0.0-2.0-22.0-1.0","battery-v0.2","","""event"",""trial"",""time""
""fullscreenenter"",""1"",""2087""
","
","
","""event"",""trial"",""time""
""fullscreenenter"",""1"",""2087""
","
","","[{""page_index"":0,""viewing_time"":3417.600000023842}]","3418.399999976158","","","","","","","","","","","","","","","","","","","","","","","",""
"pit-comprehension","109","827008","0.0-2.0-23.0-0.0","battery-v0.2","","""event"",""trial"",""time""
""fullscreenenter"",""1"",""2087""
","
","
","""event"",""trial"",""time""
""fullscreenenter"",""1"",""2087""
","
","","","8408.800000011921","[""True""]","0","19","9688","1780","","","","","","","","","","","","","","","","","","",""
"pit-instructions","110","830548","0.0-2.0-23.0-1.0","battery-v0.2","","""event"",""trial"",""time""
""fullscreenenter"",""1"",""2087""
","
","
","""event"",""trial"",""time""
""fullscreenenter"",""1"",""2087""
","
","","[{""page_index"":0,""viewing_time"":3491.100000023842}]","3492.199999988079","","","","","","","","","","","","","","","","","","","","","","","",""
"pit-comprehension","111","837883","0.0-2.0-24.0-0.0","battery-v0.2","","""event"",""trial"",""time""
""fullscreenenter"",""1"",""2087""
","
","
","""event"",""trial"",""time""
""fullscreenenter"",""1"",""2087""
","
","","","7327.800000011921","[""True""]","0","19","9688","1780","","","","","","","","","","","","","","","","","","",""
"pit-instructions","112","840645","0.0-2.0-24.0-1.0","battery-v0.2","","""event"",""trial"",""time""
""fullscreenenter"",""1"",""2087""
","
","
","""event"",""trial"",""time""
""fullscreenenter"",""1"",""2087""
","
","","[{""page_index"":0,""viewing_time"":2726.899999976158}]","2727.800000011921","","","","","","","","","","","","","","","","","","","","","","","",""
"pit-comprehension","113","847269","0.0-2.0-25.0-0.0","battery-v0.2","","""event"",""trial"",""time""
""fullscreenenter"",""1"",""2087""
","
","
","""event"",""trial"",""time""
""fullscreenenter"",""1"",""2087""
","
","","","6618.800000011921","[""True""]","0","19","9688","1780","","","","","","","","","","","","","","","","","","",""
"pit-instructions","114","848374","0.0-2.0-25.0-1.0","battery-v0.2","","""event"",""trial"",""time""
""fullscreenenter"",""1"",""2087""
","
","
","""event"",""trial"",""time""
""fullscreenenter"",""1"",""2087""
","
","","[{""page_index"":0,""viewing_time"":1066.9000000357628}]","1067.300000011921","","","","","","","","","","","","","","","","","","","","","","","",""
"pit-comprehension","115","855695","0.0-2.0-26.0-0.0","battery-v0.2","","""event"",""trial"",""time""
""fullscreenenter"",""1"",""2087""
","
","
","""event"",""trial"",""time""
""fullscreenenter"",""1"",""2087""
","
","","","7315.699999988079","[""False""]","0","19","9688","1780","","","","","","","","","","","","","","","","","","",""
"pit-instructions","116","857206","0.0-2.0-26.0-1.0","battery-v0.2","","""event"",""trial"",""time""
""fullscreenenter"",""1"",""2087""
","
","
","""event"",""trial"",""time""
""fullscreenenter"",""1"",""2087""
","
","","[{""page_index"":0,""viewing_time"":1471.8999999761581}]","1472.8999999761581","","","","","","","","","","","","","","","","","","","","","","","",""
"pit-instructions","117","875829","0.0-3.0","battery-v0.2","","""event"",""trial"",""time""
""fullscreenenter"",""1"",""2087""
","
","
","""event"",""trial"",""time""
""fullscreenenter"",""1"",""2087""
","
","","[{""page_index"":0,""viewing_time"":5009.300000011921},{""page_index"":1,""viewing_time"":5736.900000035763},{""page_index"":2,""viewing_time"":7871.5}]","18618.100000023842","","","","","","","","","","","","","","","","","","","","","","","",""
"pit-trial","118","879819","0.0-4.0","battery-v0.2","","""event"",""trial"",""time""
""fullscreenenter"",""1"",""2087""
","
","
","""event"",""trial"",""time""
""fullscreenenter"",""1"",""2087""
","
","","","1124.3999999761581","","","19","9688","1780","&#9733;","elianto","#3366ff99","-1"," ","0","+10","[1978.2000000476837]","1","1","","","9688","1","2","2","win","no-go","1"
"pit-trial","119","884697","0.0-5.0","battery-v0.2","","""event"",""trial"",""time""
""fullscreenenter"",""1"",""2087""
","
","
","""event"",""trial"",""time""
""fullscreenenter"",""1"",""2087""
","
","","","-1","","","19","9688","1780","&#9730;","elianto","#3366ff99"," ","-1","0","0","[]","0","1","","","9688","2","1","1","win","go","0"
"pit-trial","120","889035","0.0-6.0","battery-v0.2","","""event"",""trial"",""time""
""fullscreenenter"",""1"",""2087""
","
","
","""event"",""trial"",""time""
""fullscreenenter"",""1"",""2087""
","
","","","1467.199999988079","","","19","9688","1780","&#9752;","elianto","#f73b6a7A"," "," ","1","0","[2321.600000023842]","1","1","","","9688","3","3","3","lose","go","0"
"pit-trial","121","893895","0.0-7.0","battery-v0.2","","""event"",""trial"",""time""
""fullscreenenter"",""1"",""2087""
","
","
","""event"",""trial"",""time""
""fullscreenenter"",""1"",""2087""
","
","","","-1","","","19","9688","1780","&#9728;","elianto","#f73b6a7A","-1","-1","1","0","[]","0","1","","","9688","4","0","4","lose","no-go","0"
"pit-trial","122","898765","0.0-8.0","battery-v0.2","","""event"",""trial"",""time""
""fullscreenenter"",""1"",""2087""
","
","
","""event"",""trial"",""time""
""fullscreenenter"",""1"",""2087""
","
","","","-1","","","19","9688","1780","&#9728;","elianto","#f73b6a7A","-1","-1","1","0","[]","0","1","","","9688","5","0","4","lose","no-go","0"
"pit-trial","123","902688","0.0-9.0","battery-v0.2","","""event"",""trial"",""time""
""fullscreenenter"",""1"",""2087""
","
","
","""event"",""trial"",""time""
""fullscreenenter"",""1"",""2087""
","
","","","1064","","","19","9688","1780","&#9733;","elianto","#3366ff99","-1"," ","0","0","[1919.199999988079]","1","1","","","9688","6","2","2","win","no-go","0"
"pit-trial","124","907109","0.0-10.0","battery-v0.2","","""event"",""trial"",""time""
""fullscreenenter"",""1"",""2087""
","
","
","""event"",""trial"",""time""
""fullscreenenter"",""1"",""2087""
","
","","","1562.9000000357628","","","19","9688","1780","&#9730;","elianto","#3366ff99"," "," ","1","+10","[2413.699999988079]","1","1","","","9688","7","1","1","win","go","0"
"pit-trial","125","911131","0.0-11.0","battery-v0.2","","""event"",""trial"",""time""
""fullscreenenter"",""1"",""2087""
","
","
","""event"",""trial"",""time""
""fullscreenenter"",""1"",""2087""
","
","","","1156.7999999523163","","","19","9688","1780","&#9752;","elianto","#f73b6a7A"," "," ","1","0","[2010]","1","1","","","9688","8","3","3","lose","go","0"
"pit-trial","126","915052","0.0-12.0","battery-v0.2","","""event"",""trial"",""time""
""fullscreenenter"",""1"",""2087""
","
","
","""event"",""trial"",""time""
""fullscreenenter"",""1"",""2087""
","
","","","1060","","","19","9688","1780","&#9730;","elianto","#3366ff99"," "," ","1","0","[1914]","1","1","","","9688","9","1","1","win","go","1"
"pit-trial","127","919879","0.0-13.0","battery-v0.2","","""event"",""trial"",""time""
""fullscreenenter"",""1"",""2087""
","
","
","""event"",""trial"",""time""
""fullscreenenter"",""1"",""2087""
","
","","","1968.5","","","19","9688","1780","&#9752;","elianto","#f73b6a7A"," "," ","1","0","[2822.800000011921]","1","1","","","9688","10","3","3","lose","go","0"
"pit-trial","128","924074","0.0-14.0","battery-v0.2","","""event"",""trial"",""time""
""fullscreenenter"",""1"",""2087""
","
","
","""event"",""trial"",""time""
""fullscreenenter"",""1"",""2087""
","
","","","1329.199999988079","","","19","9688","1780","&#9733;","elianto","#3366ff99","-1"," ","0","0","[2183.399999976158]","1","1","","","9688","11","2","2","win","no-go","0"
"pit-trial","129","928936","0.0-15.0","battery-v0.2","","""event"",""trial"",""time""
""fullscreenenter"",""1"",""2087""
","
","
","""event"",""trial"",""time""
""fullscreenenter"",""1"",""2087""
","
","","","-1","","","19","9688","1780","&#9728;","elianto","#f73b6a7A","-1","-1","1","0","[]","0","1","","","9688","12","0","4","lose","no-go","0"
"pit-trial","130","932853","0.0-16.0","battery-v0.2","","""event"",""trial"",""time""
""fullscreenenter"",""1"",""2087""
","
","
","""event"",""trial"",""time""
""fullscreenenter"",""1"",""2087""
","
","","","1051.6000000238419","","","19","9688","1780","&#9733;","elianto","#3366ff99","-1"," ","0","0","[1905.6000000238419]","1","1","","","9688","13","2","2","win","no-go","0"
"pit-trial","131","937714","0.0-17.0","battery-v0.2","","""event"",""trial"",""time""
""fullscreenenter"",""1"",""2087""
","
","
","""event"",""trial"",""time""
""fullscreenenter"",""1"",""2087""
","
","","","-1","","","19","9688","1780","&#9728;","elianto","#f73b6a7A","-1","-1","1","-10","[]","0","1","","","9688","14","0","4","lose","no-go","1"
"pit-trial","132","942258","0.0-18.0","battery-v0.2","","""event"",""trial"",""time""
""fullscreenenter"",""1"",""2087""
","
","
","""event"",""trial"",""time""
""fullscreenenter"",""1"",""2087""
","
","","","1687.8999999761581","","","19","9688","1780","&#9752;","elianto","#f73b6a7A"," "," ","1","-10","[2541]","1","1","","","9688","15","3","3","lose","go","1"
"pit-trial","133","946172","0.0-19.0","battery-v0.2","","""event"",""trial"",""time""
""fullscreenenter"",""1"",""2087""
","
","
","""event"",""trial"",""time""
""fullscreenenter"",""1"",""2087""
","
","","","1055.199999988079","","","19","9688","1780","&#9730;","elianto","#3366ff99"," "," ","1","+10","[1905.5]","1","1","","","9688","16","1","1","win","go","0"
"pit-trial","134","951032","0.0-20.0","battery-v0.2","","""event"",""trial"",""time""
""fullscreenenter"",""1"",""2087""
","
","
","""event"",""trial"",""time""
""fullscreenenter"",""1"",""2087""
","
","","","-1","","","19","9688","1780","&#9752;","elianto","#f73b6a7A"," ","-1","0","0","[]","0","1","","","9688","17","3","3","lose","go","1"
"pit-trial","135","955898","0.0-21.0","battery-v0.2","","""event"",""trial"",""time""
""fullscreenenter"",""1"",""2087""
","
","
","""event"",""trial"",""time""
""fullscreenenter"",""1"",""2087""
","
","","","-1","","","19","9688","1780","&#9728;","elianto","#f73b6a7A","-1","-1","1","0","[]","0","1","","","9688","18","0","4","lose","no-go","0"
"pit-trial","136","960079","0.0-22.0","battery-v0.2","","""event"",""trial"",""time""
""fullscreenenter"",""1"",""2087""
","
","
","""event"",""trial"",""time""
""fullscreenenter"",""1"",""2087""
","
","","","1322.3999999761581","","","19","9688","1780","&#9733;","elianto","#3366ff99","-1"," ","0","0","[2175.800000011921]","1","1","","","9688","19","2","2","win","no-go","0"
"pit-trial","137","963669","0.0-23.0","battery-v0.2","","""event"",""trial"",""time""
""fullscreenenter"",""1"",""2087""
","
","
","""event"",""trial"",""time""
""fullscreenenter"",""1"",""2087""
","
","","","726.3999999761581","","","19","9688","1780","&#9730;","elianto","#3366ff99"," "," ","1","+10","[1578.800000011921]","1","1","","","9688","20","1","1","win","go","0"
"pit-instructions","138","982977","0.0-24.0","battery-v0.2","","""event"",""trial"",""time""
""fullscreenenter"",""1"",""2087""
","
","
","""event"",""trial"",""time""
""fullscreenenter"",""1"",""2087""
","
","","[{""page_index"":0,""viewing_time"":11835.300000011921},{""page_index"":1,""viewing_time"":7470.799999952316}]","19306.899999976158","","","","","","","","","","","","","","","","","","","","","","","",""
"pit-trial","139","987146","0.0-25.0","battery-v0.2","","""event"",""trial"",""time""
""fullscreenenter"",""1"",""2087""
","
","
","""event"",""trial"",""time""
""fullscreenenter"",""1"",""2087""
","
","","","1299.699999988079","","","19","9688","1780","b","elianto","#f73b6a7A","-1"," ","0","0","[2150.599999964237]","1","2","","","9688","21","3","4","lose","no-go","1"
"pit-trial","140","991170","0.0-26.0","battery-v0.2","","""event"",""trial"",""time""
""fullscreenenter"",""1"",""2087""
","
","
","""event"",""trial"",""time""
""fullscreenenter"",""1"",""2087""
","
","","","1161.300000011921","","","19","9688","1780","f","elianto","#3366ff99","-1"," ","0","0","[2015.1000000238419]","1","2","","","9688","22","1","2","win","no-go","0"
"pit-trial","141","996043","0.0-27.0","battery-v0.2","","""event"",""trial"",""time""
""fullscreenenter"",""1"",""2087""
","
","
","""event"",""trial"",""time""
""fullscreenenter"",""1"",""2087""
","
","","","-1","","","19","9688","1780","n","elianto","#f73b6a7A"," ","-1","0","-10","[]","0","2","","","9688","23","0","3","lose","go","0"
"pit-trial","142","1000830","0.0-28.0","battery-v0.2","","""event"",""trial"",""time""
""fullscreenenter"",""1"",""2087""
","
","
","""event"",""trial"",""time""
""fullscreenenter"",""1"",""2087""
","
","","","1916.5999999642372","","","19","9688","1780","t","elianto","#f73b6a7A"," "," ","1","0","[2770.599999964237]","1","2","","","9688","24","2","3","lose","go","0"
"pit-trial","143","1005053","0.0-29.0","battery-v0.2","","""event"",""trial"",""time""
""fullscreenenter"",""1"",""2087""
","
","
","""event"",""trial"",""time""
""fullscreenenter"",""1"",""2087""
","
","","","1355.9000000357628","","","19","9688","1780","n","elianto","#f73b6a7A"," "," ","1","0","[2209.300000011921]","1","2","","","9688","25","0","3","lose","go","0"
"pit-trial","144","1008958","0.0-30.0","battery-v0.2","","""event"",""trial"",""time""
""fullscreenenter"",""1"",""2087""
","
","
","""event"",""trial"",""time""
""fullscreenenter"",""1"",""2087""
","
","","","1033.300000011921","","","19","9688","1780","b","elianto","#f73b6a7A","-1"," ","0","-10","[1886.5]","1","2","","","9688","26","3","4","lose","no-go","0"
"pit-trial","145","1012768","0.0-31.0","battery-v0.2","","""event"",""trial"",""time""
""fullscreenenter"",""1"",""2087""
","
","
","""event"",""trial"",""time""
""fullscreenenter"",""1"",""2087""
","
","","","939.7999999523163","","","19","9688","1780","t","elianto","#f73b6a7A"," "," ","1","0","[1793.1000000238419]","1","2","","","9688","27","2","3","lose","go","0"
"pit-trial","146","1017631","0.0-32.0","battery-v0.2","","""event"",""trial"",""time""
""fullscreenenter"",""1"",""2087""
","
","
","""event"",""trial"",""time""
""fullscreenenter"",""1"",""2087""
","
","","","-1","","","19","9688","1780","f","elianto","#3366ff99","-1","-1","1","+10","[]","0","2","","","9688","28","1","2","win","no-go","0"
"pit-trial","147","1022499","0.0-33.0","battery-v0.2","","""event"",""trial"",""time""
""fullscreenenter"",""1"",""2087""
","
","
","""event"",""trial"",""time""
""fullscreenenter"",""1"",""2087""
","
","","","-1","","","19","9688","1780","f","elianto","#3366ff99","-1","-1","1","+10","[]","0","2","","","9688","29","1","2","win","no-go","0"
"pit-trial","148","1026352","0.0-34.0","battery-v0.2","","""event"",""trial"",""time""
""fullscreenenter"",""1"",""2087""
","
","
","""event"",""trial"",""time""
""fullscreenenter"",""1"",""2087""
","
","","","992","","","19","9688","1780","n","elianto","#f73b6a7A"," "," ","1","0","[1845.699999988079]","1","2","","","9688","30","0","3","lose","go","0"
"pit-trial","149","1031210","0.0-35.0","battery-v0.2","","""event"",""trial"",""time""
""fullscreenenter"",""1"",""2087""
","
","
","""event"",""trial"",""time""
""fullscreenenter"",""1"",""2087""
","
","","","-1","","","19","9688","1780","b","elianto","#f73b6a7A","-1","-1","1","0","[]","0","2","","","9688","31","3","4","lose","no-go","0"
"pit-trial","150","1035419","0.0-36.0","battery-v0.2","","""event"",""trial"",""time""
""fullscreenenter"",""1"",""2087""
","
","
","""event"",""trial"",""time""
""fullscreenenter"",""1"",""2087""
","
","","","1348.5","","","19","9688","1780","t","elianto","#f73b6a7A"," "," ","1","0","[2201.399999976158]","1","2","","","9688","32","2","3","lose","go","0"
"pit-trial","151","1039392","0.0-37.0","battery-v0.2","","""event"",""trial"",""time""
""fullscreenenter"",""1"",""2087""
","
","
","""event"",""trial"",""time""
""fullscreenenter"",""1"",""2087""
","
","","","1112.699999988079","","","19","9688","1780","t","elianto","#f73b6a7A"," "," ","1","-10","[1966.0999999642372]","1","2","","","9688","33","2","3","lose","go","1"
"pit-trial","152","1043049","0.0-38.0","battery-v0.2","","""event"",""trial"",""time""
""fullscreenenter"",""1"",""2087""
","
","
","""event"",""trial"",""time""
""fullscreenenter"",""1"",""2087""
","
","","","794.1999999880791","","","19","9688","1780","n","elianto","#f73b6a7A"," "," ","1","0","[1649.300000011921]","1","2","","","9688","34","0","3","lose","go","0"
"pit-trial","153","1047913","0.0-39.0","battery-v0.2","","""event"",""trial"",""time""
""fullscreenenter"",""1"",""2087""
","
","
","""event"",""trial"",""time""
""fullscreenenter"",""1"",""2087""
","
","","","-1","","","19","9688","1780","b","elianto","#f73b6a7A","-1","-1","1","0","[]","0","2","","","9688","35","3","4","lose","no-go","0"
"pit-trial","154","1052773","0.0-40.0","battery-v0.2","","""event"",""trial"",""time""
""fullscreenenter"",""1"",""2087""
","
","
","""event"",""trial"",""time""
""fullscreenenter"",""1"",""2087""
","
","","","-1","","","19","9688","1780","f","elianto","#3366ff99","-1","-1","1","+10","[]","0","2","","","9688","36","1","2","win","no-go","0"
"pit-trial","155","1056822","0.0-41.0","battery-v0.2","","""event"",""trial"",""time""
""fullscreenenter"",""1"",""2087""
","
","
","""event"",""trial"",""time""
""fullscreenenter"",""1"",""2087""
","
","","","1183.199999988079","","","19","9688","1780","t","elianto","#f73b6a7A"," "," ","1","0","[2040.300000011921]","1","2","","","9688","37","2","3","lose","go","0"
"pit-trial","156","1061687","0.0-42.0","battery-v0.2","","""event"",""trial"",""time""
""fullscreenenter"",""1"",""2087""
","
","
","""event"",""trial"",""time""
""fullscreenenter"",""1"",""2087""
","
","","","-1","","","19","9688","1780","b","elianto","#f73b6a7A","-1","-1","1","-10","[]","0","2","","","9688","38","3","4","lose","no-go","1"
"pit-trial","157","1065624","0.0-43.0","battery-v0.2","","""event"",""trial"",""time""
""fullscreenenter"",""1"",""2087""
","
","
","""event"",""trial"",""time""
""fullscreenenter"",""1"",""2087""
","
","","","1076.1000000238419","","","19","9688","1780","n","elianto","#f73b6a7A"," "," ","1","-10","[1930.1000000238419]","1","2","","","9688","39","0","3","lose","go","1"
"pit-trial","158","1070490","0.0-44.0","battery-v0.2","","""event"",""trial"",""time""
""fullscreenenter"",""1"",""2087""
","
","
","""event"",""trial"",""time""
""fullscreenenter"",""1"",""2087""
","
","","","-1","","","19","9688","1780","f","elianto","#3366ff99","-1","-1","1","+10","[]","0","2","","","9688","40","1","2","win","no-go","0"
"pit-trial","159","1075349","0.0-45.0","battery-v0.2","","""event"",""trial"",""time""
""fullscreenenter"",""1"",""2087""
","
","
","""event"",""trial"",""time""
""fullscreenenter"",""1"",""2087""
","
","","","-1","","","19","9688","1780","f","elianto","#3366ff99","-1","-1","1","+10","[]","0","2","","","9688","41","1","2","win","no-go","0"
"pit-trial","160","1079030","0.0-46.0","battery-v0.2","","""event"",""trial"",""time""
""fullscreenenter"",""1"",""2087""
","
","
","""event"",""trial"",""time""
""fullscreenenter"",""1"",""2087""
","
","","","817.3999999761581","","","19","9688","1780","n","elianto","#f73b6a7A"," "," ","1","0","[1671.199999988079]","1","2","","","9688","42","0","3","lose","go","0"
"pit-trial","161","1083892","0.0-47.0","battery-v0.2","","""event"",""trial"",""time""
""fullscreenenter"",""1"",""2087""
","
","
","""event"",""trial"",""time""
""fullscreenenter"",""1"",""2087""
","
","","","-1","","","19","9688","1780","b","elianto","#f73b6a7A","-1","-1","1","0","[]","0","2","","","9688","43","3","4","lose","no-go","0"
"pit-trial","162","1087767","0.0-48.0","battery-v0.2","","""event"",""trial"",""time""
""fullscreenenter"",""1"",""2087""
","
","
","""event"",""trial"",""time""
""fullscreenenter"",""1"",""2087""
","
","","","1012.6999999880791","","","19","9688","1780","t","elianto","#f73b6a7A"," "," ","1","0","[1867]","1","2","","","9688","44","2","3","lose","go","0"
"pit-trial","163","1091556","0.0-49.0","battery-v0.2","","""event"",""trial"",""time""
""fullscreenenter"",""1"",""2087""
","
","
","""event"",""trial"",""time""
""fullscreenenter"",""1"",""2087""
","
","","","924.4000000357628","","","19","9688","1780","n","elianto","#f73b6a7A"," "," ","1","0","[1782.6000000238419]","1","2","","","9688","45","0","3","lose","go","0"
"pit-trial","164","1095287","0.0-50.0","battery-v0.2","","""event"",""trial"",""time""
""fullscreenenter"",""1"",""2087""
","
","
","""event"",""trial"",""time""
""fullscreenenter"",""1"",""2087""
","
","","","865.8999999761581","","","19","9688","1780","t","elianto","#f73b6a7A"," "," ","1","0","[1720.699999988079]","1","2","","","9688","46","2","3","lose","go","0"
"pit-trial","165","1100147","0.0-51.0","battery-v0.2","","""event"",""trial"",""time""
""fullscreenenter"",""1"",""2087""
","
","
","""event"",""trial"",""time""
""fullscreenenter"",""1"",""2087""
","
","","","-1","","","19","9688","1780","f","elianto","#3366ff99","-1","-1","1","+10","[]","0","2","","","9688","47","1","2","win","no-go","0"
"pit-trial","166","1105025","0.0-52.0","battery-v0.2","","""event"",""trial"",""time""
""fullscreenenter"",""1"",""2087""
","
","
","""event"",""trial"",""time""
""fullscreenenter"",""1"",""2087""
","
","","","-1","","","19","9688","1780","b","elianto","#f73b6a7A","-1","-1","1","0","[]","0","2","","","9688","48","3","4","lose","no-go","0"
"pit-trial","167","1109889","0.0-53.0","battery-v0.2","","""event"",""trial"",""time""
""fullscreenenter"",""1"",""2087""
","
","
","""event"",""trial"",""time""
""fullscreenenter"",""1"",""2087""
","
","","","-1","","","19","9688","1780","b","elianto","#f73b6a7A","-1","-1","1","-10","[]","0","2","","","9688","49","3","4","lose","no-go","1"
"pit-trial","168","1114746","0.0-54.0","battery-v0.2","","""event"",""trial"",""time""
""fullscreenenter"",""1"",""2087""
","
","
","""event"",""trial"",""time""
""fullscreenenter"",""1"",""2087""
","
","","","-1","","","19","9688","1780","f","elianto","#3366ff99","-1","-1","1","+10","[]","0","2","","","9688","50","1","2","win","no-go","0"
"pit-trial","169","1118376","0.0-55.0","battery-v0.2","","""event"",""trial"",""time""
""fullscreenenter"",""1"",""2087""
","
","
","""event"",""trial"",""time""
""fullscreenenter"",""1"",""2087""
","
","","","769.5","","","19","9688","1780","t","elianto","#f73b6a7A"," "," ","1","0","[1623.699999988079]","1","2","","","9688","51","2","3","lose","go","0"
"pit-trial","170","1121825","0.0-56.0","battery-v0.2","","""event"",""trial"",""time""
""fullscreenenter"",""1"",""2087""
","
","
","""event"",""trial"",""time""
""fullscreenenter"",""1"",""2087""
","
","","","588.2000000476837","","","19","9688","1780","n","elianto","#f73b6a7A"," "," ","1","0","[1439]","1","2","","","9688","52","0","3","lose","go","0"
"pit-trial","171","1125542","0.0-57.0","battery-v0.2","","""event"",""trial"",""time""
""fullscreenenter"",""1"",""2087""
","
","
","""event"",""trial"",""time""
""fullscreenenter"",""1"",""2087""
","
","","","854.4000000357628","","","19","9688","1780","t","elianto","#f73b6a7A"," "," ","1","0","[1708.699999988079]","1","2","","","9688","53","2","3","lose","go","0"
"pit-trial","172","1130400","0.0-58.0","battery-v0.2","","""event"",""trial"",""time""
""fullscreenenter"",""1"",""2087""
","
","
","""event"",""trial"",""time""
""fullscreenenter"",""1"",""2087""
","
","","","-1","","","19","9688","1780","f","elianto","#3366ff99","-1","-1","1","+10","[]","0","2","","","9688","54","1","2","win","no-go","0"
"pit-trial","173","1133951","0.0-59.0","battery-v0.2","","""event"",""trial"",""time""
""fullscreenenter"",""1"",""2087""
","
","
","""event"",""trial"",""time""
""fullscreenenter"",""1"",""2087""
","
","","","687.6000000238419","","","19","9688","1780","n","elianto","#f73b6a7A"," "," ","1","-10","[1541.800000011921]","1","2","","","9688","55","0","3","lose","go","1"
"pit-trial","174","1138813","0.0-60.0","battery-v0.2","","""event"",""trial"",""time""
""fullscreenenter"",""1"",""2087""
","
","
","""event"",""trial"",""time""
""fullscreenenter"",""1"",""2087""
","
","","","-1","","","19","9688","1780","b","elianto","#f73b6a7A","-1","-1","1","0","[]","0","2","","","9688","56","3","4","lose","no-go","0"
"pit-trial","175","1142534","0.0-61.0","battery-v0.2","","""event"",""trial"",""time""
""fullscreenenter"",""1"",""2087""
","
","
","""event"",""trial"",""time""
""fullscreenenter"",""1"",""2087""
","
","","","862.3000000119209","","","19","9688","1780","t","elianto","#f73b6a7A"," "," ","1","0","[1716.0999999642372]","1","2","","","9688","57","2","3","lose","go","0"
"pit-trial","176","1146079","0.0-62.0","battery-v0.2","","""event"",""trial"",""time""
""fullscreenenter"",""1"",""2087""
","
","
","""event"",""trial"",""time""
""fullscreenenter"",""1"",""2087""
","
","","","678.3000000119209","","","19","9688","1780","n","elianto","#f73b6a7A"," "," ","1","-10","[1532.300000011921]","1","2","","","9688","58","0","3","lose","go","1"
"pit-trial","177","1150943","0.0-63.0","battery-v0.2","","""event"",""trial"",""time""
""fullscreenenter"",""1"",""2087""
","
","
","""event"",""trial"",""time""
""fullscreenenter"",""1"",""2087""
","
","","","-1","","","19","9688","1780","b","elianto","#f73b6a7A","-1","-1","1","0","[]","0","2","","","9688","59","3","4","lose","no-go","0"
"pit-trial","178","1155433","0.0-64.0","battery-v0.2","","""event"",""trial"",""time""
""fullscreenenter"",""1"",""2087""
","
","
","""event"",""trial"",""time""
""fullscreenenter"",""1"",""2087""
","
","","","1625.4000000357628","","","19","9688","1780","c","elianto","#3366ff99"," "," ","1","+10","[2479.2999999523163]","1","2","","","9688","60","4","1","win","go","0"
"pit-trial","179","1160295","0.0-65.0","battery-v0.2","","""event"",""trial"",""time""
""fullscreenenter"",""1"",""2087""
","
","
","""event"",""trial"",""time""
""fullscreenenter"",""1"",""2087""
","
","","","-1","","","19","9688","1780","b","elianto","#f73b6a7A","-1","-1","1","0","[]","0","2","","","9688","61","3","4","lose","no-go","0"
"pit-trial","180","1164079","0.0-66.0","battery-v0.2","","""event"",""trial"",""time""
""fullscreenenter"",""1"",""2087""
","
","
","""event"",""trial"",""time""
""fullscreenenter"",""1"",""2087""
","
","","","919.4000000357628","","","19","9688","1780","c","elianto","#3366ff99"," "," ","1","+10","[1773]","1","2","","","9688","62","4","1","win","go","0"
"pit-trial","181","1167861","0.0-67.0","battery-v0.2","","""event"",""trial"",""time""
""fullscreenenter"",""1"",""2087""
","
","
","""event"",""trial"",""time""
""fullscreenenter"",""1"",""2087""
","
","","","923.4000000357628","","","19","9688","1780","t","elianto","#f73b6a7A"," "," ","1","0","[1775.6000000238419]","1","2","","","9688","63","2","3","lose","go","0"
"pit-trial","182","1172729","0.0-68.0","battery-v0.2","","""event"",""trial"",""time""
""fullscreenenter"",""1"",""2087""
","
","
","""event"",""trial"",""time""
""fullscreenenter"",""1"",""2087""
","
","","","-1","","","19","9688","1780","f","elianto","#3366ff99","-1","-1","1","+10","[]","0","2","","","9688","64","1","2","win","no-go","0"
"pit-trial","183","1176667","0.0-69.0","battery-v0.2","","""event"",""trial"",""time""
""fullscreenenter"",""1"",""2087""
","
","
","""event"",""trial"",""time""
""fullscreenenter"",""1"",""2087""
","
","","","1079","","","19","9688","1780","c","elianto","#3366ff99"," "," ","1","+10","[1931.699999988079]","1","2","","","9688","65","4","1","win","go","0"
"pit-trial","184","1181535","0.0-70.0","battery-v0.2","","""event"",""trial"",""time""
""fullscreenenter"",""1"",""2087""
","
","
","""event"",""trial"",""time""
""fullscreenenter"",""1"",""2087""
","
","","","-1","","","19","9688","1780","f","elianto","#3366ff99","-1","-1","1","0","[628.3000000119209]","1","2","","","9688","66","1","2","win","no-go","1"
"pit-trial","185","1186397","0.0-71.0","battery-v0.2","","""event"",""trial"",""time""
""fullscreenenter"",""1"",""2087""
","
","
","""event"",""trial"",""time""
""fullscreenenter"",""1"",""2087""
","
","","","-1","","","19","9688","1780","z","elianto","#3366ff99","-1","-1","1","+10","[]","0","2","","","9688","67","5","2","win","no-go","0"
"pit-trial","186","1191259","0.0-72.0","battery-v0.2","","""event"",""trial"",""time""
""fullscreenenter"",""1"",""2087""
","
","
","""event"",""trial"",""time""
""fullscreenenter"",""1"",""2087""
","
","","","-1","","","19","9688","1780","b","elianto","#f73b6a7A","-1","-1","1","0","[]","0","2","","","9688","68","3","4","lose","no-go","0"
"pit-trial","187","1196122","0.0-73.0","battery-v0.2","","""event"",""trial"",""time""
""fullscreenenter"",""1"",""2087""
","
","
","""event"",""trial"",""time""
""fullscreenenter"",""1"",""2087""
","
","","","-1","","","19","9688","1780","f","elianto","#3366ff99","-1","-1","1","0","[]","0","2","","","9688","69","1","2","win","no-go","1"
"pit-trial","188","1199836","0.0-74.0","battery-v0.2","","""event"",""trial"",""time""
""fullscreenenter"",""1"",""2087""
","
","
","""event"",""trial"",""time""
""fullscreenenter"",""1"",""2087""
","
","","","841.6000000238419","","","19","9688","1780","c","elianto","#3366ff99"," "," ","1","+10","[1694]","1","2","","","9688","70","4","1","win","go","0"
"pit-trial","189","1204699","0.0-75.0","battery-v0.2","","""event"",""trial"",""time""
""fullscreenenter"",""1"",""2087""
","
","
","""event"",""trial"",""time""
""fullscreenenter"",""1"",""2087""
","
","","","-1","","","19","9688","1780","z","elianto","#3366ff99","-1","-1","1","+10","[]","0","2","","","9688","71","5","2","win","no-go","0"
"pit-trial","190","1208930","0.0-76.0","battery-v0.2","","""event"",""trial"",""time""
""fullscreenenter"",""1"",""2087""
","
","
","""event"",""trial"",""time""
""fullscreenenter"",""1"",""2087""
","
","","","1372.199999988079","","","19","9688","1780","t","elianto","#f73b6a7A"," "," ","1","0","[2225.899999976158]","1","2","","","9688","72","2","3","lose","go","0"
"pit-trial","191","1212764","0.0-77.0","battery-v0.2","","""event"",""trial"",""time""
""fullscreenenter"",""1"",""2087""
","
","
","""event"",""trial"",""time""
""fullscreenenter"",""1"",""2087""
","
","","","971.3000000119209","","","19","9688","1780","c","elianto","#3366ff99"," "," ","1","+10","[1824.699999988079]","1","2","","","9688","73","4","1","win","go","0"
"pit-trial","192","1217621","0.0-78.0","battery-v0.2","","""event"",""trial"",""time""
""fullscreenenter"",""1"",""2087""
","
","
","""event"",""trial"",""time""
""fullscreenenter"",""1"",""2087""
","
","","","-1","","","19","9688","1780","z","elianto","#3366ff99","-1","-1","1","+10","[]","0","2","","","9688","74","5","2","win","no-go","0"
"pit-trial","193","1222483","0.0-79.0","battery-v0.2","","""event"",""trial"",""time""
""fullscreenenter"",""1"",""2087""
","
","
","""event"",""trial"",""time""
""fullscreenenter"",""1"",""2087""
","
","","","-1","","","19","9688","1780","f","elianto","#3366ff99","-1","-1","1","+10","[]","0","2","","","9688","75","1","2","win","no-go","0"
"pit-trial","194","1227344","0.0-80.0","battery-v0.2","","""event"",""trial"",""time""
""fullscreenenter"",""1"",""2087""
","
","
","""event"",""trial"",""time""
""fullscreenenter"",""1"",""2087""
","
","","","-1","","","19","9688","1780","b","elianto","#f73b6a7A","-1","-1","1","-10","[]","0","2","","","9688","76","3","4","lose","no-go","1"
"pit-trial","195","1231098","0.0-81.0","battery-v0.2","","""event"",""trial"",""time""
""fullscreenenter"",""1"",""2087""
","
","
","""event"",""trial"",""time""
""fullscreenenter"",""1"",""2087""
","
","","","892.6999999880791","","","19","9688","1780","c","elianto","#3366ff99"," "," ","1","0","[1745]","1","2","","","9688","77","4","1","win","go","1"
"pit-trial","196","1235959","0.0-82.0","battery-v0.2","","""event"",""trial"",""time""
""fullscreenenter"",""1"",""2087""
","
","
","""event"",""trial"",""time""
""fullscreenenter"",""1"",""2087""
","
","","","-1","","","19","9688","1780","b","elianto","#f73b6a7A","-1","-1","1","0","[]","0","2","","","9688","78","3","4","lose","no-go","0"
"pit-trial","197","1239481","0.0-83.0","battery-v0.2","","""event"",""trial"",""time""
""fullscreenenter"",""1"",""2087""
","
","
","""event"",""trial"",""time""
""fullscreenenter"",""1"",""2087""
","
","","","664.1999999880791","","","19","9688","1780","c","elianto","#3366ff99"," "," ","1","+10","[1516.5999999642372]","1","2","","","9688","79","4","1","win","go","0"
"pit-trial","198","1244340","0.0-84.0","battery-v0.2","","""event"",""trial"",""time""
""fullscreenenter"",""1"",""2087""
","
","
","""event"",""trial"",""time""
""fullscreenenter"",""1"",""2087""
","
","","","-1","","","19","9688","1780","z","elianto","#3366ff99","-1","-1","1","0","[]","0","2","","","9688","80","5","2","win","no-go","1"
"pit-trial","199","1247920","0.0-85.0","battery-v0.2","","""event"",""trial"",""time""
""fullscreenenter"",""1"",""2087""
","
","
","""event"",""trial"",""time""
""fullscreenenter"",""1"",""2087""
","
","","","717.1999999880791","","","19","9688","1780","c","elianto","#3366ff99"," "," ","1","+10","[1572.6000000238419]","1","2","","","9688","81","4","1","win","go","0"
"pit-trial","200","1252782","0.0-86.0","battery-v0.2","","""event"",""trial"",""time""
""fullscreenenter"",""1"",""2087""
","
","
","""event"",""trial"",""time""
""fullscreenenter"",""1"",""2087""
","
","","","-1","","","19","9688","1780","z","elianto","#3366ff99","-1","-1","1","+10","[]","0","2","","","9688","82","5","2","win","no-go","0"
"pit-trial","201","1257643","0.0-87.0","battery-v0.2","","""event"",""trial"",""time""
""fullscreenenter"",""1"",""2087""
","
","
","""event"",""trial"",""time""
""fullscreenenter"",""1"",""2087""
","
","","","-1","","","19","9688","1780","b","elianto","#f73b6a7A","-1","-1","1","0","[]","0","2","","","9688","83","3","4","lose","no-go","0"
"pit-trial","202","1262247","0.0-88.0","battery-v0.2","","""event"",""trial"",""time""
""fullscreenenter"",""1"",""2087""
","
","
","""event"",""trial"",""time""
""fullscreenenter"",""1"",""2087""
","
","","","1744.2999999523163","","","19","9688","1780","y","elianto","#f73b6a7A","-1"," ","0","-10","[2597.5]","1","2","","","9688","84","7","4","lose","no-go","0"
"pit-trial","203","1267112","0.0-89.0","battery-v0.2","","""event"",""trial"",""time""
""fullscreenenter"",""1"",""2087""
","
","
","""event"",""trial"",""time""
""fullscreenenter"",""1"",""2087""
","
","","","-1","","","19","9688","1780","y","elianto","#f73b6a7A","-1","-1","1","0","[]","0","2","","","9688","85","7","4","lose","no-go","0"
"pit-trial","204","1270848","0.0-90.0","battery-v0.2","","""event"",""trial"",""time""
""fullscreenenter"",""1"",""2087""
","
","
","""event"",""trial"",""time""
""fullscreenenter"",""1"",""2087""
","
","","","874.1000000238419","","","19","9688","1780","c","elianto","#3366ff99"," "," ","1","+10","[1727.5]","1","2","","","9688","86","4","1","win","go","0"
"pit-trial","205","1275246","0.0-91.0","battery-v0.2","","""event"",""trial"",""time""
""fullscreenenter"",""1"",""2087""
","
","
","""event"",""trial"",""time""
""fullscreenenter"",""1"",""2087""
","
","","","1530.800000011921","","","19","9688","1780","h","elianto","#f73b6a7A"," "," ","1","0","[2384.699999988079]","1","2","","","9688","87","6","3","lose","go","0"
"pit-trial","206","1280107","0.0-92.0","battery-v0.2","","""event"",""trial"",""time""
""fullscreenenter"",""1"",""2087""
","
","
","""event"",""trial"",""time""
""fullscreenenter"",""1"",""2087""
","
","","","-1","","","19","9688","1780","z","elianto","#3366ff99","-1","-1","1","+10","[]","0","2","","","9688","88","5","2","win","no-go","0"
"pit-trial","207","1283664","0.0-93.0","battery-v0.2","","""event"",""trial"",""time""
""fullscreenenter"",""1"",""2087""
","
","
","""event"",""trial"",""time""
""fullscreenenter"",""1"",""2087""
","
","","","695.8000000119209","","","19","9688","1780","c","elianto","#3366ff99"," "," ","1","+10","[1548.0999999642372]","1","2","","","9688","89","4","1","win","go","0"
"pit-trial","208","1288526","0.0-94.0","battery-v0.2","","""event"",""trial"",""time""
""fullscreenenter"",""1"",""2087""
","
","
","""event"",""trial"",""time""
""fullscreenenter"",""1"",""2087""
","
","","","-1","","","19","9688","1780","y","elianto","#f73b6a7A","-1","-1","1","0","[]","0","2","","","9688","90","7","4","lose","no-go","0"
"pit-trial","209","1292779","0.0-95.0","battery-v0.2","","""event"",""trial"",""time""
""fullscreenenter"",""1"",""2087""
","
","
","""event"",""trial"",""time""
""fullscreenenter"",""1"",""2087""
","
","","","1387.800000011921","","","19","9688","1780","h","elianto","#f73b6a7A"," "," ","1","0","[2240.699999988079]","1","2","","","9688","91","6","3","lose","go","0"
"pit-trial","210","1297646","0.0-96.0","battery-v0.2","","""event"",""trial"",""time""
""fullscreenenter"",""1"",""2087""
","
","
","""event"",""trial"",""time""
""fullscreenenter"",""1"",""2087""
","
","","","-1","","","19","9688","1780","z","elianto","#3366ff99","-1","-1","1","0","[]","0","2","","","9688","92","5","2","win","no-go","1"
"pit-trial","211","1302511","0.0-97.0","battery-v0.2","","""event"",""trial"",""time""
""fullscreenenter"",""1"",""2087""
","
","
","""event"",""trial"",""time""
""fullscreenenter"",""1"",""2087""
","
","","","-1","","","19","9688","1780","z","elianto","#3366ff99","-1","-1","1","+10","[]","0","2","","","9688","93","5","2","win","no-go","0"
"pit-trial","212","1307366","0.0-98.0","battery-v0.2","","""event"",""trial"",""time""
""fullscreenenter"",""1"",""2087""
","
","
","""event"",""trial"",""time""
""fullscreenenter"",""1"",""2087""
","
","","","-1","","","19","9688","1780","y","elianto","#f73b6a7A","-1","-1","1","0","[]","0","2","","","9688","94","7","4","lose","no-go","0"
"pit-trial","213","1311237","0.0-99.0","battery-v0.2","","""event"",""trial"",""time""
""fullscreenenter"",""1"",""2087""
","
","
","""event"",""trial"",""time""
""fullscreenenter"",""1"",""2087""
","
","","","1013.0999999642372","","","19","9688","1780","h","elianto","#f73b6a7A"," "," ","1","0","[1866.699999988079]","1","2","","","9688","95","6","3","lose","go","0"
"pit-trial","214","1315466","0.0-100.0","battery-v0.2","","""event"",""trial"",""time""
""fullscreenenter"",""1"",""2087""
","
","
","""event"",""trial"",""time""
""fullscreenenter"",""1"",""2087""
","
","","","1370.199999988079","","","19","9688","1780","r","elianto","#3366ff99"," "," ","1","+10","[2223.600000023842]","1","2","","","9688","96","8","1","win","go","0"
"pit-trial","215","1319188","0.0-101.0","battery-v0.2","","""event"",""trial"",""time""
""fullscreenenter"",""1"",""2087""
","
","
","""event"",""trial"",""time""
""fullscreenenter"",""1"",""2087""
","
","","","847.2999999523163","","","19","9688","1780","r","elianto","#3366ff99"," "," ","1","+10","[1701.300000011921]","1","2","","","9688","97","8","1","win","go","0"
"pit-trial","216","1323250","0.0-102.0","battery-v0.2","","""event"",""trial"",""time""
""fullscreenenter"",""1"",""2087""
","
","
","""event"",""trial"",""time""
""fullscreenenter"",""1"",""2087""
","
","","","1199.0999999642372","","","19","9688","1780","h","elianto","#f73b6a7A"," "," ","1","0","[2052.300000011921]","1","2","","","9688","98","6","3","lose","go","0"
"pit-trial","217","1328121","0.0-103.0","battery-v0.2","","""event"",""trial"",""time""
""fullscreenenter"",""1"",""2087""
","
","
","""event"",""trial"",""time""
""fullscreenenter"",""1"",""2087""
","
","","","-1","","","19","9688","1780","y","elianto","#f73b6a7A","-1","-1","1","-10","[]","0","2","","","9688","99","7","4","lose","no-go","1"
"pit-trial","218","1332981","0.0-104.0","battery-v0.2","","""event"",""trial"",""time""
""fullscreenenter"",""1"",""2087""
","
","
","""event"",""trial"",""time""
""fullscreenenter"",""1"",""2087""
","
","","","-1","","","19","9688","1780","z","elianto","#3366ff99","-1","-1","1","+10","[]","0","2","","","9688","100","5","2","win","no-go","0"
"pit-trial","219","1337845","0.0-105.0","battery-v0.2","","""event"",""trial"",""time""
""fullscreenenter"",""1"",""2087""
","
","
","""event"",""trial"",""time""
""fullscreenenter"",""1"",""2087""
","
","","","-1","","","19","9688","1780","y","elianto","#f73b6a7A","-1","-1","1","0","[]","0","2","","","9688","101","7","4","lose","no-go","0"
"pit-trial","220","1342716","0.0-106.0","battery-v0.2","","""event"",""trial"",""time""
""fullscreenenter"",""1"",""2087""
","
","
","""event"",""trial"",""time""
""fullscreenenter"",""1"",""2087""
","
","","","-1","","","19","9688","1780","z","elianto","#3366ff99","-1","-1","1","+10","[]","0","2","","","9688","102","5","2","win","no-go","0"
"pit-trial","221","1346962","0.0-107.0","battery-v0.2","","""event"",""trial"",""time""
""fullscreenenter"",""1"",""2087""
","
","
","""event"",""trial"",""time""
""fullscreenenter"",""1"",""2087""
","
","","","1384.5","","","19","9688","1780","m","elianto","#3366ff99"," "," ","1","+10","[2238.600000023842]","1","2","","","9688","103","9","1","win","go","0"
"pit-trial","222","1350882","0.0-108.0","battery-v0.2","","""event"",""trial"",""time""
""fullscreenenter"",""1"",""2087""
","
","
","""event"",""trial"",""time""
""fullscreenenter"",""1"",""2087""
","
","","","1060.6000000238419","","","19","9688","1780","r","elianto","#3366ff99"," "," ","1","+10","[1913.4000000357628]","1","2","","","9688","104","8","1","win","go","0"
"pit-trial","223","1354477","0.0-109.0","battery-v0.2","","""event"",""trial"",""time""
""fullscreenenter"",""1"",""2087""
","
","
","""event"",""trial"",""time""
""fullscreenenter"",""1"",""2087""
","
","","","722.6000000238419","","","19","9688","1780","c","elianto","#3366ff99"," "," ","1","+10","[1577.199999988079]","1","2","","","9688","105","4","1","win","go","0"
"pit-trial","224","1358353","0.0-110.0","battery-v0.2","","""event"",""trial"",""time""
""fullscreenenter"",""1"",""2087""
","
","
","""event"",""trial"",""time""
""fullscreenenter"",""1"",""2087""
","
","","","1017.8000000119209","","","19","9688","1780","h","elianto","#f73b6a7A"," "," ","1","0","[1871.199999988079]","1","2","","","9688","106","6","3","lose","go","0"
"pit-trial","225","1362073","0.0-111.0","battery-v0.2","","""event"",""trial"",""time""
""fullscreenenter"",""1"",""2087""
","
","
","""event"",""trial"",""time""
""fullscreenenter"",""1"",""2087""
","
","","","858.0999999642372","","","19","9688","1780","m","elianto","#3366ff99"," "," ","1","+10","[1710.2999999523163]","1","2","","","9688","107","9","1","win","go","0"
"pit-trial","226","1365692","0.0-112.0","battery-v0.2","","""event"",""trial"",""time""
""fullscreenenter"",""1"",""2087""
","
","
","""event"",""trial"",""time""
""fullscreenenter"",""1"",""2087""
","
","","","756.3999999761581","","","19","9688","1780","r","elianto","#3366ff99"," "," ","1","0","[1611.3999999761581]","1","2","","","9688","108","8","1","win","go","1"
"pit-trial","227","1369323","0.0-113.0","battery-v0.2","","""event"",""trial"",""time""
""fullscreenenter"",""1"",""2087""
","
","
","""event"",""trial"",""time""
""fullscreenenter"",""1"",""2087""
","
","","","767.6999999880791","","","19","9688","1780","h","elianto","#f73b6a7A"," "," ","1","0","[1622.5999999642372]","1","2","","","9688","109","6","3","lose","go","0"
"pit-trial","228","1373081","0.0-114.0","battery-v0.2","","""event"",""trial"",""time""
""fullscreenenter"",""1"",""2087""
","
","
","""event"",""trial"",""time""
""fullscreenenter"",""1"",""2087""
","
","","","891.8999999761581","","","19","9688","1780","r","elianto","#3366ff99"," "," ","1","+10","[1745]","1","2","","","9688","110","8","1","win","go","0"
"pit-trial","229","1377947","0.0-115.0","battery-v0.2","","""event"",""trial"",""time""
""fullscreenenter"",""1"",""2087""
","
","
","""event"",""trial"",""time""
""fullscreenenter"",""1"",""2087""
","
","","","-1","","","19","9688","1780","z","elianto","#3366ff99","-1","-1","1","0","[]","0","2","","","9688","111","5","2","win","no-go","1"
"pit-trial","230","1381781","0.0-116.0","battery-v0.2","","""event"",""trial"",""time""
""fullscreenenter"",""1"",""2087""
","
","
","""event"",""trial"",""time""
""fullscreenenter"",""1"",""2087""
","
","","","966","","","19","9688","1780","m","elianto","#3366ff99"," "," ","1","0","[1824.4000000357628]","1","2","","","9688","112","9","1","win","go","1"
"pit-trial","231","1385904","0.0-117.0","battery-v0.2","","""event"",""trial"",""time""
""fullscreenenter"",""1"",""2087""
","
","
","""event"",""trial"",""time""
""fullscreenenter"",""1"",""2087""
","
","","","1257.5","","","19","9688","1780","m","elianto","#3366ff99"," "," ","1","+10","[2111.2999999523163]","1","2","","","9688","113","9","1","win","go","0"
"pit-trial","232","1390761","0.0-118.0","battery-v0.2","","""event"",""trial"",""time""
""fullscreenenter"",""1"",""2087""
","
","
","""event"",""trial"",""time""
""fullscreenenter"",""1"",""2087""
","
","","","-1","","","19","9688","1780","z","elianto","#3366ff99","-1","-1","1","+10","[]","0","2","","","9688","114","5","2","win","no-go","0"
"pit-trial","233","1394502","0.0-119.0","battery-v0.2","","""event"",""trial"",""time""
""fullscreenenter"",""1"",""2087""
","
","
","""event"",""trial"",""time""
""fullscreenenter"",""1"",""2087""
","
","","","879.3000000119209","","","19","9688","1780","r","elianto","#3366ff99"," "," ","1","+10","[1733.4000000357628]","1","2","","","9688","115","8","1","win","go","0"
"pit-trial","234","1398248","0.0-120.0","battery-v0.2","","""event"",""trial"",""time""
""fullscreenenter"",""1"",""2087""
","
","
","""event"",""trial"",""time""
""fullscreenenter"",""1"",""2087""
","
","","","889.6999999880791","","","19","9688","1780","h","elianto","#f73b6a7A"," "," ","1","0","[1741]","1","2","","","9688","116","6","3","lose","go","0"
"pit-trial","235","1401966","0.0-121.0","battery-v0.2","","""event"",""trial"",""time""
""fullscreenenter"",""1"",""2087""
","
","
","""event"",""trial"",""time""
""fullscreenenter"",""1"",""2087""
","
","","","853.6999999880791","","","19","9688","1780","h","elianto","#f73b6a7A"," "," ","1","0","[1708.7000000476837]","1","2","","","9688","117","6","3","lose","go","0"
"pit-trial","236","1406829","0.0-122.0","battery-v0.2","","""event"",""trial"",""time""
""fullscreenenter"",""1"",""2087""
","
","
","""event"",""trial"",""time""
""fullscreenenter"",""1"",""2087""
","
","","","-1","","","19","9688","1780","z","elianto","#3366ff99","-1","-1","1","0","[]","0","2","","","9688","118","5","2","win","no-go","1"
"pit-trial","237","1410495","0.0-123.0","battery-v0.2","","""event"",""trial"",""time""
""fullscreenenter"",""1"",""2087""
","
","
","""event"",""trial"",""time""
""fullscreenenter"",""1"",""2087""
","
","","","802.7999999523163","","","19","9688","1780","m","elianto","#3366ff99"," "," ","1","+10","[1660]","1","2","","","9688","119","9","1","win","go","0"
"pit-trial","238","1414101","0.0-124.0","battery-v0.2","","""event"",""trial"",""time""
""fullscreenenter"",""1"",""2087""
","
","
","""event"",""trial"",""time""
""fullscreenenter"",""1"",""2087""
","
","","","745.3999999761581","","","19","9688","1780","r","elianto","#3366ff99"," "," ","1","0","[1599.4000000357628]","1","2","","","9688","120","8","1","win","go","1"
"pit-trial","239","1417999","0.0-125.0","battery-v0.2","","""event"",""trial"",""time""
""fullscreenenter"",""1"",""2087""
","
","
","""event"",""trial"",""time""
""fullscreenenter"",""1"",""2087""
","
","","","1031","","","19","9688","1780","h","elianto","#f73b6a7A"," "," ","1","0","[1885.5]","1","2","","","9688","121","6","3","lose","go","0"
"pit-trial","240","1421766","0.0-126.0","battery-v0.2","","""event"",""trial"",""time""
""fullscreenenter"",""1"",""2087""
","
","
","""event"",""trial"",""time""
""fullscreenenter"",""1"",""2087""
","
","","","905.3999999761581","","","19","9688","1780","r","elianto","#3366ff99"," "," ","1","+10","[1759.5999999642372]","1","2","","","9688","122","8","1","win","go","0"
"pit-trial","241","1425432","0.0-127.0","battery-v0.2","","""event"",""trial"",""time""
""fullscreenenter"",""1"",""2087""
","
","
","""event"",""trial"",""time""
""fullscreenenter"",""1"",""2087""
","
","","","802.1000000238419","","","19","9688","1780","m","elianto","#3366ff99"," "," ","1","0","[1656]","1","2","","","9688","123","9","1","win","go","1"
"pit-trial","242","1430296","0.0-128.0","battery-v0.2","","""event"",""trial"",""time""
""fullscreenenter"",""1"",""2087""
","
","
","""event"",""trial"",""time""
""fullscreenenter"",""1"",""2087""
","
","","","-1","","","19","9688","1780","y","elianto","#f73b6a7A","-1","-1","1","0","[]","0","2","","","9688","124","7","4","lose","no-go","0"
"pit-trial","243","1435162","0.0-129.0","battery-v0.2","","""event"",""trial"",""time""
""fullscreenenter"",""1"",""2087""
","
","
","""event"",""trial"",""time""
""fullscreenenter"",""1"",""2087""
","
","","","-1","","","19","9688","1780","y","elianto","#f73b6a7A","-1","-1","1","0","[]","0","2","","","9688","125","7","4","lose","no-go","0"
"pit-trial","244","1438899","0.0-130.0","battery-v0.2","","""event"",""trial"",""time""
""fullscreenenter"",""1"",""2087""
","
","
","""event"",""trial"",""time""
""fullscreenenter"",""1"",""2087""
","
","","","869.5","","","19","9688","1780","r","elianto","#3366ff99"," "," ","1","+10","[1723.199999988079]","1","2","","","9688","126","8","1","win","go","0"
"pit-trial","245","1442528","0.0-131.0","battery-v0.2","","""event"",""trial"",""time""
""fullscreenenter"",""1"",""2087""
","
","
","""event"",""trial"",""time""
""fullscreenenter"",""1"",""2087""
","
","","","766.1999999880791","","","19","9688","1780","m","elianto","#3366ff99"," "," ","1","+10","[1619.300000011921]","1","2","","","9688","127","9","1","win","go","0"
"pit-trial","246","1446355","0.0-132.0","battery-v0.2","","""event"",""trial"",""time""
""fullscreenenter"",""1"",""2087""
","
","
","""event"",""trial"",""time""
""fullscreenenter"",""1"",""2087""
","
","","","963.5999999642372","","","19","9688","1780","h","elianto","#f73b6a7A"," "," ","1","0","[1816.4000000357628]","1","2","","","9688","128","6","3","lose","go","0"
"pit-trial","247","1450015","0.0-133.0","battery-v0.2","","""event"",""trial"",""time""
""fullscreenenter"",""1"",""2087""
","
","
","""event"",""trial"",""time""
""fullscreenenter"",""1"",""2087""
","
","","","802.6000000238419","","","19","9688","1780","h","elianto","#f73b6a7A"," "," ","1","0","[1654.0999999642372]","1","2","","","9688","129","6","3","lose","go","0"
"pit-trial","248","1453817","0.0-134.0","battery-v0.2","","""event"",""trial"",""time""
""fullscreenenter"",""1"",""2087""
","
","
","""event"",""trial"",""time""
""fullscreenenter"",""1"",""2087""
","
","","","936.9000000357628","","","19","9688","1780","m","elianto","#3366ff99"," "," ","1","+10","[1791.5]","1","2","","","9688","130","9","1","win","go","0"
"pit-trial","249","1458681","0.0-135.0","battery-v0.2","","""event"",""trial"",""time""
""fullscreenenter"",""1"",""2087""
","
","
","""event"",""trial"",""time""
""fullscreenenter"",""1"",""2087""
","
","","","-1","","","19","9688","1780","y","elianto","#f73b6a7A","-1","-1","1","0","[]","0","2","","","9688","131","7","4","lose","no-go","0"
"pit-trial","250","1462476","0.0-136.0","battery-v0.2","","""event"",""trial"",""time""
""fullscreenenter"",""1"",""2087""
","
","
","""event"",""trial"",""time""
""fullscreenenter"",""1"",""2087""
","
","","","930.5","","","19","9688","1780","r","elianto","#3366ff99"," "," ","1","+10","[1785.1000000238419]","1","2","","","9688","132","8","1","win","go","0"
"pit-trial","251","1467336","0.0-137.0","battery-v0.2","","""event"",""trial"",""time""
""fullscreenenter"",""1"",""2087""
","
","
","""event"",""trial"",""time""
""fullscreenenter"",""1"",""2087""
","
","","","-1","","","19","9688","1780","y","elianto","#f73b6a7A","-1","-1","1","-10","[]","0","2","","","9688","133","7","4","lose","no-go","1"
"pit-trial","252","1471231","0.0-138.0","battery-v0.2","","""event"",""trial"",""time""
""fullscreenenter"",""1"",""2087""
","
","
","""event"",""trial"",""time""
""fullscreenenter"",""1"",""2087""
","
","","","1029.1000000238419","","","19","9688","1780","h","elianto","#f73b6a7A"," "," ","1","0","[1882.699999988079]","1","2","","","9688","134","6","3","lose","go","0"
"pit-trial","253","1475033","0.0-139.0","battery-v0.2","","""event"",""trial"",""time""
""fullscreenenter"",""1"",""2087""
","
","
","""event"",""trial"",""time""
""fullscreenenter"",""1"",""2087""
","
","","","940.6999999880791","","","19","9688","1780","m","elianto","#3366ff99"," "," ","1","+10","[1794.6000000238419]","1","2","","","9688","135","9","1","win","go","0"
"pit-trial","254","1478695","0.0-140.0","battery-v0.2","","""event"",""trial"",""time""
""fullscreenenter"",""1"",""2087""
","
","
","""event"",""trial"",""time""
""fullscreenenter"",""1"",""2087""
","
","","","801.2000000476837","","","19","9688","1780","r","elianto","#3366ff99"," "," ","1","+10","[1655.3999999761581]","1","2","","","9688","136","8","1","win","go","0"
"pit-trial","255","1482302","0.0-141.0","battery-v0.2","","""event"",""trial"",""time""
""fullscreenenter"",""1"",""2087""
","
","
","""event"",""trial"",""time""
""fullscreenenter"",""1"",""2087""
","
","","","741.5","","","19","9688","1780","m","elianto","#3366ff99"," "," ","1","+10","[1595.3999999761581]","1","2","","","9688","137","9","1","win","go","0"
"pit-trial","256","1485974","0.0-142.0","battery-v0.2","","""event"",""trial"",""time""
""fullscreenenter"",""1"",""2087""
","
","
","""event"",""trial"",""time""
""fullscreenenter"",""1"",""2087""
","
","","","813.1000000238419","","","19","9688","1780","r","elianto","#3366ff99"," "," ","1","+10","[1666.300000011921]","1","2","","","9688","138","8","1","win","go","0"
"pit-trial","257","1488847","0.0-143.0","battery-v0.2","","""event"",""trial"",""time""
""fullscreenenter"",""1"",""2087""
","
","
","""event"",""trial"",""time""
""fullscreenenter"",""1"",""2087""
","
","","","10.900000035762787","","","19","9688","1780","y","elianto","#f73b6a7A","-1"," ","0","-10","[865]","1","2","","","9688","139","7","4","lose","no-go","0"
"pit-trial","258","1492598","0.0-144.0","battery-v0.2","","""event"",""trial"",""time""
""fullscreenenter"",""1"",""2087""
","
","
","""event"",""trial"",""time""
""fullscreenenter"",""1"",""2087""
","
","","","890.6000000238419","","","19","9688","1780","h","elianto","#f73b6a7A"," "," ","1","0","[1745.300000011921]","1","2","","","9688","140","6","3","lose","go","0"
"pit-instructions","259","1767893","0.0-145.0","battery-v0.2","","""event"",""trial"",""time""
""fullscreenenter"",""1"",""2087""
","
","
","""event"",""trial"",""time""
""fullscreenenter"",""1"",""2087""
","
","","[{""page_index"":0,""viewing_time"":265818.59999996424},{""page_index"":1,""viewing_time"":9472.400000035763}]","275292.1999999881","","","","","","","","","","","","","","","","","","","","","","","",""
"pit-trial","260","1771773","0.0-146.0","battery-v0.2","","""event"",""trial"",""time""
""fullscreenenter"",""1"",""2087""
","
","
","""event"",""trial"",""time""
""fullscreenenter"",""1"",""2087""
","
","","","1006.1999999880791","","","19","9688","1780","j","elianto","#f73b6a7A","-1"," ","0","-10","[1867]","1","3","","","9688","141","0","4","lose","no-go","0"
"pit-trial","261","1775507","0.0-147.0","battery-v0.2","","""event"",""trial"",""time""
""fullscreenenter"",""1"",""2087""
","
","
","""event"",""trial"",""time""
""fullscreenenter"",""1"",""2087""
","
