"trial_type","trial_index","time_elapsed","internal_node_id","task_version","subject_id","interactions","blur_events","focus_events","fullscreenenter_events","fullscreenexit_events","success","view_history","rt","responses","num_errors","age","subject","participantId","rune","rune_set","hex","correct","choice","accuracy","outcome","keys","total_keys","block","practice","value","sub","trial","stimulus","robot","valence","action","sham"
"pavlovia","0","8","0.0-0.0","battery-v0.2","","""event"",""trial"",""time""
""fullscreenenter"",""1"",""1649""
","
","
","""event"",""trial"",""time""
""fullscreenenter"",""1"",""1649""
","
","","","","","","","","","","","","","","","","","","","","","","","","","","",""
"fullscreen","1","2604","0.0-1.0","battery-v0.2","","""event"",""trial"",""time""
""fullscreenenter"",""1"",""1649""
","
","
","""event"",""trial"",""time""
""fullscreenenter"",""1"",""1649""
","
","true","","","","","","","","","","","","","","","","","","","","","","","","","",""
"pit-instructions","2","8905","0.0-2.0-0.0","battery-v0.2","","""event"",""trial"",""time""
""fullscreenenter"",""1"",""1649""
","
","
","""event"",""trial"",""time""
""fullscreenenter"",""1"",""1649""
","
","","[{""page_index"":0,""viewing_time"":6296}]","6296","","","","","","","","","","","","","","","","","","","","","","","",""
"pit-comprehension","3","13075","0.0-2.0-1.0-0.0","battery-v0.2","","""event"",""trial"",""time""
""fullscreenenter"",""1"",""1649""
","
","
","""event"",""trial"",""time""
""fullscreenenter"",""1"",""1649""
","
","","","4039","[""shark""]","0","10","15987","958","","","","","","","","","","","","","","","","","","",""
"pit-instructions","4","14936","0.0-2.0-1.0-1.0","battery-v0.2","","""event"",""trial"",""time""
""fullscreenenter"",""1"",""1649""
","
","
","""event"",""trial"",""time""
""fullscreenenter"",""1"",""1649""
","
","","[{""page_index"":0,""viewing_time"":1857}]","1857","","","","","","","","","","","","","","","","","","","","","","","",""
"pit-comprehension","5","18121","0.0-2.0-2.0-0.0","battery-v0.2","","""event"",""trial"",""time""
""fullscreenenter"",""1"",""1649""
","
","
","""event"",""trial"",""time""
""fullscreenenter"",""1"",""1649""
","
","","","3181","[""tiger""]","0","10","15987","958","","","","","","","","","","","","","","","","","","",""
"pit-instructions","6","19821","0.0-2.0-2.0-1.0","battery-v0.2","","""event"",""trial"",""time""
""fullscreenenter"",""1"",""1649""
""blur"",""7"",""53569""
""focus"",""7"",""54919""
""blur"",""7"",""86379""
""focus"",""7"",""87293""
","""event"",""trial"",""time""
""blur"",""7"",""53569""
""blur"",""7"",""86379""
","""event"",""trial"",""time""
""focus"",""7"",""54919""
""focus"",""7"",""87293""
","""event"",""trial"",""time""
""fullscreenenter"",""1"",""1649""
","
","","[{""page_index"":0,""viewing_time"":1695}]","1695","","","","","","","","","","","","","","","","","","","","","","","",""
"pit-instructions","7","125736","0.0-2.0-3.0","battery-v0.2","","""event"",""trial"",""time""
""fullscreenenter"",""1"",""1649""
""blur"",""7"",""53569""
""focus"",""7"",""54919""
""blur"",""7"",""86379""
""focus"",""7"",""87293""
","""event"",""trial"",""time""
""blur"",""7"",""53569""
""blur"",""7"",""86379""
","""event"",""trial"",""time""
""focus"",""7"",""54919""
""focus"",""7"",""87293""
","""event"",""trial"",""time""
""fullscreenenter"",""1"",""1649""
","
","","[{""page_index"":0,""viewing_time"":8031},{""page_index"":1,""viewing_time"":6337},{""page_index"":2,""viewing_time"":6167.000000000007},{""page_index"":3,""viewing_time"":6534.999999999993},{""page_index"":4,""viewing_time"":9202},{""page_index"":5,""viewing_time"":6268.000000000007},{""page_index"":6,""viewing_time"":9019.999999999993},{""page_index"":7,""viewing_time"":6868},{""page_index"":8,""viewing_time"":10186},{""page_index"":9,""viewing_time"":9352.000000000015},{""page_index"":10,""viewing_time"":7051.999999999985},{""page_index"":11,""viewing_time"":7036},{""page_index"":12,""viewing_time"":6935},{""page_index"":13,""viewing_time"":6920}]","105909","","","","","","","","","","","","","","","","","","","","","","","",""
"pit-trial","8","129718","0.0-2.0-4.0-0.0","battery-v0.2","","""event"",""trial"",""time""
""fullscreenenter"",""1"",""1649""
""blur"",""7"",""53569""
""focus"",""7"",""54919""
""blur"",""7"",""86379""
""focus"",""7"",""87293""
","""event"",""trial"",""time""
""blur"",""7"",""53569""
""blur"",""7"",""86379""
","""event"",""trial"",""time""
""focus"",""7"",""54919""
""focus"",""7"",""87293""
","""event"",""trial"",""time""
""fullscreenenter"",""1"",""1649""
","
","","","1126.0000000000146","","","10","15987","958","&#9784;","elianto","#FFFFF080"," "," ","1","&#10004","[1977.0000000000146]","1","0","0","","","","","","","",""
"pit-trial","9","133190","0.0-2.0-4.1-0.1","battery-v0.2","","""event"",""trial"",""time""
""fullscreenenter"",""1"",""1649""
""blur"",""7"",""53569""
""focus"",""7"",""54919""
""blur"",""7"",""86379""
""focus"",""7"",""87293""
","""event"",""trial"",""time""
""blur"",""7"",""53569""
""blur"",""7"",""86379""
","""event"",""trial"",""time""
""focus"",""7"",""54919""
""focus"",""7"",""87293""
","""event"",""trial"",""time""
""fullscreenenter"",""1"",""1649""
","
","","","616","","","10","15987","958","&#9784;","elianto","#FFFFF080"," "," ","1","&#10004","[1467]","1","0","0","","","","","","","",""
"pit-trial","10","136517","0.0-2.0-4.2-0.2","battery-v0.2","","""event"",""trial"",""time""
""fullscreenenter"",""1"",""1649""
""blur"",""7"",""53569""
""focus"",""7"",""54919""
""blur"",""7"",""86379""
""focus"",""7"",""87293""
","""event"",""trial"",""time""
""blur"",""7"",""53569""
""blur"",""7"",""86379""
","""event"",""trial"",""time""
""focus"",""7"",""54919""
""focus"",""7"",""87293""
","""event"",""trial"",""time""
""fullscreenenter"",""1"",""1649""
","
","","","472","","","10","15987","958","&#9784;","elianto","#FFFFF080"," "," ","1","&#10004","[1323]","1","0","0","","","","","","","",""
"pit-trial","11","139877","0.0-2.0-4.3-0.3","battery-v0.2","","""event"",""trial"",""time""
""fullscreenenter"",""1"",""1649""
""blur"",""7"",""53569""
""focus"",""7"",""54919""
""blur"",""7"",""86379""
""focus"",""7"",""87293""
","""event"",""trial"",""time""
""blur"",""7"",""53569""
""blur"",""7"",""86379""
","""event"",""trial"",""time""
""focus"",""7"",""54919""
""focus"",""7"",""87293""
","""event"",""trial"",""time""
""fullscreenenter"",""1"",""1649""
","
","","","506","","","10","15987","958","&#9784;","elianto","#FFFFF080"," "," ","1","&#10004","[1357]","1","0","0","","","","","","","",""
"pit-trial","12","143294","0.0-2.0-4.4-0.4","battery-v0.2","","""event"",""trial"",""time""
""fullscreenenter"",""1"",""1649""
""blur"",""7"",""53569""
""focus"",""7"",""54919""
""blur"",""7"",""86379""
""focus"",""7"",""87293""
","""event"",""trial"",""time""
""blur"",""7"",""53569""
""blur"",""7"",""86379""
","""event"",""trial"",""time""
""focus"",""7"",""54919""
""focus"",""7"",""87293""
","""event"",""trial"",""time""
""fullscreenenter"",""1"",""1649""
","
","","","561.9999999999709","","","10","15987","958","&#9784;","elianto","#FFFFF080"," "," ","1","&#10004","[1412]","1","0","0","","","","","","","",""
"pit-instructions","13","164333","0.0-2.0-5.0","battery-v0.2","","""event"",""trial"",""time""
""fullscreenenter"",""1"",""1649""
""blur"",""7"",""53569""
""focus"",""7"",""54919""
""blur"",""7"",""86379""
""focus"",""7"",""87293""
","""event"",""trial"",""time""
""blur"",""7"",""53569""
""blur"",""7"",""86379""
","""event"",""trial"",""time""
""focus"",""7"",""54919""
""focus"",""7"",""87293""
","""event"",""trial"",""time""
""fullscreenenter"",""1"",""1649""
","
","","[{""page_index"":0,""viewing_time"":4811},{""page_index"":1,""viewing_time"":5001},{""page_index"":2,""viewing_time"":5553},{""page_index"":3,""viewing_time"":5670}]","21035","","","","","","","","","","","","","","","","","","","","","","","",""
"pit-trial","14","169188","0.0-2.0-6.0-0.0","battery-v0.2","","""event"",""trial"",""time""
""fullscreenenter"",""1"",""1649""
""blur"",""7"",""53569""
""focus"",""7"",""54919""
""blur"",""7"",""86379""
""focus"",""7"",""87293""
","""event"",""trial"",""time""
""blur"",""7"",""53569""
""blur"",""7"",""86379""
","""event"",""trial"",""time""
""focus"",""7"",""54919""
""focus"",""7"",""87293""
","""event"",""trial"",""time""
""fullscreenenter"",""1"",""1649""
","
","","","-1","","","10","15987","958","&#9854;","elianto","#FFFFF080","-1","-1","1","&#10004","[]","0","0","1","","","","","","","",""
"pit-trial","15","174043","0.0-2.0-6.1-0.1","battery-v0.2","","""event"",""trial"",""time""
""fullscreenenter"",""1"",""1649""
""blur"",""7"",""53569""
""focus"",""7"",""54919""
""blur"",""7"",""86379""
""focus"",""7"",""87293""
","""event"",""trial"",""time""
""blur"",""7"",""53569""
""blur"",""7"",""86379""
","""event"",""trial"",""time""
""focus"",""7"",""54919""
""focus"",""7"",""87293""
","""event"",""trial"",""time""
""fullscreenenter"",""1"",""1649""
","
","","","-1","","","10","15987","958","&#9854;","elianto","#FFFFF080","-1","-1","1","&#10004","[]","0","0","1","","","","","","","",""
"pit-trial","16","178898","0.0-2.0-6.2-0.2","battery-v0.2","","""event"",""trial"",""time""
""fullscreenenter"",""1"",""1649""
""blur"",""7"",""53569""
""focus"",""7"",""54919""
""blur"",""7"",""86379""
""focus"",""7"",""87293""
","""event"",""trial"",""time""
""blur"",""7"",""53569""
""blur"",""7"",""86379""
","""event"",""trial"",""time""
""focus"",""7"",""54919""
""focus"",""7"",""87293""
","""event"",""trial"",""time""
""fullscreenenter"",""1"",""1649""
","
","","","-1","","","10","15987","958","&#9854;","elianto","#FFFFF080","-1","-1","1","&#10004","[]","0","0","1","","","","","","","",""
"pit-trial","17","183752","0.0-2.0-6.3-0.3","battery-v0.2","","""event"",""trial"",""time""
""fullscreenenter"",""1"",""1649""
""blur"",""7"",""53569""
""focus"",""7"",""54919""
""blur"",""7"",""86379""
""focus"",""7"",""87293""
","""event"",""trial"",""time""
""blur"",""7"",""53569""
""blur"",""7"",""86379""
","""event"",""trial"",""time""
""focus"",""7"",""54919""
""focus"",""7"",""87293""
","""event"",""trial"",""time""
""fullscreenenter"",""1"",""1649""
","
","","","-1","","","10","15987","958","&#9854;","elianto","#FFFFF080","-1","-1","1","&#10004","[]","0","0","1","","","","","","","",""
"pit-trial","18","188608","0.0-2.0-6.4-0.4","battery-v0.2","","""event"",""trial"",""time""
""fullscreenenter"",""1"",""1649""
""blur"",""7"",""53569""
""focus"",""7"",""54919""
""blur"",""7"",""86379""
""focus"",""7"",""87293""
","""event"",""trial"",""time""
""blur"",""7"",""53569""
""blur"",""7"",""86379""
","""event"",""trial"",""time""
""focus"",""7"",""54919""
""focus"",""7"",""87293""
","""event"",""trial"",""time""
""fullscreenenter"",""1"",""1649""
","
","","","-1","","","10","15987","958","&#9854;","elianto","#FFFFF080","-1","-1","1","&#10004","[]","0","0","1","","","","","","","",""
"pit-instructions","19","327750","0.0-2.0-7.0","battery-v0.2","","""event"",""trial"",""time""
""fullscreenenter"",""1"",""1649""
""blur"",""7"",""53569""
""focus"",""7"",""54919""
""blur"",""7"",""86379""
""focus"",""7"",""87293""
","""event"",""trial"",""time""
""blur"",""7"",""53569""
""blur"",""7"",""86379""
","""event"",""trial"",""time""
""focus"",""7"",""54919""
""focus"",""7"",""87293""
","""event"",""trial"",""time""
""fullscreenenter"",""1"",""1649""
","
","","[{""page_index"":0,""viewing_time"":9429.99999999997},{""page_index"":1,""viewing_time"":6202},{""page_index"":2,""viewing_time"":5701},{""page_index"":3,""viewing_time"":11919},{""page_index"":4,""viewing_time"":6385.000000000029},{""page_index"":5,""viewing_time"":8286},{""page_index"":6,""viewing_time"":5217.999999999971},{""page_index"":7,""viewing_time"":7269},{""page_index"":8,""viewing_time"":6701.999999999971},{""page_index"":9,""viewing_time"":6687.000000000029},{""page_index"":10,""viewing_time"":11203},{""page_index"":11,""viewing_time"":4568},{""page_index"":12,""viewing_time"":10853},{""page_index"":13,""viewing_time"":9919},{""page_index"":14,""viewing_time"":7669},{""page_index"":15,""viewing_time"":8051},{""page_index"":16,""viewing_time"":6253},{""page_index"":17,""viewing_time"":6819.000000000058}]","139134.00000000003","","","","","","","","","","","","","","","","","","","","","","","",""
"pit-trial","20","331251","0.0-2.0-8.0-0.0","battery-v0.2","","""event"",""trial"",""time""
""fullscreenenter"",""1"",""1649""
""blur"",""7"",""53569""
""focus"",""7"",""54919""
""blur"",""7"",""86379""
""focus"",""7"",""87293""
","""event"",""trial"",""time""
""blur"",""7"",""53569""
""blur"",""7"",""86379""
","""event"",""trial"",""time""
""focus"",""7"",""54919""
""focus"",""7"",""87293""
","""event"",""trial"",""time""
""fullscreenenter"",""1"",""1649""
","
","","","646","","","10","15987","958","&#9776;","elianto","#3366ff99"," "," ","1","+10","[1496]","1","0","1","","","","","","","",""
"pit-trial","21","334675","0.0-2.0-8.0-1.0","battery-v0.2","","""event"",""trial"",""time""
""fullscreenenter"",""1"",""1649""
""blur"",""7"",""53569""
""focus"",""7"",""54919""
""blur"",""7"",""86379""
""focus"",""7"",""87293""
","""event"",""trial"",""time""
""blur"",""7"",""53569""
""blur"",""7"",""86379""
","""event"",""trial"",""time""
""focus"",""7"",""54919""
""focus"",""7"",""87293""
","""event"",""trial"",""time""
""fullscreenenter"",""1"",""1649""
","
","","","569.0000000000582","","","10","15987","958","&#9776;","elianto","#3366ff99"," "," ","1","+10","[1420.0000000000582]","1","0","1","","","","","","","",""
"pit-trial","22","338162","0.0-2.0-8.0-2.0","battery-v0.2","","""event"",""trial"",""time""
""fullscreenenter"",""1"",""1649""
""blur"",""7"",""53569""
""focus"",""7"",""54919""
""blur"",""7"",""86379""
""focus"",""7"",""87293""
","""event"",""trial"",""time""
""blur"",""7"",""53569""
""blur"",""7"",""86379""
","""event"",""trial"",""time""
""focus"",""7"",""54919""
""focus"",""7"",""87293""
","""event"",""trial"",""time""
""fullscreenenter"",""1"",""1649""
","
","","","634.0000000000582","","","10","15987","958","&#9776;","elianto","#3366ff99"," "," ","1","+10","[1484.0000000000582]","1","0","1","","","","","","","",""
"pit-trial","23","341442","0.0-2.0-8.0-3.0","battery-v0.2","","""event"",""trial"",""time""
""fullscreenenter"",""1"",""1649""
""blur"",""7"",""53569""
""focus"",""7"",""54919""
""blur"",""7"",""86379""
""focus"",""7"",""87293""
","""event"",""trial"",""time""
""blur"",""7"",""53569""
""blur"",""7"",""86379""
","""event"",""trial"",""time""
""focus"",""7"",""54919""
""focus"",""7"",""87293""
","""event"",""trial"",""time""
""fullscreenenter"",""1"",""1649""
","
","","","426","","","10","15987","958","&#9776;","elianto","#3366ff99"," "," ","1","0","[1277]","1","0","1","","","","","","","",""
"pit-trial","24","344643","0.0-2.0-8.0-4.0","battery-v0.2","","""event"",""trial"",""time""
""fullscreenenter"",""1"",""1649""
""blur"",""7"",""53569""
""focus"",""7"",""54919""
""blur"",""7"",""86379""
""focus"",""7"",""87293""
","""event"",""trial"",""time""
""blur"",""7"",""53569""
""blur"",""7"",""86379""
","""event"",""trial"",""time""
""focus"",""7"",""54919""
""focus"",""7"",""87293""
","""event"",""trial"",""time""
""fullscreenenter"",""1"",""1649""
","
","","","347","","","10","15987","958","&#9776;","elianto","#3366ff99"," "," ","1","+10","[1197]","1","0","1","","","","","","","",""
"pit-trial","25","347946","0.0-2.0-8.1-0.1","battery-v0.2","","""event"",""trial"",""time""
""fullscreenenter"",""1"",""1649""
""blur"",""7"",""53569""
""focus"",""7"",""54919""
""blur"",""7"",""86379""
""focus"",""7"",""87293""
","""event"",""trial"",""time""
""blur"",""7"",""53569""
""blur"",""7"",""86379""
","""event"",""trial"",""time""
""focus"",""7"",""54919""
""focus"",""7"",""87293""
","""event"",""trial"",""time""
""fullscreenenter"",""1"",""1649""
","
","","","449","","","10","15987","958","&#9776;","elianto","#3366ff99"," "," ","1","+10","[1299]","1","0","1","","","","","","","",""
"pit-trial","26","351290","0.0-2.0-8.1-1.1","battery-v0.2","","""event"",""trial"",""time""
""fullscreenenter"",""1"",""1649""
""blur"",""7"",""53569""
""focus"",""7"",""54919""
""blur"",""7"",""86379""
""focus"",""7"",""87293""
","""event"",""trial"",""time""
""blur"",""7"",""53569""
""blur"",""7"",""86379""
","""event"",""trial"",""time""
""focus"",""7"",""54919""
""focus"",""7"",""87293""
","""event"",""trial"",""time""
""fullscreenenter"",""1"",""1649""
","
","","","490","","","10","15987","958","&#9776;","elianto","#3366ff99"," "," ","1","+10","[1341]","1","0","1","","","","","","","",""
"pit-trial","27","354827","0.0-2.0-8.1-2.1","battery-v0.2","","""event"",""trial"",""time""
""fullscreenenter"",""1"",""1649""
""blur"",""7"",""53569""
""focus"",""7"",""54919""
""blur"",""7"",""86379""
""focus"",""7"",""87293""
","""event"",""trial"",""time""
""blur"",""7"",""53569""
""blur"",""7"",""86379""
","""event"",""trial"",""time""
""focus"",""7"",""54919""
""focus"",""7"",""87293""
","""event"",""trial"",""time""
""fullscreenenter"",""1"",""1649""
","
","","","682","","","10","15987","958","&#9776;","elianto","#3366ff99"," "," ","1","+10","[1533]","1","0","1","","","","","","","",""
"pit-trial","28","358227","0.0-2.0-8.1-3.1","battery-v0.2","","""event"",""trial"",""time""
""fullscreenenter"",""1"",""1649""
""blur"",""7"",""53569""
""focus"",""7"",""54919""
""blur"",""7"",""86379""
""focus"",""7"",""87293""
","""event"",""trial"",""time""
""blur"",""7"",""53569""
""blur"",""7"",""86379""
","""event"",""trial"",""time""
""focus"",""7"",""54919""
""focus"",""7"",""87293""
","""event"",""trial"",""time""
""fullscreenenter"",""1"",""1649""
","
","","","545","","","10","15987","958","&#9776;","elianto","#3366ff99"," "," ","1","0","[1396]","1","0","1","","","","","","","",""
"pit-trial","29","361275","0.0-2.0-8.1-4.1","battery-v0.2","","""event"",""trial"",""time""
""fullscreenenter"",""1"",""1649""
""blur"",""7"",""53569""
""focus"",""7"",""54919""
""blur"",""7"",""86379""
""focus"",""7"",""87293""
","""event"",""trial"",""time""
""blur"",""7"",""53569""
""blur"",""7"",""86379""
","""event"",""trial"",""time""
""focus"",""7"",""54919""
""focus"",""7"",""87293""
","""event"",""trial"",""time""
""fullscreenenter"",""1"",""1649""
","
","","","193","","","10","15987","958","&#9776;","elianto","#3366ff99"," "," ","1","+10","[1044,1988]","2","0","1","","","","","","","",""
"pit-trial","30","364883","0.0-2.0-8.2-0.2","battery-v0.2","","""event"",""trial"",""time""
""fullscreenenter"",""1"",""1649""
""blur"",""7"",""53569""
""focus"",""7"",""54919""
""blur"",""7"",""86379""
""focus"",""7"",""87293""
","""event"",""trial"",""time""
""blur"",""7"",""53569""
""blur"",""7"",""86379""
","""event"",""trial"",""time""
""focus"",""7"",""54919""
""focus"",""7"",""87293""
","""event"",""trial"",""time""
""fullscreenenter"",""1"",""1649""
","
","","","753","","","10","15987","958","&#9776;","elianto","#3366ff99"," "," ","1","+10","[1604]","1","0","1","","","","","","","",""
"pit-trial","31","368427","0.0-2.0-8.2-1.2","battery-v0.2","","""event"",""trial"",""time""
""fullscreenenter"",""1"",""1649""
""blur"",""7"",""53569""
""focus"",""7"",""54919""
""blur"",""7"",""86379""
""focus"",""7"",""87293""
","""event"",""trial"",""time""
""blur"",""7"",""53569""
""blur"",""7"",""86379""
","""event"",""trial"",""time""
""focus"",""7"",""54919""
""focus"",""7"",""87293""
","""event"",""trial"",""time""
""fullscreenenter"",""1"",""1649""
","
","","","690","","","10","15987","958","&#9776;","elianto","#3366ff99"," "," ","1","+10","[1541]","1","0","1","","","","","","","",""
"pit-trial","32","371899","0.0-2.0-8.2-2.2","battery-v0.2","","""event"",""trial"",""time""
""fullscreenenter"",""1"",""1649""
""blur"",""7"",""53569""
""focus"",""7"",""54919""
""blur"",""7"",""86379""
""focus"",""7"",""87293""
","""event"",""trial"",""time""
""blur"",""7"",""53569""
""blur"",""7"",""86379""
","""event"",""trial"",""time""
""focus"",""7"",""54919""
""focus"",""7"",""87293""
","""event"",""trial"",""time""
""fullscreenenter"",""1"",""1649""
","
","","","618","","","10","15987","958","&#9776;","elianto","#3366ff99"," "," ","1","+10","[1469]","1","0","1","","","","","","","",""
"pit-trial","33","375364","0.0-2.0-8.2-3.2","battery-v0.2","","""event"",""trial"",""time""
""fullscreenenter"",""1"",""1649""
""blur"",""7"",""53569""
""focus"",""7"",""54919""
""blur"",""7"",""86379""
""focus"",""7"",""87293""
","""event"",""trial"",""time""
""blur"",""7"",""53569""
""blur"",""7"",""86379""
","""event"",""trial"",""time""
""focus"",""7"",""54919""
""focus"",""7"",""87293""
","""event"",""trial"",""time""
""fullscreenenter"",""1"",""1649""
","
","","","610","","","10","15987","958","&#9776;","elianto","#3366ff99"," "," ","1","0","[1461]","1","0","1","","","","","","","",""
"pit-trial","34","378859","0.0-2.0-8.2-4.2","battery-v0.2","","""event"",""trial"",""time""
""fullscreenenter"",""1"",""1649""
""blur"",""7"",""53569""
""focus"",""7"",""54919""
""blur"",""7"",""86379""
""focus"",""7"",""87293""
","""event"",""trial"",""time""
""blur"",""7"",""53569""
""blur"",""7"",""86379""
","""event"",""trial"",""time""
""focus"",""7"",""54919""
""focus"",""7"",""87293""
","""event"",""trial"",""time""
""fullscreenenter"",""1"",""1649""
","
","","","641","","","10","15987","958","&#9776;","elianto","#3366ff99"," "," ","1","+10","[1492]","1","0","1","","","","","","","",""
"call-function","35","378861","0.0-2.0-9.0","battery-v0.2","","""event"",""trial"",""time""
""fullscreenenter"",""1"",""1649""
""blur"",""7"",""53569""
""focus"",""7"",""54919""
""blur"",""7"",""86379""
""focus"",""7"",""87293""
","""event"",""trial"",""time""
""blur"",""7"",""53569""
""blur"",""7"",""86379""
","""event"",""trial"",""time""
""focus"",""7"",""54919""
""focus"",""7"",""87293""
","""event"",""trial"",""time""
""fullscreenenter"",""1"",""1649""
","
","","","","","","","","","","","","","","","","","","","","","","","","","","",""
"pit-instructions","36","416977","0.0-2.0-10.0","battery-v0.2","","""event"",""trial"",""time""
""fullscreenenter"",""1"",""1649""
""blur"",""7"",""53569""
""focus"",""7"",""54919""
""blur"",""7"",""86379""
""focus"",""7"",""87293""
","""event"",""trial"",""time""
""blur"",""7"",""53569""
""blur"",""7"",""86379""
","""event"",""trial"",""time""
""focus"",""7"",""54919""
""focus"",""7"",""87293""
","""event"",""trial"",""time""
""fullscreenenter"",""1"",""1649""
","
","","[{""page_index"":0,""viewing_time"":5871},{""page_index"":1,""viewing_time"":6619.000000000058},{""page_index"":2,""viewing_time"":9219.999999999942},{""page_index"":3,""viewing_time"":8718},{""page_index"":4,""viewing_time"":7686}]","38114","","","","","","","","","","","","","","","","","","","","","","","",""
"pit-trial","37","420461","0.0-2.0-11.0-0.0","battery-v0.2","","""event"",""trial"",""time""
""fullscreenenter"",""1"",""1649""
""blur"",""7"",""53569""
""focus"",""7"",""54919""
""blur"",""7"",""86379""
""focus"",""7"",""87293""
","""event"",""trial"",""time""
""blur"",""7"",""53569""
""blur"",""7"",""86379""
","""event"",""trial"",""time""
""focus"",""7"",""54919""
""focus"",""7"",""87293""
","""event"",""trial"",""time""
""fullscreenenter"",""1"",""1649""
","
","","","628","","","10","15987","958","&#9761;","elianto","#3366ff99","-1"," ","0","0","[1479]","1","0","2","","","","","","","",""
"pit-trial","38","423589","0.0-2.0-11.0-1.0","battery-v0.2","","""event"",""trial"",""time""
""fullscreenenter"",""1"",""1649""
""blur"",""7"",""53569""
""focus"",""7"",""54919""
""blur"",""7"",""86379""
""focus"",""7"",""87293""
","""event"",""trial"",""time""
""blur"",""7"",""53569""
""blur"",""7"",""86379""
","""event"",""trial"",""time""
""focus"",""7"",""54919""
""focus"",""7"",""87293""
","""event"",""trial"",""time""
""fullscreenenter"",""1"",""1649""
","
","","","271","","","10","15987","958","&#9761;","elianto","#3366ff99","-1"," ","0","0","[1122]","1","0","2","","","","","","","",""
"pit-trial","39","428443","0.0-2.0-11.0-2.0","battery-v0.2","","""event"",""trial"",""time""
""fullscreenenter"",""1"",""1649""
""blur"",""7"",""53569""
""focus"",""7"",""54919""
""blur"",""7"",""86379""
""focus"",""7"",""87293""
","""event"",""trial"",""time""
""blur"",""7"",""53569""
""blur"",""7"",""86379""
","""event"",""trial"",""time""
""focus"",""7"",""54919""
""focus"",""7"",""87293""
","""event"",""trial"",""time""
""fullscreenenter"",""1"",""1649""
","
","","","-1","","","10","15987","958","&#9761;","elianto","#3366ff99","-1","-1","1","+10","[]","0","0","2","","","","","","","",""
"pit-trial","40","433298","0.0-2.0-11.0-3.0","battery-v0.2","","""event"",""trial"",""time""
""fullscreenenter"",""1"",""1649""
""blur"",""7"",""53569""
""focus"",""7"",""54919""
""blur"",""7"",""86379""
""focus"",""7"",""87293""
","""event"",""trial"",""time""
""blur"",""7"",""53569""
""blur"",""7"",""86379""
","""event"",""trial"",""time""
""focus"",""7"",""54919""
""focus"",""7"",""87293""
","""event"",""trial"",""time""
""fullscreenenter"",""1"",""1649""
","
","","","-1","","","10","15987","958","&#9761;","elianto","#3366ff99","-1","-1","1","0","[]","0","0","2","","","","","","","",""
"pit-trial","41","438152","0.0-2.0-11.0-4.0","battery-v0.2","","""event"",""trial"",""time""
""fullscreenenter"",""1"",""1649""
""blur"",""7"",""53569""
""focus"",""7"",""54919""
""blur"",""7"",""86379""
""focus"",""7"",""87293""
","""event"",""trial"",""time""
""blur"",""7"",""53569""
""blur"",""7"",""86379""
","""event"",""trial"",""time""
""focus"",""7"",""54919""
""focus"",""7"",""87293""
","""event"",""trial"",""time""
""fullscreenenter"",""1"",""1649""
","
","","","-1","","","10","15987","958","&#9761;","elianto","#3366ff99","-1","-1","1","+10","[]","0","0","2","","","","","","","",""
"pit-trial","42","443009","0.0-2.0-11.1-0.1","battery-v0.2","","""event"",""trial"",""time""
""fullscreenenter"",""1"",""1649""
""blur"",""7"",""53569""
""focus"",""7"",""54919""
""blur"",""7"",""86379""
""focus"",""7"",""87293""
","""event"",""trial"",""time""
""blur"",""7"",""53569""
""blur"",""7"",""86379""
","""event"",""trial"",""time""
""focus"",""7"",""54919""
""focus"",""7"",""87293""
","""event"",""trial"",""time""
""fullscreenenter"",""1"",""1649""
","
","","","-1","","","10","15987","958","&#9761;","elianto","#3366ff99","-1","-1","1","+10","[]","0","0","2","","","","","","","",""
"pit-trial","43","447863","0.0-2.0-11.1-1.1","battery-v0.2","","""event"",""trial"",""time""
""fullscreenenter"",""1"",""1649""
""blur"",""7"",""53569""
""focus"",""7"",""54919""
""blur"",""7"",""86379""
""focus"",""7"",""87293""
","""event"",""trial"",""time""
""blur"",""7"",""53569""
""blur"",""7"",""86379""
","""event"",""trial"",""time""
""focus"",""7"",""54919""
""focus"",""7"",""87293""
","""event"",""trial"",""time""
""fullscreenenter"",""1"",""1649""
","
","","","-1","","","10","15987","958","&#9761;","elianto","#3366ff99","-1","-1","1","+10","[]","0","0","2","","","","","","","",""
"pit-trial","44","452718","0.0-2.0-11.1-2.1","battery-v0.2","","""event"",""trial"",""time""
""fullscreenenter"",""1"",""1649""
""blur"",""7"",""53569""
""focus"",""7"",""54919""
""blur"",""7"",""86379""
""focus"",""7"",""87293""
","""event"",""trial"",""time""
""blur"",""7"",""53569""
""blur"",""7"",""86379""
","""event"",""trial"",""time""
""focus"",""7"",""54919""
""focus"",""7"",""87293""
","""event"",""trial"",""time""
""fullscreenenter"",""1"",""1649""
","
","","","-1","","","10","15987","958","&#9761;","elianto","#3366ff99","-1","-1","1","+10","[]","0","0","2","","","","","","","",""
"pit-trial","45","457572","0.0-2.0-11.1-3.1","battery-v0.2","","""event"",""trial"",""time""
""fullscreenenter"",""1"",""1649""
""blur"",""7"",""53569""
""focus"",""7"",""54919""
""blur"",""7"",""86379""
""focus"",""7"",""87293""
","""event"",""trial"",""time""
""blur"",""7"",""53569""
""blur"",""7"",""86379""
","""event"",""trial"",""time""
""focus"",""7"",""54919""
""focus"",""7"",""87293""
","""event"",""trial"",""time""
""fullscreenenter"",""1"",""1649""
","
","","","-1","","","10","15987","958","&#9761;","elianto","#3366ff99","-1","-1","1","0","[]","0","0","2","","","","","","","",""
"pit-trial","46","462427","0.0-2.0-11.1-4.1","battery-v0.2","","""event"",""trial"",""time""
""fullscreenenter"",""1"",""1649""
""blur"",""7"",""53569""
""focus"",""7"",""54919""
""blur"",""7"",""86379""
""focus"",""7"",""87293""
","""event"",""trial"",""time""
""blur"",""7"",""53569""
""blur"",""7"",""86379""
","""event"",""trial"",""time""
""focus"",""7"",""54919""
""focus"",""7"",""87293""
","""event"",""trial"",""time""
""fullscreenenter"",""1"",""1649""
","
","","","-1","","","10","15987","958","&#9761;","elianto","#3366ff99","-1","-1","1","+10","[]","0","0","2","","","","","","","",""
"pit-trial","47","467281","0.0-2.0-11.2-0.2","battery-v0.2","","""event"",""trial"",""time""
""fullscreenenter"",""1"",""1649""
""blur"",""7"",""53569""
""focus"",""7"",""54919""
""blur"",""7"",""86379""
""focus"",""7"",""87293""
","""event"",""trial"",""time""
""blur"",""7"",""53569""
""blur"",""7"",""86379""
","""event"",""trial"",""time""
""focus"",""7"",""54919""
""focus"",""7"",""87293""
","""event"",""trial"",""time""
""fullscreenenter"",""1"",""1649""
","
","","","-1","","","10","15987","958","&#9761;","elianto","#3366ff99","-1","-1","1","+10","[]","0","0","2","","","","","","","",""
"pit-trial","48","472136","0.0-2.0-11.2-1.2","battery-v0.2","","""event"",""trial"",""time""
""fullscreenenter"",""1"",""1649""
""blur"",""7"",""53569""
""focus"",""7"",""54919""
""blur"",""7"",""86379""
""focus"",""7"",""87293""
","""event"",""trial"",""time""
""blur"",""7"",""53569""
""blur"",""7"",""86379""
","""event"",""trial"",""time""
""focus"",""7"",""54919""
""focus"",""7"",""87293""
","""event"",""trial"",""time""
""fullscreenenter"",""1"",""1649""
","
","","","-1","","","10","15987","958","&#9761;","elianto","#3366ff99","-1","-1","1","+10","[3345.000000000058]","1","0","2","","","","","","","",""
"pit-trial","49","475717","0.0-2.0-11.2-2.2","battery-v0.2","","""event"",""trial"",""time""
""fullscreenenter"",""1"",""1649""
""blur"",""7"",""53569""
""focus"",""7"",""54919""
""blur"",""7"",""86379""
""focus"",""7"",""87293""
","""event"",""trial"",""time""
""blur"",""7"",""53569""
""blur"",""7"",""86379""
","""event"",""trial"",""time""
""focus"",""7"",""54919""
""focus"",""7"",""87293""
","""event"",""trial"",""time""
""fullscreenenter"",""1"",""1649""
","
","","","728","","","10","15987","958","&#9761;","elianto","#3366ff99","-1"," ","0","0","[1579]","1","0","2","","","","","","","",""
"pit-trial","50","479134","0.0-2.0-11.2-3.2","battery-v0.2","","""event"",""trial"",""time""
""fullscreenenter"",""1"",""1649""
""blur"",""7"",""53569""
""focus"",""7"",""54919""
""blur"",""7"",""86379""
""focus"",""7"",""87293""
","""event"",""trial"",""time""
""blur"",""7"",""53569""
""blur"",""7"",""86379""
","""event"",""trial"",""time""
""focus"",""7"",""54919""
""focus"",""7"",""87293""
","""event"",""trial"",""time""
""fullscreenenter"",""1"",""1649""
","
","","","561.9999999999418","","","10","15987","958","&#9761;","elianto","#3366ff99","-1"," ","0","+10","[1413]","1","0","2","","","","","","","",""
"pit-trial","51","483038","0.0-2.0-11.2-4.2","battery-v0.2","","""event"",""trial"",""time""
""fullscreenenter"",""1"",""1649""
""blur"",""7"",""53569""
""focus"",""7"",""54919""
""blur"",""7"",""86379""
""focus"",""7"",""87293""
","""event"",""trial"",""time""
""blur"",""7"",""53569""
""blur"",""7"",""86379""
","""event"",""trial"",""time""
""focus"",""7"",""54919""
""focus"",""7"",""87293""
","""event"",""trial"",""time""
""fullscreenenter"",""1"",""1649""
","
","","","1048","","","10","15987","958","&#9761;","elianto","#3366ff99","-1"," ","0","0","[1900]","1","0","2","","","","","","","",""
"pit-trial","52","487893","0.0-2.0-11.3-0.3","battery-v0.2","","""event"",""trial"",""time""
""fullscreenenter"",""1"",""1649""
""blur"",""7"",""53569""
""focus"",""7"",""54919""
""blur"",""7"",""86379""
""focus"",""7"",""87293""
","""event"",""trial"",""time""
""blur"",""7"",""53569""
""blur"",""7"",""86379""
","""event"",""trial"",""time""
""focus"",""7"",""54919""
""focus"",""7"",""87293""
","""event"",""trial"",""time""
""fullscreenenter"",""1"",""1649""
","
","","","-1","","","10","15987","958","&#9761;","elianto","#3366ff99","-1","-1","1","+10","[]","0","0","2","","","","","","","",""
"pit-trial","53","492747","0.0-2.0-11.3-1.3","battery-v0.2","","""event"",""trial"",""time""
""fullscreenenter"",""1"",""1649""
""blur"",""7"",""53569""
""focus"",""7"",""54919""
""blur"",""7"",""86379""
""focus"",""7"",""87293""
","""event"",""trial"",""time""
""blur"",""7"",""53569""
""blur"",""7"",""86379""
","""event"",""trial"",""time""
""focus"",""7"",""54919""
""focus"",""7"",""87293""
","""event"",""trial"",""time""
""fullscreenenter"",""1"",""1649""
","
","","","-1","","","10","15987","958","&#9761;","elianto","#3366ff99","-1","-1","1","+10","[]","0","0","2","","","","","","","",""
"pit-trial","54","496191","0.0-2.0-11.3-2.3","battery-v0.2","","""event"",""trial"",""time""
""fullscreenenter"",""1"",""1649""
""blur"",""7"",""53569""
""focus"",""7"",""54919""
""blur"",""7"",""86379""
""focus"",""7"",""87293""
","""event"",""trial"",""time""
""blur"",""7"",""53569""
""blur"",""7"",""86379""
","""event"",""trial"",""time""
""focus"",""7"",""54919""
""focus"",""7"",""87293""
","""event"",""trial"",""time""
""fullscreenenter"",""1"",""1649""
","
","","","589","","","10","15987","958","&#9761;","elianto","#3366ff99","-1"," ","0","0","[1440]","1","0","2","","","","","","","",""
"pit-trial","55","499423","0.0-2.0-11.3-3.3","battery-v0.2","","""event"",""trial"",""time""
""fullscreenenter"",""1"",""1649""
""blur"",""7"",""53569""
""focus"",""7"",""54919""
""blur"",""7"",""86379""
""focus"",""7"",""87293""
","""event"",""trial"",""time""
""blur"",""7"",""53569""
""blur"",""7"",""86379""
","""event"",""trial"",""time""
""focus"",""7"",""54919""
""focus"",""7"",""87293""
","""event"",""trial"",""time""
""fullscreenenter"",""1"",""1649""
","
","","","377","","","10","15987","958","&#9761;","elianto","#3366ff99","-1"," ","0","+10","[1228]","1","0","2","","","","","","","",""
"pit-trial","56","503143","0.0-2.0-11.3-4.3","battery-v0.2","","""event"",""trial"",""time""
""fullscreenenter"",""1"",""1649""
""blur"",""7"",""53569""
""focus"",""7"",""54919""
""blur"",""7"",""86379""
""focus"",""7"",""87293""
","""event"",""trial"",""time""
""blur"",""7"",""53569""
""blur"",""7"",""86379""
","""event"",""trial"",""time""
""focus"",""7"",""54919""
""focus"",""7"",""87293""
","""event"",""trial"",""time""
""fullscreenenter"",""1"",""1649""
","
","","","866.0000000000582","","","10","15987","958","&#9761;","elianto","#3366ff99","-1"," ","0","0","[1717.0000000000582]","1","0","2","","","","","","","",""
"call-function","57","503145","0.0-2.0-12.0","battery-v0.2","","""event"",""trial"",""time""
""fullscreenenter"",""1"",""1649""
""blur"",""7"",""53569""
""focus"",""7"",""54919""
""blur"",""7"",""86379""
""focus"",""7"",""87293""
","""event"",""trial"",""time""
""blur"",""7"",""53569""
""blur"",""7"",""86379""
","""event"",""trial"",""time""
""focus"",""7"",""54919""
""focus"",""7"",""87293""
","""event"",""trial"",""time""
""fullscreenenter"",""1"",""1649""
","
","","","","","","","","","","","","","","","","","","","","","","","","","","",""
"pit-instructions","58","533796","0.0-2.0-13.0","battery-v0.2","","""event"",""trial"",""time""
""fullscreenenter"",""1"",""1649""
""blur"",""7"",""53569""
""focus"",""7"",""54919""
""blur"",""7"",""86379""
""focus"",""7"",""87293""
","""event"",""trial"",""time""
""blur"",""7"",""53569""
""blur"",""7"",""86379""
","""event"",""trial"",""time""
""focus"",""7"",""54919""
""focus"",""7"",""87293""
","""event"",""trial"",""time""
""fullscreenenter"",""1"",""1649""
","
","","[{""page_index"":0,""viewing_time"":4892},{""page_index"":1,""viewing_time"":6820.000000000058},{""page_index"":2,""viewing_time"":3784},{""page_index"":3,""viewing_time"":10436.000000000058},{""page_index"":4,""viewing_time"":4717.999999999884}]","30650","","","","","","","","","","","","","","","","","","","","","","","",""
"pit-trial","59","537208","0.0-2.0-14.0-0.0","battery-v0.2","","""event"",""trial"",""time""
""fullscreenenter"",""1"",""1649""
""blur"",""7"",""53569""
""focus"",""7"",""54919""
""blur"",""7"",""86379""
""focus"",""7"",""87293""
","""event"",""trial"",""time""
""blur"",""7"",""53569""
""blur"",""7"",""86379""
","""event"",""trial"",""time""
""focus"",""7"",""54919""
""focus"",""7"",""87293""
","""event"",""trial"",""time""
""fullscreenenter"",""1"",""1649""
","
","","","555","","","10","15987","958","&#9826;","elianto","#f73b6a7A","-1"," ","0","-10","[1407]","1","0","3","","","","","","","",""
"pit-trial","60","540407","0.0-2.0-14.0-1.0","battery-v0.2","","""event"",""trial"",""time""
""fullscreenenter"",""1"",""1649""
""blur"",""7"",""53569""
""focus"",""7"",""54919""
""blur"",""7"",""86379""
""focus"",""7"",""87293""
","""event"",""trial"",""time""
""blur"",""7"",""53569""
""blur"",""7"",""86379""
","""event"",""trial"",""time""
""focus"",""7"",""54919""
""focus"",""7"",""87293""
","""event"",""trial"",""time""
""fullscreenenter"",""1"",""1649""
","
","","","345","","","10","15987","958","&#9826;","elianto","#f73b6a7A","-1"," ","0","-10","[1196]","1","0","3","","","","","","","",""
"pit-trial","61","545262","0.0-2.0-14.0-2.0","battery-v0.2","","""event"",""trial"",""time""
""fullscreenenter"",""1"",""1649""
""blur"",""7"",""53569""
""focus"",""7"",""54919""
""blur"",""7"",""86379""
""focus"",""7"",""87293""
","""event"",""trial"",""time""
""blur"",""7"",""53569""
""blur"",""7"",""86379""
","""event"",""trial"",""time""
""focus"",""7"",""54919""
""focus"",""7"",""87293""
","""event"",""trial"",""time""
""fullscreenenter"",""1"",""1649""
","
","","","-1","","","10","15987","958","&#9826;","elianto","#f73b6a7A","-1","-1","1","0","[]","0","0","3","","","","","","","",""
"pit-trial","62","550116","0.0-2.0-14.0-3.0","battery-v0.2","","""event"",""trial"",""time""
""fullscreenenter"",""1"",""1649""
""blur"",""7"",""53569""
""focus"",""7"",""54919""
""blur"",""7"",""86379""
""focus"",""7"",""87293""
","""event"",""trial"",""time""
""blur"",""7"",""53569""
""blur"",""7"",""86379""
","""event"",""trial"",""time""
""focus"",""7"",""54919""
""focus"",""7"",""87293""
","""event"",""trial"",""time""
""fullscreenenter"",""1"",""1649""
","
","","","-1","","","10","15987","958","&#9826;","elianto","#f73b6a7A","-1","-1","1","-10","[]","0","0","3","","","","","","","",""
"pit-trial","63","554972","0.0-2.0-14.0-4.0","battery-v0.2","","""event"",""trial"",""time""
""fullscreenenter"",""1"",""1649""
""blur"",""7"",""53569""
""focus"",""7"",""54919""
""blur"",""7"",""86379""
""focus"",""7"",""87293""
","""event"",""trial"",""time""
""blur"",""7"",""53569""
""blur"",""7"",""86379""
","""event"",""trial"",""time""
""focus"",""7"",""54919""
""focus"",""7"",""87293""
","""event"",""trial"",""time""
""fullscreenenter"",""1"",""1649""
","
","","","-1","","","10","15987","958","&#9826;","elianto","#f73b6a7A","-1","-1","1","0","[]","0","0","3","","","","","","","",""
"pit-trial","64","559827","0.0-2.0-14.1-0.1","battery-v0.2","","""event"",""trial"",""time""
""fullscreenenter"",""1"",""1649""
""blur"",""7"",""53569""
""focus"",""7"",""54919""
""blur"",""7"",""86379""
""focus"",""7"",""87293""
","""event"",""trial"",""time""
""blur"",""7"",""53569""
""blur"",""7"",""86379""
","""event"",""trial"",""time""
""focus"",""7"",""54919""
""focus"",""7"",""87293""
","""event"",""trial"",""time""
""fullscreenenter"",""1"",""1649""
","
","","","-1","","","10","15987","958","&#9826;","elianto","#f73b6a7A","-1","-1","1","0","[]","0","0","3","","","","","","","",""
"pit-trial","65","564681","0.0-2.0-14.1-1.1","battery-v0.2","","""event"",""trial"",""time""
""fullscreenenter"",""1"",""1649""
""blur"",""7"",""53569""
""focus"",""7"",""54919""
""blur"",""7"",""86379""
""focus"",""7"",""87293""
","""event"",""trial"",""time""
""blur"",""7"",""53569""
""blur"",""7"",""86379""
","""event"",""trial"",""time""
""focus"",""7"",""54919""
""focus"",""7"",""87293""
","""event"",""trial"",""time""
""fullscreenenter"",""1"",""1649""
","
","","","-1","","","10","15987","958","&#9826;","elianto","#f73b6a7A","-1","-1","1","0","[]","0","0","3","","","","","","","",""
"pit-trial","66","569536","0.0-2.0-14.1-2.1","battery-v0.2","","""event"",""trial"",""time""
""fullscreenenter"",""1"",""1649""
""blur"",""7"",""53569""
""focus"",""7"",""54919""
""blur"",""7"",""86379""
""focus"",""7"",""87293""
","""event"",""trial"",""time""
""blur"",""7"",""53569""
""blur"",""7"",""86379""
","""event"",""trial"",""time""
""focus"",""7"",""54919""
""focus"",""7"",""87293""
","""event"",""trial"",""time""
""fullscreenenter"",""1"",""1649""
","
","","","-1","","","10","15987","958","&#9826;","elianto","#f73b6a7A","-1","-1","1","0","[]","0","0","3","","","","","","","",""
"pit-trial","67","574390","0.0-2.0-14.1-3.1","battery-v0.2","","""event"",""trial"",""time""
""fullscreenenter"",""1"",""1649""
""blur"",""7"",""53569""
""focus"",""7"",""54919""
""blur"",""7"",""86379""
""focus"",""7"",""87293""
","""event"",""trial"",""time""
""blur"",""7"",""53569""
""blur"",""7"",""86379""
","""event"",""trial"",""time""
""focus"",""7"",""54919""
""focus"",""7"",""87293""
","""event"",""trial"",""time""
""fullscreenenter"",""1"",""1649""
","
","","","-1","","","10","15987","958","&#9826;","elianto","#f73b6a7A","-1","-1","1","-10","[]","0","0","3","","","","","","","",""
"pit-trial","68","579245","0.0-2.0-14.1-4.1","battery-v0.2","","""event"",""trial"",""time""
""fullscreenenter"",""1"",""1649""
""blur"",""7"",""53569""
""focus"",""7"",""54919""
""blur"",""7"",""86379""
""focus"",""7"",""87293""
","""event"",""trial"",""time""
""blur"",""7"",""53569""
""blur"",""7"",""86379""
","""event"",""trial"",""time""
""focus"",""7"",""54919""
""focus"",""7"",""87293""
","""event"",""trial"",""time""
""fullscreenenter"",""1"",""1649""
","
","","","-1","","","10","15987","958","&#9826;","elianto","#f73b6a7A","-1","-1","1","0","[]","0","0","3","","","","","","","",""
"pit-trial","69","584099","0.0-2.0-14.2-0.2","battery-v0.2","","""event"",""trial"",""time""
""fullscreenenter"",""1"",""1649""
""blur"",""7"",""53569""
""focus"",""7"",""54919""
""blur"",""7"",""86379""
""focus"",""7"",""87293""
","""event"",""trial"",""time""
""blur"",""7"",""53569""
""blur"",""7"",""86379""
","""event"",""trial"",""time""
""focus"",""7"",""54919""
""focus"",""7"",""87293""
","""event"",""trial"",""time""
""fullscreenenter"",""1"",""1649""
","
","","","-1","","","10","15987","958","&#9826;","elianto","#f73b6a7A","-1","-1","1","0","[]","0","0","3","","","","","","","",""
"pit-trial","70","588954","0.0-2.0-14.2-1.2","battery-v0.2","","""event"",""trial"",""time""
""fullscreenenter"",""1"",""1649""
""blur"",""7"",""53569""
""focus"",""7"",""54919""
""blur"",""7"",""86379""
""focus"",""7"",""87293""
","""event"",""trial"",""time""
""blur"",""7"",""53569""
""blur"",""7"",""86379""
","""event"",""trial"",""time""
""focus"",""7"",""54919""
""focus"",""7"",""87293""
","""event"",""trial"",""time""
""fullscreenenter"",""1"",""1649""
","
","","","-1","","","10","15987","958","&#9826;","elianto","#f73b6a7A","-1","-1","1","0","[]","0","0","3","","","","","","","",""
"pit-trial","71","593809","0.0-2.0-14.2-2.2","battery-v0.2","","""event"",""trial"",""time""
""fullscreenenter"",""1"",""1649""
""blur"",""7"",""53569""
""focus"",""7"",""54919""
""blur"",""7"",""86379""
""focus"",""7"",""87293""
","""event"",""trial"",""time""
""blur"",""7"",""53569""
""blur"",""7"",""86379""
","""event"",""trial"",""time""
""focus"",""7"",""54919""
""focus"",""7"",""87293""
","""event"",""trial"",""time""
""fullscreenenter"",""1"",""1649""
","
","","","-1","","","10","15987","958","&#9826;","elianto","#f73b6a7A","-1","-1","1","0","[]","0","0","3","","","","","","","",""
"pit-trial","72","597474","0.0-2.0-14.2-3.2","battery-v0.2","","""event"",""trial"",""time""
""fullscreenenter"",""1"",""1649""
""blur"",""7"",""53569""
""focus"",""7"",""54919""
""blur"",""7"",""86379""
""focus"",""7"",""87293""
","""event"",""trial"",""time""
""blur"",""7"",""53569""
""blur"",""7"",""86379""
","""event"",""trial"",""time""
""focus"",""7"",""54919""
""focus"",""7"",""87293""
","""event"",""trial"",""time""
""fullscreenenter"",""1"",""1649""
","
","","","809.9999999998836","","","10","15987","958","&#9826;","elianto","#f73b6a7A","-1"," ","0","0","[1660.9999999998836]","1","0","3","","","","","","","",""
"pit-trial","73","600562","0.0-2.0-14.2-4.2","battery-v0.2","","""event"",""trial"",""time""
""fullscreenenter"",""1"",""1649""
""blur"",""7"",""53569""
""focus"",""7"",""54919""
""blur"",""7"",""86379""
""focus"",""7"",""87293""
","""event"",""trial"",""time""
""blur"",""7"",""53569""
""blur"",""7"",""86379""
","""event"",""trial"",""time""
""focus"",""7"",""54919""
""focus"",""7"",""87293""
","""event"",""trial"",""time""
""fullscreenenter"",""1"",""1649""
","
","","","233","","","10","15987","958","&#9826;","elianto","#f73b6a7A","-1"," ","0","-10","[1084]","1","0","3","","","","","","","",""
"pit-trial","74","603906","0.0-2.0-14.3-0.3","battery-v0.2","","""event"",""trial"",""time""
""fullscreenenter"",""1"",""1649""
""blur"",""7"",""53569""
""focus"",""7"",""54919""
""blur"",""7"",""86379""
""focus"",""7"",""87293""
","""event"",""trial"",""time""
""blur"",""7"",""53569""
""blur"",""7"",""86379""
","""event"",""trial"",""time""
""focus"",""7"",""54919""
""focus"",""7"",""87293""
","""event"",""trial"",""time""
""fullscreenenter"",""1"",""1649""
","
","","","489","","","10","15987","958","&#9826;","elianto","#f73b6a7A","-1"," ","0","-10","[1340]","1","0","3","","","","","","","",""
"pit-trial","75","608760","0.0-2.0-14.3-1.3","battery-v0.2","","""event"",""trial"",""time""
""fullscreenenter"",""1"",""1649""
""blur"",""7"",""53569""
""focus"",""7"",""54919""
""blur"",""7"",""86379""
""focus"",""7"",""87293""
","""event"",""trial"",""time""
""blur"",""7"",""53569""
""blur"",""7"",""86379""
","""event"",""trial"",""time""
""focus"",""7"",""54919""
""focus"",""7"",""87293""
","""event"",""trial"",""time""
""fullscreenenter"",""1"",""1649""
","
","","","-1","","","10","15987","958","&#9826;","elianto","#f73b6a7A","-1","-1","1","0","[]","0","0","3","","","","","","","",""
"pit-trial","76","613614","0.0-2.0-14.3-2.3","battery-v0.2","","""event"",""trial"",""time""
""fullscreenenter"",""1"",""1649""
""blur"",""7"",""53569""
""focus"",""7"",""54919""
""blur"",""7"",""86379""
""focus"",""7"",""87293""
","""event"",""trial"",""time""
""blur"",""7"",""53569""
""blur"",""7"",""86379""
","""event"",""trial"",""time""
""focus"",""7"",""54919""
""focus"",""7"",""87293""
","""event"",""trial"",""time""
""fullscreenenter"",""1"",""1649""
","
","","","-1","","","10","15987","958","&#9826;","elianto","#f73b6a7A","-1","-1","1","0","[]","0","0","3","","","","","","","",""
"pit-trial","77","618469","0.0-2.0-14.3-3.3","battery-v0.2","","""event"",""trial"",""time""
""fullscreenenter"",""1"",""1649""
""blur"",""7"",""53569""
""focus"",""7"",""54919""
""blur"",""7"",""86379""
""focus"",""7"",""87293""
","""event"",""trial"",""time""
""blur"",""7"",""53569""
""blur"",""7"",""86379""
","""event"",""trial"",""time""
""focus"",""7"",""54919""
""focus"",""7"",""87293""
","""event"",""trial"",""time""
""fullscreenenter"",""1"",""1649""
","
","","","-1","","","10","15987","958","&#9826;","elianto","#f73b6a7A","-1","-1","1","-10","[]","0","0","3","","","","","","","",""
"pit-trial","78","623323","0.0-2.0-14.3-4.3","battery-v0.2","","""event"",""trial"",""time""
""fullscreenenter"",""1"",""1649""
""blur"",""7"",""53569""
""focus"",""7"",""54919""
""blur"",""7"",""86379""
""focus"",""7"",""87293""
","""event"",""trial"",""time""
""blur"",""7"",""53569""
""blur"",""7"",""86379""
","""event"",""trial"",""time""
""focus"",""7"",""54919""
""focus"",""7"",""87293""
","""event"",""trial"",""time""
""fullscreenenter"",""1"",""1649""
","
","","","-1","","","10","15987","958","&#9826;","elianto","#f73b6a7A","-1","-1","1","0","[]","0","0","3","","","","","","","",""
"call-function","79","623325","0.0-2.0-15.0","battery-v0.2","","""event"",""trial"",""time""
""fullscreenenter"",""1"",""1649""
""blur"",""7"",""53569""
""focus"",""7"",""54919""
""blur"",""7"",""86379""
""focus"",""7"",""87293""
","""event"",""trial"",""time""
""blur"",""7"",""53569""
""blur"",""7"",""86379""
","""event"",""trial"",""time""
""focus"",""7"",""54919""
""focus"",""7"",""87293""
","""event"",""trial"",""time""
""fullscreenenter"",""1"",""1649""
","
","","","","","","","","","","","","","","","","","","","","","","","","","","",""
"pit-instructions","80","651148","0.0-2.0-16.0","battery-v0.2","","""event"",""trial"",""time""
""fullscreenenter"",""1"",""1649""
""blur"",""7"",""53569""
""focus"",""7"",""54919""
""blur"",""7"",""86379""
""focus"",""7"",""87293""
","""event"",""trial"",""time""
""blur"",""7"",""53569""
""blur"",""7"",""86379""
","""event"",""trial"",""time""
""focus"",""7"",""54919""
""focus"",""7"",""87293""
","""event"",""trial"",""time""
""fullscreenenter"",""1"",""1649""
","
","","[{""page_index"":0,""viewing_time"":10483},{""page_index"":1,""viewing_time"":8236},{""page_index"":2,""viewing_time"":4452},{""page_index"":3,""viewing_time"":4650}]","27821","","","","","","","","","","","","","","","","","","","","","","","",""
"pit-trial","81","654347","0.0-2.0-17.0-0.0","battery-v0.2","","""event"",""trial"",""time""
""fullscreenenter"",""1"",""1649""
""blur"",""7"",""53569""
""focus"",""7"",""54919""
""blur"",""7"",""86379""
""focus"",""7"",""87293""
","""event"",""trial"",""time""
""blur"",""7"",""53569""
""blur"",""7"",""86379""
","""event"",""trial"",""time""
""focus"",""7"",""54919""
""focus"",""7"",""87293""
","""event"",""trial"",""time""
""fullscreenenter"",""1"",""1649""
","
","","","343","","","10","15987","958","&#9789;","elianto","#f73b6a7A"," "," ","1","0","[1194]","1","0","4","","","","","","","",""
"pit-trial","82","657499","0.0-2.0-17.0-1.0","battery-v0.2","","""event"",""trial"",""time""
""fullscreenenter"",""1"",""1649""
""blur"",""7"",""53569""
""focus"",""7"",""54919""
""blur"",""7"",""86379""
""focus"",""7"",""87293""
","""event"",""trial"",""time""
""blur"",""7"",""53569""
""blur"",""7"",""86379""
","""event"",""trial"",""time""
""focus"",""7"",""54919""
""focus"",""7"",""87293""
","""event"",""trial"",""time""
""fullscreenenter"",""1"",""1649""
","
","","","297","","","10","15987","958","&#9789;","elianto","#f73b6a7A"," "," ","1","0","[1148]","1","0","4","","","","","","","",""
"pit-trial","83","660835","0.0-2.0-17.0-2.0","battery-v0.2","","""event"",""trial"",""time""
""fullscreenenter"",""1"",""1649""
""blur"",""7"",""53569""
""focus"",""7"",""54919""
""blur"",""7"",""86379""
""focus"",""7"",""87293""
","""event"",""trial"",""time""
""blur"",""7"",""53569""
""blur"",""7"",""86379""
","""event"",""trial"",""time""
""focus"",""7"",""54919""
""focus"",""7"",""87293""
","""event"",""trial"",""time""
""fullscreenenter"",""1"",""1649""
","
","","","482","","","10","15987","958","&#9789;","elianto","#f73b6a7A"," "," ","1","0","[1332]","1","0","4","","","","","","","",""
"pit-trial","84","664251","0.0-2.0-17.0-3.0","battery-v0.2","","""event"",""trial"",""time""
""fullscreenenter"",""1"",""1649""
""blur"",""7"",""53569""
""focus"",""7"",""54919""
""blur"",""7"",""86379""
""focus"",""7"",""87293""
","""event"",""trial"",""time""
""blur"",""7"",""53569""
""blur"",""7"",""86379""
","""event"",""trial"",""time""
""focus"",""7"",""54919""
""focus"",""7"",""87293""
","""event"",""trial"",""time""
""fullscreenenter"",""1"",""1649""
","
","","","560","","","10","15987","958","&#9789;","elianto","#f73b6a7A"," "," ","1","-10","[1411]","1","0","4","","","","","","","",""
"pit-trial","85","667603","0.0-2.0-17.0-4.0","battery-v0.2","","""event"",""trial"",""time""
""fullscreenenter"",""1"",""1649""
""blur"",""7"",""53569""
""focus"",""7"",""54919""
""blur"",""7"",""86379""
""focus"",""7"",""87293""
","""event"",""trial"",""time""
""blur"",""7"",""53569""
""blur"",""7"",""86379""
","""event"",""trial"",""time""
""focus"",""7"",""54919""
""focus"",""7"",""87293""
","""event"",""trial"",""time""
""fullscreenenter"",""1"",""1649""
","
","","","498","","","10","15987","958","&#9789;","elianto","#f73b6a7A"," "," ","1","0","[1348]","1","0","4","","","","","","","",""
"pit-trial","86","670787","0.0-2.0-17.1-0.1","battery-v0.2","","""event"",""trial"",""time""
""fullscreenenter"",""1"",""1649""
""blur"",""7"",""53569""
""focus"",""7"",""54919""
""blur"",""7"",""86379""
""focus"",""7"",""87293""
","""event"",""trial"",""time""
""blur"",""7"",""53569""
""blur"",""7"",""86379""
","""event"",""trial"",""time""
""focus"",""7"",""54919""
""focus"",""7"",""87293""
","""event"",""trial"",""time""
""fullscreenenter"",""1"",""1649""
","
","","","328.9999999998836","","","10","15987","958","&#9789;","elianto","#f73b6a7A"," "," ","1","0","[1179.9999999998836]","1","0","4","","","","","","","",""
"pit-trial","87","674082","0.0-2.0-17.1-1.1","battery-v0.2","","""event"",""trial"",""time""
""fullscreenenter"",""1"",""1649""
""blur"",""7"",""53569""
""focus"",""7"",""54919""
""blur"",""7"",""86379""
""focus"",""7"",""87293""
","""event"",""trial"",""time""
""blur"",""7"",""53569""
""blur"",""7"",""86379""
","""event"",""trial"",""time""
""focus"",""7"",""54919""
""focus"",""7"",""87293""
","""event"",""trial"",""time""
""fullscreenenter"",""1"",""1649""
","
","","","441.0000000001164","","","10","15987","958","&#9789;","elianto","#f73b6a7A"," "," ","1","0","[1293]","1","0","4","","","","","","","",""
"pit-trial","88","677227","0.0-2.0-17.1-2.1","battery-v0.2","","""event"",""trial"",""time""
""fullscreenenter"",""1"",""1649""
""blur"",""7"",""53569""
""focus"",""7"",""54919""
""blur"",""7"",""86379""
""focus"",""7"",""87293""
","""event"",""trial"",""time""
""blur"",""7"",""53569""
""blur"",""7"",""86379""
","""event"",""trial"",""time""
""focus"",""7"",""54919""
""focus"",""7"",""87293""
","""event"",""trial"",""time""
""fullscreenenter"",""1"",""1649""
","
","","","291","","","10","15987","958","&#9789;","elianto","#f73b6a7A"," "," ","1","0","[1141]","1","0","4","","","","","","","",""
"pit-trial","89","680892","0.0-2.0-17.1-3.1","battery-v0.2","","""event"",""trial"",""time""
""fullscreenenter"",""1"",""1649""
""blur"",""7"",""53569""
""focus"",""7"",""54919""
""blur"",""7"",""86379""
""focus"",""7"",""87293""
","""event"",""trial"",""time""
""blur"",""7"",""53569""
""blur"",""7"",""86379""
","""event"",""trial"",""time""
""focus"",""7"",""54919""
""focus"",""7"",""87293""
","""event"",""trial"",""time""
""fullscreenenter"",""1"",""1649""
","
","","","809.0000000001164","","","10","15987","958","&#9789;","elianto","#f73b6a7A"," "," ","1","-10","[1660.0000000001164]","1","0","4","","","","","","","",""
"pit-trial","90","685139","0.0-2.0-17.1-4.1","battery-v0.2","","""event"",""trial"",""time""
""fullscreenenter"",""1"",""1649""
""blur"",""7"",""53569""
""focus"",""7"",""54919""
""blur"",""7"",""86379""
""focus"",""7"",""87293""
","""event"",""trial"",""time""
""blur"",""7"",""53569""
""blur"",""7"",""86379""
","""event"",""trial"",""time""
""focus"",""7"",""54919""
""focus"",""7"",""87293""
","""event"",""trial"",""time""
""fullscreenenter"",""1"",""1649""
","
","","","1393","","","10","15987","958","&#9789;","elianto","#f73b6a7A"," "," ","1","0","[645.0000000001164,2244,4052]","3","0","4","","","","","","","",""
"pit-trial","91","689179","0.0-2.0-17.2-0.2","battery-v0.2","","""event"",""trial"",""time""
""fullscreenenter"",""1"",""1649""
""blur"",""7"",""53569""
""focus"",""7"",""54919""
""blur"",""7"",""86379""
""focus"",""7"",""87293""
","""event"",""trial"",""time""
""blur"",""7"",""53569""
""blur"",""7"",""86379""
","""event"",""trial"",""time""
""focus"",""7"",""54919""
""focus"",""7"",""87293""
","""event"",""trial"",""time""
""fullscreenenter"",""1"",""1649""
","
","","","1185.0000000001164","","","10","15987","958","&#9789;","elianto","#f73b6a7A"," "," ","1","0","[2036.0000000001164]","1","0","4","","","","","","","",""
"pit-trial","92","692331","0.0-2.0-17.2-1.2","battery-v0.2","","""event"",""trial"",""time""
""fullscreenenter"",""1"",""1649""
""blur"",""7"",""53569""
""focus"",""7"",""54919""
""blur"",""7"",""86379""
""focus"",""7"",""87293""
","""event"",""trial"",""time""
""blur"",""7"",""53569""
""blur"",""7"",""86379""
","""event"",""trial"",""time""
""focus"",""7"",""54919""
""focus"",""7"",""87293""
","""event"",""trial"",""time""
""fullscreenenter"",""1"",""1649""
","
","","","298","","","10","15987","958","&#9789;","elianto","#f73b6a7A"," "," ","1","0","[205,1149]","2","0","4","","","","","","","",""
"pit-trial","93","697185","0.0-2.0-17.2-2.2","battery-v0.2","","""event"",""trial"",""time""
""fullscreenenter"",""1"",""1649""
""blur"",""7"",""53569""
""focus"",""7"",""54919""
""blur"",""7"",""86379""
""focus"",""7"",""87293""
","""event"",""trial"",""time""
""blur"",""7"",""53569""
""blur"",""7"",""86379""
","""event"",""trial"",""time""
""focus"",""7"",""54919""
""focus"",""7"",""87293""
","""event"",""trial"",""time""
""fullscreenenter"",""1"",""1649""
","
","","","-1","","","10","15987","958","&#9789;","elianto","#f73b6a7A"," ","-1","0","-10","[662.9999999998836,3365.9999999998836]","2","0","4","","","","","","","",""
"pit-trial","94","701076","0.0-2.0-17.2-3.2","battery-v0.2","","""event"",""trial"",""time""
""fullscreenenter"",""1"",""1649""
""blur"",""7"",""53569""
""focus"",""7"",""54919""
""blur"",""7"",""86379""
""focus"",""7"",""87293""
","""event"",""trial"",""time""
""blur"",""7"",""53569""
""blur"",""7"",""86379""
","""event"",""trial"",""time""
""focus"",""7"",""54919""
""focus"",""7"",""87293""
","""event"",""trial"",""time""
""fullscreenenter"",""1"",""1649""
","
","","","1037","","","10","15987","958","&#9789;","elianto","#f73b6a7A"," "," ","1","-10","[743,1887]","2","0","4","","","","","","","",""
"pit-trial","95","704324","0.0-2.0-17.2-4.2","battery-v0.2","","""event"",""trial"",""time""
""fullscreenenter"",""1"",""1649""
""blur"",""7"",""53569""
""focus"",""7"",""54919""
""blur"",""7"",""86379""
""focus"",""7"",""87293""
","""event"",""trial"",""time""
""blur"",""7"",""53569""
""blur"",""7"",""86379""
","""event"",""trial"",""time""
""focus"",""7"",""54919""
""focus"",""7"",""87293""
","""event"",""trial"",""time""
""fullscreenenter"",""1"",""1649""
","
","","","393","","","10","15987","958","&#9789;","elianto","#f73b6a7A"," "," ","1","0","[1244.9999999998836]","1","0","4","","","","","","","",""
"pit-trial","96","707467","0.0-2.0-17.3-0.3","battery-v0.2","","""event"",""trial"",""time""
""fullscreenenter"",""1"",""1649""
""blur"",""7"",""53569""
""focus"",""7"",""54919""
""blur"",""7"",""86379""
""focus"",""7"",""87293""
","""event"",""trial"",""time""
""blur"",""7"",""53569""
""blur"",""7"",""86379""
","""event"",""trial"",""time""
""focus"",""7"",""54919""
""focus"",""7"",""87293""
","""event"",""trial"",""time""
""fullscreenenter"",""1"",""1649""
","
","","","289","","","10","15987","958","&#9789;","elianto","#f73b6a7A"," "," ","1","0","[1140]","1","0","4","","","","","","","",""
"pit-trial","97","710716","0.0-2.0-17.3-1.3","battery-v0.2","","""event"",""trial"",""time""
""fullscreenenter"",""1"",""1649""
""blur"",""7"",""53569""
""focus"",""7"",""54919""
""blur"",""7"",""86379""
""focus"",""7"",""87293""
","""event"",""trial"",""time""
""blur"",""7"",""53569""
""blur"",""7"",""86379""
","""event"",""trial"",""time""
""focus"",""7"",""54919""
""focus"",""7"",""87293""
","""event"",""trial"",""time""
""fullscreenenter"",""1"",""1649""
","
","","","394","","","10","15987","958","&#9789;","elianto","#f73b6a7A"," "," ","1","0","[1245]","1","0","4","","","","","","","",""
"pit-trial","98","713820","0.0-2.0-17.3-2.3","battery-v0.2","","""event"",""trial"",""time""
""fullscreenenter"",""1"",""1649""
""blur"",""7"",""53569""
""focus"",""7"",""54919""
""blur"",""7"",""86379""
""focus"",""7"",""87293""
","""event"",""trial"",""time""
""blur"",""7"",""53569""
""blur"",""7"",""86379""
","""event"",""trial"",""time""
""focus"",""7"",""54919""
""focus"",""7"",""87293""
","""event"",""trial"",""time""
""fullscreenenter"",""1"",""1649""
","
","","","250","","","10","15987","958","&#9789;","elianto","#f73b6a7A"," "," ","1","0","[1101]","1","0","4","","","","","","","",""
"pit-trial","99","716996","0.0-2.0-17.3-3.3","battery-v0.2","","""event"",""trial"",""time""
""fullscreenenter"",""1"",""1649""
""blur"",""7"",""53569""
""focus"",""7"",""54919""
""blur"",""7"",""86379""
""focus"",""7"",""87293""
","""event"",""trial"",""time""
""blur"",""7"",""53569""
""blur"",""7"",""86379""
","""event"",""trial"",""time""
""focus"",""7"",""54919""
""focus"",""7"",""87293""
","""event"",""trial"",""time""
""fullscreenenter"",""1"",""1649""
","
","","","322","","","10","15987","958","&#9789;","elianto","#f73b6a7A"," "," ","1","-10","[1172]","1","0","4","","","","","","","",""
"pit-trial","100","721851","0.0-2.0-17.3-4.3","battery-v0.2","","""event"",""trial"",""time""
""fullscreenenter"",""1"",""1649""
""blur"",""7"",""53569""
""focus"",""7"",""54919""
""blur"",""7"",""86379""
""focus"",""7"",""87293""
","""event"",""trial"",""time""
""blur"",""7"",""53569""
""blur"",""7"",""86379""
","""event"",""trial"",""time""
""focus"",""7"",""54919""
""focus"",""7"",""87293""
","""event"",""trial"",""time""
""fullscreenenter"",""1"",""1649""
","
","","","-1","","","10","15987","958","&#9789;","elianto","#f73b6a7A"," ","-1","0","-10","[]","0","0","4","","","","","","","",""
"call-function","101","721853","0.0-2.0-18.0","battery-v0.2","","""event"",""trial"",""time""
""fullscreenenter"",""1"",""1649""
""blur"",""7"",""53569""
""focus"",""7"",""54919""
""blur"",""7"",""86379""
""focus"",""7"",""87293""
","""event"",""trial"",""time""
""blur"",""7"",""53569""
""blur"",""7"",""86379""
","""event"",""trial"",""time""
""focus"",""7"",""54919""
""focus"",""7"",""87293""
","""event"",""trial"",""time""
""fullscreenenter"",""1"",""1649""
","
","","","","","","","","","","","","","","","","","","","","","","","","","","",""
"pit-instructions","102","789007","0.0-2.0-19.0","battery-v0.2","","""event"",""trial"",""time""
""fullscreenenter"",""1"",""1649""
""blur"",""7"",""53569""
""focus"",""7"",""54919""
""blur"",""7"",""86379""
""focus"",""7"",""87293""
","""event"",""trial"",""time""
""blur"",""7"",""53569""
""blur"",""7"",""86379""
","""event"",""trial"",""time""
""focus"",""7"",""54919""
""focus"",""7"",""87293""
","""event"",""trial"",""time""
""fullscreenenter"",""1"",""1649""
","
","","[{""page_index"":0,""viewing_time"":8100},{""page_index"":1,""viewing_time"":5018},{""page_index"":2,""viewing_time"":11821},{""page_index"":3,""viewing_time"":6818},{""page_index"":4,""viewing_time"":7935},{""page_index"":5,""viewing_time"":10170},{""page_index"":6,""viewing_time"":8069.000000000116},{""page_index"":7,""viewing_time"":5601.999999999884},{""page_index"":8,""viewing_time"":3618}]","67151","","","","","","","","","","","","","","","","","","","","","","","",""
"pit-comprehension","103","794493","0.0-2.0-20.0-0.0","battery-v0.2","","""event"",""trial"",""time""
""fullscreenenter"",""1"",""1649""
""blur"",""7"",""53569""
""focus"",""7"",""54919""
""blur"",""7"",""86379""
""focus"",""7"",""87293""
","""event"",""trial"",""time""
""blur"",""7"",""53569""
""blur"",""7"",""86379""
","""event"",""trial"",""time""
""focus"",""7"",""54919""
""focus"",""7"",""87293""
","""event"",""trial"",""time""
""fullscreenenter"",""1"",""1649""
","
","","","5482","[""SPACE""]","0","10","15987","958","","","","","","","","","","","","","","","","","","",""
"pit-instructions","104","797293","0.0-2.0-20.0-1.0","battery-v0.2","","""event"",""trial"",""time""
""fullscreenenter"",""1"",""1649""
""blur"",""7"",""53569""
""focus"",""7"",""54919""
""blur"",""7"",""86379""
""focus"",""7"",""87293""
","""event"",""trial"",""time""
""blur"",""7"",""53569""
""blur"",""7"",""86379""
","""event"",""trial"",""time""
""focus"",""7"",""54919""
""focus"",""7"",""87293""
","""event"",""trial"",""time""
""fullscreenenter"",""1"",""1649""
","
","","[{""page_index"":0,""viewing_time"":2747}]","2747","","","","","","","","","","","","","","","","","","","","","","","",""
"pit-comprehension","105","803812","0.0-2.0-21.0-0.0","battery-v0.2","","""event"",""trial"",""time""
""fullscreenenter"",""1"",""1649""
""blur"",""7"",""53569""
""focus"",""7"",""54919""
""blur"",""7"",""86379""
""focus"",""7"",""87293""
","""event"",""trial"",""time""
""blur"",""7"",""53569""
""blur"",""7"",""86379""
","""event"",""trial"",""time""
""focus"",""7"",""54919""
""focus"",""7"",""87293""
","""event"",""trial"",""time""
""fullscreenenter"",""1"",""1649""
","
","","","6517","[""10""]","0","10","15987","958","","","","","","","","","","","","","","","","","","",""
"pit-instructions","106","805428","0.0-2.0-21.0-1.0","battery-v0.2","","""event"",""trial"",""time""
""fullscreenenter"",""1"",""1649""
""blur"",""7"",""53569""
""focus"",""7"",""54919""
""blur"",""7"",""86379""
""focus"",""7"",""87293""
","""event"",""trial"",""time""
""blur"",""7"",""53569""
""blur"",""7"",""86379""
","""event"",""trial"",""time""
""focus"",""7"",""54919""
""focus"",""7"",""87293""
","""event"",""trial"",""time""
""fullscreenenter"",""1"",""1649""
","
","","[{""page_index"":0,""viewing_time"":1567}]","1568","","","","","","","","","","","","","","","","","","","","","","","",""
"pit-comprehension","107","812030","0.0-2.0-22.0-0.0","battery-v0.2","","""event"",""trial"",""time""
""fullscreenenter"",""1"",""1649""
""blur"",""7"",""53569""
""focus"",""7"",""54919""
""blur"",""7"",""86379""
""focus"",""7"",""87293""
","""event"",""trial"",""time""
""blur"",""7"",""53569""
""blur"",""7"",""86379""
","""event"",""trial"",""time""
""focus"",""7"",""54919""
""focus"",""7"",""87293""
","""event"",""trial"",""time""
""fullscreenenter"",""1"",""1649""
","
","","","6597.999999999884","[""0""]","0","10","15987","958","","","","","","","","","","","","","","","","","","",""
"pit-instructions","108","815347","0.0-2.0-22.0-1.0","battery-v0.2","","""event"",""trial"",""time""
""fullscreenenter"",""1"",""1649""
""blur"",""7"",""53569""
""focus"",""7"",""54919""
""blur"",""7"",""86379""
""focus"",""7"",""87293""
","""event"",""trial"",""time""
""blur"",""7"",""53569""
""blur"",""7"",""86379""
","""event"",""trial"",""time""
""focus"",""7"",""54919""
""focus"",""7"",""87293""
","""event"",""trial"",""time""
""fullscreenenter"",""1"",""1649""
","
","","[{""page_index"":0,""viewing_time"":3268}]","3268","","","","","","","","","","","","","","","","","","","","","","","",""
"pit-comprehension","109","824617","0.0-2.0-23.0-0.0","battery-v0.2","","""event"",""trial"",""time""
""fullscreenenter"",""1"",""1649""
""blur"",""7"",""53569""
""focus"",""7"",""54919""
""blur"",""7"",""86379""
""focus"",""7"",""87293""
","""event"",""trial"",""time""
""blur"",""7"",""53569""
""blur"",""7"",""86379""
","""event"",""trial"",""time""
""focus"",""7"",""54919""
""focus"",""7"",""87293""
","""event"",""trial"",""time""
""fullscreenenter"",""1"",""1649""
","
","","","9267","[""False""]","1","10","15987","958","","","","","","","","","","","","","","","","","","",""
"pit-instructions","110","826566","0.0-2.0-23.0-1.0","battery-v0.2","","""event"",""trial"",""time""
""fullscreenenter"",""1"",""1649""
""blur"",""7"",""53569""
""focus"",""7"",""54919""
""blur"",""7"",""86379""
""focus"",""7"",""87293""
","""event"",""trial"",""time""
""blur"",""7"",""53569""
""blur"",""7"",""86379""
","""event"",""trial"",""time""
""focus"",""7"",""54919""
""focus"",""7"",""87293""
","""event"",""trial"",""time""
""fullscreenenter"",""1"",""1649""
","
","","[{""page_index"":0,""viewing_time"":1900}]","1900","","","","","","","","","","","","","","","","","","","","","","","",""
"pit-instructions","111","827733","0.0-2.0-23.0-2.0-0.0","battery-v0.2","","""event"",""trial"",""time""
""fullscreenenter"",""1"",""1649""
""blur"",""7"",""53569""
""focus"",""7"",""54919""
""blur"",""7"",""86379""
""focus"",""7"",""87293""
","""event"",""trial"",""time""
""blur"",""7"",""53569""
""blur"",""7"",""86379""
","""event"",""trial"",""time""
""focus"",""7"",""54919""
""focus"",""7"",""87293""
","""event"",""trial"",""time""
""fullscreenenter"",""1"",""1649""
","
","","[{""page_index"":0,""viewing_time"":1163}]","1164","","","","","","","","","","","","","","","","","","","","","","","",""
"pit-comprehension","112","836270","0.0-2.0-23.1-0.1","battery-v0.2","","""event"",""trial"",""time""
""fullscreenenter"",""1"",""1649""
""blur"",""7"",""53569""
""focus"",""7"",""54919""
""blur"",""7"",""86379""
""focus"",""7"",""87293""
","""event"",""trial"",""time""
""blur"",""7"",""53569""
""blur"",""7"",""86379""
","""event"",""trial"",""time""
""focus"",""7"",""54919""
""focus"",""7"",""87293""
","""event"",""trial"",""time""
""fullscreenenter"",""1"",""1649""
","
","","","8532.000000000116","[""True""]","0","10","15987","958","","","","","","","","","","","","","","","","","","",""
"pit-instructions","113","838921","0.0-2.0-23.1-1.1","battery-v0.2","","""event"",""trial"",""time""
""fullscreenenter"",""1"",""1649""
""blur"",""7"",""53569""
""focus"",""7"",""54919""
""blur"",""7"",""86379""
""focus"",""7"",""87293""
","""event"",""trial"",""time""
""blur"",""7"",""53569""
""blur"",""7"",""86379""
","""event"",""trial"",""time""
""focus"",""7"",""54919""
""focus"",""7"",""87293""
","""event"",""trial"",""time""
""fullscreenenter"",""1"",""1649""
","
","","[{""page_index"":0,""viewing_time"":2600}]","2601","","","","","","","","","","","","","","","","","","","","","","","",""
"pit-comprehension","114","846406","0.0-2.0-24.0-0.0","battery-v0.2","","""event"",""trial"",""time""
""fullscreenenter"",""1"",""1649""
""blur"",""7"",""53569""
""focus"",""7"",""54919""
""blur"",""7"",""86379""
""focus"",""7"",""87293""
","""event"",""trial"",""time""
""blur"",""7"",""53569""
""blur"",""7"",""86379""
","""event"",""trial"",""time""
""focus"",""7"",""54919""
""focus"",""7"",""87293""
","""event"",""trial"",""time""
""fullscreenenter"",""1"",""1649""
","
","","","7482","[""True""]","0","10","15987","958","","","","","","","","","","","","","","","","","","",""
"pit-instructions","115","850457","0.0-2.0-24.0-1.0","battery-v0.2","","""event"",""trial"",""time""
""fullscreenenter"",""1"",""1649""
""blur"",""7"",""53569""
""focus"",""7"",""54919""
""blur"",""7"",""86379""
""focus"",""7"",""87293""
","""event"",""trial"",""time""
""blur"",""7"",""53569""
""blur"",""7"",""86379""
","""event"",""trial"",""time""
""focus"",""7"",""54919""
""focus"",""7"",""87293""
","""event"",""trial"",""time""
""fullscreenenter"",""1"",""1649""
","
","","[{""page_index"":0,""viewing_time"":4000}]","4000","","","","","","","","","","","","","","","","","","","","","","","",""
"pit-comprehension","116","857059","0.0-2.0-25.0-0.0","battery-v0.2","","""event"",""trial"",""time""
""fullscreenenter"",""1"",""1649""
""blur"",""7"",""53569""
""focus"",""7"",""54919""
""blur"",""7"",""86379""
""focus"",""7"",""87293""
","""event"",""trial"",""time""
""blur"",""7"",""53569""
""blur"",""7"",""86379""
","""event"",""trial"",""time""
""focus"",""7"",""54919""
""focus"",""7"",""87293""
","""event"",""trial"",""time""
""fullscreenenter"",""1"",""1649""
","
","","","6597.999999999884","[""True""]","0","10","15987","958","","","","","","","","","","","","","","","","","","",""
"pit-instructions","117","861443","0.0-2.0-25.0-1.0","battery-v0.2","","""event"",""trial"",""time""
""fullscreenenter"",""1"",""1649""
""blur"",""7"",""53569""
""focus"",""7"",""54919""
""blur"",""7"",""86379""
""focus"",""7"",""87293""
","""event"",""trial"",""time""
""blur"",""7"",""53569""
""blur"",""7"",""86379""
","""event"",""trial"",""time""
""focus"",""7"",""54919""
""focus"",""7"",""87293""
","""event"",""trial"",""time""
""fullscreenenter"",""1"",""1649""
","
","","[{""page_index"":0,""viewing_time"":4332}]","4332.999999999884","","","","","","","","","","","","","","","","","","","","","","","",""
"pit-comprehension","118","866828","0.0-2.0-26.0-0.0","battery-v0.2","","""event"",""trial"",""time""
""fullscreenenter"",""1"",""1649""
""blur"",""7"",""53569""
""focus"",""7"",""54919""
""blur"",""7"",""86379""
""focus"",""7"",""87293""
","""event"",""trial"",""time""
""blur"",""7"",""53569""
""blur"",""7"",""86379""
","""event"",""trial"",""time""
""focus"",""7"",""54919""
""focus"",""7"",""87293""
","""event"",""trial"",""time""
""fullscreenenter"",""1"",""1649""
","
","","","5381","[""False""]","0","10","15987","958","","","","","","","","","","","","","","","","","","",""
"pit-instructions","119","870696","0.0-2.0-26.0-1.0","battery-v0.2","","""event"",""trial"",""time""
""fullscreenenter"",""1"",""1649""
""blur"",""7"",""53569""
""focus"",""7"",""54919""
""blur"",""7"",""86379""
""focus"",""7"",""87293""
","""event"",""trial"",""time""
""blur"",""7"",""53569""
""blur"",""7"",""86379""
","""event"",""trial"",""time""
""focus"",""7"",""54919""
""focus"",""7"",""87293""
","""event"",""trial"",""time""
""fullscreenenter"",""1"",""1649""
","
","","[{""page_index"":0,""viewing_time"":3815}]","3815","","","","","","","","","","","","","","","","","","","","","","","",""
"pit-instructions","120","888986","0.0-3.0","battery-v0.2","","""event"",""trial"",""time""
""fullscreenenter"",""1"",""1649""
""blur"",""7"",""53569""
""focus"",""7"",""54919""
""blur"",""7"",""86379""
""focus"",""7"",""87293""
","""event"",""trial"",""time""
""blur"",""7"",""53569""
""blur"",""7"",""86379""
","""event"",""trial"",""time""
""focus"",""7"",""54919""
""focus"",""7"",""87293""
","""event"",""trial"",""time""
""fullscreenenter"",""1"",""1649""
","
","","[{""page_index"":0,""viewing_time"":5800},{""page_index"":1,""viewing_time"":5084},{""page_index"":2,""viewing_time"":7403.000000000116}]","18287.000000000116","","","","","","","","","","","","","","","","","","","","","","","",""
"pit-trial","121","892985","0.0-4.0","battery-v0.2","","""event"",""trial"",""time""
""fullscreenenter"",""1"",""1649""
""blur"",""7"",""53569""
""focus"",""7"",""54919""
""blur"",""7"",""86379""
""focus"",""7"",""87293""
","""event"",""trial"",""time""
""blur"",""7"",""53569""
""blur"",""7"",""86379""
","""event"",""trial"",""time""
""focus"",""7"",""54919""
""focus"",""7"",""87293""
","""event"",""trial"",""time""
""fullscreenenter"",""1"",""1649""
","
","","","1142","","","10","15987","958","&#9730;","elianto","#3366ff99"," "," ","1","+10","[1991.9999999998836]","1","1","","","15987","1","1","1","win","go","0"
"pit-trial","122","896689","0.0-5.0","battery-v0.2","","""event"",""trial"",""time""
""fullscreenenter"",""1"",""1649""
""blur"",""7"",""53569""
""focus"",""7"",""54919""
""blur"",""7"",""86379""
""focus"",""7"",""87293""
","""event"",""trial"",""time""
""blur"",""7"",""53569""
""blur"",""7"",""86379""
","""event"",""trial"",""time""
""focus"",""7"",""54919""
""focus"",""7"",""87293""
","""event"",""trial"",""time""
""fullscreenenter"",""1"",""1649""
","
","","","849","","","10","15987","958","&#9733;","elianto","#3366ff99","-1"," ","0","0","[1699]","1","1","","","15987","2","2","2","win","no-go","0"
"pit-trial","123","900520","0.0-6.0","battery-v0.2","","""event"",""trial"",""time""
""fullscreenenter"",""1"",""1649""
""blur"",""7"",""53569""
""focus"",""7"",""54919""
""blur"",""7"",""86379""
""focus"",""7"",""87293""
","""event"",""trial"",""time""
""blur"",""7"",""53569""
""blur"",""7"",""86379""
","""event"",""trial"",""time""
""focus"",""7"",""54919""
""focus"",""7"",""87293""
","""event"",""trial"",""time""
""fullscreenenter"",""1"",""1649""
","
","","","977","","","10","15987","958","&#9728;","elianto","#f73b6a7A","-1"," ","0","-10","[1827]","1","1","","","15987","3","0","4","lose","no-go","0"
"pit-trial","124","904241","0.0-7.0","battery-v0.2","","""event"",""trial"",""time""
""fullscreenenter"",""1"",""1649""
""blur"",""7"",""53569""
""focus"",""7"",""54919""
""blur"",""7"",""86379""
""focus"",""7"",""87293""
","""event"",""trial"",""time""
""blur"",""7"",""53569""
""blur"",""7"",""86379""
","""event"",""trial"",""time""
""focus"",""7"",""54919""
""focus"",""7"",""87293""
","""event"",""trial"",""time""
""fullscreenenter"",""1"",""1649""
","
","","","865","","","10","15987","958","&#9752;","elianto","#f73b6a7A"," "," ","1","0","[1716]","1","1","","","15987","4","3","3","lose","go","0"
"pit-trial","125","908273","0.0-8.0","battery-v0.2","","""event"",""trial"",""time""
""fullscreenenter"",""1"",""1649""
""blur"",""7"",""53569""
""focus"",""7"",""54919""
""blur"",""7"",""86379""
""focus"",""7"",""87293""
","""event"",""trial"",""time""
""blur"",""7"",""53569""
""blur"",""7"",""86379""
","""event"",""trial"",""time""
""focus"",""7"",""54919""
""focus"",""7"",""87293""
","""event"",""trial"",""time""
""fullscreenenter"",""1"",""1649""
","
","","","1176","","","10","15987","958","&#9733;","elianto","#3366ff99","-1"," ","0","0","[2027]","1","1","","","15987","5","2","2","win","no-go","0"
"pit-trial","126","912105","0.0-9.0","battery-v0.2","","""event"",""trial"",""time""
""fullscreenenter"",""1"",""1649""
""blur"",""7"",""53569""
""focus"",""7"",""54919""
""blur"",""7"",""86379""
""focus"",""7"",""87293""
","""event"",""trial"",""time""
""blur"",""7"",""53569""
""blur"",""7"",""86379""
","""event"",""trial"",""time""
""focus"",""7"",""54919""
""focus"",""7"",""87293""
","""event"",""trial"",""time""
""fullscreenenter"",""1"",""1649""
","
","","","977","","","10","15987","958","&#9752;","elianto","#f73b6a7A"," "," ","1","0","[1827]","1","1","","","15987","6","3","3","lose","go","0"
"pit-trial","127","915617","0.0-10.0","battery-v0.2","","""event"",""trial"",""time""
""fullscreenenter"",""1"",""1649""
""blur"",""7"",""53569""
""focus"",""7"",""54919""
""blur"",""7"",""86379""
""focus"",""7"",""87293""
","""event"",""trial"",""time""
""blur"",""7"",""53569""
""blur"",""7"",""86379""
","""event"",""trial"",""time""
""focus"",""7"",""54919""
""focus"",""7"",""87293""
","""event"",""trial"",""time""
""fullscreenenter"",""1"",""1649""
","
","","","656","","","10","15987","958","&#9730;","elianto","#3366ff99"," "," ","1","+10","[1508]","1","1","","","15987","7","1","1","win","go","0"
"pit-trial","128","920473","0.0-11.0","battery-v0.2","","""event"",""trial"",""time""
""fullscreenenter"",""1"",""1649""
""blur"",""7"",""53569""
""focus"",""7"",""54919""
""blur"",""7"",""86379""
""focus"",""7"",""87293""
","""event"",""trial"",""time""
""blur"",""7"",""53569""
""blur"",""7"",""86379""
","""event"",""trial"",""time""
""focus"",""7"",""54919""
""focus"",""7"",""87293""
","""event"",""trial"",""time""
""fullscreenenter"",""1"",""1649""
","
","","","-1","","","10","15987","958","&#9728;","elianto","#f73b6a7A","-1","-1","1","0","[]","0","1","","","15987","8","0","4","lose","no-go","0"
"pit-trial","129","925329","0.0-12.0","battery-v0.2","","""event"",""trial"",""time""
""fullscreenenter"",""1"",""1649""
""blur"",""7"",""53569""
""focus"",""7"",""54919""
""blur"",""7"",""86379""
""focus"",""7"",""87293""
","""event"",""trial"",""time""
""blur"",""7"",""53569""
""blur"",""7"",""86379""
","""event"",""trial"",""time""
""focus"",""7"",""54919""
""focus"",""7"",""87293""
","""event"",""trial"",""time""
""fullscreenenter"",""1"",""1649""
","
","","","-1","","","10","15987","958","&#9733;","elianto","#3366ff99","-1","-1","1","+10","[]","0","1","","","15987","9","2","2","win","no-go","0"
"pit-trial","130","930188","0.0-13.0","battery-v0.2","","""event"",""trial"",""time""
""fullscreenenter"",""1"",""1649""
""blur"",""7"",""53569""
""focus"",""7"",""54919""
""blur"",""7"",""86379""
""focus"",""7"",""87293""
","""event"",""trial"",""time""
""blur"",""7"",""53569""
""blur"",""7"",""86379""
","""event"",""trial"",""time""
""focus"",""7"",""54919""
""focus"",""7"",""87293""
","""event"",""trial"",""time""
""fullscreenenter"",""1"",""1649""
","
","","","-1","","","10","15987","958","&#9728;","elianto","#f73b6a7A","-1","-1","1","0","[]","0","1","","","15987","10","0","4","lose","no-go","0"
"pit-trial","131","933785","0.0-14.0","battery-v0.2","","""event"",""trial"",""time""
""fullscreenenter"",""1"",""1649""
""blur"",""7"",""53569""
""focus"",""7"",""54919""
""blur"",""7"",""86379""
""focus"",""7"",""87293""
","""event"",""trial"",""time""
""blur"",""7"",""53569""
""blur"",""7"",""86379""
","""event"",""trial"",""time""
""focus"",""7"",""54919""
""focus"",""7"",""87293""
","""event"",""trial"",""time""
""fullscreenenter"",""1"",""1649""
","
","","","742","","","10","15987","958","&#9752;","elianto","#f73b6a7A"," "," ","1","0","[1593]","1","1","","","15987","11","3","3","lose","go","0"
"pit-trial","132","937235","0.0-15.0","battery-v0.2","","""event"",""trial"",""time""
""fullscreenenter"",""1"",""1649""
""blur"",""7"",""53569""
""focus"",""7"",""54919""
""blur"",""7"",""86379""
""focus"",""7"",""87293""
","""event"",""trial"",""time""
""blur"",""7"",""53569""
""blur"",""7"",""86379""
","""event"",""trial"",""time""
""focus"",""7"",""54919""
""focus"",""7"",""87293""
","""event"",""trial"",""time""
""fullscreenenter"",""1"",""1649""
","
","","","593.0000000001164","","","10","15987","958","&#9730;","elianto","#3366ff99"," "," ","1","+10","[1444.0000000001164]","1","1","","","15987","12","1","1","win","go","0"
"pit-trial","133","940858","0.0-16.0","battery-v0.2","","""event"",""trial"",""time""
""fullscreenenter"",""1"",""1649""
""blur"",""7"",""53569""
""focus"",""7"",""54919""
""blur"",""7"",""86379""
""focus"",""7"",""87293""
","""event"",""trial"",""time""
""blur"",""7"",""53569""
""blur"",""7"",""86379""
","""event"",""trial"",""time""
""focus"",""7"",""54919""
""focus"",""7"",""87293""
","""event"",""trial"",""time""
""fullscreenenter"",""1"",""1649""
","
","","","769","","","10","15987","958","&#9730;","elianto","#3366ff99"," "," ","1","+10","[1618.9999999998836]","1","1","","","15987","13","1","1","win","go","0"
"pit-trial","134","945713","0.0-17.0","battery-v0.2","","""event"",""trial"",""time""
""fullscreenenter"",""1"",""1649""
""blur"",""7"",""53569""
""focus"",""7"",""54919""
""blur"",""7"",""86379""
""focus"",""7"",""87293""
","""event"",""trial"",""time""
""blur"",""7"",""53569""
""blur"",""7"",""86379""
","""event"",""trial"",""time""
""focus"",""7"",""54919""
""focus"",""7"",""87293""
","""event"",""trial"",""time""
""fullscreenenter"",""1"",""1649""
","
","","","-1","","","10","15987","958","&#9733;","elianto","#3366ff99","-1","-1","1","+10","[]","0","1","","","15987","14","2","2","win","no-go","0"
"pit-trial","135","949354","0.0-18.0","battery-v0.2","","""event"",""trial"",""time""
""fullscreenenter"",""1"",""1649""
""blur"",""7"",""53569""
""focus"",""7"",""54919""
""blur"",""7"",""86379""
""focus"",""7"",""87293""
","""event"",""trial"",""time""
""blur"",""7"",""53569""
""blur"",""7"",""86379""
","""event"",""trial"",""time""
""focus"",""7"",""54919""
""focus"",""7"",""87293""
","""event"",""trial"",""time""
""fullscreenenter"",""1"",""1649""
","
","","","785.0000000001164","","","10","15987","958","&#9752;","elianto","#f73b6a7A"," "," ","1","-10","[1636.0000000001164]","1","1","","","15987","15","3","3","lose","go","1"
"pit-trial","136","952947","0.0-19.0","battery-v0.2","","""event"",""trial"",""time""
""fullscreenenter"",""1"",""1649""
""blur"",""7"",""53569""
""focus"",""7"",""54919""
""blur"",""7"",""86379""
""focus"",""7"",""87293""
","""event"",""trial"",""time""
""blur"",""7"",""53569""
""blur"",""7"",""86379""
","""event"",""trial"",""time""
""focus"",""7"",""54919""
""focus"",""7"",""87293""
","""event"",""trial"",""time""
""fullscreenenter"",""1"",""1649""
","
","","","737.0000000001164","","","10","15987","958","&#9728;","elianto","#f73b6a7A","-1"," ","0","-10","[1588.0000000001164]","1","1","","","15987","16","0","4","lose","no-go","0"
"pit-trial","137","956499","0.0-20.0","battery-v0.2","","""event"",""trial"",""time""
""fullscreenenter"",""1"",""1649""
""blur"",""7"",""53569""
""focus"",""7"",""54919""
""blur"",""7"",""86379""
""focus"",""7"",""87293""
","""event"",""trial"",""time""
""blur"",""7"",""53569""
""blur"",""7"",""86379""
","""event"",""trial"",""time""
""focus"",""7"",""54919""
""focus"",""7"",""87293""
","""event"",""trial"",""time""
""fullscreenenter"",""1"",""1649""
","
","","","697","","","10","15987","958","&#9728;","elianto","#f73b6a7A","-1"," ","0","0","[1547]","1","1","","","15987","17","0","4","lose","no-go","1"
"pit-trial","138","960019","0.0-21.0","battery-v0.2","","""event"",""trial"",""time""
""fullscreenenter"",""1"",""1649""
""blur"",""7"",""53569""
""focus"",""7"",""54919""
""blur"",""7"",""86379""
""focus"",""7"",""87293""
","""event"",""trial"",""time""
""blur"",""7"",""53569""
""blur"",""7"",""86379""
","""event"",""trial"",""time""
""focus"",""7"",""54919""
""focus"",""7"",""87293""
","""event"",""trial"",""time""
""fullscreenenter"",""1"",""1649""
","
","","","664","","","10","15987","958","&#9752;","elianto","#f73b6a7A"," "," ","1","0","[1515.0000000001164]","1","1","","","15987","18","3","3","lose","go","0"
"pit-trial","139","964875","0.0-22.0","battery-v0.2","","""event"",""trial"",""time""
""fullscreenenter"",""1"",""1649""
""blur"",""7"",""53569""
""focus"",""7"",""54919""
""blur"",""7"",""86379""
""focus"",""7"",""87293""
","""event"",""trial"",""time""
""blur"",""7"",""53569""
""blur"",""7"",""86379""
","""event"",""trial"",""time""
""focus"",""7"",""54919""
""focus"",""7"",""87293""
","""event"",""trial"",""time""
""fullscreenenter"",""1"",""1649""
","
","","","-1","","","10","15987","958","&#9733;","elianto","#3366ff99","-1","-1","1","+10","[]","0","1","","","15987","19","2","2","win","no-go","0"
"pit-trial","140","968283","0.0-23.0","battery-v0.2","","""event"",""trial"",""time""
""fullscreenenter"",""1"",""1649""
""blur"",""7"",""53569""
""focus"",""7"",""54919""
""blur"",""7"",""86379""
""focus"",""7"",""87293""
","""event"",""trial"",""time""
""blur"",""7"",""53569""
""blur"",""7"",""86379""
","""event"",""trial"",""time""
""focus"",""7"",""54919""
""focus"",""7"",""87293""
","""event"",""trial"",""time""
""fullscreenenter"",""1"",""1649""
","
","","","552.0000000001164","","","10","15987","958","&#9730;","elianto","#3366ff99"," "," ","1","0","[1403.0000000001164]","1","1","","","15987","20","1","1","win","go","1"
"pit-instructions","141","982046","0.0-24.0","battery-v0.2","","""event"",""trial"",""time""
""fullscreenenter"",""1"",""1649""
""blur"",""7"",""53569""
""focus"",""7"",""54919""
""blur"",""7"",""86379""
""focus"",""7"",""87293""
","""event"",""trial"",""time""
""blur"",""7"",""53569""
""blur"",""7"",""86379""
","""event"",""trial"",""time""
""focus"",""7"",""54919""
""focus"",""7"",""87293""
","""event"",""trial"",""time""
""fullscreenenter"",""1"",""1649""
","
","","[{""page_index"":0,""viewing_time"":7058},{""page_index"":1,""viewing_time"":6700.999999999884}]","13760","","","","","","","","","","","","","","","","","","","","","","","",""
"pit-trial","142","986011","0.0-25.0","battery-v0.2","","""event"",""trial"",""time""
""fullscreenenter"",""1"",""1649""
""blur"",""7"",""53569""
""focus"",""7"",""54919""
""blur"",""7"",""86379""
""focus"",""7"",""87293""
","""event"",""trial"",""time""
""blur"",""7"",""53569""
""blur"",""7"",""86379""
","""event"",""trial"",""time""
""focus"",""7"",""54919""
""focus"",""7"",""87293""
","""event"",""trial"",""time""
""fullscreenenter"",""1"",""1649""
","
","","","1107","","","10","15987","958","u","elianto","#f73b6a7A"," "," ","1","0","[1958]","1","2","","","15987","21","0","3","lose","go","0"
"pit-trial","143","989820","0.0-26.0","battery-v0.2","","""event"",""trial"",""time""
""fullscreenenter"",""1"",""1649""
""blur"",""7"",""53569""
""focus"",""7"",""54919""
""blur"",""7"",""86379""
""focus"",""7"",""87293""
","""event"",""trial"",""time""
""blur"",""7"",""53569""
""blur"",""7"",""86379""
","""event"",""trial"",""time""
""focus"",""7"",""54919""
""focus"",""7"",""87293""
","""event"",""trial"",""time""
""fullscreenenter"",""1"",""1649""
","
","","","952","","","10","15987","958","g","elianto","#f73b6a7A","-1"," ","0","-10","[1803]","1","2","","","15987","22","3","4","lose","no-go","0"
"pit-trial","144","993556","0.0-27.0","battery-v0.2","","""event"",""trial"",""time""
""fullscreenenter"",""1"",""1649""
""blur"",""7"",""53569""
""focus"",""7"",""54919""
""blur"",""7"",""86379""
""focus"",""7"",""87293""
","""event"",""trial"",""time""
""blur"",""7"",""53569""
""blur"",""7"",""86379""
","""event"",""trial"",""time""
""focus"",""7"",""54919""
""focus"",""7"",""87293""
","""event"",""trial"",""time""
""fullscreenenter"",""1"",""1649""
","
","","","880","","","10","15987","958","l","elianto","#3366ff99","-1"," ","0","0","[1731]","1","2","","","15987","23","1","2","win","no-go","0"
"pit-trial","145","996987","0.0-28.0","battery-v0.2","","""event"",""trial"",""time""
""fullscreenenter"",""1"",""1649""
""blur"",""7"",""53569""
""focus"",""7"",""54919""
""blur"",""7"",""86379""
""focus"",""7"",""87293""
","""event"",""trial"",""time""
""blur"",""7"",""53569""
""blur"",""7"",""86379""
","""event"",""trial"",""time""
""focus"",""7"",""54919""
""focus"",""7"",""87293""
","""event"",""trial"",""time""
""fullscreenenter"",""1"",""1649""
","
","","","575","","","10","15987","958","a","elianto","#f73b6a7A"," "," ","1","-10","[1424.9999999998836]","1","2","","","15987","24","2","3","lose","go","1"
"pit-trial","146","1000684","0.0-29.0","battery-v0.2","","""event"",""trial"",""time""
""fullscreenenter"",""1"",""1649""
""blur"",""7"",""53569""
""focus"",""7"",""54919""
""blur"",""7"",""86379""
""focus"",""7"",""87293""
","""event"",""trial"",""time""
""blur"",""7"",""53569""
""blur"",""7"",""86379""
","""event"",""trial"",""time""
""focus"",""7"",""54919""
""focus"",""7"",""87293""
","""event"",""trial"",""time""
""fullscreenenter"",""1"",""1649""
","
","","","840","","","10","15987","958","g","elianto","#f73b6a7A","-1"," ","0","-10","[1691]","1","2","","","15987","25","3","4","lose","no-go","0"
"pit-trial","147","1004388","0.0-30.0","battery-v0.2","","""event"",""trial"",""time""
""fullscreenenter"",""1"",""1649""
""blur"",""7"",""53569""
""focus"",""7"",""54919""
""blur"",""7"",""86379""
""focus"",""7"",""87293""
","""event"",""trial"",""time""
""blur"",""7"",""53569""
""blur"",""7"",""86379""
","""event"",""trial"",""time""
""focus"",""7"",""54919""
""focus"",""7"",""87293""
","""event"",""trial"",""time""
""fullscreenenter"",""1"",""1649""
","
","","","848","","","10","15987","958","a","elianto","#f73b6a7A"," "," ","1","-10","[1699]","1","2","","","15987","26","2","3","lose","go","1"
"pit-trial","148","1009243","0.0-31.0","battery-v0.2","","""event"",""trial"",""time""
""fullscreenenter"",""1"",""1649""
""blur"",""7"",""53569""
""focus"",""7"",""54919""
""blur"",""7"",""86379""
""focus"",""7"",""87293""
","""event"",""trial"",""time""
""blur"",""7"",""53569""
""blur"",""7"",""86379""
","""event"",""trial"",""time""
""focus"",""7"",""54919""
""focus"",""7"",""87293""
","""event"",""trial"",""time""
""fullscreenenter"",""1"",""1649""
","
","","","-1","","","10","15987","958","l","elianto","#3366ff99","-1","-1","1","+10","[]","0","2","","","15987","27","1","2","win","no-go","0"
"pit-trial","149","1012782","0.0-32.0","battery-v0.2","","""event"",""trial"",""time""
""fullscreenenter"",""1"",""1649""
""blur"",""7"",""53569""
""focus"",""7"",""54919""
""blur"",""7"",""86379""
""focus"",""7"",""87293""
","""event"",""trial"",""time""
""blur"",""7"",""53569""
""blur"",""7"",""86379""
","""event"",""trial"",""time""
""focus"",""7"",""54919""
""focus"",""7"",""87293""
","""event"",""trial"",""time""
""fullscreenenter"",""1"",""1649""
","
","","","681","","","10","15987","958","u","elianto","#f73b6a7A"," "," ","1","0","[1532]","1","2","","","15987","28","0","3","lose","go","0"
"pit-trial","150","1016381","0.0-33.0","battery-v0.2","","""event"",""trial"",""time""
""fullscreenenter"",""1"",""1649""
""blur"",""7"",""53569""
""focus"",""7"",""54919""
""blur"",""7"",""86379""
""focus"",""7"",""87293""
","""event"",""trial"",""time""
""blur"",""7"",""53569""
""blur"",""7"",""86379""
","""event"",""trial"",""time""
""focus"",""7"",""54919""
""focus"",""7"",""87293""
","""event"",""trial"",""time""
""fullscreenenter"",""1"",""1649""
","
","","","744","","","10","15987","958","u","elianto","#f73b6a7A"," "," ","1","0","[1593.0000000001164]","1","2","","","15987","29","0","3","lose","go","0"
"pit-trial","151","1021236","0.0-34.0","battery-v0.2","","""event"",""trial"",""time""
""fullscreenenter"",""1"",""1649""
""blur"",""7"",""53569""
""focus"",""7"",""54919""
""blur"",""7"",""86379""
""focus"",""7"",""87293""
","""event"",""trial"",""time""
""blur"",""7"",""53569""
""blur"",""7"",""86379""
","""event"",""trial"",""time""
""focus"",""7"",""54919""
""focus"",""7"",""87293""
","""event"",""trial"",""time""
""fullscreenenter"",""1"",""1649""
","
","","","-1","","","10","15987","958","g","elianto","#f73b6a7A","-1","-1","1","-10","[]","0","2","","","15987","30","3","4","lose","no-go","1"
"pit-trial","152","1026092","0.0-35.0","battery-v0.2","","""event"",""trial"",""time""
""fullscreenenter"",""1"",""1649""
""blur"",""7"",""53569""
""focus"",""7"",""54919""
""blur"",""7"",""86379""
""focus"",""7"",""87293""
","""event"",""trial"",""time""
""blur"",""7"",""53569""
""blur"",""7"",""86379""
","""event"",""trial"",""time""
""focus"",""7"",""54919""
""focus"",""7"",""87293""
","""event"",""trial"",""time""
""fullscreenenter"",""1"",""1649""
","
","","","-1","","","10","15987","958","a","elianto","#f73b6a7A"," ","-1","0","-10","[]","0","2","","","15987","31","2","3","lose","go","0"
"pit-trial","153","1029516","0.0-36.0","battery-v0.2","","""event"",""trial"",""time""
""fullscreenenter"",""1"",""1649""
""blur"",""7"",""53569""
""focus"",""7"",""54919""
""blur"",""7"",""86379""
""focus"",""7"",""87293""
","""event"",""trial"",""time""
""blur"",""7"",""53569""
""blur"",""7"",""86379""
","""event"",""trial"",""time""
""focus"",""7"",""54919""
""focus"",""7"",""87293""
","""event"",""trial"",""time""
""fullscreenenter"",""1"",""1649""
","
","","","568.9999999998836","","","10","15987","958","l","elianto","#3366ff99","-1"," ","0","0","[1419.9999999997672]","1","2","","","15987","32","1","2","win","no-go","0"
"pit-trial","154","1034372","0.0-37.0","battery-v0.2","","""event"",""trial"",""time""
""fullscreenenter"",""1"",""1649""
""blur"",""7"",""53569""
""focus"",""7"",""54919""
""blur"",""7"",""86379""
""focus"",""7"",""87293""
","""event"",""trial"",""time""
""blur"",""7"",""53569""
""blur"",""7"",""86379""
","""event"",""trial"",""time""
""focus"",""7"",""54919""
""focus"",""7"",""87293""
","""event"",""trial"",""time""
""fullscreenenter"",""1"",""1649""
","
","","","-1","","","10","15987","958","a","elianto","#f73b6a7A"," ","-1","0","-10","[]","0","2","","","15987","33","2","3","lose","go","0"
"pit-trial","155","1039228","0.0-38.0","battery-v0.2","","""event"",""trial"",""time""
""fullscreenenter"",""1"",""1649""
""blur"",""7"",""53569""
""focus"",""7"",""54919""
""blur"",""7"",""86379""
""focus"",""7"",""87293""
","""event"",""trial"",""time""
""blur"",""7"",""53569""
""blur"",""7"",""86379""
","""event"",""trial"",""time""
""focus"",""7"",""54919""
""focus"",""7"",""87293""
","""event"",""trial"",""time""
""fullscreenenter"",""1"",""1649""
","
","","","-1","","","10","15987","958","g","elianto","#f73b6a7A","-1","-1","1","-10","[]","0","2","","","15987","34","3","4","lose","no-go","1"
"pit-trial","156","1043117","0.0-39.0","battery-v0.2","","""event"",""trial"",""time""
""fullscreenenter"",""1"",""1649""
""blur"",""7"",""53569""
""focus"",""7"",""54919""
""blur"",""7"",""86379""
""focus"",""7"",""87293""
","""event"",""trial"",""time""
""blur"",""7"",""53569""
""blur"",""7"",""86379""
","""event"",""trial"",""time""
""focus"",""7"",""54919""
""focus"",""7"",""87293""
","""event"",""trial"",""time""
""fullscreenenter"",""1"",""1649""
","
","","","1033.0000000002328","","","10","15987","958","u","elianto","#f73b6a7A"," "," ","1","0","[1883.0000000001164]","1","2","","","15987","35","0","3","lose","go","0"
"pit-trial","157","1046901","0.0-40.0","battery-v0.2","","""event"",""trial"",""time""
""fullscreenenter"",""1"",""1649""
""blur"",""7"",""53569""
""focus"",""7"",""54919""
""blur"",""7"",""86379""
""focus"",""7"",""87293""
","""event"",""trial"",""time""
""blur"",""7"",""53569""
""blur"",""7"",""86379""
","""event"",""trial"",""time""
""focus"",""7"",""54919""
""focus"",""7"",""87293""
","""event"",""trial"",""time""
""fullscreenenter"",""1"",""1649""
","
","","","927.9999999998836","","","10","15987","958","l","elianto","#3366ff99","-1"," ","0","0","[1779]","1","2","","","15987","36","1","2","win","no-go","0"
"pit-trial","158","1051757","0.0-41.0","battery-v0.2","","""event"",""trial"",""time""
""fullscreenenter"",""1"",""1649""
""blur"",""7"",""53569""
""focus"",""7"",""54919""
""blur"",""7"",""86379""
""focus"",""7"",""87293""
","""event"",""trial"",""time""
""blur"",""7"",""53569""
""blur"",""7"",""86379""
","""event"",""trial"",""time""
""focus"",""7"",""54919""
""focus"",""7"",""87293""
","""event"",""trial"",""time""
""fullscreenenter"",""1"",""1649""
","
","","","-1","","","10","15987","958","a","elianto","#f73b6a7A"," ","-1","0","-10","[2995]","1","2","","","15987","37","2","3","lose","go","0"
"pit-trial","159","1055174","0.0-42.0","battery-v0.2","","""event"",""trial"",""time""
""fullscreenenter"",""1"",""1649""
""blur"",""7"",""53569""
""focus"",""7"",""54919""
""blur"",""7"",""86379""
""focus"",""7"",""87293""
","""event"",""trial"",""time""
""blur"",""7"",""53569""
