"trial_type","trial_index","time_elapsed","internal_node_id","task_version","subject_id","interactions","blur_events","focus_events","fullscreenenter_events","fullscreenexit_events","success","view_history","rt","responses","num_errors","age","subject","participantId","rune","rune_set","hex","correct","choice","accuracy","outcome","keys","total_keys","block","practice","value","sub","trial","stimulus","robot","valence","action","sham"
"pavlovia","0","8","0.0-0.0","battery-v0.2","","""event"",""trial"",""time""
""blur"",""1"",""2402""
""focus"",""1"",""26182""
""fullscreenenter"",""1"",""26614""
","""event"",""trial"",""time""
""blur"",""1"",""2402""
","""event"",""trial"",""time""
""focus"",""1"",""26182""
","""event"",""trial"",""time""
""fullscreenenter"",""1"",""26614""
","
","","","","","","","","","","","","","","","","","","","","","","","","","","",""
"fullscreen","1","27608","0.0-1.0","battery-v0.2","","""event"",""trial"",""time""
""blur"",""1"",""2402""
""focus"",""1"",""26182""
""fullscreenenter"",""1"",""26614""
","""event"",""trial"",""time""
""blur"",""1"",""2402""
","""event"",""trial"",""time""
""focus"",""1"",""26182""
","""event"",""trial"",""time""
""fullscreenenter"",""1"",""26614""
","
","true","","","","","","","","","","","","","","","","","","","","","","","","","",""
"pit-instructions","2","31431","0.0-2.0-0.0","battery-v0.2","","""event"",""trial"",""time""
""blur"",""1"",""2402""
""focus"",""1"",""26182""
""fullscreenenter"",""1"",""26614""
","""event"",""trial"",""time""
""blur"",""1"",""2402""
","""event"",""trial"",""time""
""focus"",""1"",""26182""
","""event"",""trial"",""time""
""fullscreenenter"",""1"",""26614""
","
","","[{""page_index"":0,""viewing_time"":3817.399999856949}]","3817.7999999523163","","","","","","","","","","","","","","","","","","","","","","","",""
"pit-comprehension","3","33268","0.0-2.0-1.0-0.0","battery-v0.2","","""event"",""trial"",""time""
""blur"",""1"",""2402""
""focus"",""1"",""26182""
""fullscreenenter"",""1"",""26614""
","""event"",""trial"",""time""
""blur"",""1"",""2402""
","""event"",""trial"",""time""
""focus"",""1"",""26182""
","""event"",""trial"",""time""
""fullscreenenter"",""1"",""26614""
","
","","","1833.2999999523163","[""shark""]","0","19","10378","3880","","","","","","","","","","","","","","","","","","",""
"pit-instructions","4","33793","0.0-2.0-1.0-1.0","battery-v0.2","","""event"",""trial"",""time""
""blur"",""1"",""2402""
""focus"",""1"",""26182""
""fullscreenenter"",""1"",""26614""
","""event"",""trial"",""time""
""blur"",""1"",""2402""
","""event"",""trial"",""time""
""focus"",""1"",""26182""
","""event"",""trial"",""time""
""fullscreenenter"",""1"",""26614""
","
","","[{""page_index"":0,""viewing_time"":515.5}]","516.3999998569489","","","","","","","","","","","","","","","","","","","","","","","",""
"pit-comprehension","5","35007","0.0-2.0-2.0-0.0","battery-v0.2","","""event"",""trial"",""time""
""blur"",""1"",""2402""
""focus"",""1"",""26182""
""fullscreenenter"",""1"",""26614""
","""event"",""trial"",""time""
""blur"",""1"",""2402""
","""event"",""trial"",""time""
""focus"",""1"",""26182""
","""event"",""trial"",""time""
""fullscreenenter"",""1"",""26614""
","
","","","1209.5","[""tiger""]","0","19","10378","3880","","","","","","","","","","","","","","","","","","",""
"pit-instructions","6","35541","0.0-2.0-2.0-1.0","battery-v0.2","","""event"",""trial"",""time""
""blur"",""1"",""2402""
""focus"",""1"",""26182""
""fullscreenenter"",""1"",""26614""
","""event"",""trial"",""time""
""blur"",""1"",""2402""
","""event"",""trial"",""time""
""focus"",""1"",""26182""
","""event"",""trial"",""time""
""fullscreenenter"",""1"",""26614""
","
","","[{""page_index"":0,""viewing_time"":529.5999999046326}]","530.2999999523163","","","","","","","","","","","","","","","","","","","","","","","",""
"pit-instructions","7","131445","0.0-2.0-3.0","battery-v0.2","","""event"",""trial"",""time""
""blur"",""1"",""2402""
""focus"",""1"",""26182""
""fullscreenenter"",""1"",""26614""
","""event"",""trial"",""time""
""blur"",""1"",""2402""
","""event"",""trial"",""time""
""focus"",""1"",""26182""
","""event"",""trial"",""time""
""fullscreenenter"",""1"",""26614""
","
","","[{""page_index"":0,""viewing_time"":10017.799999952316},{""page_index"":1,""viewing_time"":6964.900000095367},{""page_index"":2,""viewing_time"":6826.299999952316},{""page_index"":3,""viewing_time"":5379.299999952316},{""page_index"":4,""viewing_time"":6261.599999904633},{""page_index"":5,""viewing_time"":5990.800000190735},{""page_index"":6,""viewing_time"":5577.099999904633},{""page_index"":7,""viewing_time"":6256.700000047684},{""page_index"":8,""viewing_time"":7649.700000047684},{""page_index"":9,""viewing_time"":8361.599999904633},{""page_index"":10,""viewing_time"":7525.299999952316},{""page_index"":11,""viewing_time"":7159.5},{""page_index"":12,""viewing_time"":6137.799999952316},{""page_index"":13,""viewing_time"":5792.300000190735}]","95901.39999985695","","","","","","","","","","","","","","","","","","","","","","","",""
"pit-trial","8","134849","0.0-2.0-4.0-0.0","battery-v0.2","","""event"",""trial"",""time""
""blur"",""1"",""2402""
""focus"",""1"",""26182""
""fullscreenenter"",""1"",""26614""
","""event"",""trial"",""time""
""blur"",""1"",""2402""
","""event"",""trial"",""time""
""focus"",""1"",""26182""
","""event"",""trial"",""time""
""fullscreenenter"",""1"",""26614""
","
","","","546.2999999523163","","","19","10378","3880","&#9784;","elianto","#FFFFF080"," "," ","1","&#10004","[1397.6000001430511]","1","0","0","","","","","","","",""
"pit-trial","9","138264","0.0-2.0-4.1-0.1","battery-v0.2","","""event"",""trial"",""time""
""blur"",""1"",""2402""
""focus"",""1"",""26182""
""fullscreenenter"",""1"",""26614""
","""event"",""trial"",""time""
""blur"",""1"",""2402""
","""event"",""trial"",""time""
""focus"",""1"",""26182""
","""event"",""trial"",""time""
""fullscreenenter"",""1"",""26614""
","
","","","552.1000001430511","","","19","10378","3880","&#9784;","elianto","#FFFFF080"," "," ","1","&#10004","[1402.4000000953674]","1","0","0","","","","","","","",""
"pit-trial","10","141714","0.0-2.0-4.2-0.2","battery-v0.2","","""event"",""trial"",""time""
""blur"",""1"",""2402""
""focus"",""1"",""26182""
""fullscreenenter"",""1"",""26614""
","""event"",""trial"",""time""
""blur"",""1"",""2402""
","""event"",""trial"",""time""
""focus"",""1"",""26182""
","""event"",""trial"",""time""
""fullscreenenter"",""1"",""26614""
","
","","","592.4000000953674","","","19","10378","3880","&#9784;","elianto","#FFFFF080"," "," ","1","&#10004","[1443.8999998569489]","1","0","0","","","","","","","",""
"pit-trial","11","145048","0.0-2.0-4.3-0.3","battery-v0.2","","""event"",""trial"",""time""
""blur"",""1"",""2402""
""focus"",""1"",""26182""
""fullscreenenter"",""1"",""26614""
","""event"",""trial"",""time""
""blur"",""1"",""2402""
","""event"",""trial"",""time""
""focus"",""1"",""26182""
","""event"",""trial"",""time""
""fullscreenenter"",""1"",""26614""
","
","","","476.40000009536743","","","19","10378","3880","&#9784;","elianto","#FFFFF080"," "," ","1","&#10004","[1326.9000000953674]","1","0","0","","","","","","","",""
"pit-trial","12","148335","0.0-2.0-4.4-0.4","battery-v0.2","","""event"",""trial"",""time""
""blur"",""1"",""2402""
""focus"",""1"",""26182""
""fullscreenenter"",""1"",""26614""
","""event"",""trial"",""time""
""blur"",""1"",""2402""
","""event"",""trial"",""time""
""focus"",""1"",""26182""
","""event"",""trial"",""time""
""fullscreenenter"",""1"",""26614""
","
","","","424.5","","","19","10378","3880","&#9784;","elianto","#FFFFF080"," "," ","1","&#10004","[1276.1000001430511]","1","0","0","","","","","","","",""
"pit-instructions","13","169395","0.0-2.0-5.0","battery-v0.2","","""event"",""trial"",""time""
""blur"",""1"",""2402""
""focus"",""1"",""26182""
""fullscreenenter"",""1"",""26614""
","""event"",""trial"",""time""
""blur"",""1"",""2402""
","""event"",""trial"",""time""
""focus"",""1"",""26182""
","""event"",""trial"",""time""
""fullscreenenter"",""1"",""26614""
","
","","[{""page_index"":0,""viewing_time"":4667.900000095367},{""page_index"":1,""viewing_time"":5337.299999952316},{""page_index"":2,""viewing_time"":5147.200000047684},{""page_index"":3,""viewing_time"":5901.5}]","21054.900000095367","","","","","","","","","","","","","","","","","","","","","","","",""
"pit-trial","14","174256","0.0-2.0-6.0-0.0","battery-v0.2","","""event"",""trial"",""time""
""blur"",""1"",""2402""
""focus"",""1"",""26182""
""fullscreenenter"",""1"",""26614""
","""event"",""trial"",""time""
""blur"",""1"",""2402""
","""event"",""trial"",""time""
""focus"",""1"",""26182""
","""event"",""trial"",""time""
""fullscreenenter"",""1"",""26614""
","
","","","-1","","","19","10378","3880","&#9854;","elianto","#FFFFF080","-1","-1","1","&#10004","[]","0","0","1","","","","","","","",""
"pit-trial","15","179118","0.0-2.0-6.1-0.1","battery-v0.2","","""event"",""trial"",""time""
""blur"",""1"",""2402""
""focus"",""1"",""26182""
""fullscreenenter"",""1"",""26614""
","""event"",""trial"",""time""
""blur"",""1"",""2402""
","""event"",""trial"",""time""
""focus"",""1"",""26182""
","""event"",""trial"",""time""
""fullscreenenter"",""1"",""26614""
","
","","","-1","","","19","10378","3880","&#9854;","elianto","#FFFFF080","-1","-1","1","&#10004","[]","0","0","1","","","","","","","",""
"pit-trial","16","183983","0.0-2.0-6.2-0.2","battery-v0.2","","""event"",""trial"",""time""
""blur"",""1"",""2402""
""focus"",""1"",""26182""
""fullscreenenter"",""1"",""26614""
","""event"",""trial"",""time""
""blur"",""1"",""2402""
","""event"",""trial"",""time""
""focus"",""1"",""26182""
","""event"",""trial"",""time""
""fullscreenenter"",""1"",""26614""
","
","","","-1","","","19","10378","3880","&#9854;","elianto","#FFFFF080","-1","-1","1","&#10004","[]","0","0","1","","","","","","","",""
"pit-trial","17","188846","0.0-2.0-6.3-0.3","battery-v0.2","","""event"",""trial"",""time""
""blur"",""1"",""2402""
""focus"",""1"",""26182""
""fullscreenenter"",""1"",""26614""
","""event"",""trial"",""time""
""blur"",""1"",""2402""
","""event"",""trial"",""time""
""focus"",""1"",""26182""
","""event"",""trial"",""time""
""fullscreenenter"",""1"",""26614""
","
","","","-1","","","19","10378","3880","&#9854;","elianto","#FFFFF080","-1","-1","1","&#10004","[]","0","0","1","","","","","","","",""
"pit-trial","18","193709","0.0-2.0-6.4-0.4","battery-v0.2","","""event"",""trial"",""time""
""blur"",""1"",""2402""
""focus"",""1"",""26182""
""fullscreenenter"",""1"",""26614""
","""event"",""trial"",""time""
""blur"",""1"",""2402""
","""event"",""trial"",""time""
""focus"",""1"",""26182""
","""event"",""trial"",""time""
""fullscreenenter"",""1"",""26614""
","
","","","-1","","","19","10378","3880","&#9854;","elianto","#FFFFF080","-1","-1","1","&#10004","[]","0","0","1","","","","","","","",""
"pit-instructions","19","311572","0.0-2.0-7.0","battery-v0.2","","""event"",""trial"",""time""
""blur"",""1"",""2402""
""focus"",""1"",""26182""
""fullscreenenter"",""1"",""26614""
","""event"",""trial"",""time""
""blur"",""1"",""2402""
","""event"",""trial"",""time""
""focus"",""1"",""26182""
","""event"",""trial"",""time""
""fullscreenenter"",""1"",""26614""
","
","","[{""page_index"":0,""viewing_time"":6928.700000047684},{""page_index"":1,""viewing_time"":6483},{""page_index"":2,""viewing_time"":5911.299999952316},{""page_index"":3,""viewing_time"":5159.400000095367},{""page_index"":4,""viewing_time"":5775.899999856949},{""page_index"":5,""viewing_time"":9651.900000095367},{""page_index"":6,""viewing_time"":4886.700000047684},{""page_index"":7,""viewing_time"":7694.399999856949},{""page_index"":8,""viewing_time"":6192.5},{""page_index"":9,""viewing_time"":5370.5},{""page_index"":10,""viewing_time"":6088.5},{""page_index"":11,""viewing_time"":4540.5},{""page_index"":12,""viewing_time"":6660.400000095367},{""page_index"":13,""viewing_time"":6767.399999856949},{""page_index"":14,""viewing_time"":8025.900000095367},{""page_index"":15,""viewing_time"":6603.400000095367},{""page_index"":16,""viewing_time"":8237},{""page_index"":17,""viewing_time"":6880.699999809265}]","117859","","","","","","","","","","","","","","","","","","","","","","","",""
"pit-trial","20","314832","0.0-2.0-8.0-0.0","battery-v0.2","","""event"",""trial"",""time""
""blur"",""1"",""2402""
""focus"",""1"",""26182""
""fullscreenenter"",""1"",""26614""
","""event"",""trial"",""time""
""blur"",""1"",""2402""
","""event"",""trial"",""time""
""focus"",""1"",""26182""
","""event"",""trial"",""time""
""fullscreenenter"",""1"",""26614""
","
","","","402.2000000476837","","","19","10378","3880","&#9776;","elianto","#3366ff99"," "," ","1","+10","[1253.0999999046326]","1","0","1","","","","","","","",""
"pit-trial","21","318119","0.0-2.0-8.0-1.0","battery-v0.2","","""event"",""trial"",""time""
""blur"",""1"",""2402""
""focus"",""1"",""26182""
""fullscreenenter"",""1"",""26614""
","""event"",""trial"",""time""
""blur"",""1"",""2402""
","""event"",""trial"",""time""
""focus"",""1"",""26182""
","""event"",""trial"",""time""
""fullscreenenter"",""1"",""26614""
","
","","","424.7999999523163","","","19","10378","3880","&#9776;","elianto","#3366ff99"," "," ","1","+10","[1276.2000000476837]","1","0","1","","","","","","","",""
"pit-trial","22","321349","0.0-2.0-8.0-2.0","battery-v0.2","","""event"",""trial"",""time""
""blur"",""1"",""2402""
""focus"",""1"",""26182""
""fullscreenenter"",""1"",""26614""
","""event"",""trial"",""time""
""blur"",""1"",""2402""
","""event"",""trial"",""time""
""focus"",""1"",""26182""
","""event"",""trial"",""time""
""fullscreenenter"",""1"",""26614""
","
","","","367.89999985694885","","","19","10378","3880","&#9776;","elianto","#3366ff99"," "," ","1","+10","[1218.5]","1","0","1","","","","","","","",""
"pit-trial","23","324595","0.0-2.0-8.0-3.0","battery-v0.2","","""event"",""trial"",""time""
""blur"",""1"",""2402""
""focus"",""1"",""26182""
""fullscreenenter"",""1"",""26614""
","""event"",""trial"",""time""
""blur"",""1"",""2402""
","""event"",""trial"",""time""
""focus"",""1"",""26182""
","""event"",""trial"",""time""
""fullscreenenter"",""1"",""26614""
","
","","","384.5","","","19","10378","3880","&#9776;","elianto","#3366ff99"," "," ","1","0","[1235.4000000953674]","1","0","1","","","","","","","",""
"pit-trial","24","327767","0.0-2.0-8.0-4.0","battery-v0.2","","""event"",""trial"",""time""
""blur"",""1"",""2402""
""focus"",""1"",""26182""
""fullscreenenter"",""1"",""26614""
","""event"",""trial"",""time""
""blur"",""1"",""2402""
","""event"",""trial"",""time""
""focus"",""1"",""26182""
","""event"",""trial"",""time""
""fullscreenenter"",""1"",""26614""
","
","","","308","","","19","10378","3880","&#9776;","elianto","#3366ff99"," "," ","1","+10","[1158.2000000476837]","1","0","1","","","","","","","",""
"pit-trial","25","330792","0.0-2.0-8.1-0.1","battery-v0.2","","""event"",""trial"",""time""
""blur"",""1"",""2402""
""focus"",""1"",""26182""
""fullscreenenter"",""1"",""26614""
","""event"",""trial"",""time""
""blur"",""1"",""2402""
","""event"",""trial"",""time""
""focus"",""1"",""26182""
","""event"",""trial"",""time""
""fullscreenenter"",""1"",""26614""
","
","","","167.10000014305115","","","19","10378","3880","&#9776;","elianto","#3366ff99"," "," ","1","+10","[1018.2999999523163]","1","0","1","","","","","","","",""
"pit-trial","26","334177","0.0-2.0-8.1-1.1","battery-v0.2","","""event"",""trial"",""time""
""blur"",""1"",""2402""
""focus"",""1"",""26182""
""fullscreenenter"",""1"",""26614""
","""event"",""trial"",""time""
""blur"",""1"",""2402""
","""event"",""trial"",""time""
""focus"",""1"",""26182""
","""event"",""trial"",""time""
""fullscreenenter"",""1"",""26614""
","
","","","523.1000001430511","","","19","10378","3880","&#9776;","elianto","#3366ff99"," "," ","1","+10","[1374.2999999523163]","1","0","1","","","","","","","",""
"pit-trial","27","337412","0.0-2.0-8.1-2.1","battery-v0.2","","""event"",""trial"",""time""
""blur"",""1"",""2402""
""focus"",""1"",""26182""
""fullscreenenter"",""1"",""26614""
","""event"",""trial"",""time""
""blur"",""1"",""2402""
","""event"",""trial"",""time""
""focus"",""1"",""26182""
","""event"",""trial"",""time""
""fullscreenenter"",""1"",""26614""
","
","","","374.19999980926514","","","19","10378","3880","&#9776;","elianto","#3366ff99"," "," ","1","+10","[1225.5]","1","0","1","","","","","","","",""
"pit-trial","28","340700","0.0-2.0-8.1-3.1","battery-v0.2","","""event"",""trial"",""time""
""blur"",""1"",""2402""
""focus"",""1"",""26182""
""fullscreenenter"",""1"",""26614""
","""event"",""trial"",""time""
""blur"",""1"",""2402""
","""event"",""trial"",""time""
""focus"",""1"",""26182""
","""event"",""trial"",""time""
""fullscreenenter"",""1"",""26614""
","
","","","427.2000000476837","","","19","10378","3880","&#9776;","elianto","#3366ff99"," "," ","1","0","[1277.4000000953674]","1","0","1","","","","","","","",""
"pit-trial","29","343720","0.0-2.0-8.1-4.1","battery-v0.2","","""event"",""trial"",""time""
""blur"",""1"",""2402""
""focus"",""1"",""26182""
""fullscreenenter"",""1"",""26614""
","""event"",""trial"",""time""
""blur"",""1"",""2402""
","""event"",""trial"",""time""
""focus"",""1"",""26182""
","""event"",""trial"",""time""
""fullscreenenter"",""1"",""26614""
","
","","","164.90000009536743","","","19","10378","3880","&#9776;","elianto","#3366ff99"," "," ","1","+10","[1014.8999998569489]","1","0","1","","","","","","","",""
"pit-trial","30","346890","0.0-2.0-8.2-0.2","battery-v0.2","","""event"",""trial"",""time""
""blur"",""1"",""2402""
""focus"",""1"",""26182""
""fullscreenenter"",""1"",""26614""
","""event"",""trial"",""time""
""blur"",""1"",""2402""
","""event"",""trial"",""time""
""focus"",""1"",""26182""
","""event"",""trial"",""time""
""fullscreenenter"",""1"",""26614""
","
","","","316.2999999523163","","","19","10378","3880","&#9776;","elianto","#3366ff99"," "," ","1","+10","[1166.3999998569489]","1","0","1","","","","","","","",""
"pit-trial","31","349883","0.0-2.0-8.2-1.2","battery-v0.2","","""event"",""trial"",""time""
""blur"",""1"",""2402""
""focus"",""1"",""26182""
""fullscreenenter"",""1"",""26614""
","""event"",""trial"",""time""
""blur"",""1"",""2402""
","""event"",""trial"",""time""
""focus"",""1"",""26182""
","""event"",""trial"",""time""
""fullscreenenter"",""1"",""26614""
","
","","","137.29999995231628","","","19","10378","3880","&#9776;","elianto","#3366ff99"," "," ","1","+10","[989]","1","0","1","","","","","","","",""
"pit-trial","32","352932","0.0-2.0-8.2-2.2","battery-v0.2","","""event"",""trial"",""time""
""blur"",""1"",""2402""
""focus"",""1"",""26182""
""fullscreenenter"",""1"",""26614""
","""event"",""trial"",""time""
""blur"",""1"",""2402""
","""event"",""trial"",""time""
""focus"",""1"",""26182""
","""event"",""trial"",""time""
""fullscreenenter"",""1"",""26614""
","
","","","189.79999995231628","","","19","10378","3880","&#9776;","elianto","#3366ff99"," "," ","1","+10","[1039.9000000953674]","1","0","1","","","","","","","",""
"pit-trial","33","356091","0.0-2.0-8.2-3.2","battery-v0.2","","""event"",""trial"",""time""
""blur"",""1"",""2402""
""focus"",""1"",""26182""
""fullscreenenter"",""1"",""26614""
","""event"",""trial"",""time""
""blur"",""1"",""2402""
","""event"",""trial"",""time""
""focus"",""1"",""26182""
","""event"",""trial"",""time""
""fullscreenenter"",""1"",""26614""
","
","","","302.2000000476837","","","19","10378","3880","&#9776;","elianto","#3366ff99"," "," ","1","0","[1153]","1","0","1","","","","","","","",""
"pit-trial","34","359393","0.0-2.0-8.2-4.2","battery-v0.2","","""event"",""trial"",""time""
""blur"",""1"",""2402""
""focus"",""1"",""26182""
""fullscreenenter"",""1"",""26614""
","""event"",""trial"",""time""
""blur"",""1"",""2402""
","""event"",""trial"",""time""
""focus"",""1"",""26182""
","""event"",""trial"",""time""
""fullscreenenter"",""1"",""26614""
","
","","","444.5","","","19","10378","3880","&#9776;","elianto","#3366ff99"," "," ","1","+10","[1295]","1","0","1","","","","","","","",""
"call-function","35","359395","0.0-2.0-9.0","battery-v0.2","","""event"",""trial"",""time""
""blur"",""1"",""2402""
""focus"",""1"",""26182""
""fullscreenenter"",""1"",""26614""
","""event"",""trial"",""time""
""blur"",""1"",""2402""
","""event"",""trial"",""time""
""focus"",""1"",""26182""
","""event"",""trial"",""time""
""fullscreenenter"",""1"",""26614""
","
","","","","","","","","","","","","","","","","","","","","","","","","","","",""
"pit-instructions","36","398787","0.0-2.0-10.0","battery-v0.2","","""event"",""trial"",""time""
""blur"",""1"",""2402""
""focus"",""1"",""26182""
""fullscreenenter"",""1"",""26614""
","""event"",""trial"",""time""
""blur"",""1"",""2402""
","""event"",""trial"",""time""
""focus"",""1"",""26182""
","""event"",""trial"",""time""
""fullscreenenter"",""1"",""26614""
","
","","[{""page_index"":0,""viewing_time"":5591.200000047684},{""page_index"":1,""viewing_time"":7881.5},{""page_index"":2,""viewing_time"":9347.099999904633},{""page_index"":3,""viewing_time"":8774.800000190735},{""page_index"":4,""viewing_time"":7796.299999952316}]","39391.299999952316","","","","","","","","","","","","","","","","","","","","","","","",""
"pit-trial","37","402014","0.0-2.0-11.0-0.0","battery-v0.2","","""event"",""trial"",""time""
""blur"",""1"",""2402""
""focus"",""1"",""26182""
""fullscreenenter"",""1"",""26614""
","""event"",""trial"",""time""
""blur"",""1"",""2402""
","""event"",""trial"",""time""
""focus"",""1"",""26182""
","""event"",""trial"",""time""
""fullscreenenter"",""1"",""26614""
","
","","","368.7000000476837","","","19","10378","3880","&#9761;","elianto","#3366ff99","-1"," ","0","0","[1219.8999998569489]","1","0","2","","","","","","","",""
"pit-trial","38","405233","0.0-2.0-11.0-1.0","battery-v0.2","","""event"",""trial"",""time""
""blur"",""1"",""2402""
""focus"",""1"",""26182""
""fullscreenenter"",""1"",""26614""
","""event"",""trial"",""time""
""blur"",""1"",""2402""
","""event"",""trial"",""time""
""focus"",""1"",""26182""
","""event"",""trial"",""time""
""fullscreenenter"",""1"",""26614""
","
","","","359.89999985694885","","","19","10378","3880","&#9761;","elianto","#3366ff99","-1"," ","0","0","[1212]","1","0","2","","","","","","","",""
"pit-trial","39","408332","0.0-2.0-11.0-2.0","battery-v0.2","","""event"",""trial"",""time""
""blur"",""1"",""2402""
""focus"",""1"",""26182""
""fullscreenenter"",""1"",""26614""
","""event"",""trial"",""time""
""blur"",""1"",""2402""
","""event"",""trial"",""time""
""focus"",""1"",""26182""
","""event"",""trial"",""time""
""fullscreenenter"",""1"",""26614""
","
","","","239.09999990463257","","","19","10378","3880","&#9761;","elianto","#3366ff99","-1"," ","0","0","[1091.2999999523163]","1","0","2","","","","","","","",""
"pit-trial","40","413202","0.0-2.0-11.0-3.0","battery-v0.2","","""event"",""trial"",""time""
""blur"",""1"",""2402""
""focus"",""1"",""26182""
""fullscreenenter"",""1"",""26614""
","""event"",""trial"",""time""
""blur"",""1"",""2402""
","""event"",""trial"",""time""
""focus"",""1"",""26182""
","""event"",""trial"",""time""
""fullscreenenter"",""1"",""26614""
","
","","","-1","","","19","10378","3880","&#9761;","elianto","#3366ff99","-1","-1","1","0","[]","0","0","2","","","","","","","",""
"pit-trial","41","418062","0.0-2.0-11.0-4.0","battery-v0.2","","""event"",""trial"",""time""
""blur"",""1"",""2402""
""focus"",""1"",""26182""
""fullscreenenter"",""1"",""26614""
","""event"",""trial"",""time""
""blur"",""1"",""2402""
","""event"",""trial"",""time""
""focus"",""1"",""26182""
","""event"",""trial"",""time""
""fullscreenenter"",""1"",""26614""
","
","","","-1","","","19","10378","3880","&#9761;","elianto","#3366ff99","-1","-1","1","+10","[]","0","0","2","","","","","","","",""
"pit-trial","42","422927","0.0-2.0-11.1-0.1","battery-v0.2","","""event"",""trial"",""time""
""blur"",""1"",""2402""
""focus"",""1"",""26182""
""fullscreenenter"",""1"",""26614""
","""event"",""trial"",""time""
""blur"",""1"",""2402""
","""event"",""trial"",""time""
""focus"",""1"",""26182""
","""event"",""trial"",""time""
""fullscreenenter"",""1"",""26614""
","
","","","-1","","","19","10378","3880","&#9761;","elianto","#3366ff99","-1","-1","1","+10","[]","0","0","2","","","","","","","",""
"pit-trial","43","426217","0.0-2.0-11.1-1.1","battery-v0.2","","""event"",""trial"",""time""
""blur"",""1"",""2402""
""focus"",""1"",""26182""
""fullscreenenter"",""1"",""26614""
","""event"",""trial"",""time""
""blur"",""1"",""2402""
","""event"",""trial"",""time""
""focus"",""1"",""26182""
","""event"",""trial"",""time""
""fullscreenenter"",""1"",""26614""
","
","","","429","","","19","10378","3880","&#9761;","elianto","#3366ff99","-1"," ","0","0","[1280.2999999523163]","1","0","2","","","","","","","",""
"pit-trial","44","429179","0.0-2.0-11.1-2.1","battery-v0.2","","""event"",""trial"",""time""
""blur"",""1"",""2402""
""focus"",""1"",""26182""
""fullscreenenter"",""1"",""26614""
","""event"",""trial"",""time""
""blur"",""1"",""2402""
","""event"",""trial"",""time""
""focus"",""1"",""26182""
","""event"",""trial"",""time""
""fullscreenenter"",""1"",""26614""
","
","","","99.89999985694885","","","19","10378","3880","&#9761;","elianto","#3366ff99","-1"," ","0","0","[951.2000000476837]","1","0","2","","","","","","","",""
"pit-trial","45","432519","0.0-2.0-11.1-3.1","battery-v0.2","","""event"",""trial"",""time""
""blur"",""1"",""2402""
""focus"",""1"",""26182""
""fullscreenenter"",""1"",""26614""
","""event"",""trial"",""time""
""blur"",""1"",""2402""
","""event"",""trial"",""time""
""focus"",""1"",""26182""
","""event"",""trial"",""time""
""fullscreenenter"",""1"",""26614""
","
","","","478.7999999523163","","","19","10378","3880","&#9761;","elianto","#3366ff99","-1"," ","0","+10","[1329.8999998569489]","1","0","2","","","","","","","",""
"pit-trial","46","435765","0.0-2.0-11.1-4.1","battery-v0.2","","""event"",""trial"",""time""
""blur"",""1"",""2402""
""focus"",""1"",""26182""
""fullscreenenter"",""1"",""26614""
","""event"",""trial"",""time""
""blur"",""1"",""2402""
","""event"",""trial"",""time""
""focus"",""1"",""26182""
","""event"",""trial"",""time""
""fullscreenenter"",""1"",""26614""
","
","","","387.5","","","19","10378","3880","&#9761;","elianto","#3366ff99","-1"," ","0","0","[1238.5]","1","0","2","","","","","","","",""
"pit-trial","47","438810","0.0-2.0-11.2-0.2","battery-v0.2","","""event"",""trial"",""time""
""blur"",""1"",""2402""
""focus"",""1"",""26182""
""fullscreenenter"",""1"",""26614""
","""event"",""trial"",""time""
""blur"",""1"",""2402""
","""event"",""trial"",""time""
""focus"",""1"",""26182""
","""event"",""trial"",""time""
""fullscreenenter"",""1"",""26614""
","
","","","185.30000019073486","","","19","10378","3880","&#9761;","elianto","#3366ff99","-1"," ","0","0","[1036.8000001907349]","1","0","2","","","","","","","",""
"pit-trial","48","442008","0.0-2.0-11.2-1.2","battery-v0.2","","""event"",""trial"",""time""
""blur"",""1"",""2402""
""focus"",""1"",""26182""
""fullscreenenter"",""1"",""26614""
","""event"",""trial"",""time""
""blur"",""1"",""2402""
","""event"",""trial"",""time""
""focus"",""1"",""26182""
","""event"",""trial"",""time""
""fullscreenenter"",""1"",""26614""
","
","","","339.5","","","19","10378","3880","&#9761;","elianto","#3366ff99","-1"," ","0","0","[1191.2000000476837]","1","0","2","","","","","","","",""
"pit-trial","49","445123","0.0-2.0-11.2-2.2","battery-v0.2","","""event"",""trial"",""time""
""blur"",""1"",""2402""
""focus"",""1"",""26182""
""fullscreenenter"",""1"",""26614""
","""event"",""trial"",""time""
""blur"",""1"",""2402""
","""event"",""trial"",""time""
""focus"",""1"",""26182""
","""event"",""trial"",""time""
""fullscreenenter"",""1"",""26614""
","
","","","253.20000004768372","","","19","10378","3880","&#9761;","elianto","#3366ff99","-1"," ","0","0","[1103.7999999523163]","1","0","2","","","","","","","",""
"pit-trial","50","448506","0.0-2.0-11.2-3.2","battery-v0.2","","""event"",""trial"",""time""
""blur"",""1"",""2402""
""focus"",""1"",""26182""
""fullscreenenter"",""1"",""26614""
","""event"",""trial"",""time""
""blur"",""1"",""2402""
","""event"",""trial"",""time""
""focus"",""1"",""26182""
","""event"",""trial"",""time""
""fullscreenenter"",""1"",""26614""
","
","","","523.7000000476837","","","19","10378","3880","&#9761;","elianto","#3366ff99","-1"," ","0","+10","[1374]","1","0","2","","","","","","","",""
"pit-trial","51","451555","0.0-2.0-11.2-4.2","battery-v0.2","","""event"",""trial"",""time""
""blur"",""1"",""2402""
""focus"",""1"",""26182""
""fullscreenenter"",""1"",""26614""
","""event"",""trial"",""time""
""blur"",""1"",""2402""
","""event"",""trial"",""time""
""focus"",""1"",""26182""
","""event"",""trial"",""time""
""fullscreenenter"",""1"",""26614""
","
","","","188.29999995231628","","","19","10378","3880","&#9761;","elianto","#3366ff99","-1"," ","0","0","[1039.5]","1","0","2","","","","","","","",""
"pit-trial","52","454764","0.0-2.0-11.3-0.3","battery-v0.2","","""event"",""trial"",""time""
""blur"",""1"",""2402""
""focus"",""1"",""26182""
""fullscreenenter"",""1"",""26614""
","""event"",""trial"",""time""
""blur"",""1"",""2402""
","""event"",""trial"",""time""
""focus"",""1"",""26182""
","""event"",""trial"",""time""
""fullscreenenter"",""1"",""26614""
","
","","","346.90000009536743","","","19","10378","3880","&#9761;","elianto","#3366ff99","-1"," ","0","0","[1197.5]","1","0","2","","","","","","","",""
"pit-trial","53","458030","0.0-2.0-11.3-1.3","battery-v0.2","","""event"",""trial"",""time""
""blur"",""1"",""2402""
""focus"",""1"",""26182""
""fullscreenenter"",""1"",""26614""
","""event"",""trial"",""time""
""blur"",""1"",""2402""
","""event"",""trial"",""time""
""focus"",""1"",""26182""
","""event"",""trial"",""time""
""fullscreenenter"",""1"",""26614""
","
","","","404.7000000476837","","","19","10378","3880","&#9761;","elianto","#3366ff99","-1"," ","0","0","[1255.5]","1","0","2","","","","","","","",""
"pit-trial","54","461236","0.0-2.0-11.3-2.3","battery-v0.2","","""event"",""trial"",""time""
""blur"",""1"",""2402""
""focus"",""1"",""26182""
""fullscreenenter"",""1"",""26614""
","""event"",""trial"",""time""
""blur"",""1"",""2402""
","""event"",""trial"",""time""
""focus"",""1"",""26182""
","""event"",""trial"",""time""
""fullscreenenter"",""1"",""26614""
","
","","","344.40000009536743","","","19","10378","3880","&#9761;","elianto","#3366ff99","-1"," ","0","0","[1195.2999999523163]","1","0","2","","","","","","","",""
"pit-trial","55","464360","0.0-2.0-11.3-3.3","battery-v0.2","","""event"",""trial"",""time""
""blur"",""1"",""2402""
""focus"",""1"",""26182""
""fullscreenenter"",""1"",""26614""
","""event"",""trial"",""time""
""blur"",""1"",""2402""
","""event"",""trial"",""time""
""focus"",""1"",""26182""
","""event"",""trial"",""time""
""fullscreenenter"",""1"",""26614""
","
","","","264.10000014305115","","","19","10378","3880","&#9761;","elianto","#3366ff99","-1"," ","0","+10","[1114.6999998092651]","1","0","2","","","","","","","",""
"pit-trial","56","467632","0.0-2.0-11.3-4.3","battery-v0.2","","""event"",""trial"",""time""
""blur"",""1"",""2402""
""focus"",""1"",""26182""
""fullscreenenter"",""1"",""26614""
","""event"",""trial"",""time""
""blur"",""1"",""2402""
","""event"",""trial"",""time""
""focus"",""1"",""26182""
","""event"",""trial"",""time""
""fullscreenenter"",""1"",""26614""
","
","","","412.19999980926514","","","19","10378","3880","&#9761;","elianto","#3366ff99","-1"," ","0","0","[1262.3999998569489]","1","0","2","","","","","","","",""
"call-function","57","467635","0.0-2.0-12.0","battery-v0.2","","""event"",""trial"",""time""
""blur"",""1"",""2402""
""focus"",""1"",""26182""
""fullscreenenter"",""1"",""26614""
","""event"",""trial"",""time""
""blur"",""1"",""2402""
","""event"",""trial"",""time""
""focus"",""1"",""26182""
","""event"",""trial"",""time""
""fullscreenenter"",""1"",""26614""
","
","","","","","","","","","","","","","","","","","","","","","","","","","","",""
"pit-instructions","58","501980","0.0-2.0-13.0","battery-v0.2","","""event"",""trial"",""time""
""blur"",""1"",""2402""
""focus"",""1"",""26182""
""fullscreenenter"",""1"",""26614""
","""event"",""trial"",""time""
""blur"",""1"",""2402""
","""event"",""trial"",""time""
""focus"",""1"",""26182""
","""event"",""trial"",""time""
""fullscreenenter"",""1"",""26614""
","
","","[{""page_index"":0,""viewing_time"":4859.599999904633},{""page_index"":1,""viewing_time"":6935.799999952316},{""page_index"":2,""viewing_time"":4096.200000047684},{""page_index"":3,""viewing_time"":13382.400000095367},{""page_index"":4,""viewing_time"":5069.199999809265}]","34344.09999990463","","","","","","","","","","","","","","","","","","","","","","","",""
"pit-trial","59","506838","0.0-2.0-14.0-0.0","battery-v0.2","","""event"",""trial"",""time""
""blur"",""1"",""2402""
""focus"",""1"",""26182""
""fullscreenenter"",""1"",""26614""
","""event"",""trial"",""time""
""blur"",""1"",""2402""
","""event"",""trial"",""time""
""focus"",""1"",""26182""
","""event"",""trial"",""time""
""fullscreenenter"",""1"",""26614""
","
","","","-1","","","19","10378","3880","&#9826;","elianto","#f73b6a7A","-1","-1","1","0","[]","0","0","3","","","","","","","",""
"pit-trial","60","511702","0.0-2.0-14.0-1.0","battery-v0.2","","""event"",""trial"",""time""
""blur"",""1"",""2402""
""focus"",""1"",""26182""
""fullscreenenter"",""1"",""26614""
","""event"",""trial"",""time""
""blur"",""1"",""2402""
","""event"",""trial"",""time""
""focus"",""1"",""26182""
","""event"",""trial"",""time""
""fullscreenenter"",""1"",""26614""
","
","","","-1","","","19","10378","3880","&#9826;","elianto","#f73b6a7A","-1","-1","1","0","[]","0","0","3","","","","","","","",""
"pit-trial","61","516565","0.0-2.0-14.0-2.0","battery-v0.2","","""event"",""trial"",""time""
""blur"",""1"",""2402""
""focus"",""1"",""26182""
""fullscreenenter"",""1"",""26614""
","""event"",""trial"",""time""
""blur"",""1"",""2402""
","""event"",""trial"",""time""
""focus"",""1"",""26182""
","""event"",""trial"",""time""
""fullscreenenter"",""1"",""26614""
","
","","","-1","","","19","10378","3880","&#9826;","elianto","#f73b6a7A","-1","-1","1","0","[]","0","0","3","","","","","","","",""
"pit-trial","62","521430","0.0-2.0-14.0-3.0","battery-v0.2","","""event"",""trial"",""time""
""blur"",""1"",""2402""
""focus"",""1"",""26182""
""fullscreenenter"",""1"",""26614""
","""event"",""trial"",""time""
""blur"",""1"",""2402""
","""event"",""trial"",""time""
""focus"",""1"",""26182""
","""event"",""trial"",""time""
""fullscreenenter"",""1"",""26614""
","
","","","-1","","","19","10378","3880","&#9826;","elianto","#f73b6a7A","-1","-1","1","-10","[]","0","0","3","","","","","","","",""
"pit-trial","63","526297","0.0-2.0-14.0-4.0","battery-v0.2","","""event"",""trial"",""time""
""blur"",""1"",""2402""
""focus"",""1"",""26182""
""fullscreenenter"",""1"",""26614""
","""event"",""trial"",""time""
""blur"",""1"",""2402""
","""event"",""trial"",""time""
""focus"",""1"",""26182""
","""event"",""trial"",""time""
""fullscreenenter"",""1"",""26614""
","
","","","-1","","","19","10378","3880","&#9826;","elianto","#f73b6a7A","-1","-1","1","0","[]","0","0","3","","","","","","","",""
"pit-trial","64","531159","0.0-2.0-14.1-0.1","battery-v0.2","","""event"",""trial"",""time""
""blur"",""1"",""2402""
""focus"",""1"",""26182""
""fullscreenenter"",""1"",""26614""
","""event"",""trial"",""time""
""blur"",""1"",""2402""
","""event"",""trial"",""time""
""focus"",""1"",""26182""
","""event"",""trial"",""time""
""fullscreenenter"",""1"",""26614""
","
","","","-1","","","19","10378","3880","&#9826;","elianto","#f73b6a7A","-1","-1","1","0","[]","0","0","3","","","","","","","",""
"pit-trial","65","536020","0.0-2.0-14.1-1.1","battery-v0.2","","""event"",""trial"",""time""
""blur"",""1"",""2402""
""focus"",""1"",""26182""
""fullscreenenter"",""1"",""26614""
","""event"",""trial"",""time""
""blur"",""1"",""2402""
","""event"",""trial"",""time""
""focus"",""1"",""26182""
","""event"",""trial"",""time""
""fullscreenenter"",""1"",""26614""
","
","","","-1","","","19","10378","3880","&#9826;","elianto","#f73b6a7A","-1","-1","1","0","[]","0","0","3","","","","","","","",""
"pit-trial","66","540882","0.0-2.0-14.1-2.1","battery-v0.2","","""event"",""trial"",""time""
""blur"",""1"",""2402""
""focus"",""1"",""26182""
""fullscreenenter"",""1"",""26614""
","""event"",""trial"",""time""
""blur"",""1"",""2402""
","""event"",""trial"",""time""
""focus"",""1"",""26182""
","""event"",""trial"",""time""
""fullscreenenter"",""1"",""26614""
","
","","","-1","","","19","10378","3880","&#9826;","elianto","#f73b6a7A","-1","-1","1","0","[]","0","0","3","","","","","","","",""
"pit-trial","67","545747","0.0-2.0-14.1-3.1","battery-v0.2","","""event"",""trial"",""time""
""blur"",""1"",""2402""
""focus"",""1"",""26182""
""fullscreenenter"",""1"",""26614""
","""event"",""trial"",""time""
""blur"",""1"",""2402""
","""event"",""trial"",""time""
""focus"",""1"",""26182""
","""event"",""trial"",""time""
""fullscreenenter"",""1"",""26614""
","
","","","-1","","","19","10378","3880","&#9826;","elianto","#f73b6a7A","-1","-1","1","-10","[]","0","0","3","","","","","","","",""
"pit-trial","68","550613","0.0-2.0-14.1-4.1","battery-v0.2","","""event"",""trial"",""time""
""blur"",""1"",""2402""
""focus"",""1"",""26182""
""fullscreenenter"",""1"",""26614""
","""event"",""trial"",""time""
""blur"",""1"",""2402""
","""event"",""trial"",""time""
""focus"",""1"",""26182""
","""event"",""trial"",""time""
""fullscreenenter"",""1"",""26614""
","
","","","-1","","","19","10378","3880","&#9826;","elianto","#f73b6a7A","-1","-1","1","0","[]","0","0","3","","","","","","","",""
"pit-trial","69","555479","0.0-2.0-14.2-0.2","battery-v0.2","","""event"",""trial"",""time""
""blur"",""1"",""2402""
""focus"",""1"",""26182""
""fullscreenenter"",""1"",""26614""
","""event"",""trial"",""time""
""blur"",""1"",""2402""
","""event"",""trial"",""time""
""focus"",""1"",""26182""
","""event"",""trial"",""time""
""fullscreenenter"",""1"",""26614""
","
","","","-1","","","19","10378","3880","&#9826;","elianto","#f73b6a7A","-1","-1","1","0","[]","0","0","3","","","","","","","",""
"pit-trial","70","560339","0.0-2.0-14.2-1.2","battery-v0.2","","""event"",""trial"",""time""
""blur"",""1"",""2402""
""focus"",""1"",""26182""
""fullscreenenter"",""1"",""26614""
","""event"",""trial"",""time""
""blur"",""1"",""2402""
","""event"",""trial"",""time""
""focus"",""1"",""26182""
","""event"",""trial"",""time""
""fullscreenenter"",""1"",""26614""
","
","","","-1","","","19","10378","3880","&#9826;","elianto","#f73b6a7A","-1","-1","1","0","[]","0","0","3","","","","","","","",""
"pit-trial","71","565202","0.0-2.0-14.2-2.2","battery-v0.2","","""event"",""trial"",""time""
""blur"",""1"",""2402""
""focus"",""1"",""26182""
""fullscreenenter"",""1"",""26614""
","""event"",""trial"",""time""
""blur"",""1"",""2402""
","""event"",""trial"",""time""
""focus"",""1"",""26182""
","""event"",""trial"",""time""
""fullscreenenter"",""1"",""26614""
","
","","","-1","","","19","10378","3880","&#9826;","elianto","#f73b6a7A","-1","-1","1","0","[]","0","0","3","","","","","","","",""
"pit-trial","72","570064","0.0-2.0-14.2-3.2","battery-v0.2","","""event"",""trial"",""time""
""blur"",""1"",""2402""
""focus"",""1"",""26182""
""fullscreenenter"",""1"",""26614""
","""event"",""trial"",""time""
""blur"",""1"",""2402""
","""event"",""trial"",""time""
""focus"",""1"",""26182""
","""event"",""trial"",""time""
""fullscreenenter"",""1"",""26614""
","
","","","-1","","","19","10378","3880","&#9826;","elianto","#f73b6a7A","-1","-1","1","-10","[]","0","0","3","","","","","","","",""
"pit-trial","73","574928","0.0-2.0-14.2-4.2","battery-v0.2","","""event"",""trial"",""time""
""blur"",""1"",""2402""
""focus"",""1"",""26182""
""fullscreenenter"",""1"",""26614""
","""event"",""trial"",""time""
""blur"",""1"",""2402""
","""event"",""trial"",""time""
""focus"",""1"",""26182""
","""event"",""trial"",""time""
""fullscreenenter"",""1"",""26614""
","
","","","-1","","","19","10378","3880","&#9826;","elianto","#f73b6a7A","-1","-1","1","0","[]","0","0","3","","","","","","","",""
"pit-trial","74","579793","0.0-2.0-14.3-0.3","battery-v0.2","","""event"",""trial"",""time""
""blur"",""1"",""2402""
""focus"",""1"",""26182""
""fullscreenenter"",""1"",""26614""
","""event"",""trial"",""time""
""blur"",""1"",""2402""
","""event"",""trial"",""time""
""focus"",""1"",""26182""
","""event"",""trial"",""time""
""fullscreenenter"",""1"",""26614""
","
","","","-1","","","19","10378","3880","&#9826;","elianto","#f73b6a7A","-1","-1","1","0","[]","0","0","3","","","","","","","",""
"pit-trial","75","584659","0.0-2.0-14.3-1.3","battery-v0.2","","""event"",""trial"",""time""
""blur"",""1"",""2402""
""focus"",""1"",""26182""
""fullscreenenter"",""1"",""26614""
","""event"",""trial"",""time""
""blur"",""1"",""2402""
","""event"",""trial"",""time""
""focus"",""1"",""26182""
","""event"",""trial"",""time""
""fullscreenenter"",""1"",""26614""
","
","","","-1","","","19","10378","3880","&#9826;","elianto","#f73b6a7A","-1","-1","1","0","[]","0","0","3","","","","","","","",""
"pit-trial","76","589522","0.0-2.0-14.3-2.3","battery-v0.2","","""event"",""trial"",""time""
""blur"",""1"",""2402""
""focus"",""1"",""26182""
""fullscreenenter"",""1"",""26614""
","""event"",""trial"",""time""
""blur"",""1"",""2402""
","""event"",""trial"",""time""
""focus"",""1"",""26182""
","""event"",""trial"",""time""
""fullscreenenter"",""1"",""26614""
","
","","","-1","","","19","10378","3880","&#9826;","elianto","#f73b6a7A","-1","-1","1","0","[]","0","0","3","","","","","","","",""
"pit-trial","77","594386","0.0-2.0-14.3-3.3","battery-v0.2","","""event"",""trial"",""time""
""blur"",""1"",""2402""
""focus"",""1"",""26182""
""fullscreenenter"",""1"",""26614""
","""event"",""trial"",""time""
""blur"",""1"",""2402""
","""event"",""trial"",""time""
""focus"",""1"",""26182""
","""event"",""trial"",""time""
""fullscreenenter"",""1"",""26614""
","
","","","-1","","","19","10378","3880","&#9826;","elianto","#f73b6a7A","-1","-1","1","-10","[]","0","0","3","","","","","","","",""
"pit-trial","78","597692","0.0-2.0-14.3-4.3","battery-v0.2","","""event"",""trial"",""time""
""blur"",""1"",""2402""
""focus"",""1"",""26182""
""fullscreenenter"",""1"",""26614""
","""event"",""trial"",""time""
""blur"",""1"",""2402""
","""event"",""trial"",""time""
""focus"",""1"",""26182""
","""event"",""trial"",""time""
""fullscreenenter"",""1"",""26614""
","
","","","444.2999999523163","","","19","10378","3880","&#9826;","elianto","#f73b6a7A","-1"," ","0","-10","[1294.7999999523163]","1","0","3","","","","","","","",""
"call-function","79","597695","0.0-2.0-15.0","battery-v0.2","","""event"",""trial"",""time""
""blur"",""1"",""2402""
""focus"",""1"",""26182""
""fullscreenenter"",""1"",""26614""
","""event"",""trial"",""time""
""blur"",""1"",""2402""
","""event"",""trial"",""time""
""focus"",""1"",""26182""
","""event"",""trial"",""time""
""fullscreenenter"",""1"",""26614""
","
","","","","","","","","","","","","","","","","","","","","","","","","","","",""
"pit-instructions","80","626502","0.0-2.0-16.0","battery-v0.2","","""event"",""trial"",""time""
""blur"",""1"",""2402""
""focus"",""1"",""26182""
""fullscreenenter"",""1"",""26614""
","""event"",""trial"",""time""
""blur"",""1"",""2402""
","""event"",""trial"",""time""
""focus"",""1"",""26182""
","""event"",""trial"",""time""
""fullscreenenter"",""1"",""26614""
","
","","[{""page_index"":0,""viewing_time"":7979.200000047684},{""page_index"":1,""viewing_time"":10608.5},{""page_index"":2,""viewing_time"":4791.400000095367},{""page_index"":3,""viewing_time"":5425.799999952316}]","28806","","","","","","","","","","","","","","","","","","","","","","","",""
"pit-trial","81","630064","0.0-2.0-17.0-0.0","battery-v0.2","","""event"",""trial"",""time""
""blur"",""1"",""2402""
""focus"",""1"",""26182""
""fullscreenenter"",""1"",""26614""
","""event"",""trial"",""time""
""blur"",""1"",""2402""
","""event"",""trial"",""time""
""focus"",""1"",""26182""
","""event"",""trial"",""time""
""fullscreenenter"",""1"",""26614""
","
","","","703.7000000476837","","","19","10378","3880","&#9789;","elianto","#f73b6a7A"," "," ","1","0","[1555.0999999046326]","1","0","4","","","","","","","",""
"pit-trial","82","634926","0.0-2.0-17.0-1.0","battery-v0.2","","""event"",""trial"",""time""
""blur"",""1"",""2402""
""focus"",""1"",""26182""
""fullscreenenter"",""1"",""26614""
","""event"",""trial"",""time""
""blur"",""1"",""2402""
","""event"",""trial"",""time""
""focus"",""1"",""26182""
","""event"",""trial"",""time""
""fullscreenenter"",""1"",""26614""
","
","","","-1","","","19","10378","3880","&#9789;","elianto","#f73b6a7A"," ","-1","0","-10","[]","0","0","4","","","","","","","",""
"pit-trial","83","639786","0.0-2.0-17.0-2.0","battery-v0.2","","""event"",""trial"",""time""
""blur"",""1"",""2402""
""focus"",""1"",""26182""
""fullscreenenter"",""1"",""26614""
","""event"",""trial"",""time""
""blur"",""1"",""2402""
","""event"",""trial"",""time""
""focus"",""1"",""26182""
","""event"",""trial"",""time""
""fullscreenenter"",""1"",""26614""
","
","","","-1","","","19","10378","3880","&#9789;","elianto","#f73b6a7A"," ","-1","0","-10","[]","0","0","4","","","","","","","",""
"pit-trial","84","644651","0.0-2.0-17.0-3.0","battery-v0.2","","""event"",""trial"",""time""
""blur"",""1"",""2402""
""focus"",""1"",""26182""
""fullscreenenter"",""1"",""26614""
","""event"",""trial"",""time""
""blur"",""1"",""2402""
","""event"",""trial"",""time""
""focus"",""1"",""26182""
","""event"",""trial"",""time""
""fullscreenenter"",""1"",""26614""
","
","","","-1","","","19","10378","3880","&#9789;","elianto","#f73b6a7A"," ","-1","0","0","[]","0","0","4","","","","","","","",""
"pit-trial","85","649514","0.0-2.0-17.0-4.0","battery-v0.2","","""event"",""trial"",""time""
""blur"",""1"",""2402""
""focus"",""1"",""26182""
""fullscreenenter"",""1"",""26614""
","""event"",""trial"",""time""
""blur"",""1"",""2402""
","""event"",""trial"",""time""
""focus"",""1"",""26182""
","""event"",""trial"",""time""
""fullscreenenter"",""1"",""26614""
","
","","","-1","","","19","10378","3880","&#9789;","elianto","#f73b6a7A"," ","-1","0","-10","[]","0","0","4","","","","","","","",""
"pit-trial","86","654376","0.0-2.0-17.1-0.1","battery-v0.2","","""event"",""trial"",""time""
""blur"",""1"",""2402""
""focus"",""1"",""26182""
""fullscreenenter"",""1"",""26614""
","""event"",""trial"",""time""
""blur"",""1"",""2402""
","""event"",""trial"",""time""
""focus"",""1"",""26182""
","""event"",""trial"",""time""
""fullscreenenter"",""1"",""26614""
","
","","","-1","","","19","10378","3880","&#9789;","elianto","#f73b6a7A"," ","-1","0","-10","[]","0","0","4","","","","","","","",""
"pit-trial","87","659238","0.0-2.0-17.1-1.1","battery-v0.2","","""event"",""trial"",""time""
""blur"",""1"",""2402""
""focus"",""1"",""26182""
""fullscreenenter"",""1"",""26614""
","""event"",""trial"",""time""
""blur"",""1"",""2402""
","""event"",""trial"",""time""
""focus"",""1"",""26182""
","""event"",""trial"",""time""
""fullscreenenter"",""1"",""26614""
","
","","","-1","","","19","10378","3880","&#9789;","elianto","#f73b6a7A"," ","-1","0","-10","[]","0","0","4","","","","","","","",""
"pit-trial","88","664101","0.0-2.0-17.1-2.1","battery-v0.2","","""event"",""trial"",""time""
""blur"",""1"",""2402""
""focus"",""1"",""26182""
""fullscreenenter"",""1"",""26614""
","""event"",""trial"",""time""
""blur"",""1"",""2402""
","""event"",""trial"",""time""
""focus"",""1"",""26182""
","""event"",""trial"",""time""
""fullscreenenter"",""1"",""26614""
","
","","","-1","","","19","10378","3880","&#9789;","elianto","#f73b6a7A"," ","-1","0","-10","[]","0","0","4","","","","","","","",""
"pit-trial","89","667039","0.0-2.0-17.1-3.1","battery-v0.2","","""event"",""trial"",""time""
""blur"",""1"",""2402""
""focus"",""1"",""26182""
""fullscreenenter"",""1"",""26614""
","""event"",""trial"",""time""
""blur"",""1"",""2402""
","""event"",""trial"",""time""
""focus"",""1"",""26182""
","""event"",""trial"",""time""
""fullscreenenter"",""1"",""26614""
","
","","","78.40000009536743","","","19","10378","3880","&#9789;","elianto","#f73b6a7A"," "," ","1","-10","[929.3000001907349]","1","0","4","","","","","","","",""
"pit-trial","90","669951","0.0-2.0-17.1-4.1","battery-v0.2","","""event"",""trial"",""time""
""blur"",""1"",""2402""
""focus"",""1"",""26182""
""fullscreenenter"",""1"",""26614""
","""event"",""trial"",""time""
""blur"",""1"",""2402""
","""event"",""trial"",""time""
""focus"",""1"",""26182""
","""event"",""trial"",""time""
""fullscreenenter"",""1"",""26614""
","
","","","50.10000014305115","","","19","10378","3880","&#9789;","elianto","#f73b6a7A"," "," ","1","0","[901.8000001907349]","1","0","4","","","","","","","",""
"pit-trial","91","674815","0.0-2.0-17.2-0.2","battery-v0.2","","""event"",""trial"",""time""
""blur"",""1"",""2402""
""focus"",""1"",""26182""
""fullscreenenter"",""1"",""26614""
","""event"",""trial"",""time""
""blur"",""1"",""2402""
","""event"",""trial"",""time""
""focus"",""1"",""26182""
","""event"",""trial"",""time""
""fullscreenenter"",""1"",""26614""
","
","","","-1","","","19","10378","3880","&#9789;","elianto","#f73b6a7A"," ","-1","0","-10","[]","0","0","4","","","","","","","",""
"pit-trial","92","679683","0.0-2.0-17.2-1.2","battery-v0.2","","""event"",""trial"",""time""
""blur"",""1"",""2402""
""focus"",""1"",""26182""
""fullscreenenter"",""1"",""26614""
","""event"",""trial"",""time""
""blur"",""1"",""2402""
","""event"",""trial"",""time""
""focus"",""1"",""26182""
","""event"",""trial"",""time""
""fullscreenenter"",""1"",""26614""
","
","","","-1","","","19","10378","3880","&#9789;","elianto","#f73b6a7A"," ","-1","0","-10","[]","0","0","4","","","","","","","",""
"pit-trial","93","684543","0.0-2.0-17.2-2.2","battery-v0.2","","""event"",""trial"",""time""
""blur"",""1"",""2402""
""focus"",""1"",""26182""
""fullscreenenter"",""1"",""26614""
","""event"",""trial"",""time""
""blur"",""1"",""2402""
","""event"",""trial"",""time""
""focus"",""1"",""26182""
","""event"",""trial"",""time""
""fullscreenenter"",""1"",""26614""
","
","","","-1","","","19","10378","3880","&#9789;","elianto","#f73b6a7A"," ","-1","0","-10","[]","0","0","4","","","","","","","",""
"pit-trial","94","689405","0.0-2.0-17.2-3.2","battery-v0.2","","""event"",""trial"",""time""
""blur"",""1"",""2402""
""focus"",""1"",""26182""
""fullscreenenter"",""1"",""26614""
","""event"",""trial"",""time""
""blur"",""1"",""2402""
","""event"",""trial"",""time""
""focus"",""1"",""26182""
","""event"",""trial"",""time""
""fullscreenenter"",""1"",""26614""
","
","","","-1","","","19","10378","3880","&#9789;","elianto","#f73b6a7A"," ","-1","0","0","[]","0","0","4","","","","","","","",""
"pit-trial","95","694263","0.0-2.0-17.2-4.2","battery-v0.2","","""event"",""trial"",""time""
""blur"",""1"",""2402""
""focus"",""1"",""26182""
""fullscreenenter"",""1"",""26614""
","""event"",""trial"",""time""
""blur"",""1"",""2402""
","""event"",""trial"",""time""
""focus"",""1"",""26182""
","""event"",""trial"",""time""
""fullscreenenter"",""1"",""26614""
","
","","","-1","","","19","10378","3880","&#9789;","elianto","#f73b6a7A"," ","-1","0","-10","[]","0","0","4","","","","","","","",""
"pit-trial","96","699129","0.0-2.0-17.3-0.3","battery-v0.2","","""event"",""trial"",""time""
""blur"",""1"",""2402""
""focus"",""1"",""26182""
""fullscreenenter"",""1"",""26614""
","""event"",""trial"",""time""
""blur"",""1"",""2402""
","""event"",""trial"",""time""
""focus"",""1"",""26182""
","""event"",""trial"",""time""
""fullscreenenter"",""1"",""26614""
","
","","","-1","","","19","10378","3880","&#9789;","elianto","#f73b6a7A"," ","-1","0","-10","[]","0","0","4","","","","","","","",""
"pit-trial","97","703995","0.0-2.0-17.3-1.3","battery-v0.2","","""event"",""trial"",""time""
""blur"",""1"",""2402""
""focus"",""1"",""26182""
""fullscreenenter"",""1"",""26614""
","""event"",""trial"",""time""
""blur"",""1"",""2402""
","""event"",""trial"",""time""
""focus"",""1"",""26182""
","""event"",""trial"",""time""
""fullscreenenter"",""1"",""26614""
","
","","","-1","","","19","10378","3880","&#9789;","elianto","#f73b6a7A"," ","-1","0","-10","[]","0","0","4","","","","","","","",""
"pit-trial","98","708858","0.0-2.0-17.3-2.3","battery-v0.2","","""event"",""trial"",""time""
""blur"",""1"",""2402""
""focus"",""1"",""26182""
""fullscreenenter"",""1"",""26614""
","""event"",""trial"",""time""
""blur"",""1"",""2402""
","""event"",""trial"",""time""
""focus"",""1"",""26182""
","""event"",""trial"",""time""
""fullscreenenter"",""1"",""26614""
","
","","","-1","","","19","10378","3880","&#9789;","elianto","#f73b6a7A"," ","-1","0","-10","[]","0","0","4","","","","","","","",""
"pit-trial","99","713724","0.0-2.0-17.3-3.3","battery-v0.2","","""event"",""trial"",""time""
""blur"",""1"",""2402""
""focus"",""1"",""26182""
""fullscreenenter"",""1"",""26614""
","""event"",""trial"",""time""
""blur"",""1"",""2402""
","""event"",""trial"",""time""
""focus"",""1"",""26182""
","""event"",""trial"",""time""
""fullscreenenter"",""1"",""26614""
","
","","","-1","","","19","10378","3880","&#9789;","elianto","#f73b6a7A"," ","-1","0","0","[]","0","0","4","","","","","","","",""
"pit-trial","100","718584","0.0-2.0-17.3-4.3","battery-v0.2","","""event"",""trial"",""time""
""blur"",""1"",""2402""
""focus"",""1"",""26182""
""fullscreenenter"",""1"",""26614""
","""event"",""trial"",""time""
""blur"",""1"",""2402""
","""event"",""trial"",""time""
""focus"",""1"",""26182""
","""event"",""trial"",""time""
""fullscreenenter"",""1"",""26614""
","
","","","-1","","","19","10378","3880","&#9789;","elianto","#f73b6a7A"," ","-1","0","-10","[]","0","0","4","","","","","","","",""
"call-function","101","718585","0.0-2.0-18.0","battery-v0.2","","""event"",""trial"",""time""
""blur"",""1"",""2402""
""focus"",""1"",""26182""
""fullscreenenter"",""1"",""26614""
","""event"",""trial"",""time""
""blur"",""1"",""2402""
","""event"",""trial"",""time""
""focus"",""1"",""26182""
","""event"",""trial"",""time""
""fullscreenenter"",""1"",""26614""
","
","","","","","","","","","","","","","","","","","","","","","","","","","","",""
"pit-instructions","102","808653","0.0-2.0-19.0","battery-v0.2","","""event"",""trial"",""time""
""blur"",""1"",""2402""
""focus"",""1"",""26182""
""fullscreenenter"",""1"",""26614""
","""event"",""trial"",""time""
""blur"",""1"",""2402""
","""event"",""trial"",""time""
""focus"",""1"",""26182""
","""event"",""trial"",""time""
""fullscreenenter"",""1"",""26614""
","
","","[{""page_index"":0,""viewing_time"":11100.600000143051},{""page_index"":1,""viewing_time"":8353.199999809265},{""page_index"":2,""viewing_time"":34190.10000014305},{""page_index"":3,""viewing_time"":6027.299999952316},{""page_index"":4,""viewing_time"":8186.700000047684},{""page_index"":5,""viewing_time"":8365.5},{""page_index"":6,""viewing_time"":6143.099999904633},{""page_index"":7,""viewing_time"":4586.5},{""page_index"":8,""viewing_time"":3113.7999999523163}]","90067.60000014305","","","","","","","","","","","","","","","","","","","","","","","",""
"pit-comprehension","103","812957","0.0-2.0-20.0-0.0","battery-v0.2","","""event"",""trial"",""time""
""blur"",""1"",""2402""
""focus"",""1"",""26182""
""fullscreenenter"",""1"",""26614""
","""event"",""trial"",""time""
""blur"",""1"",""2402""
","""event"",""trial"",""time""
""focus"",""1"",""26182""
","""event"",""trial"",""time""
""fullscreenenter"",""1"",""26614""
","
","","","4299.899999856949","[""SPACE""]","0","19","10378","3880","","","","","","","","","","","","","","","","","","",""
"pit-instructions","104","815710","0.0-2.0-20.0-1.0","battery-v0.2","","""event"",""trial"",""time""
""blur"",""1"",""2402""
""focus"",""1"",""26182""
""fullscreenenter"",""1"",""26614""
","""event"",""trial"",""time""
""blur"",""1"",""2402""
","""event"",""trial"",""time""
""focus"",""1"",""26182""
","""event"",""trial"",""time""
""fullscreenenter"",""1"",""26614""
","
","","[{""page_index"":0,""viewing_time"":2722.0999999046326}]","2722.399999856949","","","","","","","","","","","","","","","","","","","","","","","",""
"pit-comprehension","105","820111","0.0-2.0-21.0-0.0","battery-v0.2","","""event"",""trial"",""time""
""blur"",""1"",""2402""
""focus"",""1"",""26182""
""fullscreenenter"",""1"",""26614""
","""event"",""trial"",""time""
""blur"",""1"",""2402""
","""event"",""trial"",""time""
""focus"",""1"",""26182""
","""event"",""trial"",""time""
""fullscreenenter"",""1"",""26614""
","
","","","4397.599999904633","[""10""]","0","19","10378","3880","","","","","","","","","","","","","","","","","","",""
"pit-instructions","106","821743","0.0-2.0-21.0-1.0","battery-v0.2","","""event"",""trial"",""time""
""blur"",""1"",""2402""
""focus"",""1"",""26182""
""fullscreenenter"",""1"",""26614""
","""event"",""trial"",""time""
""blur"",""1"",""2402""
","""event"",""trial"",""time""
""focus"",""1"",""26182""
","""event"",""trial"",""time""
""fullscreenenter"",""1"",""26614""
","
","","[{""page_index"":0,""viewing_time"":1599.7999999523163}]","1601.2000000476837","","","","","","","","","","","","","","","","","","","","","","","",""
"pit-comprehension","107","828106","0.0-2.0-22.0-0.0","battery-v0.2","","""event"",""trial"",""time""
""blur"",""1"",""2402""
""focus"",""1"",""26182""
""fullscreenenter"",""1"",""26614""
","""event"",""trial"",""time""
""blur"",""1"",""2402""
","""event"",""trial"",""time""
""focus"",""1"",""26182""
","""event"",""trial"",""time""
""fullscreenenter"",""1"",""26614""
","
","","","6359.299999952316","[""-10""]","1","19","10378","3880","","","","","","","","","","","","","","","","","","",""
"pit-instructions","108","833968","0.0-2.0-22.0-1.0","battery-v0.2","","""event"",""trial"",""time""
""blur"",""1"",""2402""
""focus"",""1"",""26182""
""fullscreenenter"",""1"",""26614""
","""event"",""trial"",""time""
""blur"",""1"",""2402""
","""event"",""trial"",""time""
""focus"",""1"",""26182""
","""event"",""trial"",""time""
""fullscreenenter"",""1"",""26614""
","
","","[{""page_index"":0,""viewing_time"":5832.799999952316}]","5833.5","","","","","","","","","","","","","","","","","","","","","","","",""
"pit-instructions","109","835019","0.0-2.0-22.0-2.0-0.0","battery-v0.2","","""event"",""trial"",""time""
""blur"",""1"",""2402""
""focus"",""1"",""26182""
""fullscreenenter"",""1"",""26614""
","""event"",""trial"",""time""
""blur"",""1"",""2402""
","""event"",""trial"",""time""
""focus"",""1"",""26182""
","""event"",""trial"",""time""
""fullscreenenter"",""1"",""26614""
","
","","[{""page_index"":0,""viewing_time"":1047.5999999046326}]","1048.7000000476837","","","","","","","","","","","","","","","","","","","","","","","",""
"pit-comprehension","110","841161","0.0-2.0-22.1-0.1","battery-v0.2","","""event"",""trial"",""time""
""blur"",""1"",""2402""
""focus"",""1"",""26182""
""fullscreenenter"",""1"",""26614""
","""event"",""trial"",""time""
""blur"",""1"",""2402""
","""event"",""trial"",""time""
""focus"",""1"",""26182""
","""event"",""trial"",""time""
""fullscreenenter"",""1"",""26614""
","
","","","6139.199999809265","[""0""]","0","19","10378","3880","","","","","","","","","","","","","","","","","","",""
"pit-instructions","111","843572","0.0-2.0-22.1-1.1","battery-v0.2","","""event"",""trial"",""time""
""blur"",""1"",""2402""
""focus"",""1"",""26182""
""fullscreenenter"",""1"",""26614""
","""event"",""trial"",""time""
""blur"",""1"",""2402""
","""event"",""trial"",""time""
""focus"",""1"",""26182""
","""event"",""trial"",""time""
""fullscreenenter"",""1"",""26614""
","
","","[{""page_index"":0,""viewing_time"":2375.2999999523163}]","2376.5","","","","","","","","","","","","","","","","","","","","","","","",""
"pit-comprehension","112","851874","0.0-2.0-23.0-0.0","battery-v0.2","","""event"",""trial"",""time""
""blur"",""1"",""2402""
""focus"",""1"",""26182""
""fullscreenenter"",""1"",""26614""
","""event"",""trial"",""time""
""blur"",""1"",""2402""
","""event"",""trial"",""time""
""focus"",""1"",""26182""
","""event"",""trial"",""time""
""fullscreenenter"",""1"",""26614""
","
","","","8298.699999809265","[""False""]","1","19","10378","3880","","","","","","","","","","","","","","","","","","",""
"pit-instructions","113","853700","0.0-2.0-23.0-1.0","battery-v0.2","","""event"",""trial"",""time""
""blur"",""1"",""2402""
""focus"",""1"",""26182""
""fullscreenenter"",""1"",""26614""
","""event"",""trial"",""time""
""blur"",""1"",""2402""
","""event"",""trial"",""time""
""focus"",""1"",""26182""
","""event"",""trial"",""time""
""fullscreenenter"",""1"",""26614""
","
","","[{""page_index"":0,""viewing_time"":1794.7000000476837}]","1795.5999999046326","","","","","","","","","","","","","","","","","","","","","","","",""
"pit-instructions","114","855014","0.0-2.0-23.0-2.0-0.0","battery-v0.2","","""event"",""trial"",""time""
""blur"",""1"",""2402""
""focus"",""1"",""26182""
""fullscreenenter"",""1"",""26614""
","""event"",""trial"",""time""
""blur"",""1"",""2402""
","""event"",""trial"",""time""
""focus"",""1"",""26182""
","""event"",""trial"",""time""
""fullscreenenter"",""1"",""26614""
","
","","[{""page_index"":0,""viewing_time"":1310.9000000953674}]","1311.1000001430511","","","","","","","","","","","","","","","","","","","","","","","",""
"pit-comprehension","115","863148","0.0-2.0-23.1-0.1","battery-v0.2","","""event"",""trial"",""time""
""blur"",""1"",""2402""
""focus"",""1"",""26182""
""fullscreenenter"",""1"",""26614""
","""event"",""trial"",""time""
""blur"",""1"",""2402""
","""event"",""trial"",""time""
""focus"",""1"",""26182""
","""event"",""trial"",""time""
""fullscreenenter"",""1"",""26614""
","
","","","8131.199999809265","[""True""]","0","19","10378","3880","","","","","","","","","","","","","","","","","","",""
"pit-instructions","116","864540","0.0-2.0-23.1-1.1","battery-v0.2","","""event"",""trial"",""time""
""blur"",""1"",""2402""
""focus"",""1"",""26182""
""fullscreenenter"",""1"",""26614""
","""event"",""trial"",""time""
""blur"",""1"",""2402""
","""event"",""trial"",""time""
""focus"",""1"",""26182""
","""event"",""trial"",""time""
""fullscreenenter"",""1"",""26614""
","
","","[{""page_index"":0,""viewing_time"":1359.2000000476837}]","1359.7999999523163","","","","","","","","","","","","","","","","","","","","","","","",""
"pit-comprehension","117","871864","0.0-2.0-24.0-0.0","battery-v0.2","","""event"",""trial"",""time""
""blur"",""1"",""2402""
""focus"",""1"",""26182""
""fullscreenenter"",""1"",""26614""
","""event"",""trial"",""time""
""blur"",""1"",""2402""
","""event"",""trial"",""time""
""focus"",""1"",""26182""
","""event"",""trial"",""time""
""fullscreenenter"",""1"",""26614""
","
","","","7319.5","[""True""]","0","19","10378","3880","","","","","","","","","","","","","","","","","","",""
"pit-instructions","118","873119","0.0-2.0-24.0-1.0","battery-v0.2","","""event"",""trial"",""time""
""blur"",""1"",""2402""
""focus"",""1"",""26182""
""fullscreenenter"",""1"",""26614""
","""event"",""trial"",""time""
""blur"",""1"",""2402""
","""event"",""trial"",""time""
""focus"",""1"",""26182""
","""event"",""trial"",""time""
""fullscreenenter"",""1"",""26614""
","
","","[{""page_index"":0,""viewing_time"":1223.2000000476837}]","1223.5","","","","","","","","","","","","","","","","","","","","","","","",""
"pit-comprehension","119","879239","0.0-2.0-25.0-0.0","battery-v0.2","","""event"",""trial"",""time""
""blur"",""1"",""2402""
""focus"",""1"",""26182""
""fullscreenenter"",""1"",""26614""
","""event"",""trial"",""time""
""blur"",""1"",""2402""
","""event"",""trial"",""time""
""focus"",""1"",""26182""
","""event"",""trial"",""time""
""fullscreenenter"",""1"",""26614""
","
","","","6116.799999952316","[""True""]","0","19","10378","3880","","","","","","","","","","","","","","","","","","",""
"pit-instructions","120","881660","0.0-2.0-25.0-1.0","battery-v0.2","","""event"",""trial"",""time""
""blur"",""1"",""2402""
""focus"",""1"",""26182""
""fullscreenenter"",""1"",""26614""
","""event"",""trial"",""time""
""blur"",""1"",""2402""
","""event"",""trial"",""time""
""focus"",""1"",""26182""
","""event"",""trial"",""time""
""fullscreenenter"",""1"",""26614""
","
","","[{""page_index"":0,""viewing_time"":2387.0999999046326}]","2387.399999856949","","","","","","","","","","","","","","","","","","","","","","","",""
"pit-comprehension","121","886273","0.0-2.0-26.0-0.0","battery-v0.2","","""event"",""trial"",""time""
""blur"",""1"",""2402""
""focus"",""1"",""26182""
""fullscreenenter"",""1"",""26614""
","""event"",""trial"",""time""
""blur"",""1"",""2402""
","""event"",""trial"",""time""
""focus"",""1"",""26182""
","""event"",""trial"",""time""
""fullscreenenter"",""1"",""26614""
","
","","","4609.700000047684","[""False""]","0","19","10378","3880","","","","","","","","","","","","","","","","","","",""
"pit-instructions","122","888158","0.0-2.0-26.0-1.0","battery-v0.2","","""event"",""trial"",""time""
""blur"",""1"",""2402""
""focus"",""1"",""26182""
""fullscreenenter"",""1"",""26614""
","""event"",""trial"",""time""
""blur"",""1"",""2402""
","""event"",""trial"",""time""
""focus"",""1"",""26182""
","""event"",""trial"",""time""
""fullscreenenter"",""1"",""26614""
","
","","[{""page_index"":0,""viewing_time"":1858.7000000476837}]","1859.5","","","","","","","","","","","","","","","","","","","","","","","",""
"pit-instructions","123","903533","0.0-3.0","battery-v0.2","","""event"",""trial"",""time""
""blur"",""1"",""2402""
""focus"",""1"",""26182""
""fullscreenenter"",""1"",""26614""
","""event"",""trial"",""time""
""blur"",""1"",""2402""
","""event"",""trial"",""time""
""focus"",""1"",""26182""
","""event"",""trial"",""time""
""fullscreenenter"",""1"",""26614""
","
","","[{""page_index"":0,""viewing_time"":3575.199999809265},{""page_index"":1,""viewing_time"":5010.400000095367},{""page_index"":2,""viewing_time"":6785.5}]","15371.699999809265","","","","","","","","","","","","","","","","","","","","","","","",""
"pit-trial","124","907149","0.0-4.0","battery-v0.2","","""event"",""trial"",""time""
""blur"",""1"",""2402""
""focus"",""1"",""26182""
""fullscreenenter"",""1"",""26614""
","""event"",""trial"",""time""
""blur"",""1"",""2402""
","""event"",""trial"",""time""
""focus"",""1"",""26182""
","""event"",""trial"",""time""
""fullscreenenter"",""1"",""26614""
","
","","","751.5999999046326","","","19","10378","3880","&#9730;","elianto","#3366ff99"," "," ","1","+10","[1602.5]","1","1","","","10378","1","1","1","win","go","0"
"pit-trial","125","910388","0.0-5.0","battery-v0.2","","""event"",""trial"",""time""
""blur"",""1"",""2402""
""focus"",""1"",""26182""
""fullscreenenter"",""1"",""26614""
","""event"",""trial"",""time""
""blur"",""1"",""2402""
","""event"",""trial"",""time""
""focus"",""1"",""26182""
","""event"",""trial"",""time""
""fullscreenenter"",""1"",""26614""
","
","","","380.2999999523163","","","19","10378","3880","&#9728;","elianto","#f73b6a7A","-1"," ","0","0","[1230.4000000953674]","1","1","","","10378","2","0","4","lose","no-go","1"
"pit-trial","126","913841","0.0-6.0","battery-v0.2","","""event"",""trial"",""time""
""blur"",""1"",""2402""
""focus"",""1"",""26182""
""fullscreenenter"",""1"",""26614""
","""event"",""trial"",""time""
""blur"",""1"",""2402""
","""event"",""trial"",""time""
""focus"",""1"",""26182""
","""event"",""trial"",""time""
""fullscreenenter"",""1"",""26614""
","
","","","592.8999998569489","","","19","10378","3880","&#9752;","elianto","#f73b6a7A"," "," ","1","0","[1444.2000000476837]","1","1","","","10378","3","3","3","lose","go","0"
"pit-trial","127","917358","0.0-7.0","battery-v0.2","","""event"",""trial"",""time""
""blur"",""1"",""2402""
""focus"",""1"",""26182""
""fullscreenenter"",""1"",""26614""
","""event"",""trial"",""time""
""blur"",""1"",""2402""
","""event"",""trial"",""time""
""focus"",""1"",""26182""
","""event"",""trial"",""time""
""fullscreenenter"",""1"",""26614""
","
","","","658","","","19","10378","3880","&#9733;","elianto","#3366ff99","-1"," ","0","0","[1508.6000001430511]","1","1","","","10378","4","2","2","win","no-go","0"
"pit-trial","128","920948","0.0-8.0","battery-v0.2","","""event"",""trial"",""time""
""blur"",""1"",""2402""
""focus"",""1"",""26182""
""fullscreenenter"",""1"",""26614""
","""event"",""trial"",""time""
""blur"",""1"",""2402""
","""event"",""trial"",""time""
""focus"",""1"",""26182""
","""event"",""trial"",""time""
""fullscreenenter"",""1"",""26614""
","
","","","730.5","","","19","10378","3880","&#9728;","elianto","#f73b6a7A","-1"," ","0","-10","[1581.3999998569489]","1","1","","","10378","5","0","4","lose","no-go","0"
"pit-trial","129","924462","0.0-9.0","battery-v0.2","","""event"",""trial"",""time""
""blur"",""1"",""2402""
""focus"",""1"",""26182""
""fullscreenenter"",""1"",""26614""
","""event"",""trial"",""time""
""blur"",""1"",""2402""
","""event"",""trial"",""time""
""focus"",""1"",""26182""
","""event"",""trial"",""time""
""fullscreenenter"",""1"",""26614""
","
","","","655.7999999523163","","","19","10378","3880","&#9730;","elianto","#3366ff99"," "," ","1","+10","[1505.7999999523163]","1","1","","","10378","6","1","1","win","go","0"
"pit-trial","130","929326","0.0-10.0","battery-v0.2","","""event"",""trial"",""time""
""blur"",""1"",""2402""
""focus"",""1"",""26182""
""fullscreenenter"",""1"",""26614""
","""event"",""trial"",""time""
""blur"",""1"",""2402""
","""event"",""trial"",""time""
""focus"",""1"",""26182""
","""event"",""trial"",""time""
""fullscreenenter"",""1"",""26614""
","
","","","-1","","","19","10378","3880","&#9752;","elianto","#f73b6a7A"," ","-1","0","-10","[]","0","1","","","10378","7","3","3","lose","go","0"
"pit-trial","131","933054","0.0-11.0","battery-v0.2","","""event"",""trial"",""time""
""blur"",""1"",""2402""
""focus"",""1"",""26182""
""fullscreenenter"",""1"",""26614""
","""event"",""trial"",""time""
""blur"",""1"",""2402""
","""event"",""trial"",""time""
""focus"",""1"",""26182""
","""event"",""trial"",""time""
""fullscreenenter"",""1"",""26614""
","
","","","868","","","19","10378","3880","&#9733;","elianto","#3366ff99","-1"," ","0","0","[1718.7999999523163]","1","1","","","10378","8","2","2","win","no-go","0"
"pit-trial","132","937918","0.0-12.0","battery-v0.2","","""event"",""trial"",""time""
""blur"",""1"",""2402""
""focus"",""1"",""26182""
""fullscreenenter"",""1"",""26614""
","""event"",""trial"",""time""
""blur"",""1"",""2402""
","""event"",""trial"",""time""
""focus"",""1"",""26182""
","""event"",""trial"",""time""
""fullscreenenter"",""1"",""26614""
","
","","","-1","","","19","10378","3880","&#9728;","elianto","#f73b6a7A","-1","-1","1","0","[]","0","1","","","10378","9","0","4","lose","no-go","0"
"pit-trial","133","941726","0.0-13.0","battery-v0.2","","""event"",""trial"",""time""
""blur"",""1"",""2402""
""focus"",""1"",""26182""
""fullscreenenter"",""1"",""26614""
","""event"",""trial"",""time""
""blur"",""1"",""2402""
","""event"",""trial"",""time""
""focus"",""1"",""26182""
","""event"",""trial"",""time""
""fullscreenenter"",""1"",""26614""
","
","","","951.5999999046326","","","19","10378","3880","&#9752;","elianto","#f73b6a7A"," "," ","1","0","[1801.7999999523163]","1","1","","","10378","10","3","3","lose","go","0"
"pit-trial","134","945113","0.0-14.0","battery-v0.2","","""event"",""trial"",""time""
""blur"",""1"",""2402""
""focus"",""1"",""26182""
""fullscreenenter"",""1"",""26614""
","""event"",""trial"",""time""
""blur"",""1"",""2402""
","""event"",""trial"",""time""
""focus"",""1"",""26182""
","""event"",""trial"",""time""
""fullscreenenter"",""1"",""26614""
","
","","","525.7999999523163","","","19","10378","3880","&#9733;","elianto","#3366ff99","-1"," ","0","0","[1377.2999999523163]","1","1","","","10378","11","2","2","win","no-go","0"
"pit-trial","135","948564","0.0-15.0","battery-v0.2","","""event"",""trial"",""time""
""blur"",""1"",""2402""
""focus"",""1"",""26182""
""fullscreenenter"",""1"",""26614""
","""event"",""trial"",""time""
""blur"",""1"",""2402""
","""event"",""trial"",""time""
""focus"",""1"",""26182""
","""event"",""trial"",""time""
""fullscreenenter"",""1"",""26614""
","
","","","589.3999998569489","","","19","10378","3880","&#9730;","elianto","#3366ff99"," "," ","1","+10","[1440.7999999523163]","1","1","","","10378","12","1","1","win","go","0"
"pit-trial","136","951898","0.0-16.0","battery-v0.2","","""event"",""trial"",""time""
""blur"",""1"",""2402""
""focus"",""1"",""26182""
""fullscreenenter"",""1"",""26614""
","""event"",""trial"",""time""
""blur"",""1"",""2402""
","""event"",""trial"",""time""
""focus"",""1"",""26182""
","""event"",""trial"",""time""
""fullscreenenter"",""1"",""26614""
","
","","","474.19999980926514","","","19","10378","3880","&#9752;","elianto","#f73b6a7A"," "," ","1","-10","[1325.5]","1","1","","","10378","13","3","3","lose","go","1"
"pit-trial","137","956764","0.0-17.0","battery-v0.2","","""event"",""trial"",""time""
""blur"",""1"",""2402""
""focus"",""1"",""26182""
""fullscreenenter"",""1"",""26614""
","""event"",""trial"",""time""
""blur"",""1"",""2402""
","""event"",""trial"",""time""
""focus"",""1"",""26182""
","""event"",""trial"",""time""
""fullscreenenter"",""1"",""26614""
","
","","","-1","","","19","10378","3880","&#9728;","elianto","#f73b6a7A","-1","-1","1","0","[]","0","1","","","10378","14","0","4","lose","no-go","0"
"pit-trial","138","960252","0.0-18.0","battery-v0.2","","""event"",""trial"",""time""
""blur"",""1"",""2402""
""focus"",""1"",""26182""
""fullscreenenter"",""1"",""26614""
","""event"",""trial"",""time""
""blur"",""1"",""2402""
","""event"",""trial"",""time""
""focus"",""1"",""26182""
","""event"",""trial"",""time""
""fullscreenenter"",""1"",""26614""
","
","","","626","","","19","10378","3880","&#9730;","elianto","#3366ff99"," "," ","1","+10","[1477.6000001430511]","1","1","","","10378","15","1","1","win","go","0"
"pit-trial","139","963688","0.0-19.0","battery-v0.2","","""event"",""trial"",""time""
""blur"",""1"",""2402""
""focus"",""1"",""26182""
""fullscreenenter"",""1"",""26614""
","""event"",""trial"",""time""
""blur"",""1"",""2402""
","""event"",""trial"",""time""
""focus"",""1"",""26182""
","""event"",""trial"",""time""
""fullscreenenter"",""1"",""26614""
","
","","","574.9000000953674","","","19","10378","3880","&#9733;","elianto","#3366ff99","-1"," ","0","0","[1426.2000000476837]","1","1","","","10378","16","2","2","win","no-go","0"
"pit-trial","140","967202","0.0-20.0","battery-v0.2","","""event"",""trial"",""time""
""blur"",""1"",""2402""
""focus"",""1"",""26182""
""fullscreenenter"",""1"",""26614""
","""event"",""trial"",""time""
""blur"",""1"",""2402""
","""event"",""trial"",""time""
""focus"",""1"",""26182""
","""event"",""trial"",""time""
""fullscreenenter"",""1"",""26614""
","
","","","656.2999999523163","","","19","10378","3880","&#9730;","elianto","#3366ff99"," "," ","1","+10","[1507.4000000953674]","1","1","","","10378","17","1","1","win","go","0"
"pit-trial","141","972067","0.0-21.0","battery-v0.2","","""event"",""trial"",""time""
""blur"",""1"",""2402""
""focus"",""1"",""26182""
""fullscreenenter"",""1"",""26614""
","""event"",""trial"",""time""
""blur"",""1"",""2402""
","""event"",""trial"",""time""
""focus"",""1"",""26182""
","""event"",""trial"",""time""
""fullscreenenter"",""1"",""26614""
","
","","","-1","","","19","10378","3880","&#9733;","elianto","#3366ff99","-1","-1","1","0","[]","0","1","","","10378","18","2","2","win","no-go","1"
"pit-trial","142","976933","0.0-22.0","battery-v0.2","","""event"",""trial"",""time""
""blur"",""1"",""2402""
""focus"",""1"",""26182""
""fullscreenenter"",""1"",""26614""
","""event"",""trial"",""time""
""blur"",""1"",""2402""
","""event"",""trial"",""time""
""focus"",""1"",""26182""
","""event"",""trial"",""time""
""fullscreenenter"",""1"",""26614""
","
","","","-1","","","19","10378","3880","&#9728;","elianto","#f73b6a7A","-1","-1","1","-10","[3497.5]","1","1","","","10378","19","0","4","lose","no-go","1"
"pit-trial","143","981157","0.0-23.0","battery-v0.2","","""event"",""trial"",""time""
""blur"",""1"",""2402""
""focus"",""1"",""26182""
""fullscreenenter"",""1"",""26614""
","""event"",""trial"",""time""
""blur"",""1"",""2402""
","""event"",""trial"",""time""
""focus"",""1"",""26182""
","""event"",""trial"",""time""
""fullscreenenter"",""1"",""26614""
","
","","","1363.9000000953674","","","19","10378","3880","&#9752;","elianto","#f73b6a7A"," "," ","1","0","[2215]","1","1","","","10378","20","3","3","lose","go","0"
"pit-instructions","144","1140889","0.0-24.0","battery-v0.2","","""event"",""trial"",""time""
""blur"",""1"",""2402""
""focus"",""1"",""26182""
""fullscreenenter"",""1"",""26614""
","""event"",""trial"",""time""
""blur"",""1"",""2402""
","""event"",""trial"",""time""
""focus"",""1"",""26182""
","""event"",""trial"",""time""
""fullscreenenter"",""1"",""26614""
","
","","[{""page_index"":0,""viewing_time"":152757.80000019073},{""page_index"":1,""viewing_time"":6971.299999952316}]","159729.40000009537","","","","","","","","","","","","","","","","","","","","","","","",""
"pit-trial","145","1144372","0.0-25.0","battery-v0.2","","""event"",""trial"",""time""
""blur"",""1"",""2402""
""focus"",""1"",""26182""
""fullscreenenter"",""1"",""26614""
","""event"",""trial"",""time""
""blur"",""1"",""2402""
","""event"",""trial"",""time""
""focus"",""1"",""26182""
","""event"",""trial"",""time""
""fullscreenenter"",""1"",""26614""
","
","","","622.7999999523163","","","19","10378","3880","d","elianto","#3366ff99","-1"," ","0","+10","[1473.8999998569489]","1","2","","","10378","21","1","2","win","no-go","1"
"pit-trial","146","1148227","0.0-26.0","battery-v0.2","","""event"",""trial"",""time""
""blur"",""1"",""2402""
""focus"",""1"",""26182""
""fullscreenenter"",""1"",""26614""
","""event"",""trial"",""time""
""blur"",""1"",""2402""
","""event"",""trial"",""time""
""focus"",""1"",""26182""
","""event"",""trial"",""time""
""fullscreenenter"",""1"",""26614""
","
","","","995.2999999523163","","","19","10378","3880","e","elianto","#f73b6a7A"," "," ","1","0","[1845.7000000476837]","1","2","","","10378","22","2","3","lose","go","0"
"pit-trial","147","1151893","0.0-27.0","battery-v0.2","","""event"",""trial"",""time""
""blur"",""1"",""2402""
""focus"",""1"",""26182""
""fullscreenenter"",""1"",""26614""
","""event"",""trial"",""time""
""blur"",""1"",""2402""
","""event"",""trial"",""time""
""focus"",""1"",""26182""
","""event"",""trial"",""time""
""fullscreenenter"",""1"",""26614""
","
","","","810.0999999046326","","","19","10378","3880","j","elianto","#f73b6a7A"," "," ","1","-10","[1660.1000001430511]","1","2","","","10378","23","0","3","lose","go","1"
"pit-trial","148","1156754","0.0-28.0","battery-v0.2","","""event"",""trial"",""time""
""blur"",""1"",""2402""
""focus"",""1"",""26182""
""fullscreenenter"",""1"",""26614""
","""event"",""trial"",""time""
""blur"",""1"",""2402""
","""event"",""trial"",""time""
""focus"",""1"",""26182""
","""event"",""trial"",""time""
""fullscreenenter"",""1"",""26614""
","
","","","-1","","","19","10378","3880","w","elianto","#f73b6a7A","-1","-1","1","0","[]","0","2","","","10378","24","3","4","lose","no-go","0"
"pit-trial","149","1161621","0.0-29.0","battery-v0.2","","""event"",""trial"",""time""
""blur"",""1"",""2402""
""focus"",""1"",""26182""
""fullscreenenter"",""1"",""26614""
","""event"",""trial"",""time""
""blur"",""1"",""2402""
","""event"",""trial"",""time""
""focus"",""1"",""26182""
","""event"",""trial"",""time""
""fullscreenenter"",""1"",""26614""
","
","","","-1","","","19","10378","3880","e","elianto","#f73b6a7A"," ","-1","0","-10","[]","0","2","","","10378","25","2","3","lose","go","0"
"pit-trial","150","1166486","0.0-30.0","battery-v0.2","","""event"",""trial"",""time""
""blur"",""1"",""2402""
""focus"",""1"",""26182""
""fullscreenenter"",""1"",""26614""
","""event"",""trial"",""time""
""blur"",""1"",""2402""
","""event"",""trial"",""time""
""focus"",""1"",""26182""
","""event"",""trial"",""time""
""fullscreenenter"",""1"",""26614""
","
","","","-1","","","19","10378","3880","j","elianto","#f73b6a7A"," ","-1","0","-10","[3488.0999999046326]","1","2","","","10378","26","0","3","lose","go","0"
"pit-trial","151","1170182","0.0-31.0","battery-v0.2","","""event"",""trial"",""time""
""blur"",""1"",""2402""
""focus"",""1"",""26182""
""fullscreenenter"",""1"",""26614""
","""event"",""trial"",""time""
""blur"",""1"",""2402""
","""event"",""trial"",""time""
""focus"",""1"",""26182""
","""event"",""trial"",""time""
""fullscreenenter"",""1"",""26614""
","
","","","833.4000000953674","","","19","10378","3880","w","elianto","#f73b6a7A","-1"," ","0","-10","[1686]","1","2","","","10378","27","3","4","lose","no-go","0"
"pit-trial","152","1173594","0.0-32.0","battery-v0.2","","""event"",""trial"",""time""
""blur"",""1"",""2402""
""focus"",""1"",""26182""
""fullscreenenter"",""1"",""26614""
","""event"",""trial"",""time""
""blur"",""1"",""2402""
","""event"",""trial"",""time""
""focus"",""1"",""26182""
","""event"",""trial"",""time""
""fullscreenenter"",""1"",""26614""
","
","","","546.5","","","19","10378","3880","d","elianto","#3366ff99","-1"," ","0","0","[1397.7000000476837]","1","2","","","10378","28","1","2","win","no-go","0"
"pit-trial","153","1176989","0.0-33.0","battery-v0.2","","""event"",""trial"",""time""
""blur"",""1"",""2402""
""focus"",""1"",""26182""
""fullscreenenter"",""1"",""26614""
","""event"",""trial"",""time""
""blur"",""1"",""2402""
","""event"",""trial"",""time""
""focus"",""1"",""26182""
","""event"",""trial"",""time""
""fullscreenenter"",""1"",""26614""
","
","","","537.3000001907349","","","19","10378","3880","d","elianto","#3366ff99","-1"," ","0","+10","[1387.6000001430511]","1","2","","","10378","29","1","2","win","no-go","1"
"pit-trial","154","1180397","0.0-34.0","battery-v0.2","","""event"",""trial"",""time""
""blur"",""1"",""2402""
""focus"",""1"",""26182""
""fullscreenenter"",""1"",""26614""
","""event"",""trial"",""time""
""blur"",""1"",""2402""
","""event"",""trial"",""time""
""focus"",""1"",""26182""
","""event"",""trial"",""time""
""fullscreenenter"",""1"",""26614""
","
","","","548.7999999523163","","","19","10378","3880","w","elianto","#f73b6a7A","-1"," ","0","-10","[1399.3000001907349]","1","2","","","10378","30","3","4","lose","no-go","0"
"pit-trial","155","1183769","0.0-35.0","battery-v0.2","","""event"",""trial"",""time""
""blur"",""1"",""2402""
""focus"",""1"",""26182""
""fullscreenenter"",""1"",""26614""
","""event"",""trial"",""time""
""blur"",""1"",""2402""
","""event"",""trial"",""time""
""focus"",""1"",""26182""
","""event"",""trial"",""time""
""fullscreenenter"",""1"",""26614""
","
","","","514","","","19","10378","3880","j","elianto","#f73b6a7A"," "," ","1","0","[1365.8999998569489]","1","2","","","10378","31","0","3","lose","go","0"
"pit-trial","156","1187139","0.0-36.0","battery-v0.2","","""event"",""trial"",""time""
""blur"",""1"",""2402""
""focus"",""1"",""26182""
""fullscreenenter"",""1"",""26614""
","""event"",""trial"",""time""
""blur"",""1"",""2402""
","""event"",""trial"",""time""
""focus"",""1"",""26182""
","""event"",""trial"",""time""
""fullscreenenter"",""1"",""26614""
","
","","","509.2000000476837","","","19","10378","3880","e","elianto","#f73b6a7A"," "," ","1","0","[1360.2000000476837]","1","2","","","10378","32","2","3","lose","go","0"
"pit-trial","157","1191125","0.0-37.0","battery-v0.2","","""event"",""trial"",""time""
""blur"",""1"",""2402""
""focus"",""1"",""26182""
""fullscreenenter"",""1"",""26614""
","""event"",""trial"",""time""
""blur"",""1"",""2402""
","""event"",""trial"",""time""
""focus"",""1"",""26182""
","""event"",""trial"",""time""
""fullscreenenter"",""1"",""26614""
","
","","","1124.7000000476837","","","19","10378","3880","e","elianto","#f73b6a7A"," "," ","1","0","[1975.7999999523163]","1","2","","","10378","33","2","3","lose","go","0"
"pit-trial","158","1195991","0.0-38.0","battery-v0.2","","""event"",""trial"",""time""
""blur"",""1"",""2402""
""focus"",""1"",""26182""
""fullscreenenter"",""1"",""26614""
","""event"",""trial"",""time""
""blur"",""1"",""2402""
","""event"",""trial"",""time""
""focus"",""1"",""26182""
","""event"",""trial"",""time""
""fullscreenenter"",""1"",""26614""
","
","","","-1","","","19","10378","3880","w","elianto","#f73b6a7A","-1","-1","1","0","[]","0","2","","","10378","34","3","4","lose","no-go","0"
"pit-trial","159","1199460","0.0-39.0","battery-v0.2","","""event"",""trial"",""time""
""blur"",""1"",""2402""
""focus"",""1"",""26182""
""fullscreenenter"",""1"",""26614""
","""event"",""trial"",""time""
""blur"",""1"",""2402""
","""event"",""trial"",""time""
""focus"",""1"",""26182""
","""event"",""trial"",""time""
""fullscreenenter"",""1"",""26614""
","
","","","609.5999999046326","","","19","10378","3880","d","elianto","#3366ff99","-1"," ","0","0","[1460.5999999046326]","1","2","","","10378","35","1","2","win","no-go","0"
"pit-trial","160","1204319","0.0-40.0","battery-v0.2","","""event"",""trial"",""time""
""blur"",""1"",""2402""
""focus"",""1"",""26182""
""fullscreenenter"",""1"",""26614""
","""event"",""trial"",""time""
""blur"",""1"",""2402""
","""event"",""trial"",""time""
""focus"",""1"",""26182""
","""event"",""trial"",""time""
""fullscreenenter"",""1"",""26614""
","
","","","-1","","","19","10378","3880","j","elianto","#f73b6a7A"," ","-1","0","-10","[]","0","2","","","10378","36","0","3","lose","go","0"
"pit-trial","161","1208112","0.0-41.0","battery-v0.2","","""event"",""trial"",""time""
""blur"",""1"",""2402""
""focus"",""1"",""26182""
""fullscreenenter"",""1"",""26614""
","""event"",""trial"",""time""
""blur"",""1"",""2402""
","""event"",""trial"",""time""
""focus"",""1"",""26182""
","""event"",""trial"",""time""
""fullscreenenter"",""1"",""26614""
","
","","","932.2000000476837","","","19","10378","3880","j","elianto","#f73b6a7A"," "," ","1","0","[1784]","1","2","","","10378","37","0","3","lose","go","0"
"pit-trial","162","1211525","0.0-42.0","battery-v0.2","","""event"",""trial"",""time""
""blur"",""1"",""2402""
""focus"",""1"",""26182""
""fullscreenenter"",""1"",""26614""
","""event"",""trial"",""time""
""blur"",""1"",""2402""
","""event"",""trial"",""time""
""focus"",""1"",""26182""
","""event"",""trial"",""time""
""fullscreenenter"",""1"",""26614""
","
","","","554.2000000476837","","","19","10378","3880","d","elianto","#3366ff99","-1"," ","0","0","[1405.5999999046326]","1","2","","","10378","38","1","2","win","no-go","0"
"pit-trial","163","1215434","0.0-43.0","battery-v0.2","","""event"",""trial"",""time""
""blur"",""1"",""2402""
""focus"",""1"",""26182""
""fullscreenenter"",""1"",""26614""
","""event"",""trial"",""time""
""blur"",""1"",""2402""
","""event"",""trial"",""time""
""focus"",""1"",""26182""
","""event"",""trial"",""time""
""fullscreenenter"",""1"",""26614""
","
","","","1049.9000000953674","","","19","10378","3880","e","elianto","#f73b6a7A"," "," ","1","0","[1900.1999998092651]","1","2","","","10378","39","2","3","lose","go","0"
"pit-trial","164","1220296","0.0-44.0","battery-v0.2","","""event"",""trial"",""time""
""blur"",""1"",""2402""
""focus"",""1"",""26182""
""fullscreenenter"",""1"",""26614""
","""event"",""trial"",""time""
""blur"",""1"",""2402""
","""event"",""trial"",""time""
""focus"",""1"",""26182""
","""event"",""trial"",""time""
""fullscreenenter"",""1"",""26614""
","
","","","-1","","","19","10378","3880","w","elianto","#f73b6a7A","-1","-1","1","-10","[3300.5999999046326]","1","2","","","10378","40","3","4","lose","no-go","1"
"pit-trial","165","1223857","0.0-45.0","battery-v0.2","","""event"",""trial"",""time""
""blur"",""1"",""2402""
""focus"",""1"",""26182""
""fullscreenenter"",""1"",""26614""
","""event"",""trial"",""time""
""blur"",""1"",""2402""
","""event"",""trial"",""time""
""focus"",""1"",""26182""
","""event"",""trial"",""time""
""fullscreenenter"",""1"",""26614""
","
","","","702.2999999523163","","","19","10378","3880","d","elianto","#3366ff99","-1"," ","0","0","[1553.6999998092651]","1","2","","","10378","41","1","2","win","no-go","0"
"pit-trial","166","1227653","0.0-46.0","battery-v0.2","","""event"",""trial"",""time""
""blur"",""1"",""2402""
""focus"",""1"",""26182""
""fullscreenenter"",""1"",""26614""
","""event"",""trial"",""time""
""blur"",""1"",""2402""
","""event"",""trial"",""time""
""focus"",""1"",""26182""
","""event"",""trial"",""time""
""fullscreenenter"",""1"",""26614""
","
","","","934.2999999523163","","","19","10378","3880","e","elianto","#f73b6a7A"," "," ","1","0","[1785.7000000476837]","1","2","","","10378","42","2","3","lose","go","0"
"pit-trial","167","1231381","0.0-47.0","battery-v0.2","","""event"",""trial"",""time""
""blur"",""1"",""2402""
""focus"",""1"",""26182""
""fullscreenenter"",""1"",""26614""
","""event"",""trial"",""time""
""blur"",""1"",""2402""
","""event"",""trial"",""time""
""focus"",""1"",""26182""
","""event"",""trial"",""time""
""fullscreenenter"",""1"",""26614""
","
","","","866.8999998569489","","","19","10378","3880","w","elianto","#f73b6a7A","-1"," ","0","-10","[1718.3999998569489]","1","2","","","10378","43","3","4","lose","no-go","0"
"pit-trial","168","1235074","0.0-48.0","battery-v0.2","","""event"",""trial"",""time""
""blur"",""1"",""2402""
""focus"",""1"",""26182""
""fullscreenenter"",""1"",""26614""
","""event"",""trial"",""time""
""blur"",""1"",""2402""
","""event"",""trial"",""time""
""focus"",""1"",""26182""
","""event"",""trial"",""time""
""fullscreenenter"",""1"",""26614""
","
","","","832.3999998569489","","","19","10378","3880","j","elianto","#f73b6a7A"," "," ","1","-10","[1683.4000000953674]","1","2","","","10378","44","0","3","lose","go","1"
"pit-trial","169","1238348","0.0-49.0","battery-v0.2","","""event"",""trial"",""time""
""blur"",""1"",""2402""
""focus"",""1"",""26182""
""fullscreenenter"",""1"",""26614""
","""event"",""trial"",""time""
""blur"",""1"",""2402""
","""event"",""trial"",""time""
""focus"",""1"",""26182""
","""event"",""trial"",""time""
""fullscreenenter"",""1"",""26614""
","
","","","411.60000014305115","","","19","10378","3880","d","elianto","#3366ff99","-1"," ","0","0","[1263]","1","2","","","10378","45","1","2","win","no-go","0"
"pit-trial","170","1241974","0.0-50.0","battery-v0.2","","""event"",""trial"",""time""
""blur"",""1"",""2402""
""focus"",""1"",""26182""
""fullscreenenter"",""1"",""26614""
","""event"",""trial"",""time""
""blur"",""1"",""2402""
","""event"",""trial"",""time""
""focus"",""1"",""26182""
","""event"",""trial"",""time""
""fullscreenenter"",""1"",""26614""
","
","","","764.0999999046326","","","19","10378","3880","e","elianto","#f73b6a7A"," "," ","1","0","[1615.3000001907349]","1","2","","","10378","46","2","3","lose","go","0"
"pit-trial","171","1245817","0.0-51.0","battery-v0.2","","""event"",""trial"",""time""
""blur"",""1"",""2402""
""focus"",""1"",""26182""
""fullscreenenter"",""1"",""26614""
","""event"",""trial"",""time""
""blur"",""1"",""2402""
","""event"",""trial"",""time""
""focus"",""1"",""26182""
","""event"",""trial"",""time""
""fullscreenenter"",""1"",""26614""
","
","","","982.6000001430511","","","19","10378","3880","w","elianto","#f73b6a7A","-1"," ","0","-10","[1834]","1","2","","","10378","47","3","4","lose","no-go","0"
"pit-trial","172","1249767","0.0-52.0","battery-v0.2","","""event"",""trial"",""time""
""blur"",""1"",""2402""
""focus"",""1"",""26182""
""fullscreenenter"",""1"",""26614""
","""event"",""trial"",""time""
""blur"",""1"",""2402""
","""event"",""trial"",""time""
""focus"",""1"",""26182""
","""event"",""trial"",""time""
""fullscreenenter"",""1"",""26614""
","
","","","1088.9000000953674","","","19","10378","3880","j","elianto","#f73b6a7A"," "," ","1","0","[1939.2000000476837]","1","2","","","10378","48","0","3","lose","go","0"
"pit-trial","173","1253524","0.0-53.0","battery-v0.2","","""event"",""trial"",""time""
""blur"",""1"",""2402""
""focus"",""1"",""26182""
""fullscreenenter"",""1"",""26614""
","""event"",""trial"",""time""
""blur"",""1"",""2402""
","""event"",""trial"",""time""
""focus"",""1"",""26182""
","""event"",""trial"",""time""
""fullscreenenter"",""1"",""26614""
","
","","","895.2999999523163","","","19","10378","3880","j","elianto","#f73b6a7A"," "," ","1","0","[1747]","1","2","","","10378","49","0","3","lose","go","0"
"pit-trial","174","1257123","0.0-54.0","battery-v0.2","","""event"",""trial"",""time""
""blur"",""1"",""2402""
""focus"",""1"",""26182""
""fullscreenenter"",""1"",""26614""
","""event"",""trial"",""time""
""blur"",""1"",""2402""
","""event"",""trial"",""time""
""focus"",""1"",""26182""
","""event"",""trial"",""time""
""fullscreenenter"",""1"",""26614""
","
","","","740.5","","","19","10378","3880","d","elianto","#3366ff99","-1"," ","0","+10","[1591.7999999523163]","1","2","","","10378","50","1","2","win","no-go","1"
"pit-trial","175","1260770","0.0-55.0","battery-v0.2","","""event"",""trial"",""time""
""blur"",""1"",""2402""
""focus"",""1"",""26182""
""fullscreenenter"",""1"",""26614""
","""event"",""trial"",""time""
""blur"",""1"",""2402""
","""event"",""trial"",""time""
""focus"",""1"",""26182""
","""event"",""trial"",""time""
""fullscreenenter"",""1"",""26614""
","
","","","787.1000001430511","","","19","10378","3880","e","elianto","#f73b6a7A"," "," ","1","0","[1637.2000000476837]","1","2","","","10378","51","2","3","lose","go","0"
"pit-trial","176","1264006","0.0-56.0","battery-v0.2","","""event"",""trial"",""time""
""blur"",""1"",""2402""
""focus"",""1"",""26182""
""fullscreenenter"",""1"",""26614""
","""event"",""trial"",""time""
""blur"",""1"",""2402""
","""event"",""trial"",""time""
""focus"",""1"",""26182""
","""event"",""trial"",""time""
""fullscreenenter"",""1"",""26614""
","
","","","377.7000000476837","","","19","10378","3880","w","elianto","#f73b6a7A","-1"," ","0","-10","[1229.0999999046326]","1","2","","","10378","52","3","4","lose","no-go","0"
"pit-trial","177","1268868","0.0-57.0","battery-v0.2","","""event"",""trial"",""time""
""blur"",""1"",""2402""
""focus"",""1"",""26182""
""fullscreenenter"",""1"",""26614""
","""event"",""trial"",""time""
""blur"",""1"",""2402""
","""event"",""trial"",""time""
""focus"",""1"",""26182""
","""event"",""trial"",""time""
""fullscreenenter"",""1"",""26614""
","
","","","-1","","","19","10378","3880","j","elianto","#f73b6a7A"," ","-1","0","-10","[]","0","2","","","10378","53","0","3","lose","go","0"
"pit-trial","178","1272228","0.0-58.0","battery-v0.2","","""event"",""trial"",""time""
""blur"",""1"",""2402""
""focus"",""1"",""26182""
""fullscreenenter"",""1"",""26614""
","""event"",""trial"",""time""
""blur"",""1"",""2402""
","""event"",""trial"",""time""
""focus"",""1"",""26182""
","""event"",""trial"",""time""
""fullscreenenter"",""1"",""26614""
","
","","","500.40000009536743","","","19","10378","3880","d","elianto","#3366ff99","-1"," ","0","0","[1351.6000001430511]","1","2","","","10378","54","1","2","win","no-go","0"
"pit-trial","179","1277095","0.0-59.0","battery-v0.2","","""event"",""trial"",""time""
""blur"",""1"",""2402""
""focus"",""1"",""26182""
""fullscreenenter"",""1"",""26614""
","""event"",""trial"",""time""
""blur"",""1"",""2402""
","""event"",""trial"",""time""
""focus"",""1"",""26182""
","""event"",""trial"",""time""
""fullscreenenter"",""1"",""26614""
","
","","","-1","","","19","10378","3880","w","elianto","#f73b6a7A","-1","-1","1","0","[]","0","2","","","10378","55","3","4","lose","no-go","0"
"pit-trial","180","1281125","0.0-60.0","battery-v0.2","","""event"",""trial"",""time""
""blur"",""1"",""2402""
""focus"",""1"",""26182""
""fullscreenenter"",""1"",""26614""
","""event"",""trial"",""time""
""blur"",""1"",""2402""
","""event"",""trial"",""time""
""focus"",""1"",""26182""
","""event"",""trial"",""time""
""fullscreenenter"",""1"",""26614""
","
","","","1172.0999999046326","","","19","10378","3880","e","elianto","#f73b6a7A"," "," ","1","0","[2024.0999999046326]","1","2","","","10378","56","2","3","lose","go","0"
"pit-trial","181","1284865","0.0-61.0","battery-v0.2","","""event"",""trial"",""time""
""blur"",""1"",""2402""
""focus"",""1"",""26182""
""fullscreenenter"",""1"",""26614""
","""event"",""trial"",""time""
""blur"",""1"",""2402""
","""event"",""trial"",""time""
""focus"",""1"",""26182""
","""event"",""trial"",""time""
""fullscreenenter"",""1"",""26614""
","
","","","882.8999998569489","","","19","10378","3880","s","elianto","#3366ff99"," "," ","1","+10","[1733.8999998569489]","1","2","","","10378","57","4","1","win","go","0"
"pit-trial","182","1289730","0.0-62.0","battery-v0.2","","""event"",""trial"",""time""
""blur"",""1"",""2402""
""focus"",""1"",""26182""
""fullscreenenter"",""1"",""26614""
","""event"",""trial"",""time""
""blur"",""1"",""2402""
","""event"",""trial"",""time""
""focus"",""1"",""26182""
","""event"",""trial"",""time""
""fullscreenenter"",""1"",""26614""
","
","","","-1","","","19","10378","3880","w","elianto","#f73b6a7A","-1","-1","1","0","[]","0","2","","","10378","58","3","4","lose","no-go","0"
"pit-trial","183","1293851","0.0-63.0","battery-v0.2","","""event"",""trial"",""time""
""blur"",""1"",""2402""
""focus"",""1"",""26182""
""fullscreenenter"",""1"",""26614""
","""event"",""trial"",""time""
""blur"",""1"",""2402""
","""event"",""trial"",""time""
""focus"",""1"",""26182""
","""event"",""trial"",""time""
""fullscreenenter"",""1"",""26614""
","
","","","1265.1000001430511","","","19","10378","3880","j","elianto","#f73b6a7A"," "," ","1","0","[2116]","1","2","","","10378","59","0","3","lose","go","0"
"pit-trial","184","1297874","0.0-64.0","battery-v0.2","","""event"",""trial"",""time""
""blur"",""1"",""2402""
""focus"",""1"",""26182""
""fullscreenenter"",""1"",""26614""
","""event"",""trial"",""time""
""blur"",""1"",""2402""
","""event"",""trial"",""time""
""focus"",""1"",""26182""
","""event"",""trial"",""time""
