"trial_type","trial_index","time_elapsed","internal_node_id","task_version","subject_id","interactions","blur_events","focus_events","fullscreenenter_events","fullscreenexit_events","success","view_history","rt","responses","num_errors","age","subject","participantId","rune","rune_set","hex","correct","choice","accuracy","outcome","keys","total_keys","block","practice","value","sub","trial","stimulus","robot","valence","action","sham"
"pavlovia","0","8","0.0-0.0","battery-v0.2","","""event"",""trial"",""time""
""fullscreenenter"",""1"",""2658""
","
","
","""event"",""trial"",""time""
""fullscreenenter"",""1"",""2658""
","
","","","","","","","","","","","","","","","","","","","","","","","","","","",""
"fullscreen","1","3627","0.0-1.0","battery-v0.2","","""event"",""trial"",""time""
""fullscreenenter"",""1"",""2658""
","
","
","""event"",""trial"",""time""
""fullscreenenter"",""1"",""2658""
","
","true","","","","","","","","","","","","","","","","","","","","","","","","","",""
"pit-instructions","2","15074","0.0-2.0-0.0","battery-v0.2","","""event"",""trial"",""time""
""fullscreenenter"",""1"",""2658""
","
","
","""event"",""trial"",""time""
""fullscreenenter"",""1"",""2658""
","
","","[{""page_index"":0,""viewing_time"":11441.799999952316}]","11442.5","","","","","","","","","","","","","","","","","","","","","","","",""
"pit-comprehension","3","22592","0.0-2.0-1.0-0.0","battery-v0.2","","""event"",""trial"",""time""
""fullscreenenter"",""1"",""2658""
","
","
","""event"",""trial"",""time""
""fullscreenenter"",""1"",""2658""
","
","","","7513.600000143051","[""shark""]","0","11","21203","7672","","","","","","","","","","","","","","","","","","",""
"pit-instructions","4","24306","0.0-2.0-1.0-1.0","battery-v0.2","","""event"",""trial"",""time""
""fullscreenenter"",""1"",""2658""
","
","
","""event"",""trial"",""time""
""fullscreenenter"",""1"",""2658""
","
","","[{""page_index"":0,""viewing_time"":1702.5999999046326}]","1703.0999999046326","","","","","","","","","","","","","","","","","","","","","","","",""
"pit-comprehension","5","34641","0.0-2.0-2.0-0.0","battery-v0.2","","""event"",""trial"",""time""
""fullscreenenter"",""1"",""2658""
","
","
","""event"",""trial"",""time""
""fullscreenenter"",""1"",""2658""
","
","","","10330.700000047684","[""tiger""]","0","11","21203","7672","","","","","","","","","","","","","","","","","","",""
"pit-instructions","6","78073","0.0-2.0-2.0-1.0","battery-v0.2","","""event"",""trial"",""time""
""fullscreenenter"",""1"",""2658""
","
","
","""event"",""trial"",""time""
""fullscreenenter"",""1"",""2658""
","
","","[{""page_index"":0,""viewing_time"":43430.5}]","43431","","","","","","","","","","","","","","","","","","","","","","","",""
"pit-instructions","7","180373","0.0-2.0-3.0","battery-v0.2","","""event"",""trial"",""time""
""fullscreenenter"",""1"",""2658""
","
","
","""event"",""trial"",""time""
""fullscreenenter"",""1"",""2658""
","
","","[{""page_index"":0,""viewing_time"":8180.200000047684},{""page_index"":1,""viewing_time"":6097.799999952316},{""page_index"":2,""viewing_time"":7718.200000047684},{""page_index"":3,""viewing_time"":8234},{""page_index"":4,""viewing_time"":8233.5},{""page_index"":5,""viewing_time"":6734.299999952316},{""page_index"":6,""viewing_time"":6566.299999952316},{""page_index"":7,""viewing_time"":6217.300000190735},{""page_index"":8,""viewing_time"":7750.199999809265},{""page_index"":9,""viewing_time"":8316.400000095367},{""page_index"":10,""viewing_time"":7567.599999904633},{""page_index"":11,""viewing_time"":8549.200000047684},{""page_index"":12,""viewing_time"":6474.299999952316},{""page_index"":13,""viewing_time"":5659.900000095367}]","102299.79999995232","","","","","","","","","","","","","","","","","","","","","","","",""
"pit-trial","8","183306","0.0-2.0-4.0-0.0","battery-v0.2","","""event"",""trial"",""time""
""fullscreenenter"",""1"",""2658""
","
","
","""event"",""trial"",""time""
""fullscreenenter"",""1"",""2658""
","
","","","73.20000004768372","","","11","21203","7672","&#9784;","elianto","#FFFFF080"," "," ","1","&#10004","[925.2000000476837,2479.5]","2","0","0","","","","","","","",""
"pit-trial","9","186714","0.0-2.0-4.1-0.1","battery-v0.2","","""event"",""trial"",""time""
""fullscreenenter"",""1"",""2658""
","
","
","""event"",""trial"",""time""
""fullscreenenter"",""1"",""2658""
","
","","","551.8999998569489","","","11","21203","7672","&#9784;","elianto","#FFFFF080"," "," ","1","&#10004","[1403.3999998569489]","1","0","0","","","","","","","",""
"pit-trial","10","190270","0.0-2.0-4.2-0.2","battery-v0.2","","""event"",""trial"",""time""
""fullscreenenter"",""1"",""2658""
","
","
","""event"",""trial"",""time""
""fullscreenenter"",""1"",""2658""
","
","","","700","","","11","21203","7672","&#9784;","elianto","#FFFFF080"," "," ","1","&#10004","[1551.0999999046326]","1","0","0","","","","","","","",""
"pit-trial","11","193661","0.0-2.0-4.3-0.3","battery-v0.2","","""event"",""trial"",""time""
""fullscreenenter"",""1"",""2658""
","
","
","""event"",""trial"",""time""
""fullscreenenter"",""1"",""2658""
","
","","","534.4000000953674","","","11","21203","7672","&#9784;","elianto","#FFFFF080"," "," ","1","&#10004","[1385.7999999523163]","1","0","0","","","","","","","",""
"pit-trial","12","196950","0.0-2.0-4.4-0.4","battery-v0.2","","""event"",""trial"",""time""
""fullscreenenter"",""1"",""2658""
","
","
","""event"",""trial"",""time""
""fullscreenenter"",""1"",""2658""
","
","","","432.60000014305115","","","11","21203","7672","&#9784;","elianto","#FFFFF080"," "," ","1","&#10004","[1283.6999998092651]","1","0","0","","","","","","","",""
"pit-instructions","13","221857","0.0-2.0-5.0","battery-v0.2","","""event"",""trial"",""time""
""fullscreenenter"",""1"",""2658""
","
","
","""event"",""trial"",""time""
""fullscreenenter"",""1"",""2658""
","
","","[{""page_index"":0,""viewing_time"":4835.5},{""page_index"":1,""viewing_time"":6332.600000143051},{""page_index"":2,""viewing_time"":5734.299999952316},{""page_index"":3,""viewing_time"":8000.299999952316}]","24903.300000190735","","","","","","","","","","","","","","","","","","","","","","","",""
"pit-trial","14","225975","0.0-2.0-6.0-0.0","battery-v0.2","","""event"",""trial"",""time""
""fullscreenenter"",""1"",""2658""
","
","
","""event"",""trial"",""time""
""fullscreenenter"",""1"",""2658""
","
","","","1264","","","11","21203","7672","&#9854;","elianto","#FFFFF080","-1"," ","0","&#10060","[2114.0999999046326]","1","0","1","","","","","","","",""
"pit-trial","15","230834","0.0-2.0-6.1-0.1","battery-v0.2","","""event"",""trial"",""time""
""fullscreenenter"",""1"",""2658""
","
","
","""event"",""trial"",""time""
""fullscreenenter"",""1"",""2658""
","
","","","-1","","","11","21203","7672","&#9854;","elianto","#FFFFF080","-1","-1","1","&#10004","[]","0","0","1","","","","","","","",""
"pit-trial","16","235691","0.0-2.0-6.2-0.2","battery-v0.2","","""event"",""trial"",""time""
""fullscreenenter"",""1"",""2658""
","
","
","""event"",""trial"",""time""
""fullscreenenter"",""1"",""2658""
","
","","","-1","","","11","21203","7672","&#9854;","elianto","#FFFFF080","-1","-1","1","&#10004","[]","0","0","1","","","","","","","",""
"pit-trial","17","240548","0.0-2.0-6.3-0.3","battery-v0.2","","""event"",""trial"",""time""
""fullscreenenter"",""1"",""2658""
","
","
","""event"",""trial"",""time""
""fullscreenenter"",""1"",""2658""
","
","","","-1","","","11","21203","7672","&#9854;","elianto","#FFFFF080","-1","-1","1","&#10004","[]","0","0","1","","","","","","","",""
"pit-trial","18","245403","0.0-2.0-6.4-0.4","battery-v0.2","","""event"",""trial"",""time""
""fullscreenenter"",""1"",""2658""
","
","
","""event"",""trial"",""time""
""fullscreenenter"",""1"",""2658""
","
","","","-1","","","11","21203","7672","&#9854;","elianto","#FFFFF080","-1","-1","1","&#10004","[]","0","0","1","","","","","","","",""
"pit-instructions","19","369222","0.0-2.0-7.0","battery-v0.2","","""event"",""trial"",""time""
""fullscreenenter"",""1"",""2658""
","
","
","""event"",""trial"",""time""
""fullscreenenter"",""1"",""2658""
","
","","[{""page_index"":0,""viewing_time"":5682.400000095367},{""page_index"":1,""viewing_time"":7748.899999856949},{""page_index"":2,""viewing_time"":6350.400000095367},{""page_index"":3,""viewing_time"":6316.5},{""page_index"":4,""viewing_time"":6516.400000095367},{""page_index"":5,""viewing_time"":5867.5},{""page_index"":6,""viewing_time"":7101.199999809265},{""page_index"":7,""viewing_time"":10283.900000095367},{""page_index"":8,""viewing_time"":7900},{""page_index"":9,""viewing_time"":5866.5},{""page_index"":10,""viewing_time"":6082.700000047684},{""page_index"":11,""viewing_time"":6068.5},{""page_index"":12,""viewing_time"":6199.5},{""page_index"":13,""viewing_time"":7066.899999856949},{""page_index"":14,""viewing_time"":7100.800000190735},{""page_index"":15,""viewing_time"":6416.899999856949},{""page_index"":16,""viewing_time"":7882.400000095367},{""page_index"":17,""viewing_time"":7367.299999952316}]","123819.10000014305","","","","","","","","","","","","","","","","","","","","","","","",""
"pit-trial","20","372621","0.0-2.0-8.0-0.0","battery-v0.2","","""event"",""trial"",""time""
""fullscreenenter"",""1"",""2658""
","
","
","""event"",""trial"",""time""
""fullscreenenter"",""1"",""2658""
","
","","","544.3000001907349","","","11","21203","7672","&#9776;","elianto","#3366ff99"," "," ","1","+10","[1394.8000001907349]","1","0","1","","","","","","","",""
"pit-trial","21","375939","0.0-2.0-8.0-1.0","battery-v0.2","","""event"",""trial"",""time""
""fullscreenenter"",""1"",""2658""
","
","
","""event"",""trial"",""time""
""fullscreenenter"",""1"",""2658""
","
","","","462.7999999523163","","","11","21203","7672","&#9776;","elianto","#3366ff99"," "," ","1","+10","[1313.9000000953674]","1","0","1","","","","","","","",""
"pit-trial","22","379194","0.0-2.0-8.0-2.0","battery-v0.2","","""event"",""trial"",""time""
""fullscreenenter"",""1"",""2658""
","
","
","""event"",""trial"",""time""
""fullscreenenter"",""1"",""2658""
","
","","","400.10000014305115","","","11","21203","7672","&#9776;","elianto","#3366ff99"," "," ","1","+10","[1250.8999998569489]","1","0","1","","","","","","","",""
"pit-trial","23","382530","0.0-2.0-8.0-3.0","battery-v0.2","","""event"",""trial"",""time""
""fullscreenenter"",""1"",""2658""
","
","
","""event"",""trial"",""time""
""fullscreenenter"",""1"",""2658""
","
","","","481.09999990463257","","","11","21203","7672","&#9776;","elianto","#3366ff99"," "," ","1","0","[1332.5]","1","0","1","","","","","","","",""
"pit-trial","24","385765","0.0-2.0-8.0-4.0","battery-v0.2","","""event"",""trial"",""time""
""fullscreenenter"",""1"",""2658""
","
","
","""event"",""trial"",""time""
""fullscreenenter"",""1"",""2658""
","
","","","379.5","","","11","21203","7672","&#9776;","elianto","#3366ff99"," "," ","1","+10","[1231]","1","0","1","","","","","","","",""
"pit-trial","25","389183","0.0-2.0-8.1-0.1","battery-v0.2","","""event"",""trial"",""time""
""fullscreenenter"",""1"",""2658""
","
","
","""event"",""trial"",""time""
""fullscreenenter"",""1"",""2658""
","
","","","561.2000000476837","","","11","21203","7672","&#9776;","elianto","#3366ff99"," "," ","1","+10","[1412.6999998092651]","1","0","1","","","","","","","",""
"pit-trial","26","392512","0.0-2.0-8.1-1.1","battery-v0.2","","""event"",""trial"",""time""
""fullscreenenter"",""1"",""2658""
","
","
","""event"",""trial"",""time""
""fullscreenenter"",""1"",""2658""
","
","","","473.2999999523163","","","11","21203","7672","&#9776;","elianto","#3366ff99"," "," ","1","+10","[1325]","1","0","1","","","","","","","",""
"pit-trial","27","395753","0.0-2.0-8.1-2.1","battery-v0.2","","""event"",""trial"",""time""
""fullscreenenter"",""1"",""2658""
","
","
","""event"",""trial"",""time""
""fullscreenenter"",""1"",""2658""
","
","","","385.7000000476837","","","11","21203","7672","&#9776;","elianto","#3366ff99"," "," ","1","+10","[1237]","1","0","1","","","","","","","",""
"pit-trial","28","399060","0.0-2.0-8.1-3.1","battery-v0.2","","""event"",""trial"",""time""
""fullscreenenter"",""1"",""2658""
","
","
","""event"",""trial"",""time""
""fullscreenenter"",""1"",""2658""
","
","","","451.89999985694885","","","11","21203","7672","&#9776;","elianto","#3366ff99"," "," ","1","0","[1303]","1","0","1","","","","","","","",""
"pit-trial","29","402347","0.0-2.0-8.1-4.1","battery-v0.2","","""event"",""trial"",""time""
""fullscreenenter"",""1"",""2658""
","
","
","""event"",""trial"",""time""
""fullscreenenter"",""1"",""2658""
","
","","","432.60000014305115","","","11","21203","7672","&#9776;","elianto","#3366ff99"," "," ","1","+10","[1283.4000000953674]","1","0","1","","","","","","","",""
"pit-trial","30","405619","0.0-2.0-8.2-0.2","battery-v0.2","","""event"",""trial"",""time""
""fullscreenenter"",""1"",""2658""
","
","
","""event"",""trial"",""time""
""fullscreenenter"",""1"",""2658""
","
","","","415.2999999523163","","","11","21203","7672","&#9776;","elianto","#3366ff99"," "," ","1","+10","[1266.7999999523163]","1","0","1","","","","","","","",""
"pit-trial","31","408800","0.0-2.0-8.2-1.2","battery-v0.2","","""event"",""trial"",""time""
""fullscreenenter"",""1"",""2658""
","
","
","""event"",""trial"",""time""
""fullscreenenter"",""1"",""2658""
","
","","","326.39999985694885","","","11","21203","7672","&#9776;","elianto","#3366ff99"," "," ","1","+10","[1177.4000000953674]","1","0","1","","","","","","","",""
"pit-trial","32","412028","0.0-2.0-8.2-2.2","battery-v0.2","","""event"",""trial"",""time""
""fullscreenenter"",""1"",""2658""
","
","
","""event"",""trial"",""time""
""fullscreenenter"",""1"",""2658""
","
","","","373.7000000476837","","","11","21203","7672","&#9776;","elianto","#3366ff99"," "," ","1","+10","[1224.6999998092651]","1","0","1","","","","","","","",""
"pit-trial","33","415245","0.0-2.0-8.2-3.2","battery-v0.2","","""event"",""trial"",""time""
""fullscreenenter"",""1"",""2658""
","
","
","""event"",""trial"",""time""
""fullscreenenter"",""1"",""2658""
","
","","","360.59999990463257","","","11","21203","7672","&#9776;","elianto","#3366ff99"," "," ","1","0","[1212.1999998092651]","1","0","1","","","","","","","",""
"pit-trial","34","418325","0.0-2.0-8.2-4.2","battery-v0.2","","""event"",""trial"",""time""
""fullscreenenter"",""1"",""2658""
","
","
","""event"",""trial"",""time""
""fullscreenenter"",""1"",""2658""
","
","","","223","","","11","21203","7672","&#9776;","elianto","#3366ff99"," "," ","1","+10","[1074.3000001907349]","1","0","1","","","","","","","",""
"call-function","35","418328","0.0-2.0-9.0","battery-v0.2","","""event"",""trial"",""time""
""fullscreenenter"",""1"",""2658""
","
","
","""event"",""trial"",""time""
""fullscreenenter"",""1"",""2658""
","
","","","","","","","","","","","","","","","","","","","","","","","","","","",""
"pit-instructions","36","458605","0.0-2.0-10.0","battery-v0.2","","""event"",""trial"",""time""
""fullscreenenter"",""1"",""2658""
","
","
","""event"",""trial"",""time""
""fullscreenenter"",""1"",""2658""
","
","","[{""page_index"":0,""viewing_time"":5876.900000095367},{""page_index"":1,""viewing_time"":7250.5},{""page_index"":2,""viewing_time"":10815.599999904633},{""page_index"":3,""viewing_time"":9001.100000143051},{""page_index"":4,""viewing_time"":7332.599999904633}]","40277.200000047684","","","","","","","","","","","","","","","","","","","","","","","",""
"pit-trial","37","463459","0.0-2.0-11.0-0.0","battery-v0.2","","""event"",""trial"",""time""
""fullscreenenter"",""1"",""2658""
","
","
","""event"",""trial"",""time""
""fullscreenenter"",""1"",""2658""
","
","","","-1","","","11","21203","7672","&#9761;","elianto","#3366ff99","-1","-1","1","+10","[]","0","0","2","","","","","","","",""
"pit-trial","38","468314","0.0-2.0-11.0-1.0","battery-v0.2","","""event"",""trial"",""time""
""fullscreenenter"",""1"",""2658""
","
","
","""event"",""trial"",""time""
""fullscreenenter"",""1"",""2658""
","
","","","-1","","","11","21203","7672","&#9761;","elianto","#3366ff99","-1","-1","1","+10","[]","0","0","2","","","","","","","",""
"pit-trial","39","473169","0.0-2.0-11.0-2.0","battery-v0.2","","""event"",""trial"",""time""
""fullscreenenter"",""1"",""2658""
","
","
","""event"",""trial"",""time""
""fullscreenenter"",""1"",""2658""
","
","","","-1","","","11","21203","7672","&#9761;","elianto","#3366ff99","-1","-1","1","+10","[]","0","0","2","","","","","","","",""
"pit-trial","40","478025","0.0-2.0-11.0-3.0","battery-v0.2","","""event"",""trial"",""time""
""fullscreenenter"",""1"",""2658""
","
","
","""event"",""trial"",""time""
""fullscreenenter"",""1"",""2658""
","
","","","-1","","","11","21203","7672","&#9761;","elianto","#3366ff99","-1","-1","1","0","[]","0","0","2","","","","","","","",""
"pit-trial","41","482881","0.0-2.0-11.0-4.0","battery-v0.2","","""event"",""trial"",""time""
""fullscreenenter"",""1"",""2658""
","
","
","""event"",""trial"",""time""
""fullscreenenter"",""1"",""2658""
","
","","","-1","","","11","21203","7672","&#9761;","elianto","#3366ff99","-1","-1","1","+10","[]","0","0","2","","","","","","","",""
"pit-trial","42","487737","0.0-2.0-11.1-0.1","battery-v0.2","","""event"",""trial"",""time""
""fullscreenenter"",""1"",""2658""
","
","
","""event"",""trial"",""time""
""fullscreenenter"",""1"",""2658""
","
","","","-1","","","11","21203","7672","&#9761;","elianto","#3366ff99","-1","-1","1","+10","[]","0","0","2","","","","","","","",""
"pit-trial","43","492594","0.0-2.0-11.1-1.1","battery-v0.2","","""event"",""trial"",""time""
""fullscreenenter"",""1"",""2658""
","
","
","""event"",""trial"",""time""
""fullscreenenter"",""1"",""2658""
","
","","","-1","","","11","21203","7672","&#9761;","elianto","#3366ff99","-1","-1","1","+10","[]","0","0","2","","","","","","","",""
"pit-trial","44","497449","0.0-2.0-11.1-2.1","battery-v0.2","","""event"",""trial"",""time""
""fullscreenenter"",""1"",""2658""
","
","
","""event"",""trial"",""time""
""fullscreenenter"",""1"",""2658""
","
","","","-1","","","11","21203","7672","&#9761;","elianto","#3366ff99","-1","-1","1","+10","[]","0","0","2","","","","","","","",""
"pit-trial","45","502306","0.0-2.0-11.1-3.1","battery-v0.2","","""event"",""trial"",""time""
""fullscreenenter"",""1"",""2658""
","
","
","""event"",""trial"",""time""
""fullscreenenter"",""1"",""2658""
","
","","","-1","","","11","21203","7672","&#9761;","elianto","#3366ff99","-1","-1","1","0","[]","0","0","2","","","","","","","",""
"pit-trial","46","507161","0.0-2.0-11.1-4.1","battery-v0.2","","""event"",""trial"",""time""
""fullscreenenter"",""1"",""2658""
","
","
","""event"",""trial"",""time""
""fullscreenenter"",""1"",""2658""
","
","","","-1","","","11","21203","7672","&#9761;","elianto","#3366ff99","-1","-1","1","+10","[]","0","0","2","","","","","","","",""
"pit-trial","47","512017","0.0-2.0-11.2-0.2","battery-v0.2","","""event"",""trial"",""time""
""fullscreenenter"",""1"",""2658""
","
","
","""event"",""trial"",""time""
""fullscreenenter"",""1"",""2658""
","
","","","-1","","","11","21203","7672","&#9761;","elianto","#3366ff99","-1","-1","1","+10","[]","0","0","2","","","","","","","",""
"pit-trial","48","516871","0.0-2.0-11.2-1.2","battery-v0.2","","""event"",""trial"",""time""
""fullscreenenter"",""1"",""2658""
","
","
","""event"",""trial"",""time""
""fullscreenenter"",""1"",""2658""
","
","","","-1","","","11","21203","7672","&#9761;","elianto","#3366ff99","-1","-1","1","+10","[]","0","0","2","","","","","","","",""
"pit-trial","49","521727","0.0-2.0-11.2-2.2","battery-v0.2","","""event"",""trial"",""time""
""fullscreenenter"",""1"",""2658""
","
","
","""event"",""trial"",""time""
""fullscreenenter"",""1"",""2658""
","
","","","-1","","","11","21203","7672","&#9761;","elianto","#3366ff99","-1","-1","1","+10","[]","0","0","2","","","","","","","",""
"pit-trial","50","526583","0.0-2.0-11.2-3.2","battery-v0.2","","""event"",""trial"",""time""
""fullscreenenter"",""1"",""2658""
","
","
","""event"",""trial"",""time""
""fullscreenenter"",""1"",""2658""
","
","","","-1","","","11","21203","7672","&#9761;","elianto","#3366ff99","-1","-1","1","0","[]","0","0","2","","","","","","","",""
"pit-trial","51","531438","0.0-2.0-11.2-4.2","battery-v0.2","","""event"",""trial"",""time""
""fullscreenenter"",""1"",""2658""
","
","
","""event"",""trial"",""time""
""fullscreenenter"",""1"",""2658""
","
","","","-1","","","11","21203","7672","&#9761;","elianto","#3366ff99","-1","-1","1","+10","[]","0","0","2","","","","","","","",""
"pit-trial","52","536294","0.0-2.0-11.3-0.3","battery-v0.2","","""event"",""trial"",""time""
""fullscreenenter"",""1"",""2658""
","
","
","""event"",""trial"",""time""
""fullscreenenter"",""1"",""2658""
","
","","","-1","","","11","21203","7672","&#9761;","elianto","#3366ff99","-1","-1","1","+10","[]","0","0","2","","","","","","","",""
"pit-trial","53","541150","0.0-2.0-11.3-1.3","battery-v0.2","","""event"",""trial"",""time""
""fullscreenenter"",""1"",""2658""
","
","
","""event"",""trial"",""time""
""fullscreenenter"",""1"",""2658""
","
","","","-1","","","11","21203","7672","&#9761;","elianto","#3366ff99","-1","-1","1","+10","[]","0","0","2","","","","","","","",""
"pit-trial","54","546006","0.0-2.0-11.3-2.3","battery-v0.2","","""event"",""trial"",""time""
""fullscreenenter"",""1"",""2658""
","
","
","""event"",""trial"",""time""
""fullscreenenter"",""1"",""2658""
","
","","","-1","","","11","21203","7672","&#9761;","elianto","#3366ff99","-1","-1","1","+10","[]","0","0","2","","","","","","","",""
"pit-trial","55","550862","0.0-2.0-11.3-3.3","battery-v0.2","","""event"",""trial"",""time""
""fullscreenenter"",""1"",""2658""
","
","
","""event"",""trial"",""time""
""fullscreenenter"",""1"",""2658""
","
","","","-1","","","11","21203","7672","&#9761;","elianto","#3366ff99","-1","-1","1","0","[]","0","0","2","","","","","","","",""
"pit-trial","56","555719","0.0-2.0-11.3-4.3","battery-v0.2","","""event"",""trial"",""time""
""fullscreenenter"",""1"",""2658""
","
","
","""event"",""trial"",""time""
""fullscreenenter"",""1"",""2658""
","
","","","-1","","","11","21203","7672","&#9761;","elianto","#3366ff99","-1","-1","1","+10","[]","0","0","2","","","","","","","",""
"call-function","57","555721","0.0-2.0-12.0","battery-v0.2","","""event"",""trial"",""time""
""fullscreenenter"",""1"",""2658""
","
","
","""event"",""trial"",""time""
""fullscreenenter"",""1"",""2658""
","
","","","","","","","","","","","","","","","","","","","","","","","","","","",""
"pit-instructions","58","588455","0.0-2.0-13.0","battery-v0.2","","""event"",""trial"",""time""
""fullscreenenter"",""1"",""2658""
","
","
","""event"",""trial"",""time""
""fullscreenenter"",""1"",""2658""
","
","","[{""page_index"":0,""viewing_time"":4799.599999904633},{""page_index"":1,""viewing_time"":7000.200000047684},{""page_index"":2,""viewing_time"":4566.799999952316},{""page_index"":3,""viewing_time"":10666.400000095367},{""page_index"":4,""viewing_time"":5700.700000047684}]","32734.5","","","","","","","","","","","","","","","","","","","","","","","",""
"pit-trial","59","591973","0.0-2.0-14.0-0.0","battery-v0.2","","""event"",""trial"",""time""
""fullscreenenter"",""1"",""2658""
","
","
","""event"",""trial"",""time""
""fullscreenenter"",""1"",""2658""
","
","","","661.9000000953674","","","11","21203","7672","&#9826;","elianto","#f73b6a7A","-1"," ","0","-10","[1513.1999998092651]","1","0","3","","","","","","","",""
"pit-trial","60","596829","0.0-2.0-14.0-1.0","battery-v0.2","","""event"",""trial"",""time""
""fullscreenenter"",""1"",""2658""
","
","
","""event"",""trial"",""time""
""fullscreenenter"",""1"",""2658""
","
","","","-1","","","11","21203","7672","&#9826;","elianto","#f73b6a7A","-1","-1","1","0","[]","0","0","3","","","","","","","",""
"pit-trial","61","601685","0.0-2.0-14.0-2.0","battery-v0.2","","""event"",""trial"",""time""
""fullscreenenter"",""1"",""2658""
","
","
","""event"",""trial"",""time""
""fullscreenenter"",""1"",""2658""
","
","","","-1","","","11","21203","7672","&#9826;","elianto","#f73b6a7A","-1","-1","1","0","[]","0","0","3","","","","","","","",""
"pit-trial","62","606540","0.0-2.0-14.0-3.0","battery-v0.2","","""event"",""trial"",""time""
""fullscreenenter"",""1"",""2658""
","
","
","""event"",""trial"",""time""
""fullscreenenter"",""1"",""2658""
","
","","","-1","","","11","21203","7672","&#9826;","elianto","#f73b6a7A","-1","-1","1","-10","[]","0","0","3","","","","","","","",""
"pit-trial","63","611395","0.0-2.0-14.0-4.0","battery-v0.2","","""event"",""trial"",""time""
""fullscreenenter"",""1"",""2658""
","
","
","""event"",""trial"",""time""
""fullscreenenter"",""1"",""2658""
","
","","","-1","","","11","21203","7672","&#9826;","elianto","#f73b6a7A","-1","-1","1","0","[]","0","0","3","","","","","","","",""
"pit-trial","64","616251","0.0-2.0-14.1-0.1","battery-v0.2","","""event"",""trial"",""time""
""fullscreenenter"",""1"",""2658""
","
","
","""event"",""trial"",""time""
""fullscreenenter"",""1"",""2658""
","
","","","-1","","","11","21203","7672","&#9826;","elianto","#f73b6a7A","-1","-1","1","0","[]","0","0","3","","","","","","","",""
"pit-trial","65","621107","0.0-2.0-14.1-1.1","battery-v0.2","","""event"",""trial"",""time""
""fullscreenenter"",""1"",""2658""
","
","
","""event"",""trial"",""time""
""fullscreenenter"",""1"",""2658""
","
","","","-1","","","11","21203","7672","&#9826;","elianto","#f73b6a7A","-1","-1","1","0","[]","0","0","3","","","","","","","",""
"pit-trial","66","625963","0.0-2.0-14.1-2.1","battery-v0.2","","""event"",""trial"",""time""
""fullscreenenter"",""1"",""2658""
","
","
","""event"",""trial"",""time""
""fullscreenenter"",""1"",""2658""
","
","","","-1","","","11","21203","7672","&#9826;","elianto","#f73b6a7A","-1","-1","1","0","[]","0","0","3","","","","","","","",""
"pit-trial","67","630818","0.0-2.0-14.1-3.1","battery-v0.2","","""event"",""trial"",""time""
""fullscreenenter"",""1"",""2658""
","
","
","""event"",""trial"",""time""
""fullscreenenter"",""1"",""2658""
","
","","","-1","","","11","21203","7672","&#9826;","elianto","#f73b6a7A","-1","-1","1","-10","[]","0","0","3","","","","","","","",""
"pit-trial","68","635673","0.0-2.0-14.1-4.1","battery-v0.2","","""event"",""trial"",""time""
""fullscreenenter"",""1"",""2658""
","
","
","""event"",""trial"",""time""
""fullscreenenter"",""1"",""2658""
","
","","","-1","","","11","21203","7672","&#9826;","elianto","#f73b6a7A","-1","-1","1","0","[]","0","0","3","","","","","","","",""
"pit-trial","69","640528","0.0-2.0-14.2-0.2","battery-v0.2","","""event"",""trial"",""time""
""fullscreenenter"",""1"",""2658""
","
","
","""event"",""trial"",""time""
""fullscreenenter"",""1"",""2658""
","
","","","-1","","","11","21203","7672","&#9826;","elianto","#f73b6a7A","-1","-1","1","0","[]","0","0","3","","","","","","","",""
"pit-trial","70","645384","0.0-2.0-14.2-1.2","battery-v0.2","","""event"",""trial"",""time""
""fullscreenenter"",""1"",""2658""
","
","
","""event"",""trial"",""time""
""fullscreenenter"",""1"",""2658""
","
","","","-1","","","11","21203","7672","&#9826;","elianto","#f73b6a7A","-1","-1","1","0","[]","0","0","3","","","","","","","",""
"pit-trial","71","650240","0.0-2.0-14.2-2.2","battery-v0.2","","""event"",""trial"",""time""
""fullscreenenter"",""1"",""2658""
","
","
","""event"",""trial"",""time""
""fullscreenenter"",""1"",""2658""
","
","","","-1","","","11","21203","7672","&#9826;","elianto","#f73b6a7A","-1","-1","1","0","[]","0","0","3","","","","","","","",""
"pit-trial","72","655095","0.0-2.0-14.2-3.2","battery-v0.2","","""event"",""trial"",""time""
""fullscreenenter"",""1"",""2658""
","
","
","""event"",""trial"",""time""
""fullscreenenter"",""1"",""2658""
","
","","","-1","","","11","21203","7672","&#9826;","elianto","#f73b6a7A","-1","-1","1","-10","[]","0","0","3","","","","","","","",""
"pit-trial","73","659950","0.0-2.0-14.2-4.2","battery-v0.2","","""event"",""trial"",""time""
""fullscreenenter"",""1"",""2658""
","
","
","""event"",""trial"",""time""
""fullscreenenter"",""1"",""2658""
","
","","","-1","","","11","21203","7672","&#9826;","elianto","#f73b6a7A","-1","-1","1","0","[]","0","0","3","","","","","","","",""
"pit-trial","74","664806","0.0-2.0-14.3-0.3","battery-v0.2","","""event"",""trial"",""time""
""fullscreenenter"",""1"",""2658""
","
","
","""event"",""trial"",""time""
""fullscreenenter"",""1"",""2658""
","
","","","-1","","","11","21203","7672","&#9826;","elianto","#f73b6a7A","-1","-1","1","0","[]","0","0","3","","","","","","","",""
"pit-trial","75","669661","0.0-2.0-14.3-1.3","battery-v0.2","","""event"",""trial"",""time""
""fullscreenenter"",""1"",""2658""
","
","
","""event"",""trial"",""time""
""fullscreenenter"",""1"",""2658""
","
","","","-1","","","11","21203","7672","&#9826;","elianto","#f73b6a7A","-1","-1","1","0","[]","0","0","3","","","","","","","",""
"pit-trial","76","674516","0.0-2.0-14.3-2.3","battery-v0.2","","""event"",""trial"",""time""
""fullscreenenter"",""1"",""2658""
","
","
","""event"",""trial"",""time""
""fullscreenenter"",""1"",""2658""
","
","","","-1","","","11","21203","7672","&#9826;","elianto","#f73b6a7A","-1","-1","1","0","[]","0","0","3","","","","","","","",""
"pit-trial","77","679371","0.0-2.0-14.3-3.3","battery-v0.2","","""event"",""trial"",""time""
""fullscreenenter"",""1"",""2658""
","
","
","""event"",""trial"",""time""
""fullscreenenter"",""1"",""2658""
","
","","","-1","","","11","21203","7672","&#9826;","elianto","#f73b6a7A","-1","-1","1","-10","[]","0","0","3","","","","","","","",""
"pit-trial","78","684226","0.0-2.0-14.3-4.3","battery-v0.2","","""event"",""trial"",""time""
""fullscreenenter"",""1"",""2658""
","
","
","""event"",""trial"",""time""
""fullscreenenter"",""1"",""2658""
","
","","","-1","","","11","21203","7672","&#9826;","elianto","#f73b6a7A","-1","-1","1","0","[]","0","0","3","","","","","","","",""
"call-function","79","684229","0.0-2.0-15.0","battery-v0.2","","""event"",""trial"",""time""
""fullscreenenter"",""1"",""2658""
","
","
","""event"",""trial"",""time""
""fullscreenenter"",""1"",""2658""
","
","","","","","","","","","","","","","","","","","","","","","","","","","","",""
"pit-instructions","80","709937","0.0-2.0-16.0","battery-v0.2","","""event"",""trial"",""time""
""fullscreenenter"",""1"",""2658""
","
","
","""event"",""trial"",""time""
""fullscreenenter"",""1"",""2658""
","
","","[{""page_index"":0,""viewing_time"":6657.400000095367},{""page_index"":1,""viewing_time"":8583.599999904633},{""page_index"":2,""viewing_time"":5364.700000047684},{""page_index"":3,""viewing_time"":5101.900000095367}]","25708","","","","","","","","","","","","","","","","","","","","","","","",""
"pit-trial","81","713166","0.0-2.0-17.0-0.0","battery-v0.2","","""event"",""trial"",""time""
""fullscreenenter"",""1"",""2658""
","
","
","""event"",""trial"",""time""
""fullscreenenter"",""1"",""2658""
","
","","","374.39999985694885","","","11","21203","7672","&#9789;","elianto","#f73b6a7A"," "," ","1","0","[1225.2999999523163]","1","0","4","","","","","","","",""
"pit-trial","82","716455","0.0-2.0-17.0-1.0","battery-v0.2","","""event"",""trial"",""time""
""fullscreenenter"",""1"",""2658""
","
","
","""event"",""trial"",""time""
""fullscreenenter"",""1"",""2658""
","
","","","433.40000009536743","","","11","21203","7672","&#9789;","elianto","#f73b6a7A"," "," ","1","0","[1284.8000001907349]","1","0","4","","","","","","","",""
"pit-trial","83","719662","0.0-2.0-17.0-2.0","battery-v0.2","","""event"",""trial"",""time""
""fullscreenenter"",""1"",""2658""
","
","
","""event"",""trial"",""time""
""fullscreenenter"",""1"",""2658""
","
","","","351.7000000476837","","","11","21203","7672","&#9789;","elianto","#f73b6a7A"," "," ","1","0","[1203.1000001430511]","1","0","4","","","","","","","",""
"pit-trial","84","722891","0.0-2.0-17.0-3.0","battery-v0.2","","""event"",""trial"",""time""
""fullscreenenter"",""1"",""2658""
","
","
","""event"",""trial"",""time""
""fullscreenenter"",""1"",""2658""
","
","","","373.60000014305115","","","11","21203","7672","&#9789;","elianto","#f73b6a7A"," "," ","1","-10","[1224.6000001430511]","1","0","4","","","","","","","",""
"pit-trial","85","726155","0.0-2.0-17.0-4.0","battery-v0.2","","""event"",""trial"",""time""
""fullscreenenter"",""1"",""2658""
","
","
","""event"",""trial"",""time""
""fullscreenenter"",""1"",""2658""
","
","","","408.7000000476837","","","11","21203","7672","&#9789;","elianto","#f73b6a7A"," "," ","1","0","[1259.1999998092651]","1","0","4","","","","","","","",""
"pit-trial","86","729428","0.0-2.0-17.1-0.1","battery-v0.2","","""event"",""trial"",""time""
""fullscreenenter"",""1"",""2658""
","
","
","""event"",""trial"",""time""
""fullscreenenter"",""1"",""2658""
","
","","","417.2999999523163","","","11","21203","7672","&#9789;","elianto","#f73b6a7A"," "," ","1","0","[1268.1000001430511]","1","0","4","","","","","","","",""
"pit-trial","87","732502","0.0-2.0-17.1-1.1","battery-v0.2","","""event"",""trial"",""time""
""fullscreenenter"",""1"",""2658""
","
","
","""event"",""trial"",""time""
""fullscreenenter"",""1"",""2658""
","
","","","219.30000019073486","","","11","21203","7672","&#9789;","elianto","#f73b6a7A"," "," ","1","0","[1069.7000000476837]","1","0","4","","","","","","","",""
"pit-trial","88","735543","0.0-2.0-17.1-2.1","battery-v0.2","","""event"",""trial"",""time""
""fullscreenenter"",""1"",""2658""
","
","
","""event"",""trial"",""time""
""fullscreenenter"",""1"",""2658""
","
","","","186.5","","","11","21203","7672","&#9789;","elianto","#f73b6a7A"," "," ","1","0","[1036.9000000953674]","1","0","4","","","","","","","",""
"pit-trial","89","738621","0.0-2.0-17.1-3.1","battery-v0.2","","""event"",""trial"",""time""
""fullscreenenter"",""1"",""2658""
","
","
","""event"",""trial"",""time""
""fullscreenenter"",""1"",""2658""
","
","","","222.60000014305115","","","11","21203","7672","&#9789;","elianto","#f73b6a7A"," "," ","1","-10","[1074.2000000476837]","1","0","4","","","","","","","",""
"pit-trial","90","741841","0.0-2.0-17.1-4.1","battery-v0.2","","""event"",""trial"",""time""
""fullscreenenter"",""1"",""2658""
","
","
","""event"",""trial"",""time""
""fullscreenenter"",""1"",""2658""
","
","","","299.59999990463257","","","11","21203","7672","&#9789;","elianto","#f73b6a7A"," "," ","1","0","[1151.2999999523163]","1","0","4","","","","","","","",""
"pit-trial","91","744782","0.0-2.0-17.2-0.2","battery-v0.2","","""event"",""trial"",""time""
""fullscreenenter"",""1"",""2658""
","
","
","""event"",""trial"",""time""
""fullscreenenter"",""1"",""2658""
","
","","","86.30000019073486","","","11","21203","7672","&#9789;","elianto","#f73b6a7A"," "," ","1","0","[937.5999999046326]","1","0","4","","","","","","","",""
"pit-trial","92","747742","0.0-2.0-17.2-1.2","battery-v0.2","","""event"",""trial"",""time""
""fullscreenenter"",""1"",""2658""
","
","
","""event"",""trial"",""time""
""fullscreenenter"",""1"",""2658""
","
","","","104.70000004768372","","","11","21203","7672","&#9789;","elianto","#f73b6a7A"," "," ","1","0","[955.7999999523163]","1","0","4","","","","","","","",""
"pit-trial","93","750892","0.0-2.0-17.2-2.2","battery-v0.2","","""event"",""trial"",""time""
""fullscreenenter"",""1"",""2658""
","
","
","""event"",""trial"",""time""
""fullscreenenter"",""1"",""2658""
","
","","","296.2999999523163","","","11","21203","7672","&#9789;","elianto","#f73b6a7A"," "," ","1","0","[1147.2999999523163]","1","0","4","","","","","","","",""
"pit-trial","94","753945","0.0-2.0-17.2-3.2","battery-v0.2","","""event"",""trial"",""time""
""fullscreenenter"",""1"",""2658""
","
","
","""event"",""trial"",""time""
""fullscreenenter"",""1"",""2658""
","
","","","198.20000004768372","","","11","21203","7672","&#9789;","elianto","#f73b6a7A"," "," ","1","-10","[1049.2000000476837]","1","0","4","","","","","","","",""
"pit-trial","95","756871","0.0-2.0-17.2-4.2","battery-v0.2","","""event"",""trial"",""time""
""fullscreenenter"",""1"",""2658""
","
","
","""event"",""trial"",""time""
""fullscreenenter"",""1"",""2658""
","
","","","70.39999985694885","","","11","21203","7672","&#9789;","elianto","#f73b6a7A"," "," ","1","0","[921.8999998569489]","1","0","4","","","","","","","",""
"pit-trial","96","759892","0.0-2.0-17.3-0.3","battery-v0.2","","""event"",""trial"",""time""
""fullscreenenter"",""1"",""2658""
","
","
","""event"",""trial"",""time""
""fullscreenenter"",""1"",""2658""
","
","","","166.30000019073486","","","11","21203","7672","&#9789;","elianto","#f73b6a7A"," "," ","1","0","[1017.3000001907349]","1","0","4","","","","","","","",""
"pit-trial","97","762923","0.0-2.0-17.3-1.3","battery-v0.2","","""event"",""trial"",""time""
""fullscreenenter"",""1"",""2658""
","
","
","""event"",""trial"",""time""
""fullscreenenter"",""1"",""2658""
","
","","","176.10000014305115","","","11","21203","7672","&#9789;","elianto","#f73b6a7A"," "," ","1","0","[1026.6999998092651]","1","0","4","","","","","","","",""
"pit-trial","98","766457","0.0-2.0-17.3-2.3","battery-v0.2","","""event"",""trial"",""time""
""fullscreenenter"",""1"",""2658""
","
","
","""event"",""trial"",""time""
""fullscreenenter"",""1"",""2658""
","
","","","679.1000001430511","","","11","21203","7672","&#9789;","elianto","#f73b6a7A"," "," ","1","0","[1529.7999999523163]","1","0","4","","","","","","","",""
"pit-trial","99","769867","0.0-2.0-17.3-3.3","battery-v0.2","","""event"",""trial"",""time""
""fullscreenenter"",""1"",""2658""
","
","
","""event"",""trial"",""time""
""fullscreenenter"",""1"",""2658""
","
","","","556.2000000476837","","","11","21203","7672","&#9789;","elianto","#f73b6a7A"," "," ","1","-10","[1406.5]","1","0","4","","","","","","","",""
"pit-trial","100","773183","0.0-2.0-17.3-4.3","battery-v0.2","","""event"",""trial"",""time""
""fullscreenenter"",""1"",""2658""
","
","
","""event"",""trial"",""time""
""fullscreenenter"",""1"",""2658""
","
","","","460.39999985694885","","","11","21203","7672","&#9789;","elianto","#f73b6a7A"," "," ","1","0","[1311.7999999523163]","1","0","4","","","","","","","",""
"call-function","101","773185","0.0-2.0-18.0","battery-v0.2","","""event"",""trial"",""time""
""fullscreenenter"",""1"",""2658""
","
","
","""event"",""trial"",""time""
""fullscreenenter"",""1"",""2658""
","
","","","","","","","","","","","","","","","","","","","","","","","","","","",""
"pit-instructions","102","842072","0.0-2.0-19.0","battery-v0.2","","""event"",""trial"",""time""
""fullscreenenter"",""1"",""2658""
","
","
","""event"",""trial"",""time""
""fullscreenenter"",""1"",""2658""
","
","","[{""page_index"":0,""viewing_time"":6867.299999952316},{""page_index"":1,""viewing_time"":6084.100000143051},{""page_index"":2,""viewing_time"":14167.099999904633},{""page_index"":3,""viewing_time"":7749.900000095367},{""page_index"":4,""viewing_time"":8950.5},{""page_index"":5,""viewing_time"":8116.700000047684},{""page_index"":6,""viewing_time"":8266},{""page_index"":7,""viewing_time"":4475.099999904633},{""page_index"":8,""viewing_time"":4210.400000095367}]","68887.70000004768","","","","","","","","","","","","","","","","","","","","","","","",""
"pit-comprehension","103","848024","0.0-2.0-20.0-0.0","battery-v0.2","","""event"",""trial"",""time""
""fullscreenenter"",""1"",""2658""
","
","
","""event"",""trial"",""time""
""fullscreenenter"",""1"",""2658""
","
","","","5947.199999809265","[""SPACE""]","0","11","21203","7672","","","","","","","","","","","","","","","","","","",""
"pit-instructions","104","851204","0.0-2.0-20.0-1.0","battery-v0.2","","""event"",""trial"",""time""
""fullscreenenter"",""1"",""2658""
","
","
","""event"",""trial"",""time""
""fullscreenenter"",""1"",""2658""
","
","","[{""page_index"":0,""viewing_time"":3161.7000000476837}]","3162.2000000476837","","","","","","","","","","","","","","","","","","","","","","","",""
"pit-comprehension","105","858306","0.0-2.0-21.0-0.0","battery-v0.2","","""event"",""trial"",""time""
""fullscreenenter"",""1"",""2658""
","
","
","""event"",""trial"",""time""
""fullscreenenter"",""1"",""2658""
","
","","","7098.799999952316","[""10""]","0","11","21203","7672","","","","","","","","","","","","","","","","","","",""
"pit-instructions","106","860989","0.0-2.0-21.0-1.0","battery-v0.2","","""event"",""trial"",""time""
""fullscreenenter"",""1"",""2658""
","
","
","""event"",""trial"",""time""
""fullscreenenter"",""1"",""2658""
","
","","[{""page_index"":0,""viewing_time"":2665}]","2665.5999999046326","","","","","","","","","","","","","","","","","","","","","","","",""
"pit-comprehension","107","867606","0.0-2.0-22.0-0.0","battery-v0.2","","""event"",""trial"",""time""
""fullscreenenter"",""1"",""2658""
","
","
","""event"",""trial"",""time""
""fullscreenenter"",""1"",""2658""
","
","","","6613","[""0""]","0","11","21203","7672","","","","","","","","","","","","","","","","","","",""
"pit-instructions","108","869721","0.0-2.0-22.0-1.0","battery-v0.2","","""event"",""trial"",""time""
""fullscreenenter"",""1"",""2658""
","
","
","""event"",""trial"",""time""
""fullscreenenter"",""1"",""2658""
","
","","[{""page_index"":0,""viewing_time"":2094.399999856949}]","2094.899999856949","","","","","","","","","","","","","","","","","","","","","","","",""
"pit-comprehension","109","879938","0.0-2.0-23.0-0.0","battery-v0.2","","""event"",""trial"",""time""
""fullscreenenter"",""1"",""2658""
","
","
","""event"",""trial"",""time""
""fullscreenenter"",""1"",""2658""
","
","","","10213.200000047684","[""True""]","0","11","21203","7672","","","","","","","","","","","","","","","","","","",""
"pit-instructions","110","881721","0.0-2.0-23.0-1.0","battery-v0.2","","""event"",""trial"",""time""
""fullscreenenter"",""1"",""2658""
","
","
","""event"",""trial"",""time""
""fullscreenenter"",""1"",""2658""
","
","","[{""page_index"":0,""viewing_time"":1766.4000000953674}]","1767","","","","","","","","","","","","","","","","","","","","","","","",""
"pit-comprehension","111","889171","0.0-2.0-24.0-0.0","battery-v0.2","","""event"",""trial"",""time""
""fullscreenenter"",""1"",""2658""
","
","
","""event"",""trial"",""time""
""fullscreenenter"",""1"",""2658""
","
","","","7446.399999856949","[""True""]","0","11","21203","7672","","","","","","","","","","","","","","","","","","",""
"pit-instructions","112","890805","0.0-2.0-24.0-1.0","battery-v0.2","","""event"",""trial"",""time""
""fullscreenenter"",""1"",""2658""
","
","
","""event"",""trial"",""time""
""fullscreenenter"",""1"",""2658""
","
","","[{""page_index"":0,""viewing_time"":1610.7000000476837}]","1611.3000001907349","","","","","","","","","","","","","","","","","","","","","","","",""
"pit-comprehension","113","897389","0.0-2.0-25.0-0.0","battery-v0.2","","""event"",""trial"",""time""
""fullscreenenter"",""1"",""2658""
","
","
","""event"",""trial"",""time""
""fullscreenenter"",""1"",""2658""
","
","","","6580.100000143051","[""True""]","0","11","21203","7672","","","","","","","","","","","","","","","","","","",""
"pit-instructions","114","899205","0.0-2.0-25.0-1.0","battery-v0.2","","""event"",""trial"",""time""
""fullscreenenter"",""1"",""2658""
","
","
","""event"",""trial"",""time""
""fullscreenenter"",""1"",""2658""
","
","","[{""page_index"":0,""viewing_time"":1795.6000001430511}]","1796.1000001430511","","","","","","","","","","","","","","","","","","","","","","","",""
"pit-comprehension","115","903990","0.0-2.0-26.0-0.0","battery-v0.2","","""event"",""trial"",""time""
""fullscreenenter"",""1"",""2658""
","
","
","""event"",""trial"",""time""
""fullscreenenter"",""1"",""2658""
","
","","","4781.599999904633","[""False""]","0","11","21203","7672","","","","","","","","","","","","","","","","","","",""
"pit-instructions","116","906471","0.0-2.0-26.0-1.0","battery-v0.2","","""event"",""trial"",""time""
""fullscreenenter"",""1"",""2658""
","
","
","""event"",""trial"",""time""
""fullscreenenter"",""1"",""2658""
","
","","[{""page_index"":0,""viewing_time"":2459}]","2459.5999999046326","","","","","","","","","","","","","","","","","","","","","","","",""
"pit-instructions","117","924989","0.0-3.0","battery-v0.2","","""event"",""trial"",""time""
""fullscreenenter"",""1"",""2658""
","
","
","""event"",""trial"",""time""
""fullscreenenter"",""1"",""2658""
","
","","[{""page_index"":0,""viewing_time"":4865.099999904633},{""page_index"":1,""viewing_time"":5649.200000047684},{""page_index"":2,""viewing_time"":8000.900000095367}]","18515.799999952316","","","","","","","","","","","","","","","","","","","","","","","",""
"pit-trial","118","928384","0.0-4.0","battery-v0.2","","""event"",""trial"",""time""
""fullscreenenter"",""1"",""2658""
","
","
","""event"",""trial"",""time""
""fullscreenenter"",""1"",""2658""
","
","","","539.0999999046326","","","11","21203","7672","&#9728;","elianto","#f73b6a7A","-1"," ","0","-10","[1389.2999999523163]","1","1","","","21203","1","0","4","lose","no-go","0"
"pit-trial","119","931915","0.0-5.0","battery-v0.2","","""event"",""trial"",""time""
""fullscreenenter"",""1"",""2658""
","
","
","""event"",""trial"",""time""
""fullscreenenter"",""1"",""2658""
","
","","","674.5","","","11","21203","7672","&#9733;","elianto","#3366ff99","-1"," ","0","0","[1526.1000001430511]","1","1","","","21203","2","2","2","win","no-go","0"
"pit-trial","120","935459","0.0-6.0","battery-v0.2","","""event"",""trial"",""time""
""fullscreenenter"",""1"",""2658""
","
","
","""event"",""trial"",""time""
""fullscreenenter"",""1"",""2658""
","
","","","689.0999999046326","","","11","21203","7672","&#9730;","elianto","#3366ff99"," "," ","1","+10","[1540]","1","1","","","21203","3","1","1","win","go","0"
"pit-trial","121","938998","0.0-7.0","battery-v0.2","","""event"",""trial"",""time""
""fullscreenenter"",""1"",""2658""
","
","
","""event"",""trial"",""time""
""fullscreenenter"",""1"",""2658""
","
","","","683.9000000953674","","","11","21203","7672","&#9752;","elianto","#f73b6a7A"," "," ","1","0","[1534.7000000476837]","1","1","","","21203","4","3","3","lose","go","0"
"pit-trial","122","942467","0.0-8.0","battery-v0.2","","""event"",""trial"",""time""
""fullscreenenter"",""1"",""2658""
","
","
","""event"",""trial"",""time""
""fullscreenenter"",""1"",""2658""
","
","","","614.2000000476837","","","11","21203","7672","&#9752;","elianto","#f73b6a7A"," "," ","1","0","[1465.2999999523163]","1","1","","","21203","5","3","3","lose","go","0"
"pit-trial","123","945978","0.0-9.0","battery-v0.2","","""event"",""trial"",""time""
""fullscreenenter"",""1"",""2658""
","
","
","""event"",""trial"",""time""
""fullscreenenter"",""1"",""2658""
","
","","","655.1000001430511","","","11","21203","7672","&#9730;","elianto","#3366ff99"," "," ","1","+10","[1507]","1","1","","","21203","6","1","1","win","go","0"
"pit-trial","124","949386","0.0-10.0","battery-v0.2","","""event"",""trial"",""time""
""fullscreenenter"",""1"",""2658""
","
","
","""event"",""trial"",""time""
""fullscreenenter"",""1"",""2658""
","
","","","552.0999999046326","","","11","21203","7672","&#9733;","elianto","#3366ff99","-1"," ","0","+10","[1402.7000000476837]","1","1","","","21203","7","2","2","win","no-go","1"
"pit-trial","125","954242","0.0-11.0","battery-v0.2","","""event"",""trial"",""time""
""fullscreenenter"",""1"",""2658""
","
","
","""event"",""trial"",""time""
""fullscreenenter"",""1"",""2658""
","
","","","-1","","","11","21203","7672","&#9728;","elianto","#f73b6a7A","-1","-1","1","0","[]","0","1","","","21203","8","0","4","lose","no-go","0"
"pit-trial","126","959098","0.0-12.0","battery-v0.2","","""event"",""trial"",""time""
""fullscreenenter"",""1"",""2658""
","
","
","""event"",""trial"",""time""
""fullscreenenter"",""1"",""2658""
","
","","","-1","","","11","21203","7672","&#9728;","elianto","#f73b6a7A","-1","-1","1","-10","[]","0","1","","","21203","9","0","4","lose","no-go","1"
"pit-trial","127","962632","0.0-13.0","battery-v0.2","","""event"",""trial"",""time""
""fullscreenenter"",""1"",""2658""
","
","
","""event"",""trial"",""time""
""fullscreenenter"",""1"",""2658""
","
","","","678","","","11","21203","7672","&#9752;","elianto","#f73b6a7A"," "," ","1","0","[1529.7000000476837]","1","1","","","21203","10","3","3","lose","go","0"
"pit-trial","128","965856","0.0-14.0","battery-v0.2","","""event"",""trial"",""time""
""fullscreenenter"",""1"",""2658""
","
","
","""event"",""trial"",""time""
""fullscreenenter"",""1"",""2658""
","
","","","367.89999985694885","","","11","21203","7672","&#9733;","elianto","#3366ff99","-1"," ","0","0","[1219.3999998569489]","1","1","","","21203","11","2","2","win","no-go","0"
"pit-trial","129","969287","0.0-15.0","battery-v0.2","","""event"",""trial"",""time""
""fullscreenenter"",""1"",""2658""
","
","
","""event"",""trial"",""time""
""fullscreenenter"",""1"",""2658""
","
","","","577.7999999523163","","","11","21203","7672","&#9730;","elianto","#3366ff99"," "," ","1","+10","[1428.1999998092651]","1","1","","","21203","12","1","1","win","go","0"
"pit-trial","130","972583","0.0-16.0","battery-v0.2","","""event"",""trial"",""time""
""fullscreenenter"",""1"",""2658""
","
","
","""event"",""trial"",""time""
""fullscreenenter"",""1"",""2658""
","
","","","440.2000000476837","","","11","21203","7672","&#9752;","elianto","#f73b6a7A"," "," ","1","-10","[1291.5]","1","1","","","21203","13","3","3","lose","go","1"
"pit-trial","131","976079","0.0-17.0","battery-v0.2","","""event"",""trial"",""time""
""fullscreenenter"",""1"",""2658""
","
","
","""event"",""trial"",""time""
""fullscreenenter"",""1"",""2658""
","
","","","641.5","","","11","21203","7672","&#9730;","elianto","#3366ff99"," "," ","1","+10","[1492.4000000953674]","1","1","","","21203","14","1","1","win","go","0"
"pit-trial","132","979523","0.0-18.0","battery-v0.2","","""event"",""trial"",""time""
""fullscreenenter"",""1"",""2658""
","
","
","""event"",""trial"",""time""
""fullscreenenter"",""1"",""2658""
","
","","","588.5","","","11","21203","7672","&#9733;","elianto","#3366ff99","-1"," ","0","0","[1439.6000001430511]","1","1","","","21203","15","2","2","win","no-go","0"
"pit-trial","133","984379","0.0-19.0","battery-v0.2","","""event"",""trial"",""time""
""fullscreenenter"",""1"",""2658""
","
","
","""event"",""trial"",""time""
""fullscreenenter"",""1"",""2658""
","
","","","-1","","","11","21203","7672","&#9728;","elianto","#f73b6a7A","-1","-1","1","0","[]","0","1","","","21203","16","0","4","lose","no-go","0"
"pit-trial","134","987866","0.0-20.0","battery-v0.2","","""event"",""trial"",""time""
""fullscreenenter"",""1"",""2658""
","
","
","""event"",""trial"",""time""
""fullscreenenter"",""1"",""2658""
","
","","","631.3000001907349","","","11","21203","7672","&#9752;","elianto","#f73b6a7A"," "," ","1","0","[1482.9000000953674]","1","1","","","21203","17","3","3","lose","go","0"
"pit-trial","135","990975","0.0-21.0","battery-v0.2","","""event"",""trial"",""time""
""fullscreenenter"",""1"",""2658""
","
","
","""event"",""trial"",""time""
""fullscreenenter"",""1"",""2658""
","
","","","253.70000004768372","","","11","21203","7672","&#9728;","elianto","#f73b6a7A","-1"," ","0","-10","[1105.1000001430511]","1","1","","","21203","18","0","4","lose","no-go","0"
"pit-trial","136","994286","0.0-22.0","battery-v0.2","","""event"",""trial"",""time""
""fullscreenenter"",""1"",""2658""
","
","
","""event"",""trial"",""time""
""fullscreenenter"",""1"",""2658""
","
","","","455.2000000476837","","","11","21203","7672","&#9733;","elianto","#3366ff99","-1"," ","0","+10","[1305.7000000476837]","1","1","","","21203","19","2","2","win","no-go","1"
"pit-trial","137","997660","0.0-23.0","battery-v0.2","","""event"",""trial"",""time""
""fullscreenenter"",""1"",""2658""
","
","
","""event"",""trial"",""time""
""fullscreenenter"",""1"",""2658""
","
","","","517.6000001430511","","","11","21203","7672","&#9730;","elianto","#3366ff99"," "," ","1","0","[1369.5]","1","1","","","21203","20","1","1","win","go","1"
"pit-instructions","138","1011173","0.0-24.0","battery-v0.2","","""event"",""trial"",""time""
""fullscreenenter"",""1"",""2658""
","
","
","""event"",""trial"",""time""
""fullscreenenter"",""1"",""2658""
","
","","[{""page_index"":0,""viewing_time"":5827.400000095367},{""page_index"":1,""viewing_time"":7683.5}]","13511.299999952316","","","","","","","","","","","","","","","","","","","","","","","",""
"pit-trial","139","1014532","0.0-25.0","battery-v0.2","","""event"",""trial"",""time""
""fullscreenenter"",""1"",""2658""
","
","
","""event"",""trial"",""time""
""fullscreenenter"",""1"",""2658""
","
","","","502.5","","","11","21203","7672","n","elianto","#f73b6a7A"," "," ","1","-10","[1353.1000001430511]","1","2","","","21203","21","0","3","lose","go","1"
"pit-trial","140","1017948","0.0-26.0","battery-v0.2","","""event"",""trial"",""time""
""fullscreenenter"",""1"",""2658""
","
","
","""event"",""trial"",""time""
""fullscreenenter"",""1"",""2658""
","
","","","560.2999999523163","","","11","21203","7672","f","elianto","#3366ff99","-1"," ","0","0","[1411.2999999523163]","1","2","","","21203","22","1","2","win","no-go","0"
"pit-trial","141","1021592","0.0-27.0","battery-v0.2","","""event"",""trial"",""time""
""fullscreenenter"",""1"",""2658""
","
","
","""event"",""trial"",""time""
""fullscreenenter"",""1"",""2658""
","
","","","790.2999999523163","","","11","21203","7672","b","elianto","#f73b6a7A","-1"," ","0","-10","[1641]","1","2","","","21203","23","3","4","lose","no-go","0"
"pit-trial","142","1025574","0.0-28.0","battery-v0.2","","""event"",""trial"",""time""
""fullscreenenter"",""1"",""2658""
","
","
","""event"",""trial"",""time""
""fullscreenenter"",""1"",""2658""
","
","","","1127.2999999523163","","","11","21203","7672","t","elianto","#f73b6a7A"," "," ","1","0","[1977.7000000476837]","1","2","","","21203","24","2","3","lose","go","0"
"pit-trial","143","1029187","0.0-29.0","battery-v0.2","","""event"",""trial"",""time""
""fullscreenenter"",""1"",""2658""
","
","
","""event"",""trial"",""time""
""fullscreenenter"",""1"",""2658""
","
","","","757.4000000953674","","","11","21203","7672","t","elianto","#f73b6a7A"," "," ","1","0","[1608.6000001430511]","1","2","","","21203","25","2","3","lose","go","0"
"pit-trial","144","1034044","0.0-30.0","battery-v0.2","","""event"",""trial"",""time""
""fullscreenenter"",""1"",""2658""
","
","
","""event"",""trial"",""time""
""fullscreenenter"",""1"",""2658""
","
","","","-1","","","11","21203","7672","n","elianto","#f73b6a7A"," ","-1","0","-10","[]","0","2","","","21203","26","0","3","lose","go","0"
"pit-trial","145","1037529","0.0-31.0","battery-v0.2","","""event"",""trial"",""time""
""fullscreenenter"",""1"",""2658""
","
","
","""event"",""trial"",""time""
""fullscreenenter"",""1"",""2658""
","
","","","630.4000000953674","","","11","21203","7672","b","elianto","#f73b6a7A","-1"," ","0","-10","[1480.9000000953674]","1","2","","","21203","27","3","4","lose","no-go","0"
"pit-trial","146","1041165","0.0-32.0","battery-v0.2","","""event"",""trial"",""time""
""fullscreenenter"",""1"",""2658""
","
","
","""event"",""trial"",""time""
""fullscreenenter"",""1"",""2658""
","
","","","781","","","11","21203","7672","f","elianto","#3366ff99","-1"," ","0","0","[1632.4000000953674]","1","2","","","21203","28","1","2","win","no-go","0"
"pit-trial","147","1046021","0.0-33.0","battery-v0.2","","""event"",""trial"",""time""
""fullscreenenter"",""1"",""2658""
","
","
","""event"",""trial"",""time""
""fullscreenenter"",""1"",""2658""
","
","","","-1","","","11","21203","7672","f","elianto","#3366ff99","-1","-1","1","+10","[]","0","2","","","21203","29","1","2","win","no-go","0"
"pit-trial","148","1050876","0.0-34.0","battery-v0.2","","""event"",""trial"",""time""
""fullscreenenter"",""1"",""2658""
","
","
","""event"",""trial"",""time""
""fullscreenenter"",""1"",""2658""
","
","","","-1","","","11","21203","7672","n","elianto","#f73b6a7A"," ","-1","0","-10","[]","0","2","","","21203","30","0","3","lose","go","0"
"pit-trial","149","1055732","0.0-35.0","battery-v0.2","","""event"",""trial"",""time""
""fullscreenenter"",""1"",""2658""
","
","
","""event"",""trial"",""time""
""fullscreenenter"",""1"",""2658""
","
","","","-1","","","11","21203","7672","t","elianto","#f73b6a7A"," ","-1","0","-10","[]","0","2","","","21203","31","2","3","lose","go","0"
"pit-trial","150","1060587","0.0-36.0","battery-v0.2","","""event"",""trial"",""time""
""fullscreenenter"",""1"",""2658""
","
","
","""event"",""trial"",""time""
""fullscreenenter"",""1"",""2658""
","
","","","-1","","","11","21203","7672","b","elianto","#f73b6a7A","-1","-1","1","0","[]","0","2","","","21203","32","3","4","lose","no-go","0"
"pit-trial","151","1064146","0.0-37.0","battery-v0.2","","""event"",""trial"",""time""
""fullscreenenter"",""1"",""2658""
","
","
","""event"",""trial"",""time""
""fullscreenenter"",""1"",""2658""
","
","","","703.4000000953674","","","11","21203","7672","b","elianto","#f73b6a7A","-1"," ","0","-10","[1555.2999999523163]","1","2","","","21203","33","3","4","lose","no-go","0"
"pit-trial","152","1068274","0.0-38.0","battery-v0.2","","""event"",""trial"",""time""
""fullscreenenter"",""1"",""2658""
","
","
","""event"",""trial"",""time""
""fullscreenenter"",""1"",""2658""
","
","","","1272.8999998569489","","","11","21203","7672","t","elianto","#f73b6a7A"," "," ","1","0","[2124.5]","1","2","","","21203","34","2","3","lose","go","0"
"pit-trial","153","1072145","0.0-39.0","battery-v0.2","","""event"",""trial"",""time""
""fullscreenenter"",""1"",""2658""
","
","
","""event"",""trial"",""time""
""fullscreenenter"",""1"",""2658""
","
","","","1015.8999998569489","","","11","21203","7672","f","elianto","#3366ff99","-1"," ","0","0","[1867]","1","2","","","21203","35","1","2","win","no-go","0"
"pit-trial","154","1076294","0.0-40.0","battery-v0.2","","""event"",""trial"",""time""
""fullscreenenter"",""1"",""2658""
","
","
","""event"",""trial"",""time""
""fullscreenenter"",""1"",""2658""
","
","","","1293.5","","","11","21203","7672","n","elianto","#f73b6a7A"," "," ","1","0","[2145]","1","2","","","21203","36","0","3","lose","go","0"
"pit-trial","155","1081151","0.0-41.0","battery-v0.2","","""event"",""trial"",""time""
""fullscreenenter"",""1"",""2658""
","
","
","""event"",""trial"",""time""
""fullscreenenter"",""1"",""2658""
","
","","","-1","","","11","21203","7672","b","elianto","#f73b6a7A","-1","-1","1","0","[]","0","2","","","21203","37","3","4","lose","no-go","0"
"pit-trial","156","1085150","0.0-42.0","battery-v0.2","","""event"",""trial"",""time""
""fullscreenenter"",""1"",""2658""
","
","
","""event"",""trial"",""time""
""fullscreenenter"",""1"",""2658""
","
","","","1143.9000000953674","","","11","21203","7672","n","elianto","#f73b6a7A"," "," ","1","0","[1995.4000000953674]","1","2","","","21203","38","0","3","lose","go","0"
"pit-trial","157","1088854","0.0-43.0","battery-v0.2","","""event"",""trial"",""time""
""fullscreenenter"",""1"",""2658""
","
","
","""event"",""trial"",""time""
""fullscreenenter"",""1"",""2658""
","
","","","850","","","11","21203","7672","f","elianto","#3366ff99","-1"," ","0","0","[1701.3999998569489]","1","2","","","21203","39","1","2","win","no-go","0"
"pit-trial","158","1092935","0.0-44.0","battery-v0.2","","""event"",""trial"",""time""
""fullscreenenter"",""1"",""2658""
","
","
","""event"",""trial"",""time""
""fullscreenenter"",""1"",""2658""
","
","","","1225.9000000953674","","","11","21203","7672","t","elianto","#f73b6a7A"," "," ","1","-10","[2077.7000000476837]","1","2","","","21203","40","2","3","lose","go","1"
"pit-trial","159","1097791","0.0-45.0","battery-v0.2","","""event"",""trial"",""time""
""fullscreenenter"",""1"",""2658""
","
","
","""event"",""trial"",""time""
""fullscreenenter"",""1"",""2658""
","
","","","-1","","","11","21203","7672","f","elianto","#3366ff99","-1","-1","1","+10","[]","0","2","","","21203","41","1","2","win","no-go","0"
"pit-trial","160","1101547","0.0-46.0","battery-v0.2","","""event"",""trial"",""time""
""fullscreenenter"",""1"",""2658""
","
","
","""event"",""trial"",""time""
""fullscreenenter"",""1"",""2658""
","
","","","899.5999999046326","","","11","21203","7672","n","elianto","#f73b6a7A"," "," ","1","0","[1750.3999998569489]","1","2","","","21203","42","0","3","lose","go","0"
"pit-trial","161","1106403","0.0-47.0","battery-v0.2","","""event"",""trial"",""time""
""fullscreenenter"",""1"",""2658""
","
","
","""event"",""trial"",""time""
""fullscreenenter"",""1"",""2658""
","
","","","-1","","","11","21203","7672","b","elianto","#f73b6a7A","-1","-1","1","0","[]","0","2","","","21203","43","3","4","lose","no-go","0"
"pit-trial","162","1111259","0.0-48.0","battery-v0.2","","""event"",""trial"",""time""
""fullscreenenter"",""1"",""2658""
","
","
","""event"",""trial"",""time""
""fullscreenenter"",""1"",""2658""
","
","","","-1","","","11","21203","7672","t","elianto","#f73b6a7A"," ","-1","0","-10","[]","0","2","","","21203","44","2","3","lose","go","0"
"pit-trial","163","1114790","0.0-49.0","battery-v0.2","","""event"",""trial"",""time""
""fullscreenenter"",""1"",""2658""
","
","
","""event"",""trial"",""time""
""fullscreenenter"",""1"",""2658""
","
","","","675.5999999046326","","","11","21203","7672","t","elianto","#f73b6a7A"," "," ","1","0","[1526.0999999046326]","1","2","","","21203","45","2","3","lose","go","0"
"pit-trial","164","1119646","0.0-50.0","battery-v0.2","","""event"",""trial"",""time""
""fullscreenenter"",""1"",""2658""
","
","
","""event"",""trial"",""time""
""fullscreenenter"",""1"",""2658""
","
","","","-1","","","11","21203","7672","f","elianto","#3366ff99","-1","-1","1","+10","[]","0","2","","","21203","46","1","2","win","no-go","0"
"pit-trial","165","1124502","0.0-51.0","battery-v0.2","","""event"",""trial"",""time""
""fullscreenenter"",""1"",""2658""
","
","
","""event"",""trial"",""time""
""fullscreenenter"",""1"",""2658""
","
","","","-1","","","11","21203","7672","b","elianto","#f73b6a7A","-1","-1","1","0","[]","0","2","","","21203","47","3","4","lose","no-go","0"
"pit-trial","166","1128186","0.0-52.0","battery-v0.2","","""event"",""trial"",""time""
""fullscreenenter"",""1"",""2658""
","
","
","""event"",""trial"",""time""
""fullscreenenter"",""1"",""2658""
","
","","","828","","","11","21203","7672","n","elianto","#f73b6a7A"," "," ","1","-10","[1679.2000000476837]","1","2","","","21203","48","0","3","lose","go","1"
"pit-trial","167","1131847","0.0-53.0","battery-v0.2","","""event"",""trial"",""time""
""fullscreenenter"",""1"",""2658""
","
","
","""event"",""trial"",""time""
""fullscreenenter"",""1"",""2658""
","
","","","805.5999999046326","","","11","21203","7672","n","elianto","#f73b6a7A"," "," ","1","0","[1656.7000000476837]","1","2","","","21203","49","0","3","lose","go","0"
"pit-trial","168","1136704","0.0-54.0","battery-v0.2","","""event"",""trial"",""time""
""fullscreenenter"",""1"",""2658""
","
","
","""event"",""trial"",""time""
""fullscreenenter"",""1"",""2658""
","
","","","-1","","","11","21203","7672","f","elianto","#3366ff99","-1","-1","1","+10","[]","0","2","","","21203","50","1","2","win","no-go","0"
"pit-trial","169","1141559","0.0-55.0","battery-v0.2","","""event"",""trial"",""time""
""fullscreenenter"",""1"",""2658""
","
","
","""event"",""trial"",""time""
""fullscreenenter"",""1"",""2658""
","
","","","-1","","","11","21203","7672","t","elianto","#f73b6a7A"," ","-1","0","-10","[]","0","2","","","21203","51","2","3","lose","go","0"
"pit-trial","170","1146414","0.0-56.0","battery-v0.2","","""event"",""trial"",""time""
""fullscreenenter"",""1"",""2658""
","
","
","""event"",""trial"",""time""
""fullscreenenter"",""1"",""2658""
","
","","","-1","","","11","21203","7672","b","elianto","#f73b6a7A","-1","-1","1","0","[]","0","2","","","21203","52","3","4","lose","no-go","0"
"pit-trial","171","1149964","0.0-57.0","battery-v0.2","","""event"",""trial"",""time""
""fullscreenenter"",""1"",""2658""
","
","
","""event"",""trial"",""time""
""fullscreenenter"",""1"",""2658""
","
","","","693.3999998569489","","","11","21203","7672","t","elianto","#f73b6a7A"," "," ","1","-10","[1544.9000000953674]","1","2","","","21203","53","2","3","lose","go","1"
"pit-trial","172","1153604","0.0-58.0","battery-v0.2","","""event"",""trial"",""time""
""fullscreenenter"",""1"",""2658""
","
","
","""event"",""trial"",""time""
""fullscreenenter"",""1"",""2658""
","
","","","784.2999999523163","","","11","21203","7672","n","elianto","#f73b6a7A"," "," ","1","0","[1635.2000000476837]","1","2","","","21203","54","0","3","lose","go","0"
"pit-trial","173","1158459","0.0-59.0","battery-v0.2","","""event"",""trial"",""time""
""fullscreenenter"",""1"",""2658""
","
","
","""event"",""trial"",""time""
""fullscreenenter"",""1"",""2658""
","
","","","-1","","","11","21203","7672","b","elianto","#f73b6a7A","-1","-1","1","0","[]","0","2","","","21203","55","3","4","lose","no-go","0"
"pit-trial","174","1163315","0.0-60.0","battery-v0.2","","""event"",""trial"",""time""
""fullscreenenter"",""1"",""2658""
","
","
","""event"",""trial"",""time""
""fullscreenenter"",""1"",""2658""
","
","","","-1","","","11","21203","7672","f","elianto","#3366ff99","-1","-1","1","+10","[2989.2000000476837]","1","2","","","21203","56","1","2","win","no-go","0"
"pit-trial","175","1168171","0.0-61.0","battery-v0.2","","""event"",""trial"",""time""
""fullscreenenter"",""1"",""2658""
","
","
","""event"",""trial"",""time""
""fullscreenenter"",""1"",""2658""
","
","","","-1","","","11","21203","7672","b","elianto","#f73b6a7A","-1","-1","1","0","[]","0","2","","","21203","57","3","4","lose","no-go","0"
"pit-trial","176","1172019","0.0-62.0","battery-v0.2","","""event"",""trial"",""time""
""fullscreenenter"",""1"",""2658""
","
","
","""event"",""trial"",""time""
""fullscreenenter"",""1"",""2658""
","
","","","991.5999999046326","","","11","21203","7672","n","elianto","#f73b6a7A"," "," ","1","0","[1843.5]","1","2","","","21203","58","0","3","lose","go","0"
"pit-trial","177","1175877","0.0-63.0","battery-v0.2","","""event"",""trial"",""time""
""fullscreenenter"",""1"",""2658""
","
","
","""event"",""trial"",""time""
""fullscreenenter"",""1"",""2658""
","
","","","1002.7000000476837","","","11","21203","7672","c","elianto","#3366ff99"," "," ","1","+10","[1854.2999999523163]","1","2","","","21203","59","4","1","win","go","0"
"pit-trial","178","1179536","0.0-64.0","battery-v0.2","","""event"",""trial"",""time""
""fullscreenenter"",""1"",""2658""
","
","
","""event"",""trial"",""time""
""fullscreenenter"",""1"",""2658""
","
","","","804.2000000476837","","","11","21203","7672","t","elianto","#f73b6a7A"," "," ","1","0","[1654.8999998569489]","1","2","","","21203","60","2","3","lose","go","0"
"pit-trial","179","1184393","0.0-65.0","battery-v0.2","","""event"",""trial"",""time""
""fullscreenenter"",""1"",""2658""
","
","
","""event"",""trial"",""time""
""fullscreenenter"",""1"",""2658""
","
","","","-1","","","11","21203","7672","b","elianto","#f73b6a7A","-1","-1","1","0","[]","0","2","","","21203","61","3","4","lose","no-go","0"
"pit-trial","180","1187782","0.0-66.0","battery-v0.2","","""event"",""trial"",""time""
""fullscreenenter"",""1"",""2658""
","
","
","""event"",""trial"",""time""
""fullscreenenter"",""1"",""2658""
","
","","","533.0999999046326","","","11","21203","7672","c","elianto","#3366ff99"," "," ","1","0","[1384]","1","2","","","21203","62","4","1","win","go","1"
"pit-trial","181","1192638","0.0-67.0","battery-v0.2","","""event"",""trial"",""time""
""fullscreenenter"",""1"",""2658""
","
","
","""event"",""trial"",""time""
""fullscreenenter"",""1"",""2658""
","
","","","-1","","","11","21203","7672","f","elianto","#3366ff99","-1","-1","1","+10","[]","0","2","","","21203","63","1","2","win","no-go","0"
"pit-trial","182","1196746","0.0-68.0","battery-v0.2","","""event"",""trial"",""time""
""fullscreenenter"",""1"",""2658""
","
","
","""event"",""trial"",""time""
""fullscreenenter"",""1"",""2658""
","
","","","1252.5","","","11","21203","7672","t","elianto","#f73b6a7A"," "," ","1","0","[2104.399999856949]","1","2","","","21203","64","2","3","lose","go","0"
"pit-trial","183","1200267","0.0-69.0","battery-v0.2","","""event"",""trial"",""time""
""fullscreenenter"",""1"",""2658""
","
","
","""event"",""trial"",""time""
""fullscreenenter"",""1"",""2658""
","
","","","666.6000001430511","","","11","21203","7672","c","elianto","#3366ff99"," "," ","1","+10","[1517]","1","2","","","21203","65","4","1","win","go","0"
"pit-trial","184","1204096","0.0-70.0","battery-v0.2","","""event"",""trial"",""time""
""fullscreenenter"",""1"",""2658""
","
","
","""event"",""trial"",""time""
""fullscreenenter"",""1"",""2658""
","
","","","972.5","","","11","21203","7672","f","elianto","#3366ff99","-1"," ","0","0","[1824]","1","2","","","21203","66","1","2","win","no-go","0"
"pit-trial","185","1208951","0.0-71.0","battery-v0.2","","""event"",""trial"",""time""
""fullscreenenter"",""1"",""2658""
","
","
","""event"",""trial"",""time""
""fullscreenenter"",""1"",""2658""
","
","","","-1","","","11","21203","7672","b","elianto","#f73b6a7A","-1","-1","1","0","[]","0","2","","","21203","67","3","4","lose","no-go","0"
"pit-trial","186","1212528","0.0-72.0","battery-v0.2","","""event"",""trial"",""time""
""fullscreenenter"",""1"",""2658""
","
","
","""event"",""trial"",""time""
""fullscreenenter"",""1"",""2658""
","
","","","722.2999999523163","","","11","21203","7672","z","elianto","#3366ff99","-1"," ","0","+10","[1573.9000000953674]","1","2","","","21203","68","5","2","win","no-go","1"
"pit-trial","187","1217382","0.0-73.0","battery-v0.2","","""event"",""trial"",""time""
""fullscreenenter"",""1"",""2658""
","
","
","""event"",""trial"",""time""
""fullscreenenter"",""1"",""2658""
","
","","","-1","","","11","21203","7672","f","elianto","#3366ff99","-1","-1","1","+10","[]","0","2","","","21203","69","1","2","win","no-go","0"
"pit-trial","188","1220888","0.0-74.0","battery-v0.2","","""event"",""trial"",""time""
""fullscreenenter"",""1"",""2658""
","
","
","""event"",""trial"",""time""
""fullscreenenter"",""1"",""2658""
","
","","","650.2000000476837","","","11","21203","7672","c","elianto","#3366ff99"," "," ","1","+10","[1501.2999999523163]","1","2","","","21203","70","4","1","win","go","0"
"pit-trial","189","1225447","0.0-75.0","battery-v0.2","","""event"",""trial"",""time""
""fullscreenenter"",""1"",""2658""
","
","
","""event"",""trial"",""time""
""fullscreenenter"",""1"",""2658""
","
","","","1703.2999999523163","","","11","21203","7672","t","elianto","#f73b6a7A"," "," ","1","0","[2554.2999999523163]","1","2","","","21203","71","2","3","lose","go","0"
"pit-trial","190","1229018","0.0-76.0","battery-v0.2","","""event"",""trial"",""time""
""fullscreenenter"",""1"",""2658""
","
","
","""event"",""trial"",""time""
""fullscreenenter"",""1"",""2658""
","
","","","715.4000000953674","","","11","21203","7672","z","elianto","#3366ff99","-1"," ","0","0","[1566.1000001430511]","1","2","","","21203","72","5","2","win","no-go","0"
"pit-trial","191","1233873","0.0-77.0","battery-v0.2","","""event"",""trial"",""time""
""fullscreenenter"",""1"",""2658""
","
","
","""event"",""trial"",""time""
""fullscreenenter"",""1"",""2658""
","
","","","-1","","","11","21203","7672","b","elianto","#f73b6a7A","-1","-1","1","0","[]","0","2","","","21203","73","3","4","lose","no-go","0"
"pit-trial","192","1237516","0.0-78.0","battery-v0.2","","""event"",""trial"",""time""
""fullscreenenter"",""1"",""2658""
","
","
","""event"",""trial"",""time""
""fullscreenenter"",""1"",""2658""
","
","","","786.2999999523163","","","11","21203","7672","c","elianto","#3366ff99"," "," ","1","+10","[1637.7999999523163]","1","2","","","21203","74","4","1","win","go","0"
"pit-trial","193","1241104","0.0-79.0","battery-v0.2","","""event"",""trial"",""time""
""fullscreenenter"",""1"",""2658""
","
","
","""event"",""trial"",""time""
""fullscreenenter"",""1"",""2658""
","
","","","733.7999999523163","","","11","21203","7672","z","elianto","#3366ff99","-1"," ","0","0","[1584.9000000953674]","1","2","","","21203","75","5","2","win","no-go","0"
"pit-trial","194","1245958","0.0-80.0","battery-v0.2","","""event"",""trial"",""time""
""fullscreenenter"",""1"",""2658""
","
","
","""event"",""trial"",""time""
""fullscreenenter"",""1"",""2658""
","
","","","-1","","","11","21203","7672","f","elianto","#3366ff99","-1","-1","1","+10","[]","0","2","","","21203","76","1","2","win","no-go","0"
"pit-trial","195","1249511","0.0-81.0","battery-v0.2","","""event"",""trial"",""time""
""fullscreenenter"",""1"",""2658""
","
","
","""event"",""trial"",""time""
""fullscreenenter"",""1"",""2658""
","
","","","698","","","11","21203","7672","c","elianto","#3366ff99"," "," ","1","+10","[1549.2999999523163]","1","2","","","21203","77","4","1","win","go","0"
"pit-trial","196","1252943","0.0-82.0","battery-v0.2","","""event"",""trial"",""time""
""fullscreenenter"",""1"",""2658""
","
","
","""event"",""trial"",""time""
""fullscreenenter"",""1"",""2658""
","
","","","577.2999999523163","","","11","21203","7672","c","elianto","#3366ff99"," "," ","1","+10","[1427.7999999523163]","1","2","","","21203","78","4","1","win","go","0"
"pit-trial","197","1257799","0.0-83.0","battery-v0.2","","""event"",""trial"",""time""
""fullscreenenter"",""1"",""2658""
","
","
","""event"",""trial"",""time""
""fullscreenenter"",""1"",""2658""
","
","","","-1","","","11","21203","7672","b","elianto","#f73b6a7A","-1","-1","1","0","[]","0","2","","","21203","79","3","4","lose","no-go","0"
"pit-trial","198","1261290","0.0-84.0","battery-v0.2","","""event"",""trial"",""time""
""fullscreenenter"",""1"",""2658""
","
","
","""event"",""trial"",""time""
""fullscreenenter"",""1"",""2658""
","
","","","637","","","11","21203","7672","z","elianto","#3366ff99","-1"," ","0","0","[1487.5]","1","2","","","21203","80","5","2","win","no-go","0"
"pit-trial","199","1264892","0.0-85.0","battery-v0.2","","""event"",""trial"",""time""
""fullscreenenter"",""1"",""2658""
","
","
","""event"",""trial"",""time""
""fullscreenenter"",""1"",""2658""
","
","","","746.7999999523163","","","11","21203","7672","c","elianto","#3366ff99"," "," ","1","+10","[1598.3999998569489]","1","2","","","21203","81","4","1","win","go","0"
"pit-trial","200","1269748","0.0-86.0","battery-v0.2","","""event"",""trial"",""time""
""fullscreenenter"",""1"",""2658""
","
","
","""event"",""trial"",""time""
""fullscreenenter"",""1"",""2658""
","
","","","-1","","","11","21203","7672","z","elianto","#3366ff99","-1","-1","1","+10","[]","0","2","","","21203","82","5","2","win","no-go","0"
"pit-trial","201","1274604","0.0-87.0","battery-v0.2","","""event"",""trial"",""time""
""fullscreenenter"",""1"",""2658""
","
","
","""event"",""trial"",""time""
""fullscreenenter"",""1"",""2658""
","
","","","-1","","","11","21203","7672","b","elianto","#f73b6a7A","-1","-1","1","0","[]","0","2","","","21203","83","3","4","lose","no-go","0"
"pit-trial","202","1278335","0.0-88.0","battery-v0.2","","""event"",""trial"",""time""
""fullscreenenter"",""1"",""2658""
","
","
","""event"",""trial"",""time""
""fullscreenenter"",""1"",""2658""
","
","","","875.5","","","11","21203","7672","y","elianto","#f73b6a7A","-1"," ","0","-10","[1726.7999999523163]","1","2","","","21203","84","7","4","lose","no-go","0"
"pit-trial","203","1281783","0.0-89.0","battery-v0.2","","""event"",""trial"",""time""
""fullscreenenter"",""1"",""2658""
","
","
","""event"",""trial"",""time""
""fullscreenenter"",""1"",""2658""
","
","","","591.3999998569489","","","11","21203","7672","c","elianto","#3366ff99"," "," ","1","0","[1442.2999999523163]","1","2","","","21203","85","4","1","win","go","1"
"pit-trial","204","1286639","0.0-90.0","battery-v0.2","","""event"",""trial"",""time""
""fullscreenenter"",""1"",""2658""
","
","
","""event"",""trial"",""time""
""fullscreenenter"",""1"",""2658""
","
","","","-1","","","11","21203","7672","z","elianto","#3366ff99","-1","-1","1","+10","[]","0","2","","","21203","86","5","2","win","no-go","0"
"pit-trial","205","1290442","0.0-91.0","battery-v0.2","","""event"",""trial"",""time""
""fullscreenenter"",""1"",""2658""
","
","
","""event"",""trial"",""time""
""fullscreenenter"",""1"",""2658""
","
","","","947.1000001430511","","","11","21203","7672","h","elianto","#f73b6a7A"," "," ","1","0","[1798.0999999046326]","1","2","","","21203","87","6","3","lose","go","0"
"pit-trial","206","1295298","0.0-92.0","battery-v0.2","","""event"",""trial"",""time""
""fullscreenenter"",""1"",""2658""
","
","
","""event"",""trial"",""time""
""fullscreenenter"",""1"",""2658""
","
","","","-1","","","11","21203","7672","y","elianto","#f73b6a7A","-1","-1","1","-10","[]","0","2","","","21203","88","7","4","lose","no-go","1"
"pit-trial","207","1300153","0.0-93.0","battery-v0.2","","""event"",""trial"",""time""
""fullscreenenter"",""1"",""2658""
","
","
","""event"",""trial"",""time""
""fullscreenenter"",""1"",""2658""
","
","","","-1","","","11","21203","7672","h","elianto","#f73b6a7A"," ","-1","0","0","[]","0","2","","","21203","89","6","3","lose","go","1"
"pit-trial","208","1305009","0.0-94.0","battery-v0.2","","""event"",""trial"",""time""
""fullscreenenter"",""1"",""2658""
","
","
","""event"",""trial"",""time""
""fullscreenenter"",""1"",""2658""
","
","","","-1","","","11","21203","7672","z","elianto","#3366ff99","-1","-1","1","+10","[]","0","2","","","21203","90","5","2","win","no-go","0"
"pit-trial","209","1308569","0.0-95.0","battery-v0.2","","""event"",""trial"",""time""
""fullscreenenter"",""1"",""2658""
","
","
","""event"",""trial"",""time""
""fullscreenenter"",""1"",""2658""
","
","","","705.5","","","11","21203","7672","c","elianto","#3366ff99"," "," ","1","+10","[1556.2999999523163]","1","2","","","21203","91","4","1","win","go","0"
"pit-trial","210","1313425","0.0-96.0","battery-v0.2","","""event"",""trial"",""time""
""fullscreenenter"",""1"",""2658""
","
","
","""event"",""trial"",""time""
""fullscreenenter"",""1"",""2658""
","
","","","-1","","","11","21203","7672","y","elianto","#f73b6a7A","-1","-1","1","0","[3138.2000000476837]","1","2","","","21203","92","7","4","lose","no-go","0"
"pit-trial","211","1317219","0.0-97.0","battery-v0.2","","""event"",""trial"",""time""
""fullscreenenter"",""1"",""2658""
","
","
","""event"",""trial"",""time""
""fullscreenenter"",""1"",""2658""
","
","","","939.5","","","11","21203","7672","r","elianto","#3366ff99"," "," ","1","+10","[1790.2999999523163]","1","2","","","21203","93","8","1","win","go","0"
"pit-trial","212","1322075","0.0-98.0","battery-v0.2","","""event"",""trial"",""time""
""fullscreenenter"",""1"",""2658""
","
","
","""event"",""trial"",""time""
""fullscreenenter"",""1"",""2658""
","
","","","-1","","","11","21203","7672","z","elianto","#3366ff99","-1","-1","1","0","[]","0","2","","","21203","94","5","2","win","no-go","1"
"pit-trial","213","1326931","0.0-99.0","battery-v0.2","","""event"",""trial"",""time""
""fullscreenenter"",""1"",""2658""
","
","
","""event"",""trial"",""time""
""fullscreenenter"",""1"",""2658""
","
","","","-1","","","11","21203","7672","h","elianto","#f73b6a7A"," ","-1","0","0","[]","0","2","","","21203","95","6","3","lose","go","1"
"pit-trial","214","1331787","0.0-100.0","battery-v0.2","","""event"",""trial"",""time""
""fullscreenenter"",""1"",""2658""
","
","
","""event"",""trial"",""time""
""fullscreenenter"",""1"",""2658""
","
","","","-1","","","11","21203","7672","y","elianto","#f73b6a7A","-1","-1","1","0","[]","0","2","","","21203","96","7","4","lose","no-go","0"
"pit-trial","215","1336643","0.0-101.0","battery-v0.2","","""event"",""trial"",""time""
""fullscreenenter"",""1"",""2658""
","
","
","""event"",""trial"",""time""
""fullscreenenter"",""1"",""2658""
","
","","","-1","","","11","21203","7672","z","elianto","#3366ff99","-1","-1","1","0","[]","0","2","","","21203","97","5","2","win","no-go","1"
"pit-trial","216","1341499","0.0-102.0","battery-v0.2","","""event"",""trial"",""time""
""fullscreenenter"",""1"",""2658""
","
","
","""event"",""trial"",""time""
""fullscreenenter"",""1"",""2658""
","
","","","-1","","","11","21203","7672","y","elianto","#f73b6a7A","-1","-1","1","0","[]","0","2","","","21203","98","7","4","lose","no-go","0"
"pit-trial","217","1346355","0.0-103.0","battery-v0.2","","""event"",""trial"",""time""
""fullscreenenter"",""1"",""2658""
","
","
","""event"",""trial"",""time""
""fullscreenenter"",""1"",""2658""
","
","","","-1","","","11","21203","7672","h","elianto","#f73b6a7A"," ","-1","0","-10","[]","0","2","","","21203","99","6","3","lose","go","0"
"pit-trial","218","1349983","0.0-104.0","battery-v0.2","","""event"",""trial"",""time""
""fullscreenenter"",""1"",""2658""
","
","
","""event"",""trial"",""time""
""fullscreenenter"",""1"",""2658""
","
","","","771.4000000953674","","","11","21203","7672","r","elianto","#3366ff99"," "," ","1","+10","[1623.2000000476837]","1","2","","","21203","100","8","1","win","go","0"
"pit-trial","219","1354839","0.0-105.0","battery-v0.2","","""event"",""trial"",""time""
""fullscreenenter"",""1"",""2658""
","
","
","""event"",""trial"",""time""
""fullscreenenter"",""1"",""2658""
","
","","","-1","","","11","21203","7672","z","elianto","#3366ff99","-1","-1","1","+10","[]","0","2","","","21203","101","5","2","win","no-go","0"
"pit-trial","220","1358636","0.0-106.0","battery-v0.2","","""event"",""trial"",""time""
""fullscreenenter"",""1"",""2658""
","
","
","""event"",""trial"",""time""
""fullscreenenter"",""1"",""2658""
","
","","","941","","","11","21203","7672","m","elianto","#3366ff99"," "," ","1","+10","[1792.2999999523163]","1","2","","","21203","102","9","1","win","go","0"
"pit-trial","221","1363491","0.0-107.0","battery-v0.2","","""event"",""trial"",""time""
""fullscreenenter"",""1"",""2658""
","
","
","""event"",""trial"",""time""
""fullscreenenter"",""1"",""2658""
","
","","","-1","","","11","21203","7672","y","elianto","#f73b6a7A","-1","-1","1","0","[]","0","2","","","21203","103","7","4","lose","no-go","0"
"pit-trial","222","1367051","0.0-108.0","battery-v0.2","","""event"",""trial"",""time""
""fullscreenenter"",""1"",""2658""
","
","
","""event"",""trial"",""time""
""fullscreenenter"",""1"",""2658""
","
","","","704.6000001430511","","","11","21203","7672","r","elianto","#3366ff99"," "," ","1","+10","[1556]","1","2","","","21203","104","8","1","win","go","0"
"pit-trial","223","1371907","0.0-109.0","battery-v0.2","","""event"",""trial"",""time""
""fullscreenenter"",""1"",""2658""
","
","
","""event"",""trial"",""time""
""fullscreenenter"",""1"",""2658""
","
","","","-1","","","11","21203","7672","h","elianto","#f73b6a7A"," ","-1","0","-10","[]","0","2","","","21203","105","6","3","lose","go","0"
"pit-trial","224","1376352","0.0-110.0","battery-v0.2","","""event"",""trial"",""time""
""fullscreenenter"",""1"",""2658""
","
","
","""event"",""trial"",""time""
""fullscreenenter"",""1"",""2658""
","
","","","1590.1999998092651","","","11","21203","7672","m","elianto","#3366ff99"," "," ","1","+10","[2441.899999856949]","1","2","","","21203","106","9","1","win","go","0"
"pit-trial","225","1380399","0.0-111.0","battery-v0.2","","""event"",""trial"",""time""
""fullscreenenter"",""1"",""2658""
","
","
","""event"",""trial"",""time""
""fullscreenenter"",""1"",""2658""
","
","","","1192.7000000476837","","","11","21203","7672","c","elianto","#3366ff99"," "," ","1","+10","[2044.2000000476837]","1","2","","","21203","107","4","1","win","go","0"
"pit-trial","226","1384026","0.0-112.0","battery-v0.2","","""event"",""trial"",""time""
""fullscreenenter"",""1"",""2658""
","
","
","""event"",""trial"",""time""
""fullscreenenter"",""1"",""2658""
","
","","","772.4000000953674","","","11","21203","7672","r","elianto","#3366ff99"," "," ","1","+10","[1622.7999999523163]","1","2","","","21203","108","8","1","win","go","0"
"pit-trial","227","1388882","0.0-113.0","battery-v0.2","","""event"",""trial"",""time""
""fullscreenenter"",""1"",""2658""
","
","
","""event"",""trial"",""time""
""fullscreenenter"",""1"",""2658""
","
","","","-1","","","11","21203","7672","h","elianto","#f73b6a7A"," ","-1","0","-10","[]","0","2","","","21203","109","6","3","lose","go","0"
"pit-trial","228","1393737","0.0-114.0","battery-v0.2","","""event"",""trial"",""time""
""fullscreenenter"",""1"",""2658""
","
","
","""event"",""trial"",""time""
""fullscreenenter"",""1"",""2658""
","
","","","-1","","","11","21203","7672","z","elianto","#3366ff99","-1","-1","1","+10","[]","0","2","","","21203","110","5","2","win","no-go","0"
"pit-trial","229","1397358","0.0-115.0","battery-v0.2","","""event"",""trial"",""time""
""fullscreenenter"",""1"",""2658""
","
","
","""event"",""trial"",""time""
""fullscreenenter"",""1"",""2658""
","
","","","766.5","","","11","21203","7672","m","elianto","#3366ff99"," "," ","1","+10","[1617.7000000476837]","1","2","","","21203","111","9","1","win","go","0"
"pit-trial","230","1401010","0.0-116.0","battery-v0.2","","""event"",""trial"",""time""
""fullscreenenter"",""1"",""2658""
","
","
","""event"",""trial"",""time""
""fullscreenenter"",""1"",""2658""
","
","","","795.9000000953674","","","11","21203","7672","r","elianto","#3366ff99"," "," ","1","+10","[1647.2999999523163]","1","2","","","21203","112","8","1","win","go","0"
"pit-trial","231","1404545","0.0-117.0","battery-v0.2","","""event"",""trial"",""time""
""fullscreenenter"",""1"",""2658""
","
","
","""event"",""trial"",""time""
""fullscreenenter"",""1"",""2658""
","
","","","679.1000001430511","","","11","21203","7672","m","elianto","#3366ff99"," "," ","1","+10","[1529.1999998092651]","1","2","","","21203","113","9","1","win","go","0"
"pit-trial","232","1409401","0.0-118.0","battery-v0.2","","""event"",""trial"",""time""
""fullscreenenter"",""1"",""2658""
","
","
","""event"",""trial"",""time""
""fullscreenenter"",""1"",""2658""
","
","","","-1","","","11","21203","7672","h","elianto","#f73b6a7A"," ","-1","0","-10","[]","0","2","","","21203","114","6","3","lose","go","0"
"pit-trial","233","1413009","0.0-119.0","battery-v0.2","","""event"",""trial"",""time""
""fullscreenenter"",""1"",""2658""
","
","
","""event"",""trial"",""time""
""fullscreenenter"",""1"",""2658""
","
","","","752.8999998569489","","","11","21203","7672","z","elianto","#3366ff99","-1"," ","0","0","[1603.7999999523163]","1","2","","","21203","115","5","2","win","no-go","0"
"pit-trial","234","1416519","0.0-120.0","battery-v0.2","","""event"",""trial"",""time""
""fullscreenenter"",""1"",""2658""
","
","
","""event"",""trial"",""time""
""fullscreenenter"",""1"",""2658""
","
","","","654.1999998092651","","","11","21203","7672","r","elianto","#3366ff99"," "," ","1","+10","[1506.0999999046326]","1","2","","","21203","116","8","1","win","go","0"
"pit-trial","235","1421376","0.0-121.0","battery-v0.2","","""event"",""trial"",""time""
""fullscreenenter"",""1"",""2658""
","
","
","""event"",""trial"",""time""
""fullscreenenter"",""1"",""2658""
","
","","","-1","","","11","21203","7672","h","elianto","#f73b6a7A"," ","-1","0","0","[]","0","2","","","21203","117","6","3","lose","go","1"
"pit-trial","236","1425165","0.0-122.0","battery-v0.2","","""event"",""trial"",""time""
""fullscreenenter"",""1"",""2658""
","
","
","""event"",""trial"",""time""
""fullscreenenter"",""1"",""2658""
","
","","","934.3999998569489","","","11","21203","7672","m","elianto","#3366ff99"," "," ","1","+10","[1785.2999999523163]","1","2","","","21203","118","9","1","win","go","0"
"pit-trial","237","1428748","0.0-123.0","battery-v0.2","","""event"",""trial"",""time""
""fullscreenenter"",""1"",""2658""
","
","
","""event"",""trial"",""time""
""fullscreenenter"",""1"",""2658""
","
","","","728.2000000476837","","","11","21203","7672","r","elianto","#3366ff99"," "," ","1","+10","[1579.4000000953674]","1","2","","","21203","119","8","1","win","go","0"
"pit-trial","238","1433604","0.0-124.0","battery-v0.2","","""event"",""trial"",""time""
""fullscreenenter"",""1"",""2658""
","
","
","""event"",""trial"",""time""
""fullscreenenter"",""1"",""2658""
","
","","","-1","","","11","21203","7672","z","elianto","#3366ff99","-1","-1","1","+10","[]","0","2","","","21203","120","5","2","win","no-go","0"
"pit-trial","239","1438460","0.0-125.0","battery-v0.2","","""event"",""trial"",""time""
""fullscreenenter"",""1"",""2658""
","
","
","""event"",""trial"",""time""
""fullscreenenter"",""1"",""2658""
","
","","","-1","","","11","21203","7672","y","elianto","#f73b6a7A","-1","-1","1","0","[]","0","2","","","21203","121","7","4","lose","no-go","0"
"pit-trial","240","1443316","0.0-126.0","battery-v0.2","","""event"",""trial"",""time""
""fullscreenenter"",""1"",""2658""
","
","
","""event"",""trial"",""time""
""fullscreenenter"",""1"",""2658""
","
","","","-1","","","11","21203","7672","h","elianto","#f73b6a7A"," ","-1","0","-10","[]","0","2","","","21203","122","6","3","lose","go","0"
"pit-trial","241","1446914","0.0-127.0","battery-v0.2","","""event"",""trial"",""time""
""fullscreenenter"",""1"",""2658""
","
","
","""event"",""trial"",""time""
""fullscreenenter"",""1"",""2658""
","
","","","742.2999999523163","","","11","21203","7672","m","elianto","#3366ff99"," "," ","1","0","[1592.6000001430511]","1","2","","","21203","123","9","1","win","go","1"
"pit-trial","242","1450598","0.0-128.0","battery-v0.2","","""event"",""trial"",""time""
""fullscreenenter"",""1"",""2658""
","
","
","""event"",""trial"",""time""
""fullscreenenter"",""1"",""2658""
","
","","","829.9000000953674","","","11","21203","7672","r","elianto","#3366ff99"," "," ","1","+10","[1680.2999999523163]","1","2","","","21203","124","8","1","win","go","0"
"pit-trial","243","1455454","0.0-129.0","battery-v0.2","","""event"",""trial"",""time""
""fullscreenenter"",""1"",""2658""
","
","
","""event"",""trial"",""time""
""fullscreenenter"",""1"",""2658""
","
","","","-1","","","11","21203","7672","h","elianto","#f73b6a7A"," ","-1","0","-10","[]","0","2","","","21203","125","6","3","lose","go","0"
"pit-trial","244","1459240","0.0-130.0","battery-v0.2","","""event"",""trial"",""time""
""fullscreenenter"",""1"",""2658""
","
","
","""event"",""trial"",""time""
""fullscreenenter"",""1"",""2658""
","
","","","929.7000000476837","","","11","21203","7672","m","elianto","#3366ff99"," "," ","1","+10","[1781.0999999046326]","1","2","","","21203","126","9","1","win","go","0"
"pit-trial","245","1464096","0.0-131.0","battery-v0.2","","""event"",""trial"",""time""
""fullscreenenter"",""1"",""2658""
","
","
","""event"",""trial"",""time""
""fullscreenenter"",""1"",""2658""
","
","","","-1","","","11","21203","7672","y","elianto","#f73b6a7A","-1","-1","1","0","[]","0","2","","","21203","127","7","4","lose","no-go","0"
"pit-trial","246","1467638","0.0-132.0","battery-v0.2","","""event"",""trial"",""time""
""fullscreenenter"",""1"",""2658""
","
","
","""event"",""trial"",""time""
""fullscreenenter"",""1"",""2658""
","
","","","687.1000001430511","","","11","21203","7672","r","elianto","#3366ff99"," "," ","1","+10","[1537.8999998569489]","1","2","","","21203","128","8","1","win","go","0"
"pit-trial","247","1471026","0.0-133.0","battery-v0.2","","""event"",""trial"",""time""
""fullscreenenter"",""1"",""2658""
","
","
","""event"",""trial"",""time""
""fullscreenenter"",""1"",""2658""
","
","","","531","","","11","21203","7672","h","elianto","#f73b6a7A"," "," ","1","0","[1383.0999999046326]","1","2","","","21203","129","6","3","lose","go","0"
"pit-trial","248","1474818","0.0-134.0","battery-v0.2","","""event"",""trial"",""time""
""fullscreenenter"",""1"",""2658""
","
","
","""event"",""trial"",""time""
""fullscreenenter"",""1"",""2658""
","
","","","934.6999998092651","","","11","21203","7672","r","elianto","#3366ff99"," "," ","1","+10","[1786.3999998569489]","1","2","","","21203","130","8","1","win","go","0"
"pit-trial","249","1479673","0.0-135.0","battery-v0.2","","""event"",""trial"",""time""
""fullscreenenter"",""1"",""2658""
","
","
","""event"",""trial"",""time""
""fullscreenenter"",""1"",""2658""
","
","","","-1","","","11","21203","7672","y","elianto","#f73b6a7A","-1","-1","1","0","[]","0","2","","","21203","131","7","4","lose","no-go","0"
"pit-trial","250","1483189","0.0-136.0","battery-v0.2","","""event"",""trial"",""time""
""fullscreenenter"",""1"",""2658""
","
","
","""event"",""trial"",""time""
""fullscreenenter"",""1"",""2658""
","
","","","659.7000000476837","","","11","21203","7672","m","elianto","#3366ff99"," "," ","1","+10","[1511.7000000476837]","1","2","","","21203","132","9","1","win","go","0"
"pit-trial","251","1486720","0.0-137.0","battery-v0.2","","""event"",""trial"",""time""
""fullscreenenter"",""1"",""2658""
","
","
","""event"",""trial"",""time""
""fullscreenenter"",""1"",""2658""
","
","","","675.7000000476837","","","11","21203","7672","m","elianto","#3366ff99"," "," ","1","+10","[1526.7000000476837]","1","2","","","21203","133","9","1","win","go","0"
"pit-trial","252","1490075","0.0-138.0","battery-v0.2","","""event"",""trial"",""time""
""fullscreenenter"",""1"",""2658""
","
","
","""event"",""trial"",""time""
""fullscreenenter"",""1"",""2658""
","
","","","499.7000000476837","","","11","21203","7672","h","elianto","#f73b6a7A"," "," ","1","0","[1350.6999998092651]","1","2","","","21203","134","6","3","lose","go","0"
"pit-trial","253","1494930","0.0-139.0","battery-v0.2","","""event"",""trial"",""time""
""fullscreenenter"",""1"",""2658""
","
","
","""event"",""trial"",""time""
""fullscreenenter"",""1"",""2658""
","
","","","-1","","","11","21203","7672","y","elianto","#f73b6a7A","-1","-1","1","0","[]","0","2","","","21203","135","7","4","lose","no-go","0"
"pit-trial","254","1498374","0.0-140.0","battery-v0.2","","""event"",""trial"",""time""
""fullscreenenter"",""1"",""2658""
","
","
","""event"",""trial"",""time""
""fullscreenenter"",""1"",""2658""
","
","","","588.2000000476837","","","11","21203","7672","r","elianto","#3366ff99"," "," ","1","0","[1439.2000000476837]","1","2","","","21203","136","8","1","win","go","1"
"pit-trial","255","1502031","0.0-141.0","battery-v0.2","","""event"",""trial"",""time""
""fullscreenenter"",""1"",""2658""
","
","
","""event"",""trial"",""time""
""fullscreenenter"",""1"",""2658""
","
","","","801.5","","","11","21203","7672","h","elianto","#f73b6a7A"," "," ","1","-10","[1653.2000000476837]","1","2","","","21203","137","6","3","lose","go","1"
"pit-trial","256","1505685","0.0-142.0","battery-v0.2","","""event"",""trial"",""time""
""fullscreenenter"",""1"",""2658""
","
","
","""event"",""trial"",""time""
""fullscreenenter"",""1"",""2658""
","
","","","799.3000001907349","","","11","21203","7672","r","elianto","#3366ff99"," "," ","1","0","[1650.2000000476837]","1","2","","","21203","138","8","1","win","go","1"
"pit-trial","257","1509117","0.0-143.0","battery-v0.2","","""event"",""trial"",""time""
""fullscreenenter"",""1"",""2658""
","
","
","""event"",""trial"",""time""
""fullscreenenter"",""1"",""2658""
","
","","","576.0999999046326","","","11","21203","7672","m","elianto","#3366ff99"," "," ","1","+10","[1427.6999998092651]","1","2","","","21203","139","9","1","win","go","0"
"pit-trial","258","1513973","0.0-144.0","battery-v0.2","","""event"",""trial"",""time""
""fullscreenenter"",""1"",""2658""
","
","
","""event"",""trial"",""time""
""fullscreenenter"",""1"",""2658""
","
","","","-1","","","11","21203","7672","y","elianto","#f73b6a7A","-1","-1","1","0","[]","0","2","","","21203","140","7","4","lose","no-go","0"
"pit-instructions","259","1529196","0.0-145.0","battery-v0.2","","""event"",""trial"",""time""
""fullscreenenter"",""1"",""2658""
","
","
","""event"",""trial"",""time""
""fullscreenenter"",""1"",""2658""
","
","","[{""page_index"":0,""viewing_time"":5302.300000190735},{""page_index"":1,""viewing_time"":9917.599999904633}]","15220.400000095367","","","","","","","","","","","","","","","","","","","","","","","",""
"pit-trial","260","1533164","0.0-146.0","battery-v0.2","","""event"",""trial"",""time""
""fullscreenenter"",""1"",""2658""
","
","
","""event"",""trial"",""time""
""fullscreenenter"",""1"",""2658""
","
","","","1110.9000000953674","","","11","21203","7672","l","elianto","#3366ff99"," "," ","1","+10","[1961.5]","1","3","","","21203","141","1","1","win","go","0"
"pit-trial","261","1536787","0.0-147.0","battery-v0.2","","""event"",""trial"",""time""
""fullscreenenter"",""1"",""2658""
","
","
","""event"",""trial"",""time""
""fullscreenenter"",""1"",""2658""
","
","","","768.7000000476837","","","11","21203","7672","g","elianto","#f73b6a7A"," "," ","1","0","[1618.7999999523163]","1","3","","","21203","142","3","3","lose","go","0"
"pit-trial","262","1540389","0.0-148.0","battery-v0.2","","""event"",""trial"",""time""
""fullscreenenter"",""1"",""2658""
","
","
","""event"",""trial"",""time""
""fullscreenenter"",""1"",""2658""
","
","","","745.7000000476837","","","11","21203","7672","a","elianto","#f73b6a7A","-1"," ","0","-10","[1597.3999998569489]","1","3","","","21203","143","2","4","lose","no-go","0"
"pit-trial","263","1543882","0.0-149.0","battery-v0.2","","""event"",""trial"",""time""
""fullscreenenter"",""1"",""2658""
","
","
","""event"",""trial"",""time""
""fullscreenenter"",""1"",""2658""
","
","","","637.5999999046326","","","11","21203","7672","u","elianto","#f73b6a7A","-1"," ","0","-10","[1489.1000001430511]","1","3","","","21203","144","0","4","lose","no-go","0"
"pit-trial","264","1547823","0.0-150.0","battery-v0.2","","""event"",""trial"",""time""
""fullscreenenter"",""1"",""2658""
","
","
","""event"",""trial"",""time""
""fullscreenenter"",""1"",""2658""
","
","","","1086.7999999523163","","","11","21203","7672","g","elianto","#f73b6a7A"," "," ","1","-10","[1937.0999999046326]","1","3","","","21203","145","3","3","lose","go","1"
"pit-trial","265","1552680","0.0-151.0","battery-v0.2","","""event"",""trial"",""time""
""fullscreenenter"",""1"",""2658""
","
","
","""event"",""trial"",""time""
""fullscreenenter"",""1"",""2658""
","
","","","-1","","","11","21203","7672","u","elianto","#f73b6a7A","-1","-1","1","0","[]","0","3","","","21203","146","0","4","lose","no-go","0"
"pit-trial","266","1557536","0.0-152.0","battery-v0.2","","""event"",""trial"",""time""
