"trial_type","trial_index","time_elapsed","internal_node_id","task_version","subject_id","interactions","blur_events","focus_events","fullscreenenter_events","fullscreenexit_events","success","view_history","rt","responses","num_errors","age","subject","participantId","rune","rune_set","hex","correct","choice","accuracy","outcome","keys","total_keys","block","practice","value","sub","trial","stimulus","robot","valence","action","sham"
"pavlovia","0","7","0.0-0.0","battery-v0.2","","""event"",""trial"",""time""
""fullscreenenter"",""1"",""2702""
","
","
","""event"",""trial"",""time""
""fullscreenenter"",""1"",""2702""
","
","","","","","","","","","","","","","","","","","","","","","","","","","","",""
"fullscreen","1","3670","0.0-1.0","battery-v0.2","","""event"",""trial"",""time""
""fullscreenenter"",""1"",""2702""
""fullscreenexit"",""2"",""10222""
""blur"",""2"",""11913""
""focus"",""2"",""13949""
","""event"",""trial"",""time""
""blur"",""2"",""11913""
","""event"",""trial"",""time""
""focus"",""2"",""13949""
","""event"",""trial"",""time""
""fullscreenenter"",""1"",""2702""
","""event"",""trial"",""time""
""fullscreenexit"",""2"",""10222""
","true","","","","","","","","","","","","","","","","","","","","","","","","","",""
"pit-instructions","2","15673","0.0-2.0-0.0","battery-v0.2","","""event"",""trial"",""time""
""fullscreenenter"",""1"",""2702""
""fullscreenexit"",""2"",""10222""
""blur"",""2"",""11913""
""focus"",""2"",""13949""
","""event"",""trial"",""time""
""blur"",""2"",""11913""
","""event"",""trial"",""time""
""focus"",""2"",""13949""
","""event"",""trial"",""time""
""fullscreenenter"",""1"",""2702""
","""event"",""trial"",""time""
""fullscreenexit"",""2"",""10222""
","","[{""page_index"":0,""viewing_time"":11994.000000000004}]","11995","","","","","","","","","","","","","","","","","","","","","","","",""
"pit-comprehension","3","20629","0.0-2.0-1.0-0.0","battery-v0.2","","""event"",""trial"",""time""
""fullscreenenter"",""1"",""2702""
""fullscreenexit"",""2"",""10222""
""blur"",""2"",""11913""
""focus"",""2"",""13949""
","""event"",""trial"",""time""
""blur"",""2"",""11913""
","""event"",""trial"",""time""
""focus"",""2"",""13949""
","""event"",""trial"",""time""
""fullscreenenter"",""1"",""2702""
","""event"",""trial"",""time""
""fullscreenexit"",""2"",""10222""
","","","4862","[""shark""]","0","21","3180","2138","","","","","","","","","","","","","","","","","","",""
"pit-instructions","4","23548","0.0-2.0-1.0-1.0","battery-v0.2","","""event"",""trial"",""time""
""fullscreenenter"",""1"",""2702""
""fullscreenexit"",""2"",""10222""
""blur"",""2"",""11913""
""focus"",""2"",""13949""
","""event"",""trial"",""time""
""blur"",""2"",""11913""
","""event"",""trial"",""time""
""focus"",""2"",""13949""
","""event"",""trial"",""time""
""fullscreenenter"",""1"",""2702""
","""event"",""trial"",""time""
""fullscreenexit"",""2"",""10222""
","","[{""page_index"":0,""viewing_time"":2913}]","2914","","","","","","","","","","","","","","","","","","","","","","","",""
"pit-comprehension","5","26319","0.0-2.0-2.0-0.0","battery-v0.2","","""event"",""trial"",""time""
""fullscreenenter"",""1"",""2702""
""fullscreenexit"",""2"",""10222""
""blur"",""2"",""11913""
""focus"",""2"",""13949""
","""event"",""trial"",""time""
""blur"",""2"",""11913""
","""event"",""trial"",""time""
""focus"",""2"",""13949""
","""event"",""trial"",""time""
""fullscreenenter"",""1"",""2702""
","""event"",""trial"",""time""
""fullscreenexit"",""2"",""10222""
","","","2765.9999999999964","[""tiger""]","0","21","3180","2138","","","","","","","","","","","","","","","","","","",""
"pit-instructions","6","31073","0.0-2.0-2.0-1.0","battery-v0.2","","""event"",""trial"",""time""
""fullscreenenter"",""1"",""2702""
""fullscreenexit"",""2"",""10222""
""blur"",""2"",""11913""
""focus"",""2"",""13949""
","""event"",""trial"",""time""
""blur"",""2"",""11913""
","""event"",""trial"",""time""
""focus"",""2"",""13949""
","""event"",""trial"",""time""
""fullscreenenter"",""1"",""2702""
","""event"",""trial"",""time""
""fullscreenexit"",""2"",""10222""
","","[{""page_index"":0,""viewing_time"":4749.000000000004}]","4750","","","","","","","","","","","","","","","","","","","","","","","",""
"pit-instructions","7","123924","0.0-2.0-3.0","battery-v0.2","","""event"",""trial"",""time""
""fullscreenenter"",""1"",""2702""
""fullscreenexit"",""2"",""10222""
""blur"",""2"",""11913""
""focus"",""2"",""13949""
","""event"",""trial"",""time""
""blur"",""2"",""11913""
","""event"",""trial"",""time""
""focus"",""2"",""13949""
","""event"",""trial"",""time""
""fullscreenenter"",""1"",""2702""
","""event"",""trial"",""time""
""fullscreenexit"",""2"",""10222""
","","[{""page_index"":0,""viewing_time"":10769.000000000004},{""page_index"":1,""viewing_time"":5692},{""page_index"":2,""viewing_time"":6283.000000000007},{""page_index"":3,""viewing_time"":6024.999999999993},{""page_index"":4,""viewing_time"":5142},{""page_index"":5,""viewing_time"":6095},{""page_index"":6,""viewing_time"":6322},{""page_index"":7,""viewing_time"":6033.000000000015},{""page_index"":8,""viewing_time"":6147.999999999985},{""page_index"":9,""viewing_time"":7385},{""page_index"":10,""viewing_time"":7571.000000000015},{""page_index"":11,""viewing_time"":6595.999999999985},{""page_index"":12,""viewing_time"":6590},{""page_index"":13,""viewing_time"":6193}]","92845","","","","","","","","","","","","","","","","","","","","","","","",""
"pit-trial","8","127081","0.0-2.0-4.0-0.0","battery-v0.2","","""event"",""trial"",""time""
""fullscreenenter"",""1"",""2702""
""fullscreenexit"",""2"",""10222""
""blur"",""2"",""11913""
""focus"",""2"",""13949""
","""event"",""trial"",""time""
""blur"",""2"",""11913""
","""event"",""trial"",""time""
""focus"",""2"",""13949""
","""event"",""trial"",""time""
""fullscreenenter"",""1"",""2702""
","""event"",""trial"",""time""
""fullscreenexit"",""2"",""10222""
","","","295","","","21","3180","2138","&#9784;","elianto","#FFFFF080"," "," ","1","&#10004","[1147.0000000000146]","1","0","0","","","","","","","",""
"pit-trial","9","130238","0.0-2.0-4.1-0.1","battery-v0.2","","""event"",""trial"",""time""
""fullscreenenter"",""1"",""2702""
""fullscreenexit"",""2"",""10222""
""blur"",""2"",""11913""
""focus"",""2"",""13949""
","""event"",""trial"",""time""
""blur"",""2"",""11913""
","""event"",""trial"",""time""
""focus"",""2"",""13949""
","""event"",""trial"",""time""
""fullscreenenter"",""1"",""2702""
","""event"",""trial"",""time""
""fullscreenexit"",""2"",""10222""
","","","297.0000000000291","","","21","3180","2138","&#9784;","elianto","#FFFFF080"," "," ","1","&#10004","[1148.000000000029]","1","0","0","","","","","","","",""
"pit-trial","10","133287","0.0-2.0-4.2-0.2","battery-v0.2","","""event"",""trial"",""time""
""fullscreenenter"",""1"",""2702""
""fullscreenexit"",""2"",""10222""
""blur"",""2"",""11913""
""focus"",""2"",""13949""
","""event"",""trial"",""time""
""blur"",""2"",""11913""
","""event"",""trial"",""time""
""focus"",""2"",""13949""
","""event"",""trial"",""time""
""fullscreenenter"",""1"",""2702""
","""event"",""trial"",""time""
""fullscreenexit"",""2"",""10222""
","","","190","","","21","3180","2138","&#9784;","elianto","#FFFFF080"," "," ","1","&#10004","[1040.000000000029]","1","0","0","","","","","","","",""
"pit-trial","11","136243","0.0-2.0-4.3-0.3","battery-v0.2","","""event"",""trial"",""time""
""fullscreenenter"",""1"",""2702""
""fullscreenexit"",""2"",""10222""
""blur"",""2"",""11913""
""focus"",""2"",""13949""
","""event"",""trial"",""time""
""blur"",""2"",""11913""
","""event"",""trial"",""time""
""focus"",""2"",""13949""
","""event"",""trial"",""time""
""fullscreenenter"",""1"",""2702""
","""event"",""trial"",""time""
""fullscreenexit"",""2"",""10222""
","","","99","","","21","3180","2138","&#9784;","elianto","#FFFFF080"," "," ","1","&#10004","[950]","1","0","0","","","","","","","",""
"pit-trial","12","139201","0.0-2.0-4.4-0.4","battery-v0.2","","""event"",""trial"",""time""
""fullscreenenter"",""1"",""2702""
""fullscreenexit"",""2"",""10222""
""blur"",""2"",""11913""
""focus"",""2"",""13949""
","""event"",""trial"",""time""
""blur"",""2"",""11913""
","""event"",""trial"",""time""
""focus"",""2"",""13949""
","""event"",""trial"",""time""
""fullscreenenter"",""1"",""2702""
","""event"",""trial"",""time""
""fullscreenexit"",""2"",""10222""
","","","102","","","21","3180","2138","&#9784;","elianto","#FFFFF080"," "," ","1","&#10004","[951]","1","0","0","","","","","","","",""
"pit-instructions","13","159209","0.0-2.0-5.0","battery-v0.2","","""event"",""trial"",""time""
""fullscreenenter"",""1"",""2702""
""fullscreenexit"",""2"",""10222""
""blur"",""2"",""11913""
""focus"",""2"",""13949""
","""event"",""trial"",""time""
""blur"",""2"",""11913""
","""event"",""trial"",""time""
""focus"",""2"",""13949""
","""event"",""trial"",""time""
""fullscreenenter"",""1"",""2702""
","""event"",""trial"",""time""
""fullscreenexit"",""2"",""10222""
","","[{""page_index"":0,""viewing_time"":4842},{""page_index"":1,""viewing_time"":5169},{""page_index"":2,""viewing_time"":4530.000000000029},{""page_index"":3,""viewing_time"":5457.999999999971}]","20001","","","","","","","","","","","","","","","","","","","","","","","",""
"pit-trial","14","164066","0.0-2.0-6.0-0.0","battery-v0.2","","""event"",""trial"",""time""
""fullscreenenter"",""1"",""2702""
""fullscreenexit"",""2"",""10222""
""blur"",""2"",""11913""
""focus"",""2"",""13949""
","""event"",""trial"",""time""
""blur"",""2"",""11913""
","""event"",""trial"",""time""
""focus"",""2"",""13949""
","""event"",""trial"",""time""
""fullscreenenter"",""1"",""2702""
","""event"",""trial"",""time""
""fullscreenexit"",""2"",""10222""
","","","-1","","","21","3180","2138","&#9854;","elianto","#FFFFF080","-1","-1","1","&#10004","[]","0","0","1","","","","","","","",""
"pit-trial","15","168924","0.0-2.0-6.1-0.1","battery-v0.2","","""event"",""trial"",""time""
""fullscreenenter"",""1"",""2702""
""fullscreenexit"",""2"",""10222""
""blur"",""2"",""11913""
""focus"",""2"",""13949""
","""event"",""trial"",""time""
""blur"",""2"",""11913""
","""event"",""trial"",""time""
""focus"",""2"",""13949""
","""event"",""trial"",""time""
""fullscreenenter"",""1"",""2702""
","""event"",""trial"",""time""
""fullscreenexit"",""2"",""10222""
","","","-1","","","21","3180","2138","&#9854;","elianto","#FFFFF080","-1","-1","1","&#10004","[]","0","0","1","","","","","","","",""
"pit-trial","16","173783","0.0-2.0-6.2-0.2","battery-v0.2","","""event"",""trial"",""time""
""fullscreenenter"",""1"",""2702""
""fullscreenexit"",""2"",""10222""
""blur"",""2"",""11913""
""focus"",""2"",""13949""
","""event"",""trial"",""time""
""blur"",""2"",""11913""
","""event"",""trial"",""time""
""focus"",""2"",""13949""
","""event"",""trial"",""time""
""fullscreenenter"",""1"",""2702""
","""event"",""trial"",""time""
""fullscreenexit"",""2"",""10222""
","","","-1","","","21","3180","2138","&#9854;","elianto","#FFFFF080","-1","-1","1","&#10004","[]","0","0","1","","","","","","","",""
"pit-trial","17","178642","0.0-2.0-6.3-0.3","battery-v0.2","","""event"",""trial"",""time""
""fullscreenenter"",""1"",""2702""
""fullscreenexit"",""2"",""10222""
""blur"",""2"",""11913""
""focus"",""2"",""13949""
","""event"",""trial"",""time""
""blur"",""2"",""11913""
","""event"",""trial"",""time""
""focus"",""2"",""13949""
","""event"",""trial"",""time""
""fullscreenenter"",""1"",""2702""
","""event"",""trial"",""time""
""fullscreenexit"",""2"",""10222""
","","","-1","","","21","3180","2138","&#9854;","elianto","#FFFFF080","-1","-1","1","&#10004","[]","0","0","1","","","","","","","",""
"pit-trial","18","183501","0.0-2.0-6.4-0.4","battery-v0.2","","""event"",""trial"",""time""
""fullscreenenter"",""1"",""2702""
""fullscreenexit"",""2"",""10222""
""blur"",""2"",""11913""
""focus"",""2"",""13949""
","""event"",""trial"",""time""
""blur"",""2"",""11913""
","""event"",""trial"",""time""
""focus"",""2"",""13949""
","""event"",""trial"",""time""
""fullscreenenter"",""1"",""2702""
","""event"",""trial"",""time""
""fullscreenexit"",""2"",""10222""
","","","-1","","","21","3180","2138","&#9854;","elianto","#FFFFF080","-1","-1","1","&#10004","[]","0","0","1","","","","","","","",""
"pit-instructions","19","295990","0.0-2.0-7.0","battery-v0.2","","""event"",""trial"",""time""
""fullscreenenter"",""1"",""2702""
""fullscreenexit"",""2"",""10222""
""blur"",""2"",""11913""
""focus"",""2"",""13949""
","""event"",""trial"",""time""
""blur"",""2"",""11913""
","""event"",""trial"",""time""
""focus"",""2"",""13949""
","""event"",""trial"",""time""
""fullscreenenter"",""1"",""2702""
","""event"",""trial"",""time""
""fullscreenexit"",""2"",""10222""
","","[{""page_index"":0,""viewing_time"":5608},{""page_index"":1,""viewing_time"":6242},{""page_index"":2,""viewing_time"":5475},{""page_index"":3,""viewing_time"":5507},{""page_index"":4,""viewing_time"":5367},{""page_index"":5,""viewing_time"":5816},{""page_index"":6,""viewing_time"":5117},{""page_index"":7,""viewing_time"":7051.000000000029},{""page_index"":8,""viewing_time"":8556.99999999997},{""page_index"":9,""viewing_time"":5378},{""page_index"":10,""viewing_time"":6964.000000000029},{""page_index"":11,""viewing_time"":4275},{""page_index"":12,""viewing_time"":6326.999999999971},{""page_index"":13,""viewing_time"":6648},{""page_index"":14,""viewing_time"":6859},{""page_index"":15,""viewing_time"":7140},{""page_index"":16,""viewing_time"":7093.000000000058},{""page_index"":17,""viewing_time"":7056.999999999942}]","112482","","","","","","","","","","","","","","","","","","","","","","","",""
"pit-trial","20","300307","0.0-2.0-8.0-0.0","battery-v0.2","","""event"",""trial"",""time""
""fullscreenenter"",""1"",""2702""
""fullscreenexit"",""2"",""10222""
""blur"",""2"",""11913""
""focus"",""2"",""13949""
","""event"",""trial"",""time""
""blur"",""2"",""11913""
","""event"",""trial"",""time""
""focus"",""2"",""13949""
","""event"",""trial"",""time""
""fullscreenenter"",""1"",""2702""
","""event"",""trial"",""time""
""fullscreenexit"",""2"",""10222""
","","","1459","","","21","3180","2138","&#9776;","elianto","#3366ff99"," "," ","1","+10","[2310]","1","0","1","","","","","","","",""
"pit-trial","21","303812","0.0-2.0-8.0-1.0","battery-v0.2","","""event"",""trial"",""time""
""fullscreenenter"",""1"",""2702""
""fullscreenexit"",""2"",""10222""
""blur"",""2"",""11913""
""focus"",""2"",""13949""
","""event"",""trial"",""time""
""blur"",""2"",""11913""
","""event"",""trial"",""time""
""focus"",""2"",""13949""
","""event"",""trial"",""time""
""fullscreenenter"",""1"",""2702""
","""event"",""trial"",""time""
""fullscreenexit"",""2"",""10222""
","","","648","","","21","3180","2138","&#9776;","elianto","#3366ff99"," "," ","1","+10","[1499]","1","0","1","","","","","","","",""
"pit-trial","22","307214","0.0-2.0-8.0-2.0","battery-v0.2","","""event"",""trial"",""time""
""fullscreenenter"",""1"",""2702""
""fullscreenexit"",""2"",""10222""
""blur"",""2"",""11913""
""focus"",""2"",""13949""
","""event"",""trial"",""time""
""blur"",""2"",""11913""
","""event"",""trial"",""time""
""focus"",""2"",""13949""
","""event"",""trial"",""time""
""fullscreenenter"",""1"",""2702""
","""event"",""trial"",""time""
""fullscreenexit"",""2"",""10222""
","","","545","","","21","3180","2138","&#9776;","elianto","#3366ff99"," "," ","1","+10","[1396]","1","0","1","","","","","","","",""
"pit-trial","23","310724","0.0-2.0-8.0-3.0","battery-v0.2","","""event"",""trial"",""time""
""fullscreenenter"",""1"",""2702""
""fullscreenexit"",""2"",""10222""
""blur"",""2"",""11913""
""focus"",""2"",""13949""
","""event"",""trial"",""time""
""blur"",""2"",""11913""
","""event"",""trial"",""time""
""focus"",""2"",""13949""
","""event"",""trial"",""time""
""fullscreenenter"",""1"",""2702""
","""event"",""trial"",""time""
""fullscreenexit"",""2"",""10222""
","","","652.9999999999418","","","21","3180","2138","&#9776;","elianto","#3366ff99"," "," ","1","0","[1503.9999999999418]","1","0","1","","","","","","","",""
"pit-trial","24","315583","0.0-2.0-8.0-4.0","battery-v0.2","","""event"",""trial"",""time""
""fullscreenenter"",""1"",""2702""
""fullscreenexit"",""2"",""10222""
""blur"",""2"",""11913""
""focus"",""2"",""13949""
","""event"",""trial"",""time""
""blur"",""2"",""11913""
","""event"",""trial"",""time""
""focus"",""2"",""13949""
","""event"",""trial"",""time""
""fullscreenenter"",""1"",""2702""
","""event"",""trial"",""time""
""fullscreenexit"",""2"",""10222""
","","","-1","","","21","3180","2138","&#9776;","elianto","#3366ff99"," ","-1","0","0","[]","0","0","1","","","","","","","",""
"pit-trial","25","320443","0.0-2.0-8.1-0.1","battery-v0.2","","""event"",""trial"",""time""
""fullscreenenter"",""1"",""2702""
""fullscreenexit"",""2"",""10222""
""blur"",""2"",""11913""
""focus"",""2"",""13949""
","""event"",""trial"",""time""
""blur"",""2"",""11913""
","""event"",""trial"",""time""
""focus"",""2"",""13949""
","""event"",""trial"",""time""
""fullscreenenter"",""1"",""2702""
","""event"",""trial"",""time""
""fullscreenexit"",""2"",""10222""
","","","-1","","","21","3180","2138","&#9776;","elianto","#3366ff99"," ","-1","0","0","[]","0","0","1","","","","","","","",""
"pit-trial","26","324061","0.0-2.0-8.1-1.1","battery-v0.2","","""event"",""trial"",""time""
""fullscreenenter"",""1"",""2702""
""fullscreenexit"",""2"",""10222""
""blur"",""2"",""11913""
""focus"",""2"",""13949""
","""event"",""trial"",""time""
""blur"",""2"",""11913""
","""event"",""trial"",""time""
""focus"",""2"",""13949""
","""event"",""trial"",""time""
""fullscreenenter"",""1"",""2702""
","""event"",""trial"",""time""
""fullscreenexit"",""2"",""10222""
","","","760","","","21","3180","2138","&#9776;","elianto","#3366ff99"," "," ","1","+10","[1611]","1","0","1","","","","","","","",""
"pit-trial","27","327467","0.0-2.0-8.1-2.1","battery-v0.2","","""event"",""trial"",""time""
""fullscreenenter"",""1"",""2702""
""fullscreenexit"",""2"",""10222""
""blur"",""2"",""11913""
""focus"",""2"",""13949""
","""event"",""trial"",""time""
""blur"",""2"",""11913""
","""event"",""trial"",""time""
""focus"",""2"",""13949""
","""event"",""trial"",""time""
""fullscreenenter"",""1"",""2702""
","""event"",""trial"",""time""
""fullscreenexit"",""2"",""10222""
","","","548","","","21","3180","2138","&#9776;","elianto","#3366ff99"," "," ","1","+10","[1399]","1","0","1","","","","","","","",""
"pit-trial","28","330782","0.0-2.0-8.1-3.1","battery-v0.2","","""event"",""trial"",""time""
""fullscreenenter"",""1"",""2702""
""fullscreenexit"",""2"",""10222""
""blur"",""2"",""11913""
""focus"",""2"",""13949""
","""event"",""trial"",""time""
""blur"",""2"",""11913""
","""event"",""trial"",""time""
""focus"",""2"",""13949""
","""event"",""trial"",""time""
""fullscreenenter"",""1"",""2702""
","""event"",""trial"",""time""
""fullscreenexit"",""2"",""10222""
","","","458","","","21","3180","2138","&#9776;","elianto","#3366ff99"," "," ","1","0","[1309]","1","0","1","","","","","","","",""
"pit-trial","29","335640","0.0-2.0-8.1-4.1","battery-v0.2","","""event"",""trial"",""time""
""fullscreenenter"",""1"",""2702""
""fullscreenexit"",""2"",""10222""
""blur"",""2"",""11913""
""focus"",""2"",""13949""
","""event"",""trial"",""time""
""blur"",""2"",""11913""
","""event"",""trial"",""time""
""focus"",""2"",""13949""
","""event"",""trial"",""time""
""fullscreenenter"",""1"",""2702""
","""event"",""trial"",""time""
""fullscreenexit"",""2"",""10222""
","","","-1","","","21","3180","2138","&#9776;","elianto","#3366ff99"," ","-1","0","0","[]","0","0","1","","","","","","","",""
"pit-trial","30","340498","0.0-2.0-8.2-0.2","battery-v0.2","","""event"",""trial"",""time""
""fullscreenenter"",""1"",""2702""
""fullscreenexit"",""2"",""10222""
""blur"",""2"",""11913""
""focus"",""2"",""13949""
","""event"",""trial"",""time""
""blur"",""2"",""11913""
","""event"",""trial"",""time""
""focus"",""2"",""13949""
","""event"",""trial"",""time""
""fullscreenenter"",""1"",""2702""
","""event"",""trial"",""time""
""fullscreenexit"",""2"",""10222""
","","","-1","","","21","3180","2138","&#9776;","elianto","#3366ff99"," ","-1","0","0","[]","0","0","1","","","","","","","",""
"pit-trial","31","344205","0.0-2.0-8.2-1.2","battery-v0.2","","""event"",""trial"",""time""
""fullscreenenter"",""1"",""2702""
""fullscreenexit"",""2"",""10222""
""blur"",""2"",""11913""
""focus"",""2"",""13949""
","""event"",""trial"",""time""
""blur"",""2"",""11913""
","""event"",""trial"",""time""
""focus"",""2"",""13949""
","""event"",""trial"",""time""
""fullscreenenter"",""1"",""2702""
","""event"",""trial"",""time""
""fullscreenexit"",""2"",""10222""
","","","849","","","21","3180","2138","&#9776;","elianto","#3366ff99"," "," ","1","+10","[1700]","1","0","1","","","","","","","",""
"pit-trial","32","347489","0.0-2.0-8.2-2.2","battery-v0.2","","""event"",""trial"",""time""
""fullscreenenter"",""1"",""2702""
""fullscreenexit"",""2"",""10222""
""blur"",""2"",""11913""
""focus"",""2"",""13949""
","""event"",""trial"",""time""
""blur"",""2"",""11913""
","""event"",""trial"",""time""
""focus"",""2"",""13949""
","""event"",""trial"",""time""
""fullscreenenter"",""1"",""2702""
","""event"",""trial"",""time""
""fullscreenexit"",""2"",""10222""
","","","426","","","21","3180","2138","&#9776;","elianto","#3366ff99"," "," ","1","+10","[1277]","1","0","1","","","","","","","",""
"pit-trial","33","352347","0.0-2.0-8.2-3.2","battery-v0.2","","""event"",""trial"",""time""
""fullscreenenter"",""1"",""2702""
""fullscreenexit"",""2"",""10222""
""blur"",""2"",""11913""
""focus"",""2"",""13949""
","""event"",""trial"",""time""
""blur"",""2"",""11913""
","""event"",""trial"",""time""
""focus"",""2"",""13949""
","""event"",""trial"",""time""
""fullscreenenter"",""1"",""2702""
","""event"",""trial"",""time""
""fullscreenexit"",""2"",""10222""
","","","-1","","","21","3180","2138","&#9776;","elianto","#3366ff99"," ","-1","0","+10","[]","0","0","1","","","","","","","",""
"pit-trial","34","357206","0.0-2.0-8.2-4.2","battery-v0.2","","""event"",""trial"",""time""
""fullscreenenter"",""1"",""2702""
""fullscreenexit"",""2"",""10222""
""blur"",""2"",""11913""
""focus"",""2"",""13949""
","""event"",""trial"",""time""
""blur"",""2"",""11913""
","""event"",""trial"",""time""
""focus"",""2"",""13949""
","""event"",""trial"",""time""
""fullscreenenter"",""1"",""2702""
","""event"",""trial"",""time""
""fullscreenexit"",""2"",""10222""
","","","-1","","","21","3180","2138","&#9776;","elianto","#3366ff99"," ","-1","0","0","[]","0","0","1","","","","","","","",""
"pit-trial","35","362063","0.0-2.0-8.3-0.3","battery-v0.2","","""event"",""trial"",""time""
""fullscreenenter"",""1"",""2702""
""fullscreenexit"",""2"",""10222""
""blur"",""2"",""11913""
""focus"",""2"",""13949""
","""event"",""trial"",""time""
""blur"",""2"",""11913""
","""event"",""trial"",""time""
""focus"",""2"",""13949""
","""event"",""trial"",""time""
""fullscreenenter"",""1"",""2702""
","""event"",""trial"",""time""
""fullscreenexit"",""2"",""10222""
","","","-1","","","21","3180","2138","&#9776;","elianto","#3366ff99"," ","-1","0","0","[]","0","0","1","","","","","","","",""
"pit-trial","36","365417","0.0-2.0-8.3-1.3","battery-v0.2","","""event"",""trial"",""time""
""fullscreenenter"",""1"",""2702""
""fullscreenexit"",""2"",""10222""
""blur"",""2"",""11913""
""focus"",""2"",""13949""
","""event"",""trial"",""time""
""blur"",""2"",""11913""
","""event"",""trial"",""time""
""focus"",""2"",""13949""
","""event"",""trial"",""time""
""fullscreenenter"",""1"",""2702""
","""event"",""trial"",""time""
""fullscreenexit"",""2"",""10222""
","","","496","","","21","3180","2138","&#9776;","elianto","#3366ff99"," "," ","1","+10","[1347]","1","0","1","","","","","","","",""
"pit-trial","37","370275","0.0-2.0-8.3-2.3","battery-v0.2","","""event"",""trial"",""time""
""fullscreenenter"",""1"",""2702""
""fullscreenexit"",""2"",""10222""
""blur"",""2"",""11913""
""focus"",""2"",""13949""
","""event"",""trial"",""time""
""blur"",""2"",""11913""
","""event"",""trial"",""time""
""focus"",""2"",""13949""
","""event"",""trial"",""time""
""fullscreenenter"",""1"",""2702""
","""event"",""trial"",""time""
""fullscreenexit"",""2"",""10222""
","","","-1","","","21","3180","2138","&#9776;","elianto","#3366ff99"," ","-1","0","0","[]","0","0","1","","","","","","","",""
"pit-trial","38","374122","0.0-2.0-8.3-3.3","battery-v0.2","","""event"",""trial"",""time""
""fullscreenenter"",""1"",""2702""
""fullscreenexit"",""2"",""10222""
""blur"",""2"",""11913""
""focus"",""2"",""13949""
","""event"",""trial"",""time""
""blur"",""2"",""11913""
","""event"",""trial"",""time""
""focus"",""2"",""13949""
","""event"",""trial"",""time""
""fullscreenenter"",""1"",""2702""
","""event"",""trial"",""time""
""fullscreenexit"",""2"",""10222""
","","","988","","","21","3180","2138","&#9776;","elianto","#3366ff99"," "," ","1","0","[1839]","1","0","1","","","","","","","",""
"pit-trial","39","377406","0.0-2.0-8.3-4.3","battery-v0.2","","""event"",""trial"",""time""
""fullscreenenter"",""1"",""2702""
""fullscreenexit"",""2"",""10222""
""blur"",""2"",""11913""
""focus"",""2"",""13949""
","""event"",""trial"",""time""
""blur"",""2"",""11913""
","""event"",""trial"",""time""
""focus"",""2"",""13949""
","""event"",""trial"",""time""
""fullscreenenter"",""1"",""2702""
","""event"",""trial"",""time""
""fullscreenexit"",""2"",""10222""
","","","426","","","21","3180","2138","&#9776;","elianto","#3366ff99"," "," ","1","+10","[1277]","1","0","1","","","","","","","",""
"pit-trial","40","380675","0.0-2.0-8.4-0.4","battery-v0.2","","""event"",""trial"",""time""
""fullscreenenter"",""1"",""2702""
""fullscreenexit"",""2"",""10222""
""blur"",""2"",""11913""
""focus"",""2"",""13949""
","""event"",""trial"",""time""
""blur"",""2"",""11913""
","""event"",""trial"",""time""
""focus"",""2"",""13949""
","""event"",""trial"",""time""
""fullscreenenter"",""1"",""2702""
","""event"",""trial"",""time""
""fullscreenexit"",""2"",""10222""
","","","412.9999999999418","","","21","3180","2138","&#9776;","elianto","#3366ff99"," "," ","1","+10","[1262]","1","0","1","","","","","","","",""
"pit-trial","41","385532","0.0-2.0-8.4-1.4","battery-v0.2","","""event"",""trial"",""time""
""fullscreenenter"",""1"",""2702""
""fullscreenexit"",""2"",""10222""
""blur"",""2"",""11913""
""focus"",""2"",""13949""
","""event"",""trial"",""time""
""blur"",""2"",""11913""
","""event"",""trial"",""time""
""focus"",""2"",""13949""
","""event"",""trial"",""time""
""fullscreenenter"",""1"",""2702""
","""event"",""trial"",""time""
""fullscreenexit"",""2"",""10222""
","","","-1","","","21","3180","2138","&#9776;","elianto","#3366ff99"," ","-1","0","0","[]","0","0","1","","","","","","","",""
"pit-trial","42","389267","0.0-2.0-8.4-2.4","battery-v0.2","","""event"",""trial"",""time""
""fullscreenenter"",""1"",""2702""
""fullscreenexit"",""2"",""10222""
""blur"",""2"",""11913""
""focus"",""2"",""13949""
","""event"",""trial"",""time""
""blur"",""2"",""11913""
","""event"",""trial"",""time""
""focus"",""2"",""13949""
","""event"",""trial"",""time""
""fullscreenenter"",""1"",""2702""
","""event"",""trial"",""time""
""fullscreenexit"",""2"",""10222""
","","","879","","","21","3180","2138","&#9776;","elianto","#3366ff99"," "," ","1","+10","[1729]","1","0","1","","","","","","","",""
"pit-trial","43","394125","0.0-2.0-8.4-3.4","battery-v0.2","","""event"",""trial"",""time""
""fullscreenenter"",""1"",""2702""
""fullscreenexit"",""2"",""10222""
""blur"",""2"",""11913""
""focus"",""2"",""13949""
","""event"",""trial"",""time""
""blur"",""2"",""11913""
","""event"",""trial"",""time""
""focus"",""2"",""13949""
","""event"",""trial"",""time""
""fullscreenenter"",""1"",""2702""
","""event"",""trial"",""time""
""fullscreenexit"",""2"",""10222""
","","","-1","","","21","3180","2138","&#9776;","elianto","#3366ff99"," ","-1","0","+10","[]","0","0","1","","","","","","","",""
"pit-trial","44","397646","0.0-2.0-8.4-4.4","battery-v0.2","","""event"",""trial"",""time""
""fullscreenenter"",""1"",""2702""
""fullscreenexit"",""2"",""10222""
""blur"",""2"",""11913""
""focus"",""2"",""13949""
","""event"",""trial"",""time""
""blur"",""2"",""11913""
","""event"",""trial"",""time""
""focus"",""2"",""13949""
","""event"",""trial"",""time""
""fullscreenenter"",""1"",""2702""
","""event"",""trial"",""time""
""fullscreenexit"",""2"",""10222""
","","","662.9999999999418","","","21","3180","2138","&#9776;","elianto","#3366ff99"," "," ","1","+10","[1513.9999999999418]","1","0","1","","","","","","","",""
"pit-instructions","45","419615","0.0-2.0-8.4-5.4-0.4","battery-v0.2","","""event"",""trial"",""time""
""fullscreenenter"",""1"",""2702""
""fullscreenexit"",""2"",""10222""
""blur"",""2"",""11913""
""focus"",""2"",""13949""
","""event"",""trial"",""time""
""blur"",""2"",""11913""
","""event"",""trial"",""time""
""focus"",""2"",""13949""
","""event"",""trial"",""time""
""fullscreenenter"",""1"",""2702""
","""event"",""trial"",""time""
""fullscreenexit"",""2"",""10222""
","","[{""page_index"":0,""viewing_time"":6115},{""page_index"":1,""viewing_time"":6125},{""page_index"":2,""viewing_time"":9724}]","21965","","","","","","","","","","","","","","","","","","","","","","","",""
"pit-trial","46","422709","0.0-2.0-8.5-0.5","battery-v0.2","","""event"",""trial"",""time""
""fullscreenenter"",""1"",""2702""
""fullscreenexit"",""2"",""10222""
""blur"",""2"",""11913""
""focus"",""2"",""13949""
","""event"",""trial"",""time""
""blur"",""2"",""11913""
","""event"",""trial"",""time""
""focus"",""2"",""13949""
","""event"",""trial"",""time""
""fullscreenenter"",""1"",""2702""
","""event"",""trial"",""time""
""fullscreenexit"",""2"",""10222""
","","","238","","","21","3180","2138","&#9776;","elianto","#3366ff99"," "," ","1","+10","[1090.0000000000582]","1","0","1","","","","","","","",""
"pit-trial","47","425842","0.0-2.0-8.5-1.5","battery-v0.2","","""event"",""trial"",""time""
""fullscreenenter"",""1"",""2702""
""fullscreenexit"",""2"",""10222""
""blur"",""2"",""11913""
""focus"",""2"",""13949""
","""event"",""trial"",""time""
""blur"",""2"",""11913""
","""event"",""trial"",""time""
""focus"",""2"",""13949""
","""event"",""trial"",""time""
""fullscreenenter"",""1"",""2702""
","""event"",""trial"",""time""
""fullscreenexit"",""2"",""10222""
","","","275","","","21","3180","2138","&#9776;","elianto","#3366ff99"," "," ","1","+10","[1126]","1","0","1","","","","","","","",""
"pit-trial","48","428979","0.0-2.0-8.5-2.5","battery-v0.2","","""event"",""trial"",""time""
""fullscreenenter"",""1"",""2702""
""fullscreenexit"",""2"",""10222""
""blur"",""2"",""11913""
""focus"",""2"",""13949""
","""event"",""trial"",""time""
""blur"",""2"",""11913""
","""event"",""trial"",""time""
""focus"",""2"",""13949""
","""event"",""trial"",""time""
""fullscreenenter"",""1"",""2702""
","""event"",""trial"",""time""
""fullscreenexit"",""2"",""10222""
","","","277","","","21","3180","2138","&#9776;","elianto","#3366ff99"," "," ","1","+10","[1128]","1","0","1","","","","","","","",""
"pit-trial","49","433836","0.0-2.0-8.5-3.5","battery-v0.2","","""event"",""trial"",""time""
""fullscreenenter"",""1"",""2702""
""fullscreenexit"",""2"",""10222""
""blur"",""2"",""11913""
""focus"",""2"",""13949""
","""event"",""trial"",""time""
""blur"",""2"",""11913""
","""event"",""trial"",""time""
""focus"",""2"",""13949""
","""event"",""trial"",""time""
""fullscreenenter"",""1"",""2702""
","""event"",""trial"",""time""
""fullscreenexit"",""2"",""10222""
","","","-1","","","21","3180","2138","&#9776;","elianto","#3366ff99"," ","-1","0","+10","[]","0","0","1","","","","","","","",""
"pit-trial","50","437622","0.0-2.0-8.5-4.5","battery-v0.2","","""event"",""trial"",""time""
""fullscreenenter"",""1"",""2702""
""fullscreenexit"",""2"",""10222""
""blur"",""2"",""11913""
""focus"",""2"",""13949""
","""event"",""trial"",""time""
""blur"",""2"",""11913""
","""event"",""trial"",""time""
""focus"",""2"",""13949""
","""event"",""trial"",""time""
""fullscreenenter"",""1"",""2702""
","""event"",""trial"",""time""
""fullscreenexit"",""2"",""10222""
","","","929.0000000000582","","","21","3180","2138","&#9776;","elianto","#3366ff99"," "," ","1","+10","[1779.0000000000582]","1","0","1","","","","","","","",""
"pit-trial","51","440846","0.0-2.0-8.6-0.6","battery-v0.2","","""event"",""trial"",""time""
""fullscreenenter"",""1"",""2702""
""fullscreenexit"",""2"",""10222""
""blur"",""2"",""11913""
""focus"",""2"",""13949""
","""event"",""trial"",""time""
""blur"",""2"",""11913""
","""event"",""trial"",""time""
""focus"",""2"",""13949""
","""event"",""trial"",""time""
""fullscreenenter"",""1"",""2702""
","""event"",""trial"",""time""
""fullscreenexit"",""2"",""10222""
","","","367","","","21","3180","2138","&#9776;","elianto","#3366ff99"," "," ","1","+10","[1217]","1","0","1","","","","","","","",""
"pit-trial","52","444095","0.0-2.0-8.6-1.6","battery-v0.2","","""event"",""trial"",""time""
""fullscreenenter"",""1"",""2702""
""fullscreenexit"",""2"",""10222""
""blur"",""2"",""11913""
""focus"",""2"",""13949""
","""event"",""trial"",""time""
""blur"",""2"",""11913""
","""event"",""trial"",""time""
""focus"",""2"",""13949""
","""event"",""trial"",""time""
""fullscreenenter"",""1"",""2702""
","""event"",""trial"",""time""
""fullscreenexit"",""2"",""10222""
","","","392","","","21","3180","2138","&#9776;","elianto","#3366ff99"," "," ","1","+10","[1243]","1","0","1","","","","","","","",""
"pit-trial","53","448952","0.0-2.0-8.6-2.6","battery-v0.2","","""event"",""trial"",""time""
""fullscreenenter"",""1"",""2702""
""fullscreenexit"",""2"",""10222""
""blur"",""2"",""11913""
""focus"",""2"",""13949""
","""event"",""trial"",""time""
""blur"",""2"",""11913""
","""event"",""trial"",""time""
""focus"",""2"",""13949""
","""event"",""trial"",""time""
""fullscreenenter"",""1"",""2702""
","""event"",""trial"",""time""
""fullscreenexit"",""2"",""10222""
","","","-1","","","21","3180","2138","&#9776;","elianto","#3366ff99"," ","-1","0","0","[]","0","0","1","","","","","","","",""
"pit-trial","54","451995","0.0-2.0-8.6-3.6","battery-v0.2","","""event"",""trial"",""time""
""fullscreenenter"",""1"",""2702""
""fullscreenexit"",""2"",""10222""
""blur"",""2"",""11913""
""focus"",""2"",""13949""
","""event"",""trial"",""time""
""blur"",""2"",""11913""
","""event"",""trial"",""time""
""focus"",""2"",""13949""
","""event"",""trial"",""time""
""fullscreenenter"",""1"",""2702""
","""event"",""trial"",""time""
""fullscreenexit"",""2"",""10222""
","","","186","","","21","3180","2138","&#9776;","elianto","#3366ff99"," "," ","1","0","[1037]","1","0","1","","","","","","","",""
"pit-trial","55","455266","0.0-2.0-8.6-4.6","battery-v0.2","","""event"",""trial"",""time""
""fullscreenenter"",""1"",""2702""
""fullscreenexit"",""2"",""10222""
""blur"",""2"",""11913""
""focus"",""2"",""13949""
","""event"",""trial"",""time""
""blur"",""2"",""11913""
","""event"",""trial"",""time""
""focus"",""2"",""13949""
","""event"",""trial"",""time""
""fullscreenenter"",""1"",""2702""
","""event"",""trial"",""time""
""fullscreenexit"",""2"",""10222""
","","","413","","","21","3180","2138","&#9776;","elianto","#3366ff99"," "," ","1","+10","[1264]","1","0","1","","","","","","","",""
"pit-trial","56","458666","0.0-2.0-8.7-0.7","battery-v0.2","","""event"",""trial"",""time""
""fullscreenenter"",""1"",""2702""
""fullscreenexit"",""2"",""10222""
""blur"",""2"",""11913""
""focus"",""2"",""13949""
","""event"",""trial"",""time""
""blur"",""2"",""11913""
","""event"",""trial"",""time""
""focus"",""2"",""13949""
","""event"",""trial"",""time""
""fullscreenenter"",""1"",""2702""
","""event"",""trial"",""time""
""fullscreenexit"",""2"",""10222""
","","","542","","","21","3180","2138","&#9776;","elianto","#3366ff99"," "," ","1","+10","[1391]","1","0","1","","","","","","","",""
"pit-trial","57","461948","0.0-2.0-8.7-1.7","battery-v0.2","","""event"",""trial"",""time""
""fullscreenenter"",""1"",""2702""
""fullscreenexit"",""2"",""10222""
""blur"",""2"",""11913""
""focus"",""2"",""13949""
","""event"",""trial"",""time""
""blur"",""2"",""11913""
","""event"",""trial"",""time""
""focus"",""2"",""13949""
","""event"",""trial"",""time""
""fullscreenenter"",""1"",""2702""
","""event"",""trial"",""time""
""fullscreenexit"",""2"",""10222""
","","","424.0000000000582","","","21","3180","2138","&#9776;","elianto","#3366ff99"," "," ","1","+10","[1275.0000000000582]","1","0","1","","","","","","","",""
"pit-trial","58","466805","0.0-2.0-8.7-2.7","battery-v0.2","","""event"",""trial"",""time""
""fullscreenenter"",""1"",""2702""
""fullscreenexit"",""2"",""10222""
""blur"",""2"",""11913""
""focus"",""2"",""13949""
","""event"",""trial"",""time""
""blur"",""2"",""11913""
","""event"",""trial"",""time""
""focus"",""2"",""13949""
","""event"",""trial"",""time""
""fullscreenenter"",""1"",""2702""
","""event"",""trial"",""time""
""fullscreenexit"",""2"",""10222""
","","","-1","","","21","3180","2138","&#9776;","elianto","#3366ff99"," ","-1","0","0","[]","0","0","1","","","","","","","",""
"pit-trial","59","470145","0.0-2.0-8.7-3.7","battery-v0.2","","""event"",""trial"",""time""
""fullscreenenter"",""1"",""2702""
""fullscreenexit"",""2"",""10222""
""blur"",""2"",""11913""
""focus"",""2"",""13949""
","""event"",""trial"",""time""
""blur"",""2"",""11913""
","""event"",""trial"",""time""
""focus"",""2"",""13949""
","""event"",""trial"",""time""
""fullscreenenter"",""1"",""2702""
","""event"",""trial"",""time""
""fullscreenexit"",""2"",""10222""
","","","481.9999999999418","","","21","3180","2138","&#9776;","elianto","#3366ff99"," "," ","1","0","[1332]","1","0","1","","","","","","","",""
"pit-trial","60","473685","0.0-2.0-8.7-4.7","battery-v0.2","","""event"",""trial"",""time""
""fullscreenenter"",""1"",""2702""
""fullscreenexit"",""2"",""10222""
""blur"",""2"",""11913""
""focus"",""2"",""13949""
","""event"",""trial"",""time""
""blur"",""2"",""11913""
","""event"",""trial"",""time""
""focus"",""2"",""13949""
","""event"",""trial"",""time""
""fullscreenenter"",""1"",""2702""
","""event"",""trial"",""time""
""fullscreenexit"",""2"",""10222""
","","","683.9999999999418","","","21","3180","2138","&#9776;","elianto","#3366ff99"," "," ","1","+10","[1534.9999999999418]","1","0","1","","","","","","","",""
"pit-trial","61","477042","0.0-2.0-8.8-0.8","battery-v0.2","","""event"",""trial"",""time""
""fullscreenenter"",""1"",""2702""
""fullscreenexit"",""2"",""10222""
""blur"",""2"",""11913""
""focus"",""2"",""13949""
","""event"",""trial"",""time""
""blur"",""2"",""11913""
","""event"",""trial"",""time""
""focus"",""2"",""13949""
","""event"",""trial"",""time""
""fullscreenenter"",""1"",""2702""
","""event"",""trial"",""time""
""fullscreenexit"",""2"",""10222""
","","","500","","","21","3180","2138","&#9776;","elianto","#3366ff99"," "," ","1","+10","[1350]","1","0","1","","","","","","","",""
"pit-trial","62","481901","0.0-2.0-8.8-1.8","battery-v0.2","","""event"",""trial"",""time""
""fullscreenenter"",""1"",""2702""
""fullscreenexit"",""2"",""10222""
""blur"",""2"",""11913""
""focus"",""2"",""13949""
","""event"",""trial"",""time""
""blur"",""2"",""11913""
","""event"",""trial"",""time""
""focus"",""2"",""13949""
","""event"",""trial"",""time""
""fullscreenenter"",""1"",""2702""
","""event"",""trial"",""time""
""fullscreenexit"",""2"",""10222""
","","","-1","","","21","3180","2138","&#9776;","elianto","#3366ff99"," ","-1","0","0","[]","0","0","1","","","","","","","",""
"pit-trial","63","485212","0.0-2.0-8.8-2.8","battery-v0.2","","""event"",""trial"",""time""
""fullscreenenter"",""1"",""2702""
""fullscreenexit"",""2"",""10222""
""blur"",""2"",""11913""
""focus"",""2"",""13949""
","""event"",""trial"",""time""
""blur"",""2"",""11913""
","""event"",""trial"",""time""
""focus"",""2"",""13949""
","""event"",""trial"",""time""
""fullscreenenter"",""1"",""2702""
","""event"",""trial"",""time""
""fullscreenexit"",""2"",""10222""
","","","455","","","21","3180","2138","&#9776;","elianto","#3366ff99"," "," ","1","+10","[1306]","1","0","1","","","","","","","",""
"pit-trial","64","489344","0.0-2.0-8.8-3.8","battery-v0.2","","""event"",""trial"",""time""
""fullscreenenter"",""1"",""2702""
""fullscreenexit"",""2"",""10222""
""blur"",""2"",""11913""
""focus"",""2"",""13949""
","""event"",""trial"",""time""
""blur"",""2"",""11913""
","""event"",""trial"",""time""
""focus"",""2"",""13949""
","""event"",""trial"",""time""
""fullscreenenter"",""1"",""2702""
","""event"",""trial"",""time""
""fullscreenexit"",""2"",""10222""
","","","1274","","","21","3180","2138","&#9776;","elianto","#3366ff99"," "," ","1","0","[2125]","1","0","1","","","","","","","",""
"pit-trial","65","494088","0.0-2.0-8.8-4.8","battery-v0.2","","""event"",""trial"",""time""
""fullscreenenter"",""1"",""2702""
""fullscreenexit"",""2"",""10222""
""blur"",""2"",""11913""
""focus"",""2"",""13949""
","""event"",""trial"",""time""
""blur"",""2"",""11913""
","""event"",""trial"",""time""
""focus"",""2"",""13949""
","""event"",""trial"",""time""
""fullscreenenter"",""1"",""2702""
","""event"",""trial"",""time""
""fullscreenexit"",""2"",""10222""
","","","1887","","","21","3180","2138","&#9776;","elianto","#3366ff99"," "," ","1","+10","[2737]","1","0","1","","","","","","","",""
"pit-trial","66","498524","0.0-2.0-8.9-0.9","battery-v0.2","","""event"",""trial"",""time""
""fullscreenenter"",""1"",""2702""
""fullscreenexit"",""2"",""10222""
""blur"",""2"",""11913""
""focus"",""2"",""13949""
","""event"",""trial"",""time""
""blur"",""2"",""11913""
","""event"",""trial"",""time""
""focus"",""2"",""13949""
","""event"",""trial"",""time""
""fullscreenenter"",""1"",""2702""
","""event"",""trial"",""time""
""fullscreenexit"",""2"",""10222""
","","","1579","","","21","3180","2138","&#9776;","elianto","#3366ff99"," "," ","1","+10","[2428,2606,3511]","3","0","1","","","","","","","",""
"pit-trial","67","501684","0.0-2.0-8.9-1.9","battery-v0.2","","""event"",""trial"",""time""
""fullscreenenter"",""1"",""2702""
""fullscreenexit"",""2"",""10222""
""blur"",""2"",""11913""
""focus"",""2"",""13949""
","""event"",""trial"",""time""
""blur"",""2"",""11913""
","""event"",""trial"",""time""
""focus"",""2"",""13949""
","""event"",""trial"",""time""
""fullscreenenter"",""1"",""2702""
","""event"",""trial"",""time""
""fullscreenexit"",""2"",""10222""
","","","303","","","21","3180","2138","&#9776;","elianto","#3366ff99"," "," ","1","+10","[1154]","1","0","1","","","","","","","",""
"pit-trial","68","504898","0.0-2.0-8.9-2.9","battery-v0.2","","""event"",""trial"",""time""
""fullscreenenter"",""1"",""2702""
""fullscreenexit"",""2"",""10222""
""blur"",""2"",""11913""
""focus"",""2"",""13949""
","""event"",""trial"",""time""
""blur"",""2"",""11913""
","""event"",""trial"",""time""
""focus"",""2"",""13949""
","""event"",""trial"",""time""
""fullscreenenter"",""1"",""2702""
","""event"",""trial"",""time""
""fullscreenexit"",""2"",""10222""
","","","357","","","21","3180","2138","&#9776;","elianto","#3366ff99"," "," ","1","+10","[1208]","1","0","1","","","","","","","",""
"pit-trial","69","509756","0.0-2.0-8.9-3.9","battery-v0.2","","""event"",""trial"",""time""
""fullscreenenter"",""1"",""2702""
""fullscreenexit"",""2"",""10222""
""blur"",""2"",""11913""
""focus"",""2"",""13949""
","""event"",""trial"",""time""
""blur"",""2"",""11913""
","""event"",""trial"",""time""
""focus"",""2"",""13949""
","""event"",""trial"",""time""
""fullscreenenter"",""1"",""2702""
","""event"",""trial"",""time""
""fullscreenexit"",""2"",""10222""
","","","-1","","","21","3180","2138","&#9776;","elianto","#3366ff99"," ","-1","0","+10","[]","0","0","1","","","","","","","",""
"pit-trial","70","512736","0.0-2.0-8.9-4.9","battery-v0.2","","""event"",""trial"",""time""
""fullscreenenter"",""1"",""2702""
""fullscreenexit"",""2"",""10222""
""blur"",""2"",""11913""
""focus"",""2"",""13949""
","""event"",""trial"",""time""
""blur"",""2"",""11913""
","""event"",""trial"",""time""
""focus"",""2"",""13949""
","""event"",""trial"",""time""
""fullscreenenter"",""1"",""2702""
","""event"",""trial"",""time""
""fullscreenexit"",""2"",""10222""
","","","123","","","21","3180","2138","&#9776;","elianto","#3366ff99"," "," ","1","+10","[974]","1","0","1","","","","","","","",""
"pit-trial","71","515823","0.0-2.0-8.10-0.10","battery-v0.2","","""event"",""trial"",""time""
""fullscreenenter"",""1"",""2702""
""fullscreenexit"",""2"",""10222""
""blur"",""2"",""11913""
""focus"",""2"",""13949""
","""event"",""trial"",""time""
""blur"",""2"",""11913""
","""event"",""trial"",""time""
""focus"",""2"",""13949""
","""event"",""trial"",""time""
""fullscreenenter"",""1"",""2702""
","""event"",""trial"",""time""
""fullscreenexit"",""2"",""10222""
","","","230","","","21","3180","2138","&#9776;","elianto","#3366ff99"," "," ","1","+10","[1080.0000000000582]","1","0","1","","","","","","","",""
"pit-trial","72","518985","0.0-2.0-8.10-1.10","battery-v0.2","","""event"",""trial"",""time""
""fullscreenenter"",""1"",""2702""
""fullscreenexit"",""2"",""10222""
""blur"",""2"",""11913""
""focus"",""2"",""13949""
","""event"",""trial"",""time""
""blur"",""2"",""11913""
","""event"",""trial"",""time""
""focus"",""2"",""13949""
","""event"",""trial"",""time""
""fullscreenenter"",""1"",""2702""
","""event"",""trial"",""time""
""fullscreenexit"",""2"",""10222""
","","","306.0000000000582","","","21","3180","2138","&#9776;","elianto","#3366ff99"," "," ","1","+10","[1155.0000000000582]","1","0","1","","","","","","","",""
"pit-trial","73","522070","0.0-2.0-8.10-2.10","battery-v0.2","","""event"",""trial"",""time""
""fullscreenenter"",""1"",""2702""
""fullscreenexit"",""2"",""10222""
""blur"",""2"",""11913""
""focus"",""2"",""13949""
","""event"",""trial"",""time""
""blur"",""2"",""11913""
","""event"",""trial"",""time""
""focus"",""2"",""13949""
","""event"",""trial"",""time""
""fullscreenenter"",""1"",""2702""
","""event"",""trial"",""time""
""fullscreenexit"",""2"",""10222""
","","","228.9999999999418","","","21","3180","2138","&#9776;","elianto","#3366ff99"," "," ","1","+10","[1078.9999999999418]","1","0","1","","","","","","","",""
"pit-trial","74","525308","0.0-2.0-8.10-3.10","battery-v0.2","","""event"",""trial"",""time""
""fullscreenenter"",""1"",""2702""
""fullscreenexit"",""2"",""10222""
""blur"",""2"",""11913""
""focus"",""2"",""13949""
","""event"",""trial"",""time""
""blur"",""2"",""11913""
","""event"",""trial"",""time""
""focus"",""2"",""13949""
","""event"",""trial"",""time""
""fullscreenenter"",""1"",""2702""
","""event"",""trial"",""time""
""fullscreenexit"",""2"",""10222""
","","","379","","","21","3180","2138","&#9776;","elianto","#3366ff99"," "," ","1","0","[1230]","1","0","1","","","","","","","",""
"pit-trial","75","528648","0.0-2.0-8.10-4.10","battery-v0.2","","""event"",""trial"",""time""
""fullscreenenter"",""1"",""2702""
""fullscreenexit"",""2"",""10222""
""blur"",""2"",""11913""
""focus"",""2"",""13949""
","""event"",""trial"",""time""
""blur"",""2"",""11913""
","""event"",""trial"",""time""
""focus"",""2"",""13949""
","""event"",""trial"",""time""
""fullscreenenter"",""1"",""2702""
","""event"",""trial"",""time""
""fullscreenexit"",""2"",""10222""
","","","483","","","21","3180","2138","&#9776;","elianto","#3366ff99"," "," ","1","+10","[1333]","1","0","1","","","","","","","",""
"call-function","76","528652","0.0-2.0-9.0","battery-v0.2","","""event"",""trial"",""time""
""fullscreenenter"",""1"",""2702""
""fullscreenexit"",""2"",""10222""
""blur"",""2"",""11913""
""focus"",""2"",""13949""
""blur"",""77"",""553024""
""focus"",""77"",""579388""
","""event"",""trial"",""time""
""blur"",""2"",""11913""
""blur"",""77"",""553024""
","""event"",""trial"",""time""
""focus"",""2"",""13949""
""focus"",""77"",""579388""
","""event"",""trial"",""time""
""fullscreenenter"",""1"",""2702""
","""event"",""trial"",""time""
""fullscreenexit"",""2"",""10222""
","","","","","","","","","","","","","","","","","","","","","","","","","","",""
"pit-instructions","77","588232","0.0-2.0-10.0","battery-v0.2","","""event"",""trial"",""time""
""fullscreenenter"",""1"",""2702""
""fullscreenexit"",""2"",""10222""
""blur"",""2"",""11913""
""focus"",""2"",""13949""
""blur"",""77"",""553024""
""focus"",""77"",""579388""
","""event"",""trial"",""time""
""blur"",""2"",""11913""
""blur"",""77"",""553024""
","""event"",""trial"",""time""
""focus"",""2"",""13949""
""focus"",""77"",""579388""
","""event"",""trial"",""time""
""fullscreenenter"",""1"",""2702""
","""event"",""trial"",""time""
""fullscreenexit"",""2"",""10222""
","","[{""page_index"":0,""viewing_time"":5479},{""page_index"":1,""viewing_time"":6316.000000000116},{""page_index"":2,""viewing_time"":9631.999999999884},{""page_index"":3,""viewing_time"":30134},{""page_index"":4,""viewing_time"":8017}]","59578","","","","","","","","","","","","","","","","","","","","","","","",""
"pit-trial","78","593089","0.0-2.0-11.0-0.0","battery-v0.2","","""event"",""trial"",""time""
""fullscreenenter"",""1"",""2702""
""fullscreenexit"",""2"",""10222""
""blur"",""2"",""11913""
""focus"",""2"",""13949""
""blur"",""77"",""553024""
""focus"",""77"",""579388""
","""event"",""trial"",""time""
""blur"",""2"",""11913""
""blur"",""77"",""553024""
","""event"",""trial"",""time""
""focus"",""2"",""13949""
""focus"",""77"",""579388""
","""event"",""trial"",""time""
""fullscreenenter"",""1"",""2702""
","""event"",""trial"",""time""
""fullscreenexit"",""2"",""10222""
","","","-1","","","21","3180","2138","&#9761;","elianto","#3366ff99","-1","-1","1","+10","[]","0","0","2","","","","","","","",""
"pit-trial","79","597947","0.0-2.0-11.0-1.0","battery-v0.2","","""event"",""trial"",""time""
""fullscreenenter"",""1"",""2702""
""fullscreenexit"",""2"",""10222""
""blur"",""2"",""11913""
""focus"",""2"",""13949""
""blur"",""77"",""553024""
""focus"",""77"",""579388""
","""event"",""trial"",""time""
""blur"",""2"",""11913""
""blur"",""77"",""553024""
","""event"",""trial"",""time""
""focus"",""2"",""13949""
""focus"",""77"",""579388""
","""event"",""trial"",""time""
""fullscreenenter"",""1"",""2702""
","""event"",""trial"",""time""
""fullscreenexit"",""2"",""10222""
","","","-1","","","21","3180","2138","&#9761;","elianto","#3366ff99","-1","-1","1","+10","[]","0","0","2","","","","","","","",""
"pit-trial","80","602805","0.0-2.0-11.0-2.0","battery-v0.2","","""event"",""trial"",""time""
""fullscreenenter"",""1"",""2702""
""fullscreenexit"",""2"",""10222""
""blur"",""2"",""11913""
""focus"",""2"",""13949""
""blur"",""77"",""553024""
""focus"",""77"",""579388""
","""event"",""trial"",""time""
""blur"",""2"",""11913""
""blur"",""77"",""553024""
","""event"",""trial"",""time""
""focus"",""2"",""13949""
""focus"",""77"",""579388""
","""event"",""trial"",""time""
""fullscreenenter"",""1"",""2702""
","""event"",""trial"",""time""
""fullscreenexit"",""2"",""10222""
","","","-1","","","21","3180","2138","&#9761;","elianto","#3366ff99","-1","-1","1","+10","[]","0","0","2","","","","","","","",""
"pit-trial","81","607664","0.0-2.0-11.0-3.0","battery-v0.2","","""event"",""trial"",""time""
""fullscreenenter"",""1"",""2702""
""fullscreenexit"",""2"",""10222""
""blur"",""2"",""11913""
""focus"",""2"",""13949""
""blur"",""77"",""553024""
""focus"",""77"",""579388""
","""event"",""trial"",""time""
""blur"",""2"",""11913""
""blur"",""77"",""553024""
","""event"",""trial"",""time""
""focus"",""2"",""13949""
""focus"",""77"",""579388""
","""event"",""trial"",""time""
""fullscreenenter"",""1"",""2702""
","""event"",""trial"",""time""
""fullscreenexit"",""2"",""10222""
","","","-1","","","21","3180","2138","&#9761;","elianto","#3366ff99","-1","-1","1","0","[]","0","0","2","","","","","","","",""
"pit-trial","82","612520","0.0-2.0-11.0-4.0","battery-v0.2","","""event"",""trial"",""time""
""fullscreenenter"",""1"",""2702""
""fullscreenexit"",""2"",""10222""
""blur"",""2"",""11913""
""focus"",""2"",""13949""
""blur"",""77"",""553024""
""focus"",""77"",""579388""
","""event"",""trial"",""time""
""blur"",""2"",""11913""
""blur"",""77"",""553024""
","""event"",""trial"",""time""
""focus"",""2"",""13949""
""focus"",""77"",""579388""
","""event"",""trial"",""time""
""fullscreenenter"",""1"",""2702""
","""event"",""trial"",""time""
""fullscreenexit"",""2"",""10222""
","","","-1","","","21","3180","2138","&#9761;","elianto","#3366ff99","-1","-1","1","+10","[]","0","0","2","","","","","","","",""
"call-function","83","612524","0.0-2.0-12.0","battery-v0.2","","""event"",""trial"",""time""
""fullscreenenter"",""1"",""2702""
""fullscreenexit"",""2"",""10222""
""blur"",""2"",""11913""
""focus"",""2"",""13949""
""blur"",""77"",""553024""
""focus"",""77"",""579388""
","""event"",""trial"",""time""
""blur"",""2"",""11913""
""blur"",""77"",""553024""
","""event"",""trial"",""time""
""focus"",""2"",""13949""
""focus"",""77"",""579388""
","""event"",""trial"",""time""
""fullscreenenter"",""1"",""2702""
","""event"",""trial"",""time""
""fullscreenexit"",""2"",""10222""
","","","","","","","","","","","","","","","","","","","","","","","","","","",""
"pit-instructions","84","658435","0.0-2.0-13.0","battery-v0.2","","""event"",""trial"",""time""
""fullscreenenter"",""1"",""2702""
""fullscreenexit"",""2"",""10222""
""blur"",""2"",""11913""
""focus"",""2"",""13949""
""blur"",""77"",""553024""
""focus"",""77"",""579388""
","""event"",""trial"",""time""
""blur"",""2"",""11913""
""blur"",""77"",""553024""
","""event"",""trial"",""time""
""focus"",""2"",""13949""
""focus"",""77"",""579388""
","""event"",""trial"",""time""
""fullscreenenter"",""1"",""2702""
","""event"",""trial"",""time""
""fullscreenexit"",""2"",""10222""
","","[{""page_index"":0,""viewing_time"":19551},{""page_index"":1,""viewing_time"":6497},{""page_index"":2,""viewing_time"":4033},{""page_index"":3,""viewing_time"":11250},{""page_index"":4,""viewing_time"":4577}]","45909","","","","","","","","","","","","","","","","","","","","","","","",""
"pit-trial","85","661725","0.0-2.0-14.0-0.0","battery-v0.2","","""event"",""trial"",""time""
""fullscreenenter"",""1"",""2702""
""fullscreenexit"",""2"",""10222""
""blur"",""2"",""11913""
""focus"",""2"",""13949""
""blur"",""77"",""553024""
""focus"",""77"",""579388""
","""event"",""trial"",""time""
""blur"",""2"",""11913""
""blur"",""77"",""553024""
","""event"",""trial"",""time""
""focus"",""2"",""13949""
""focus"",""77"",""579388""
","""event"",""trial"",""time""
""fullscreenenter"",""1"",""2702""
","""event"",""trial"",""time""
""fullscreenexit"",""2"",""10222""
","","","431","","","21","3180","2138","&#9826;","elianto","#f73b6a7A","-1"," ","0","-10","[1282]","1","0","3","","","","","","","",""
"pit-trial","86","666582","0.0-2.0-14.0-1.0","battery-v0.2","","""event"",""trial"",""time""
""fullscreenenter"",""1"",""2702""
""fullscreenexit"",""2"",""10222""
""blur"",""2"",""11913""
""focus"",""2"",""13949""
""blur"",""77"",""553024""
""focus"",""77"",""579388""
","""event"",""trial"",""time""
""blur"",""2"",""11913""
""blur"",""77"",""553024""
","""event"",""trial"",""time""
""focus"",""2"",""13949""
""focus"",""77"",""579388""
","""event"",""trial"",""time""
""fullscreenenter"",""1"",""2702""
","""event"",""trial"",""time""
""fullscreenexit"",""2"",""10222""
","","","-1","","","21","3180","2138","&#9826;","elianto","#f73b6a7A","-1","-1","1","0","[]","0","0","3","","","","","","","",""
"pit-trial","87","671440","0.0-2.0-14.0-2.0","battery-v0.2","","""event"",""trial"",""time""
""fullscreenenter"",""1"",""2702""
""fullscreenexit"",""2"",""10222""
""blur"",""2"",""11913""
""focus"",""2"",""13949""
""blur"",""77"",""553024""
""focus"",""77"",""579388""
","""event"",""trial"",""time""
""blur"",""2"",""11913""
""blur"",""77"",""553024""
","""event"",""trial"",""time""
""focus"",""2"",""13949""
""focus"",""77"",""579388""
","""event"",""trial"",""time""
""fullscreenenter"",""1"",""2702""
","""event"",""trial"",""time""
""fullscreenexit"",""2"",""10222""
","","","-1","","","21","3180","2138","&#9826;","elianto","#f73b6a7A","-1","-1","1","0","[]","0","0","3","","","","","","","",""
"pit-trial","88","676297","0.0-2.0-14.0-3.0","battery-v0.2","","""event"",""trial"",""time""
""fullscreenenter"",""1"",""2702""
""fullscreenexit"",""2"",""10222""
""blur"",""2"",""11913""
""focus"",""2"",""13949""
""blur"",""77"",""553024""
""focus"",""77"",""579388""
","""event"",""trial"",""time""
""blur"",""2"",""11913""
""blur"",""77"",""553024""
","""event"",""trial"",""time""
""focus"",""2"",""13949""
""focus"",""77"",""579388""
","""event"",""trial"",""time""
""fullscreenenter"",""1"",""2702""
","""event"",""trial"",""time""
""fullscreenexit"",""2"",""10222""
","","","-1","","","21","3180","2138","&#9826;","elianto","#f73b6a7A","-1","-1","1","-10","[]","0","0","3","","","","","","","",""
"pit-trial","89","681155","0.0-2.0-14.0-4.0","battery-v0.2","","""event"",""trial"",""time""
""fullscreenenter"",""1"",""2702""
""fullscreenexit"",""2"",""10222""
""blur"",""2"",""11913""
""focus"",""2"",""13949""
""blur"",""77"",""553024""
""focus"",""77"",""579388""
","""event"",""trial"",""time""
""blur"",""2"",""11913""
""blur"",""77"",""553024""
","""event"",""trial"",""time""
""focus"",""2"",""13949""
""focus"",""77"",""579388""
","""event"",""trial"",""time""
""fullscreenenter"",""1"",""2702""
","""event"",""trial"",""time""
""fullscreenexit"",""2"",""10222""
","","","-1","","","21","3180","2138","&#9826;","elianto","#f73b6a7A","-1","-1","1","0","[]","0","0","3","","","","","","","",""
"call-function","90","681160","0.0-2.0-15.0","battery-v0.2","","""event"",""trial"",""time""
""fullscreenenter"",""1"",""2702""
""fullscreenexit"",""2"",""10222""
""blur"",""2"",""11913""
""focus"",""2"",""13949""
""blur"",""77"",""553024""
""focus"",""77"",""579388""
","""event"",""trial"",""time""
""blur"",""2"",""11913""
""blur"",""77"",""553024""
","""event"",""trial"",""time""
""focus"",""2"",""13949""
""focus"",""77"",""579388""
","""event"",""trial"",""time""
""fullscreenenter"",""1"",""2702""
","""event"",""trial"",""time""
""fullscreenexit"",""2"",""10222""
","","","","","","","","","","","","","","","","","","","","","","","","","","",""
"pit-instructions","91","712809","0.0-2.0-16.0","battery-v0.2","","""event"",""trial"",""time""
""fullscreenenter"",""1"",""2702""
""fullscreenexit"",""2"",""10222""
""blur"",""2"",""11913""
""focus"",""2"",""13949""
""blur"",""77"",""553024""
""focus"",""77"",""579388""
","""event"",""trial"",""time""
""blur"",""2"",""11913""
""blur"",""77"",""553024""
","""event"",""trial"",""time""
""focus"",""2"",""13949""
""focus"",""77"",""579388""
","""event"",""trial"",""time""
""fullscreenenter"",""1"",""2702""
","""event"",""trial"",""time""
""fullscreenexit"",""2"",""10222""
","","[{""page_index"":0,""viewing_time"":13646},{""page_index"":1,""viewing_time"":8866},{""page_index"":2,""viewing_time"":4649},{""page_index"":3,""viewing_time"":4485}]","31648","","","","","","","","","","","","","","","","","","","","","","","",""
"pit-trial","92","716470","0.0-2.0-17.0-0.0","battery-v0.2","","""event"",""trial"",""time""
""fullscreenenter"",""1"",""2702""
""fullscreenexit"",""2"",""10222""
""blur"",""2"",""11913""
""focus"",""2"",""13949""
""blur"",""77"",""553024""
""focus"",""77"",""579388""
","""event"",""trial"",""time""
""blur"",""2"",""11913""
""blur"",""77"",""553024""
","""event"",""trial"",""time""
""focus"",""2"",""13949""
""focus"",""77"",""579388""
","""event"",""trial"",""time""
""fullscreenenter"",""1"",""2702""
","""event"",""trial"",""time""
""fullscreenexit"",""2"",""10222""
","","","805","","","21","3180","2138","&#9789;","elianto","#f73b6a7A"," "," ","1","0","[1655]","1","0","4","","","","","","","",""
"pit-trial","93","721328","0.0-2.0-17.0-1.0","battery-v0.2","","""event"",""trial"",""time""
""fullscreenenter"",""1"",""2702""
""fullscreenexit"",""2"",""10222""
""blur"",""2"",""11913""
""focus"",""2"",""13949""
""blur"",""77"",""553024""
""focus"",""77"",""579388""
","""event"",""trial"",""time""
""blur"",""2"",""11913""
""blur"",""77"",""553024""
","""event"",""trial"",""time""
""focus"",""2"",""13949""
""focus"",""77"",""579388""
","""event"",""trial"",""time""
""fullscreenenter"",""1"",""2702""
","""event"",""trial"",""time""
""fullscreenexit"",""2"",""10222""
","","","-1","","","21","3180","2138","&#9789;","elianto","#f73b6a7A"," ","-1","0","-10","[]","0","0","4","","","","","","","",""
"pit-trial","94","726188","0.0-2.0-17.0-2.0","battery-v0.2","","""event"",""trial"",""time""
""fullscreenenter"",""1"",""2702""
""fullscreenexit"",""2"",""10222""
""blur"",""2"",""11913""
""focus"",""2"",""13949""
""blur"",""77"",""553024""
""focus"",""77"",""579388""
","""event"",""trial"",""time""
""blur"",""2"",""11913""
""blur"",""77"",""553024""
","""event"",""trial"",""time""
""focus"",""2"",""13949""
""focus"",""77"",""579388""
","""event"",""trial"",""time""
""fullscreenenter"",""1"",""2702""
","""event"",""trial"",""time""
""fullscreenexit"",""2"",""10222""
","","","-1","","","21","3180","2138","&#9789;","elianto","#f73b6a7A"," ","-1","0","-10","[]","0","0","4","","","","","","","",""
"pit-trial","95","729529","0.0-2.0-17.0-3.0","battery-v0.2","","""event"",""trial"",""time""
""fullscreenenter"",""1"",""2702""
""fullscreenexit"",""2"",""10222""
""blur"",""2"",""11913""
""focus"",""2"",""13949""
""blur"",""77"",""553024""
""focus"",""77"",""579388""
","""event"",""trial"",""time""
""blur"",""2"",""11913""
""blur"",""77"",""553024""
","""event"",""trial"",""time""
""focus"",""2"",""13949""
""focus"",""77"",""579388""
","""event"",""trial"",""time""
""fullscreenenter"",""1"",""2702""
","""event"",""trial"",""time""
""fullscreenexit"",""2"",""10222""
","","","483","","","21","3180","2138","&#9789;","elianto","#f73b6a7A"," "," ","1","-10","[1334]","1","0","4","","","","","","","",""
"pit-trial","96","732817","0.0-2.0-17.0-4.0","battery-v0.2","","""event"",""trial"",""time""
""fullscreenenter"",""1"",""2702""
""fullscreenexit"",""2"",""10222""
""blur"",""2"",""11913""
""focus"",""2"",""13949""
""blur"",""77"",""553024""
""focus"",""77"",""579388""
","""event"",""trial"",""time""
""blur"",""2"",""11913""
""blur"",""77"",""553024""
","""event"",""trial"",""time""
""focus"",""2"",""13949""
""focus"",""77"",""579388""
","""event"",""trial"",""time""
""fullscreenenter"",""1"",""2702""
","""event"",""trial"",""time""
""fullscreenexit"",""2"",""10222""
","","","430","","","21","3180","2138","&#9789;","elianto","#f73b6a7A"," "," ","1","0","[1281]","1","0","4","","","","","","","",""
"pit-trial","97","736276","0.0-2.0-17.1-0.1","battery-v0.2","","""event"",""trial"",""time""
""fullscreenenter"",""1"",""2702""
""fullscreenexit"",""2"",""10222""
""blur"",""2"",""11913""
""focus"",""2"",""13949""
""blur"",""77"",""553024""
""focus"",""77"",""579388""
","""event"",""trial"",""time""
""blur"",""2"",""11913""
""blur"",""77"",""553024""
","""event"",""trial"",""time""
""focus"",""2"",""13949""
""focus"",""77"",""579388""
","""event"",""trial"",""time""
""fullscreenenter"",""1"",""2702""
","""event"",""trial"",""time""
""fullscreenexit"",""2"",""10222""
","","","600","","","21","3180","2138","&#9789;","elianto","#f73b6a7A"," "," ","1","0","[1451]","1","0","4","","","","","","","",""
"pit-trial","98","739609","0.0-2.0-17.1-1.1","battery-v0.2","","""event"",""trial"",""time""
""fullscreenenter"",""1"",""2702""
""fullscreenexit"",""2"",""10222""
""blur"",""2"",""11913""
""focus"",""2"",""13949""
""blur"",""77"",""553024""
""focus"",""77"",""579388""
","""event"",""trial"",""time""
""blur"",""2"",""11913""
""blur"",""77"",""553024""
","""event"",""trial"",""time""
""focus"",""2"",""13949""
""focus"",""77"",""579388""
","""event"",""trial"",""time""
""fullscreenenter"",""1"",""2702""
","""event"",""trial"",""time""
""fullscreenexit"",""2"",""10222""
","","","475","","","21","3180","2138","&#9789;","elianto","#f73b6a7A"," "," ","1","0","[1326]","1","0","4","","","","","","","",""
"pit-trial","99","742778","0.0-2.0-17.1-2.1","battery-v0.2","","""event"",""trial"",""time""
""fullscreenenter"",""1"",""2702""
""fullscreenexit"",""2"",""10222""
""blur"",""2"",""11913""
""focus"",""2"",""13949""
""blur"",""77"",""553024""
""focus"",""77"",""579388""
","""event"",""trial"",""time""
""blur"",""2"",""11913""
""blur"",""77"",""553024""
","""event"",""trial"",""time""
""focus"",""2"",""13949""
""focus"",""77"",""579388""
","""event"",""trial"",""time""
""fullscreenenter"",""1"",""2702""
","""event"",""trial"",""time""
""fullscreenexit"",""2"",""10222""
","","","312","","","21","3180","2138","&#9789;","elianto","#f73b6a7A"," "," ","1","0","[1163]","1","0","4","","","","","","","",""
"pit-trial","100","745999","0.0-2.0-17.1-3.1","battery-v0.2","","""event"",""trial"",""time""
""fullscreenenter"",""1"",""2702""
""fullscreenexit"",""2"",""10222""
""blur"",""2"",""11913""
""focus"",""2"",""13949""
""blur"",""77"",""553024""
""focus"",""77"",""579388""
","""event"",""trial"",""time""
""blur"",""2"",""11913""
""blur"",""77"",""553024""
","""event"",""trial"",""time""
""focus"",""2"",""13949""
""focus"",""77"",""579388""
","""event"",""trial"",""time""
""fullscreenenter"",""1"",""2702""
","""event"",""trial"",""time""
""fullscreenexit"",""2"",""10222""
","","","364","","","21","3180","2138","&#9789;","elianto","#f73b6a7A"," "," ","1","-10","[1214.9999999998836]","1","0","4","","","","","","","",""
"pit-trial","101","749228","0.0-2.0-17.1-4.1","battery-v0.2","","""event"",""trial"",""time""
""fullscreenenter"",""1"",""2702""
""fullscreenexit"",""2"",""10222""
""blur"",""2"",""11913""
""focus"",""2"",""13949""
""blur"",""77"",""553024""
""focus"",""77"",""579388""
","""event"",""trial"",""time""
""blur"",""2"",""11913""
""blur"",""77"",""553024""
","""event"",""trial"",""time""
""focus"",""2"",""13949""
""focus"",""77"",""579388""
","""event"",""trial"",""time""
""fullscreenenter"",""1"",""2702""
","""event"",""trial"",""time""
""fullscreenexit"",""2"",""10222""
","","","372","","","21","3180","2138","&#9789;","elianto","#f73b6a7A"," "," ","1","0","[1221.9999999998836]","1","0","4","","","","","","","",""
"call-function","102","749232","0.0-2.0-18.0","battery-v0.2","","""event"",""trial"",""time""
""fullscreenenter"",""1"",""2702""
""fullscreenexit"",""2"",""10222""
""blur"",""2"",""11913""
""focus"",""2"",""13949""
""blur"",""77"",""553024""
""focus"",""77"",""579388""
","""event"",""trial"",""time""
""blur"",""2"",""11913""
""blur"",""77"",""553024""
","""event"",""trial"",""time""
""focus"",""2"",""13949""
""focus"",""77"",""579388""
","""event"",""trial"",""time""
""fullscreenenter"",""1"",""2702""
","""event"",""trial"",""time""
""fullscreenexit"",""2"",""10222""
","","","","","","","","","","","","","","","","","","","","","","","","","","",""
"pit-instructions","103","819051","0.0-2.0-19.0","battery-v0.2","","""event"",""trial"",""time""
""fullscreenenter"",""1"",""2702""
""fullscreenexit"",""2"",""10222""
""blur"",""2"",""11913""
""focus"",""2"",""13949""
""blur"",""77"",""553024""
""focus"",""77"",""579388""
","""event"",""trial"",""time""
""blur"",""2"",""11913""
""blur"",""77"",""553024""
","""event"",""trial"",""time""
""focus"",""2"",""13949""
""focus"",""77"",""579388""
","""event"",""trial"",""time""
""fullscreenenter"",""1"",""2702""
","""event"",""trial"",""time""
""fullscreenexit"",""2"",""10222""
","","[{""page_index"":0,""viewing_time"":7042},{""page_index"":1,""viewing_time"":5499},{""page_index"":2,""viewing_time"":12982},{""page_index"":3,""viewing_time"":9142.000000000116},{""page_index"":4,""viewing_time"":7900.999999999884},{""page_index"":5,""viewing_time"":9892},{""page_index"":6,""viewing_time"":8175},{""page_index"":7,""viewing_time"":5574},{""page_index"":8,""viewing_time"":3609}]","69818","","","","","","","","","","","","","","","","","","","","","","","",""
"pit-comprehension","104","823531","0.0-2.0-20.0-0.0","battery-v0.2","","""event"",""trial"",""time""
""fullscreenenter"",""1"",""2702""
""fullscreenexit"",""2"",""10222""
""blur"",""2"",""11913""
""focus"",""2"",""13949""
""blur"",""77"",""553024""
""focus"",""77"",""579388""
","""event"",""trial"",""time""
""blur"",""2"",""11913""
""blur"",""77"",""553024""
","""event"",""trial"",""time""
""focus"",""2"",""13949""
""focus"",""77"",""579388""
","""event"",""trial"",""time""
""fullscreenenter"",""1"",""2702""
","""event"",""trial"",""time""
""fullscreenexit"",""2"",""10222""
","","","4476","[""SPACE""]","0","21","3180","2138","","","","","","","","","","","","","","","","","","",""
"pit-instructions","105","826264","0.0-2.0-20.0-1.0","battery-v0.2","","""event"",""trial"",""time""
""fullscreenenter"",""1"",""2702""
""fullscreenexit"",""2"",""10222""
""blur"",""2"",""11913""
""focus"",""2"",""13949""
""blur"",""77"",""553024""
""focus"",""77"",""579388""
","""event"",""trial"",""time""
""blur"",""2"",""11913""
""blur"",""77"",""553024""
","""event"",""trial"",""time""
""focus"",""2"",""13949""
""focus"",""77"",""579388""
","""event"",""trial"",""time""
""fullscreenenter"",""1"",""2702""
","""event"",""trial"",""time""
""fullscreenexit"",""2"",""10222""
","","[{""page_index"":0,""viewing_time"":2699}]","2699","","","","","","","","","","","","","","","","","","","","","","","",""
"pit-comprehension","106","832118","0.0-2.0-21.0-0.0","battery-v0.2","","""event"",""trial"",""time""
""fullscreenenter"",""1"",""2702""
""fullscreenexit"",""2"",""10222""
""blur"",""2"",""11913""
""focus"",""2"",""13949""
""blur"",""77"",""553024""
""focus"",""77"",""579388""
","""event"",""trial"",""time""
""blur"",""2"",""11913""
""blur"",""77"",""553024""
","""event"",""trial"",""time""
""focus"",""2"",""13949""
""focus"",""77"",""579388""
","""event"",""trial"",""time""
""fullscreenenter"",""1"",""2702""
","""event"",""trial"",""time""
""fullscreenexit"",""2"",""10222""
","","","5850","[""10""]","0","21","3180","2138","","","","","","","","","","","","","","","","","","",""
"pit-instructions","107","838307","0.0-2.0-21.0-1.0","battery-v0.2","","""event"",""trial"",""time""
""fullscreenenter"",""1"",""2702""
""fullscreenexit"",""2"",""10222""
""blur"",""2"",""11913""
""focus"",""2"",""13949""
""blur"",""77"",""553024""
""focus"",""77"",""579388""
","""event"",""trial"",""time""
""blur"",""2"",""11913""
""blur"",""77"",""553024""
","""event"",""trial"",""time""
""focus"",""2"",""13949""
""focus"",""77"",""579388""
","""event"",""trial"",""time""
""fullscreenenter"",""1"",""2702""
","""event"",""trial"",""time""
""fullscreenexit"",""2"",""10222""
","","[{""page_index"":0,""viewing_time"":6155}]","6155","","","","","","","","","","","","","","","","","","","","","","","",""
"pit-comprehension","108","845802","0.0-2.0-22.0-0.0","battery-v0.2","","""event"",""trial"",""time""
""fullscreenenter"",""1"",""2702""
""fullscreenexit"",""2"",""10222""
""blur"",""2"",""11913""
""focus"",""2"",""13949""
""blur"",""77"",""553024""
""focus"",""77"",""579388""
","""event"",""trial"",""time""
""blur"",""2"",""11913""
""blur"",""77"",""553024""
","""event"",""trial"",""time""
""focus"",""2"",""13949""
""focus"",""77"",""579388""
","""event"",""trial"",""time""
""fullscreenenter"",""1"",""2702""
","""event"",""trial"",""time""
""fullscreenexit"",""2"",""10222""
","","","7490","[""0""]","0","21","3180","2138","","","","","","","","","","","","","","","","","","",""
"pit-instructions","109","849466","0.0-2.0-22.0-1.0","battery-v0.2","","""event"",""trial"",""time""
""fullscreenenter"",""1"",""2702""
""fullscreenexit"",""2"",""10222""
""blur"",""2"",""11913""
""focus"",""2"",""13949""
""blur"",""77"",""553024""
""focus"",""77"",""579388""
","""event"",""trial"",""time""
""blur"",""2"",""11913""
""blur"",""77"",""553024""
","""event"",""trial"",""time""
""focus"",""2"",""13949""
""focus"",""77"",""579388""
","""event"",""trial"",""time""
""fullscreenenter"",""1"",""2702""
","""event"",""trial"",""time""
""fullscreenexit"",""2"",""10222""
","","[{""page_index"":0,""viewing_time"":3628}]","3628","","","","","","","","","","","","","","","","","","","","","","","",""
"pit-comprehension","110","859167","0.0-2.0-23.0-0.0","battery-v0.2","","""event"",""trial"",""time""
""fullscreenenter"",""1"",""2702""
""fullscreenexit"",""2"",""10222""
""blur"",""2"",""11913""
""focus"",""2"",""13949""
""blur"",""77"",""553024""
""focus"",""77"",""579388""
","""event"",""trial"",""time""
""blur"",""2"",""11913""
""blur"",""77"",""553024""
","""event"",""trial"",""time""
""focus"",""2"",""13949""
""focus"",""77"",""579388""
","""event"",""trial"",""time""
""fullscreenenter"",""1"",""2702""
","""event"",""trial"",""time""
""fullscreenexit"",""2"",""10222""
","","","9697","[""True""]","0","21","3180","2138","","","","","","","","","","","","","","","","","","",""
"pit-instructions","111","860748","0.0-2.0-23.0-1.0","battery-v0.2","","""event"",""trial"",""time""
""fullscreenenter"",""1"",""2702""
""fullscreenexit"",""2"",""10222""
""blur"",""2"",""11913""
""focus"",""2"",""13949""
""blur"",""77"",""553024""
""focus"",""77"",""579388""
","""event"",""trial"",""time""
""blur"",""2"",""11913""
""blur"",""77"",""553024""
","""event"",""trial"",""time""
""focus"",""2"",""13949""
""focus"",""77"",""579388""
","""event"",""trial"",""time""
""fullscreenenter"",""1"",""2702""
","""event"",""trial"",""time""
""fullscreenexit"",""2"",""10222""
","","[{""page_index"":0,""viewing_time"":1545}]","1545","","","","","","","","","","","","","","","","","","","","","","","",""
"pit-comprehension","112","868169","0.0-2.0-24.0-0.0","battery-v0.2","","""event"",""trial"",""time""
""fullscreenenter"",""1"",""2702""
""fullscreenexit"",""2"",""10222""
""blur"",""2"",""11913""
""focus"",""2"",""13949""
""blur"",""77"",""553024""
""focus"",""77"",""579388""
","""event"",""trial"",""time""
""blur"",""2"",""11913""
""blur"",""77"",""553024""
","""event"",""trial"",""time""
""focus"",""2"",""13949""
""focus"",""77"",""579388""
","""event"",""trial"",""time""
""fullscreenenter"",""1"",""2702""
","""event"",""trial"",""time""
""fullscreenexit"",""2"",""10222""
","","","7413.999999999884","[""True""]","0","21","3180","2138","","","","","","","","","","","","","","","","","","",""
"pit-instructions","113","869865","0.0-2.0-24.0-1.0","battery-v0.2","","""event"",""trial"",""time""
""fullscreenenter"",""1"",""2702""
""fullscreenexit"",""2"",""10222""
""blur"",""2"",""11913""
""focus"",""2"",""13949""
""blur"",""77"",""553024""
""focus"",""77"",""579388""
","""event"",""trial"",""time""
""blur"",""2"",""11913""
""blur"",""77"",""553024""
","""event"",""trial"",""time""
""focus"",""2"",""13949""
""focus"",""77"",""579388""
","""event"",""trial"",""time""
""fullscreenenter"",""1"",""2702""
","""event"",""trial"",""time""
""fullscreenexit"",""2"",""10222""
","","[{""page_index"":0,""viewing_time"":1659}]","1660","","","","","","","","","","","","","","","","","","","","","","","",""
"pit-comprehension","114","876335","0.0-2.0-25.0-0.0","battery-v0.2","","""event"",""trial"",""time""
""fullscreenenter"",""1"",""2702""
""fullscreenexit"",""2"",""10222""
""blur"",""2"",""11913""
""focus"",""2"",""13949""
""blur"",""77"",""553024""
""focus"",""77"",""579388""
","""event"",""trial"",""time""
""blur"",""2"",""11913""
""blur"",""77"",""553024""
","""event"",""trial"",""time""
""focus"",""2"",""13949""
""focus"",""77"",""579388""
","""event"",""trial"",""time""
""fullscreenenter"",""1"",""2702""
","""event"",""trial"",""time""
""fullscreenexit"",""2"",""10222""
","","","6464","[""True""]","0","21","3180","2138","","","","","","","","","","","","","","","","","","",""
"pit-instructions","115","878598","0.0-2.0-25.0-1.0","battery-v0.2","","""event"",""trial"",""time""
""fullscreenenter"",""1"",""2702""
""fullscreenexit"",""2"",""10222""
""blur"",""2"",""11913""
""focus"",""2"",""13949""
""blur"",""77"",""553024""
""focus"",""77"",""579388""
","""event"",""trial"",""time""
""blur"",""2"",""11913""
""blur"",""77"",""553024""
","""event"",""trial"",""time""
""focus"",""2"",""13949""
""focus"",""77"",""579388""
","""event"",""trial"",""time""
""fullscreenenter"",""1"",""2702""
","""event"",""trial"",""time""
""fullscreenexit"",""2"",""10222""
","","[{""page_index"":0,""viewing_time"":2228}]","2229","","","","","","","","","","","","","","","","","","","","","","","",""
"pit-comprehension","116","883251","0.0-2.0-26.0-0.0","battery-v0.2","","""event"",""trial"",""time""
""fullscreenenter"",""1"",""2702""
""fullscreenexit"",""2"",""10222""
""blur"",""2"",""11913""
""focus"",""2"",""13949""
""blur"",""77"",""553024""
""focus"",""77"",""579388""
","""event"",""trial"",""time""
""blur"",""2"",""11913""
""blur"",""77"",""553024""
","""event"",""trial"",""time""
""focus"",""2"",""13949""
""focus"",""77"",""579388""
","""event"",""trial"",""time""
""fullscreenenter"",""1"",""2702""
","""event"",""trial"",""time""
""fullscreenexit"",""2"",""10222""
","","","4648","[""False""]","0","21","3180","2138","","","","","","","","","","","","","","","","","","",""
"pit-instructions","117","884873","0.0-2.0-26.0-1.0","battery-v0.2","","""event"",""trial"",""time""
""fullscreenenter"",""1"",""2702""
""fullscreenexit"",""2"",""10222""
""blur"",""2"",""11913""
""focus"",""2"",""13949""
""blur"",""77"",""553024""
""focus"",""77"",""579388""
","""event"",""trial"",""time""
""blur"",""2"",""11913""
""blur"",""77"",""553024""
","""event"",""trial"",""time""
""focus"",""2"",""13949""
""focus"",""77"",""579388""
","""event"",""trial"",""time""
""fullscreenenter"",""1"",""2702""
","""event"",""trial"",""time""
""fullscreenexit"",""2"",""10222""
","","[{""page_index"":0,""viewing_time"":1583}]","1584","","","","","","","","","","","","","","","","","","","","","","","",""
"pit-instructions","118","902608","0.0-3.0","battery-v0.2","","""event"",""trial"",""time""
""fullscreenenter"",""1"",""2702""
""fullscreenexit"",""2"",""10222""
""blur"",""2"",""11913""
""focus"",""2"",""13949""
""blur"",""77"",""553024""
""focus"",""77"",""579388""
","""event"",""trial"",""time""
""blur"",""2"",""11913""
""blur"",""77"",""553024""
","""event"",""trial"",""time""
""focus"",""2"",""13949""
""focus"",""77"",""579388""
","""event"",""trial"",""time""
""fullscreenenter"",""1"",""2702""
","""event"",""trial"",""time""
""fullscreenexit"",""2"",""10222""
","","[{""page_index"":0,""viewing_time"":4954.000000000116},{""page_index"":1,""viewing_time"":5634},{""page_index"":2,""viewing_time"":7140.999999999884}]","17730","","","","","","","","","","","","","","","","","","","","","","","",""
"pit-trial","119","907468","0.0-4.0","battery-v0.2","","""event"",""trial"",""time""
""fullscreenenter"",""1"",""2702""
""fullscreenexit"",""2"",""10222""
""blur"",""2"",""11913""
""focus"",""2"",""13949""
""blur"",""77"",""553024""
""focus"",""77"",""579388""
","""event"",""trial"",""time""
""blur"",""2"",""11913""
""blur"",""77"",""553024""
","""event"",""trial"",""time""
""focus"",""2"",""13949""
""focus"",""77"",""579388""
","""event"",""trial"",""time""
""fullscreenenter"",""1"",""2702""
","""event"",""trial"",""time""
""fullscreenexit"",""2"",""10222""
","","","-1","","","21","3180","2138","&#9728;","elianto","#f73b6a7A","-1","-1","1","0","[]","0","1","","","3180","1","0","4","lose","no-go","0"
"pit-trial","120","912327","0.0-5.0","battery-v0.2","","""event"",""trial"",""time""
""fullscreenenter"",""1"",""2702""
""fullscreenexit"",""2"",""10222""
""blur"",""2"",""11913""
""focus"",""2"",""13949""
""blur"",""77"",""553024""
""focus"",""77"",""579388""
","""event"",""trial"",""time""
""blur"",""2"",""11913""
""blur"",""77"",""553024""
","""event"",""trial"",""time""
""focus"",""2"",""13949""
""focus"",""77"",""579388""
","""event"",""trial"",""time""
""fullscreenenter"",""1"",""2702""
","""event"",""trial"",""time""
""fullscreenexit"",""2"",""10222""
","","","-1","","","21","3180","2138","&#9752;","elianto","#f73b6a7A"," ","-1","0","-10","[]","0","1","","","3180","2","3","3","lose","go","0"
"pit-trial","121","915904","0.0-6.0","battery-v0.2","","""event"",""trial"",""time""
""fullscreenenter"",""1"",""2702""
""fullscreenexit"",""2"",""10222""
""blur"",""2"",""11913""
""focus"",""2"",""13949""
""blur"",""77"",""553024""
""focus"",""77"",""579388""
","""event"",""trial"",""time""
""blur"",""2"",""11913""
""blur"",""77"",""553024""
","""event"",""trial"",""time""
""focus"",""2"",""13949""
""focus"",""77"",""579388""
","""event"",""trial"",""time""
""fullscreenenter"",""1"",""2702""
","""event"",""trial"",""time""
""fullscreenexit"",""2"",""10222""
","","","719","","","21","3180","2138","&#9733;","elianto","#3366ff99","-1"," ","0","0","[1569]","1","1","","","3180","3","2","2","win","no-go","0"
"pit-trial","122","919268","0.0-7.0","battery-v0.2","","""event"",""trial"",""time""
""fullscreenenter"",""1"",""2702""
""fullscreenexit"",""2"",""10222""
""blur"",""2"",""11913""
""focus"",""2"",""13949""
""blur"",""77"",""553024""
""focus"",""77"",""579388""
","""event"",""trial"",""time""
""blur"",""2"",""11913""
""blur"",""77"",""553024""
","""event"",""trial"",""time""
""focus"",""2"",""13949""
""focus"",""77"",""579388""
","""event"",""trial"",""time""
""fullscreenenter"",""1"",""2702""
","""event"",""trial"",""time""
""fullscreenexit"",""2"",""10222""
","","","506","","","21","3180","2138","&#9730;","elianto","#3366ff99"," "," ","1","+10","[1357]","1","1","","","3180","4","1","1","win","go","0"
"pit-trial","123","922726","0.0-8.0","battery-v0.2","","""event"",""trial"",""time""
""fullscreenenter"",""1"",""2702""
""fullscreenexit"",""2"",""10222""
""blur"",""2"",""11913""
""focus"",""2"",""13949""
""blur"",""77"",""553024""
""focus"",""77"",""579388""
","""event"",""trial"",""time""
""blur"",""2"",""11913""
""blur"",""77"",""553024""
","""event"",""trial"",""time""
""focus"",""2"",""13949""
""focus"",""77"",""579388""
","""event"",""trial"",""time""
""fullscreenenter"",""1"",""2702""
","""event"",""trial"",""time""
""fullscreenexit"",""2"",""10222""
","","","600","","","21","3180","2138","&#9733;","elianto","#3366ff99","-1"," ","0","0","[1451]","1","1","","","3180","5","2","2","win","no-go","0"
"pit-trial","124","926205","0.0-9.0","battery-v0.2","","""event"",""trial"",""time""
""fullscreenenter"",""1"",""2702""
""fullscreenexit"",""2"",""10222""
""blur"",""2"",""11913""
""focus"",""2"",""13949""
""blur"",""77"",""553024""
""focus"",""77"",""579388""
","""event"",""trial"",""time""
""blur"",""2"",""11913""
""blur"",""77"",""553024""
","""event"",""trial"",""time""
""focus"",""2"",""13949""
""focus"",""77"",""579388""
","""event"",""trial"",""time""
""fullscreenenter"",""1"",""2702""
","""event"",""trial"",""time""
""fullscreenexit"",""2"",""10222""
","","","621.0000000001164","","","21","3180","2138","&#9728;","elianto","#f73b6a7A","-1"," ","0","-10","[1472.0000000001164]","1","1","","","3180","6","0","4","lose","no-go","0"
"pit-trial","125","929616","0.0-10.0","battery-v0.2","","""event"",""trial"",""time""
""fullscreenenter"",""1"",""2702""
""fullscreenexit"",""2"",""10222""
""blur"",""2"",""11913""
""focus"",""2"",""13949""
""blur"",""77"",""553024""
""focus"",""77"",""579388""
","""event"",""trial"",""time""
""blur"",""2"",""11913""
""blur"",""77"",""553024""
","""event"",""trial"",""time""
""focus"",""2"",""13949""
""focus"",""77"",""579388""
","""event"",""trial"",""time""
""fullscreenenter"",""1"",""2702""
","""event"",""trial"",""time""
""fullscreenexit"",""2"",""10222""
","","","552","","","21","3180","2138","&#9752;","elianto","#f73b6a7A"," "," ","1","0","[1402]","1","1","","","3180","7","3","3","lose","go","0"
"pit-trial","126","932966","0.0-11.0","battery-v0.2","","""event"",""trial"",""time""
""fullscreenenter"",""1"",""2702""
""fullscreenexit"",""2"",""10222""
""blur"",""2"",""11913""
""focus"",""2"",""13949""
""blur"",""77"",""553024""
""focus"",""77"",""579388""
","""event"",""trial"",""time""
""blur"",""2"",""11913""
""blur"",""77"",""553024""
","""event"",""trial"",""time""
""focus"",""2"",""13949""
""focus"",""77"",""579388""
","""event"",""trial"",""time""
""fullscreenenter"",""1"",""2702""
","""event"",""trial"",""time""
""fullscreenexit"",""2"",""10222""
","","","491","","","21","3180","2138","&#9730;","elianto","#3366ff99"," "," ","1","+10","[1342]","1","1","","","3180","8","1","1","win","go","0"
"pit-trial","127","936439","0.0-12.0","battery-v0.2","","""event"",""trial"",""time""
""fullscreenenter"",""1"",""2702""
""fullscreenexit"",""2"",""10222""
""blur"",""2"",""11913""
""focus"",""2"",""13949""
""blur"",""77"",""553024""
""focus"",""77"",""579388""
","""event"",""trial"",""time""
""blur"",""2"",""11913""
""blur"",""77"",""553024""
","""event"",""trial"",""time""
""focus"",""2"",""13949""
""focus"",""77"",""579388""
","""event"",""trial"",""time""
""fullscreenenter"",""1"",""2702""
","""event"",""trial"",""time""
""fullscreenexit"",""2"",""10222""
","","","615","","","21","3180","2138","&#9733;","elianto","#3366ff99","-1"," ","0","0","[1466]","1","1","","","3180","9","2","2","win","no-go","0"
"pit-trial","128","940445","0.0-13.0","battery-v0.2","","""event"",""trial"",""time""
""fullscreenenter"",""1"",""2702""
""fullscreenexit"",""2"",""10222""
""blur"",""2"",""11913""
""focus"",""2"",""13949""
""blur"",""77"",""553024""
""focus"",""77"",""579388""
","""event"",""trial"",""time""
""blur"",""2"",""11913""
""blur"",""77"",""553024""
","""event"",""trial"",""time""
""focus"",""2"",""13949""
""focus"",""77"",""579388""
","""event"",""trial"",""time""
""fullscreenenter"",""1"",""2702""
","""event"",""trial"",""time""
""fullscreenexit"",""2"",""10222""
","","","1147","","","21","3180","2138","&#9752;","elianto","#f73b6a7A"," "," ","1","0","[1997]","1","1","","","3180","10","3","3","lose","go","0"
"pit-trial","129","945304","0.0-14.0","battery-v0.2","","""event"",""trial"",""time""
""fullscreenenter"",""1"",""2702""
""fullscreenexit"",""2"",""10222""
""blur"",""2"",""11913""
""focus"",""2"",""13949""
""blur"",""77"",""553024""
""focus"",""77"",""579388""
","""event"",""trial"",""time""
""blur"",""2"",""11913""
""blur"",""77"",""553024""
","""event"",""trial"",""time""
""focus"",""2"",""13949""
""focus"",""77"",""579388""
","""event"",""trial"",""time""
""fullscreenenter"",""1"",""2702""
","""event"",""trial"",""time""
""fullscreenexit"",""2"",""10222""
","","","-1","","","21","3180","2138","&#9728;","elianto","#f73b6a7A","-1","-1","1","0","[]","0","1","","","3180","11","0","4","lose","no-go","0"
"pit-trial","130","948731","0.0-15.0","battery-v0.2","","""event"",""trial"",""time""
""fullscreenenter"",""1"",""2702""
""fullscreenexit"",""2"",""10222""
""blur"",""2"",""11913""
""focus"",""2"",""13949""
""blur"",""77"",""553024""
""focus"",""77"",""579388""
","""event"",""trial"",""time""
""blur"",""2"",""11913""
""blur"",""77"",""553024""
","""event"",""trial"",""time""
""focus"",""2"",""13949""
""focus"",""77"",""579388""
","""event"",""trial"",""time""
""fullscreenenter"",""1"",""2702""
","""event"",""trial"",""time""
""fullscreenexit"",""2"",""10222""
","","","568","","","21","3180","2138","&#9730;","elianto","#3366ff99"," "," ","1","+10","[1419.9999999998836]","1","1","","","3180","12","1","1","win","go","0"
"pit-trial","131","952865","0.0-16.0","battery-v0.2","","""event"",""trial"",""time""
""fullscreenenter"",""1"",""2702""
""fullscreenexit"",""2"",""10222""
""blur"",""2"",""11913""
""focus"",""2"",""13949""
""blur"",""77"",""553024""
""focus"",""77"",""579388""
","""event"",""trial"",""time""
""blur"",""2"",""11913""
""blur"",""77"",""553024""
","""event"",""trial"",""time""
""focus"",""2"",""13949""
""focus"",""77"",""579388""
","""event"",""trial"",""time""
""fullscreenenter"",""1"",""2702""
","""event"",""trial"",""time""
""fullscreenexit"",""2"",""10222""
","","","1276","","","21","3180","2138","&#9752;","elianto","#f73b6a7A"," "," ","1","0","[2126]","1","1","","","3180","13","3","3","lose","go","0"
"pit-trial","132","956278","0.0-17.0","battery-v0.2","","""event"",""trial"",""time""
""fullscreenenter"",""1"",""2702""
""fullscreenexit"",""2"",""10222""
""blur"",""2"",""11913""
""focus"",""2"",""13949""
""blur"",""77"",""553024""
""focus"",""77"",""579388""
","""event"",""trial"",""time""
""blur"",""2"",""11913""
""blur"",""77"",""553024""
","""event"",""trial"",""time""
""focus"",""2"",""13949""
""focus"",""77"",""579388""
","""event"",""trial"",""time""
""fullscreenenter"",""1"",""2702""
","""event"",""trial"",""time""
""fullscreenexit"",""2"",""10222""
","","","555","","","21","3180","2138","&#9733;","elianto","#3366ff99","-1"," ","0","0","[1407]","1","1","","","3180","14","2","2","win","no-go","0"
"pit-trial","133","961136","0.0-18.0","battery-v0.2","","""event"",""trial"",""time""
""fullscreenenter"",""1"",""2702""
""fullscreenexit"",""2"",""10222""
""blur"",""2"",""11913""
""focus"",""2"",""13949""
""blur"",""77"",""553024""
""focus"",""77"",""579388""
","""event"",""trial"",""time""
""blur"",""2"",""11913""
""blur"",""77"",""553024""
","""event"",""trial"",""time""
""focus"",""2"",""13949""
""focus"",""77"",""579388""
","""event"",""trial"",""time""
""fullscreenenter"",""1"",""2702""
","""event"",""trial"",""time""
""fullscreenexit"",""2"",""10222""
","","","-1","","","21","3180","2138","&#9728;","elianto","#f73b6a7A","-1","-1","1","0","[]","0","1","","","3180","15","0","4","lose","no-go","0"
"pit-trial","134","964769","0.0-19.0","battery-v0.2","","""event"",""trial"",""time""
""fullscreenenter"",""1"",""2702""
""fullscreenexit"",""2"",""10222""
""blur"",""2"",""11913""
""focus"",""2"",""13949""
""blur"",""77"",""553024""
""focus"",""77"",""579388""
","""event"",""trial"",""time""
""blur"",""2"",""11913""
""blur"",""77"",""553024""
","""event"",""trial"",""time""
""focus"",""2"",""13949""
""focus"",""77"",""579388""
","""event"",""trial"",""time""
""fullscreenenter"",""1"",""2702""
","""event"",""trial"",""time""
""fullscreenexit"",""2"",""10222""
","","","775","","","21","3180","2138","&#9730;","elianto","#3366ff99"," "," ","1","+10","[1626]","1","1","","","3180","16","1","1","win","go","0"
"pit-trial","135","968280","0.0-20.0","battery-v0.2","","""event"",""trial"",""time""
""fullscreenenter"",""1"",""2702""
""fullscreenexit"",""2"",""10222""
""blur"",""2"",""11913""
""focus"",""2"",""13949""
""blur"",""77"",""553024""
""focus"",""77"",""579388""
","""event"",""trial"",""time""
""blur"",""2"",""11913""
""blur"",""77"",""553024""
","""event"",""trial"",""time""
""focus"",""2"",""13949""
""focus"",""77"",""579388""
","""event"",""trial"",""time""
""fullscreenenter"",""1"",""2702""
","""event"",""trial"",""time""
""fullscreenexit"",""2"",""10222""
","","","652","","","21","3180","2138","&#9730;","elianto","#3366ff99"," "," ","1","+10","[1503]","1","1","","","3180","17","1","1","win","go","0"
"pit-trial","136","973139","0.0-21.0","battery-v0.2","","""event"",""trial"",""time""
""fullscreenenter"",""1"",""2702""
""fullscreenexit"",""2"",""10222""
""blur"",""2"",""11913""
""focus"",""2"",""13949""
""blur"",""77"",""553024""
""focus"",""77"",""579388""
","""event"",""trial"",""time""
""blur"",""2"",""11913""
""blur"",""77"",""553024""
","""event"",""trial"",""time""
""focus"",""2"",""13949""
""focus"",""77"",""579388""
","""event"",""trial"",""time""
""fullscreenenter"",""1"",""2702""
","""event"",""trial"",""time""
""fullscreenexit"",""2"",""10222""
","","","-1","","","21","3180","2138","&#9728;","elianto","#f73b6a7A","-1","-1","1","0","[]","0","1","","","3180","18","0","4","lose","no-go","0"
"pit-trial","137","977477","0.0-22.0","battery-v0.2","","""event"",""trial"",""time""
""fullscreenenter"",""1"",""2702""
""fullscreenexit"",""2"",""10222""
""blur"",""2"",""11913""
""focus"",""2"",""13949""
""blur"",""77"",""553024""
""focus"",""77"",""579388""
","""event"",""trial"",""time""
""blur"",""2"",""11913""
""blur"",""77"",""553024""
","""event"",""trial"",""time""
""focus"",""2"",""13949""
""focus"",""77"",""579388""
","""event"",""trial"",""time""
""fullscreenenter"",""1"",""2702""
","""event"",""trial"",""time""
""fullscreenexit"",""2"",""10222""
","","","1480","","","21","3180","2138","&#9752;","elianto","#f73b6a7A"," "," ","1","0","[2331]","1","1","","","3180","19","3","3","lose","go","0"
"pit-trial","138","982335","0.0-23.0","battery-v0.2","","""event"",""trial"",""time""
""fullscreenenter"",""1"",""2702""
""fullscreenexit"",""2"",""10222""
""blur"",""2"",""11913""
""focus"",""2"",""13949""
""blur"",""77"",""553024""
""focus"",""77"",""579388""
","""event"",""trial"",""time""
""blur"",""2"",""11913""
""blur"",""77"",""553024""
","""event"",""trial"",""time""
""focus"",""2"",""13949""
""focus"",""77"",""579388""
","""event"",""trial"",""time""
""fullscreenenter"",""1"",""2702""
","""event"",""trial"",""time""
""fullscreenexit"",""2"",""10222""
","","","-1","","","21","3180","2138","&#9733;","elianto","#3366ff99","-1","-1","1","+10","[]","0","1","","","3180","20","2","2","win","no-go","0"
"pit-instructions","139","995048","0.0-24.0","battery-v0.2","","""event"",""trial"",""time""
""fullscreenenter"",""1"",""2702""
""fullscreenexit"",""2"",""10222""
""blur"",""2"",""11913""
""focus"",""2"",""13949""
""blur"",""77"",""553024""
""focus"",""77"",""579388""
","""event"",""trial"",""time""
""blur"",""2"",""11913""
""blur"",""77"",""553024""
","""event"",""trial"",""time""
""focus"",""2"",""13949""
""focus"",""77"",""579388""
","""event"",""trial"",""time""
""fullscreenenter"",""1"",""2702""
","""event"",""trial"",""time""
""fullscreenexit"",""2"",""10222""
","","[{""page_index"":0,""viewing_time"":5548},{""page_index"":1,""viewing_time"":7157}]","12706","","","","","","","","","","","","","","","","","","","","","","","",""
"pit-trial","140","999908","0.0-25.0","battery-v0.2","","""event"",""trial"",""time""
""fullscreenenter"",""1"",""2702""
""fullscreenexit"",""2"",""10222""
""blur"",""2"",""11913""
""focus"",""2"",""13949""
""blur"",""77"",""553024""
""focus"",""77"",""579388""
","""event"",""trial"",""time""
""blur"",""2"",""11913""
""blur"",""77"",""553024""
","""event"",""trial"",""time""
""focus"",""2"",""13949""
""focus"",""77"",""579388""
","""event"",""trial"",""time""
""fullscreenenter"",""1"",""2702""
","""event"",""trial"",""time""
""fullscreenexit"",""2"",""10222""
","","","-1","","","21","3180","2138","e","elianto","#f73b6a7A","-1","-1","1","0","[]","0","2","","","3180","21","2","4","lose","no-go","0"
"pit-trial","141","1003881","0.0-26.0","battery-v0.2","","""event"",""trial"",""time""
""fullscreenenter"",""1"",""2702""
""fullscreenexit"",""2"",""10222""
""blur"",""2"",""11913""
""focus"",""2"",""13949""
""blur"",""77"",""553024""
""focus"",""77"",""579388""
","""event"",""trial"",""time""
""blur"",""2"",""11913""
""blur"",""77"",""553024""
","""event"",""trial"",""time""
""focus"",""2"",""13949""
""focus"",""77"",""579388""
","""event"",""trial"",""time""
""fullscreenenter"",""1"",""2702""
","""event"",""trial"",""time""
""fullscreenexit"",""2"",""10222""
","","","1116","","","21","3180","2138","j","elianto","#f73b6a7A","-1"," ","0","-10","[1966]","1","2","","","3180","22","0","4","lose","no-go","0"
"pit-trial","142","1007643","0.0-27.0","battery-v0.2","","""event"",""trial"",""time""
""fullscreenenter"",""1"",""2702""
""fullscreenexit"",""2"",""10222""
""blur"",""2"",""11913""
""focus"",""2"",""13949""
""blur"",""77"",""553024""
""focus"",""77"",""579388""
","""event"",""trial"",""time""
""blur"",""2"",""11913""
""blur"",""77"",""553024""
","""event"",""trial"",""time""
""focus"",""2"",""13949""
""focus"",""77"",""579388""
","""event"",""trial"",""time""
""fullscreenenter"",""1"",""2702""
","""event"",""trial"",""time""
""fullscreenexit"",""2"",""10222""
","","","903","","","21","3180","2138","d","elianto","#3366ff99"," "," ","1","+10","[1754.0000000001164]","1","2","","","3180","23","1","1","win","go","0"
"pit-trial","143","1012502","0.0-28.0","battery-v0.2","","""event"",""trial"",""time""
""fullscreenenter"",""1"",""2702""
""fullscreenexit"",""2"",""10222""
""blur"",""2"",""11913""
""focus"",""2"",""13949""
""blur"",""77"",""553024""
""focus"",""77"",""579388""
","""event"",""trial"",""time""
""blur"",""2"",""11913""
""blur"",""77"",""553024""
","""event"",""trial"",""time""
""focus"",""2"",""13949""
""focus"",""77"",""579388""
","""event"",""trial"",""time""
""fullscreenenter"",""1"",""2702""
","""event"",""trial"",""time""
""fullscreenexit"",""2"",""10222""
","","","-1","","","21","3180","2138","w","elianto","#f73b6a7A"," ","-1","0","0","[]","0","2","","","3180","24","3","3","lose","go","1"
"pit-trial","144","1017360","0.0-29.0","battery-v0.2","","""event"",""trial"",""time""
""fullscreenenter"",""1"",""2702""
""fullscreenexit"",""2"",""10222""
""blur"",""2"",""11913""
""focus"",""2"",""13949""
""blur"",""77"",""553024""
""focus"",""77"",""579388""
","""event"",""trial"",""time""
""blur"",""2"",""11913""
""blur"",""77"",""553024""
","""event"",""trial"",""time""
""focus"",""2"",""13949""
""focus"",""77"",""579388""
","""event"",""trial"",""time""
""fullscreenenter"",""1"",""2702""
","""event"",""trial"",""time""
""fullscreenexit"",""2"",""10222""
","","","-1","","","21","3180","2138","w","elianto","#f73b6a7A"," ","-1","0","-10","[]","0","2","","","3180","25","3","3","lose","go","0"
"pit-trial","145","1021298","0.0-30.0","battery-v0.2","","""event"",""trial"",""time""
""fullscreenenter"",""1"",""2702""
""fullscreenexit"",""2"",""10222""
""blur"",""2"",""11913""
""focus"",""2"",""13949""
""blur"",""77"",""553024""
""focus"",""77"",""579388""
","""event"",""trial"",""time""
""blur"",""2"",""11913""
""blur"",""77"",""553024""
","""event"",""trial"",""time""
""focus"",""2"",""13949""
""focus"",""77"",""579388""
","""event"",""trial"",""time""
""fullscreenenter"",""1"",""2702""
","""event"",""trial"",""time""
""fullscreenexit"",""2"",""10222""
","","","1080","","","21","3180","2138","e","elianto","#f73b6a7A","-1"," ","0","-10","[1931]","1","2","","","3180","26","2","4","lose","no-go","0"
"pit-trial","146","1025171","0.0-31.0","battery-v0.2","","""event"",""trial"",""time""
