"trial_type","trial_index","time_elapsed","internal_node_id","task_version","subject_id","interactions","blur_events","focus_events","fullscreenenter_events","fullscreenexit_events","success","view_history","rt","responses","num_errors","age","subject","participantId","rune","rune_set","hex","correct","choice","accuracy","outcome","keys","total_keys","block","practice","value","sub","trial","stimulus","robot","valence","action","sham"
"pavlovia","0","10","0.0-0.0","battery-v0.2","","""event"",""trial"",""time""
""fullscreenenter"",""1"",""3737""
","
","
","""event"",""trial"",""time""
""fullscreenenter"",""1"",""3737""
","
","","","","","","","","","","","","","","","","","","","","","","","","","","",""
"fullscreen","1","4685","0.0-1.0","battery-v0.2","","""event"",""trial"",""time""
""fullscreenenter"",""1"",""3737""
","
","
","""event"",""trial"",""time""
""fullscreenenter"",""1"",""3737""
","
","true","","","","","","","","","","","","","","","","","","","","","","","","","",""
"pit-instructions","2","21265","0.0-2.0-0.0","battery-v0.2","","""event"",""trial"",""time""
""fullscreenenter"",""1"",""3737""
","
","
","""event"",""trial"",""time""
""fullscreenenter"",""1"",""3737""
","
","","[{""page_index"":0,""viewing_time"":16577.600000023842}]","16577.899999976158","","","","","","","","","","","","","","","","","","","","","","","",""
"pit-comprehension","3","25377","0.0-2.0-1.0-0.0","battery-v0.2","","""event"",""trial"",""time""
""fullscreenenter"",""1"",""3737""
","
","
","""event"",""trial"",""time""
""fullscreenenter"",""1"",""3737""
","
","","","4109.5","[""shark""]","0","15","9687","4534","","","","","","","","","","","","","","","","","","",""
"pit-instructions","4","26584","0.0-2.0-1.0-1.0","battery-v0.2","","""event"",""trial"",""time""
""fullscreenenter"",""1"",""3737""
","
","
","""event"",""trial"",""time""
""fullscreenenter"",""1"",""3737""
","
","","[{""page_index"":0,""viewing_time"":1141.7000000476837}]","1142","","","","","","","","","","","","","","","","","","","","","","","",""
"pit-comprehension","5","30257","0.0-2.0-2.0-0.0","battery-v0.2","","""event"",""trial"",""time""
""fullscreenenter"",""1"",""3737""
","
","
","""event"",""trial"",""time""
""fullscreenenter"",""1"",""3737""
","
","","","3669.6999999284744","[""tiger""]","0","15","9687","4534","","","","","","","","","","","","","","","","","","",""
"pit-instructions","6","31385","0.0-2.0-2.0-1.0","battery-v0.2","","""event"",""trial"",""time""
""fullscreenenter"",""1"",""3737""
","
","
","""event"",""trial"",""time""
""fullscreenenter"",""1"",""3737""
","
","","[{""page_index"":0,""viewing_time"":1125.1000000238419}]","1125.3999999761581","","","","","","","","","","","","","","","","","","","","","","","",""
"pit-instructions","7","179000","0.0-2.0-3.0","battery-v0.2","","""event"",""trial"",""time""
""fullscreenenter"",""1"",""3737""
","
","
","""event"",""trial"",""time""
""fullscreenenter"",""1"",""3737""
","
","","[{""page_index"":0,""viewing_time"":8493.399999976158},{""page_index"":1,""viewing_time"":6232.200000047684},{""page_index"":2,""viewing_time"":15304},{""page_index"":3,""viewing_time"":7592},{""page_index"":4,""viewing_time"":8047.899999976158},{""page_index"":5,""viewing_time"":5823.899999976158},{""page_index"":6,""viewing_time"":12048.200000047684},{""page_index"":7,""viewing_time"":31624.100000023842},{""page_index"":8,""viewing_time"":6303.599999904633},{""page_index"":9,""viewing_time"":16176},{""page_index"":10,""viewing_time"":8671.900000095367},{""page_index"":11,""viewing_time"":8392},{""page_index"":12,""viewing_time"":7073.399999976158},{""page_index"":13,""viewing_time"":5830.600000023842}]","147613.39999997616","","","","","","","","","","","","","","","","","","","","","","","",""
"pit-trial","8","182507","0.0-2.0-4.0-0.0","battery-v0.2","","""event"",""trial"",""time""
""fullscreenenter"",""1"",""3737""
","
","
","""event"",""trial"",""time""
""fullscreenenter"",""1"",""3737""
","
","","","636.8000000715256","","","15","9687","4534","&#9784;","elianto","#FFFFF080"," "," ","1","&#10004","[1495.3999999761581]","1","0","0","","","","","","","",""
"pit-trial","9","185994","0.0-2.0-4.1-0.1","battery-v0.2","","""event"",""trial"",""time""
""fullscreenenter"",""1"",""3737""
","
","
","""event"",""trial"",""time""
""fullscreenenter"",""1"",""3737""
","
","","","629.1000000238419","","","15","9687","4534","&#9784;","elianto","#FFFFF080"," "," ","1","&#10004","[1483.1999999284744]","1","0","0","","","","","","","",""
"pit-trial","10","189073","0.0-2.0-4.2-0.2","battery-v0.2","","""event"",""trial"",""time""
""fullscreenenter"",""1"",""3737""
","
","
","""event"",""trial"",""time""
""fullscreenenter"",""1"",""3737""
","
","","","224.10000002384186","","","15","9687","4534","&#9784;","elianto","#FFFFF080"," "," ","1","&#10004","[1075.8999999761581]","1","0","0","","","","","","","",""
"pit-trial","11","192441","0.0-2.0-4.3-0.3","battery-v0.2","","""event"",""trial"",""time""
""fullscreenenter"",""1"",""3737""
","
","
","""event"",""trial"",""time""
""fullscreenenter"",""1"",""3737""
","
","","","508.09999990463257","","","15","9687","4534","&#9784;","elianto","#FFFFF080"," "," ","1","&#10004","[1366.2999999523163]","1","0","0","","","","","","","",""
"pit-trial","12","195854","0.0-2.0-4.4-0.4","battery-v0.2","","""event"",""trial"",""time""
""fullscreenenter"",""1"",""3737""
","
","
","""event"",""trial"",""time""
""fullscreenenter"",""1"",""3737""
","
","","","548.5","","","15","9687","4534","&#9784;","elianto","#FFFFF080"," "," ","1","&#10004","[1406.5]","1","0","0","","","","","","","",""
"pit-instructions","13","231176","0.0-2.0-5.0","battery-v0.2","","""event"",""trial"",""time""
""fullscreenenter"",""1"",""3737""
","
","
","""event"",""trial"",""time""
""fullscreenenter"",""1"",""3737""
","
","","[{""page_index"":0,""viewing_time"":10887.5},{""page_index"":1,""viewing_time"":7391.899999976158},{""page_index"":2,""viewing_time"":5255.900000095367},{""page_index"":3,""viewing_time"":11784.099999904633}]","35319.700000047684","","","","","","","","","","","","","","","","","","","","","","","",""
"pit-trial","14","236029","0.0-2.0-6.0-0.0","battery-v0.2","","""event"",""trial"",""time""
""fullscreenenter"",""1"",""3737""
","
","
","""event"",""trial"",""time""
""fullscreenenter"",""1"",""3737""
","
","","","-1","","","15","9687","4534","&#9854;","elianto","#FFFFF080","-1","-1","1","&#10004","[]","0","0","1","","","","","","","",""
"pit-trial","15","240899","0.0-2.0-6.1-0.1","battery-v0.2","","""event"",""trial"",""time""
""fullscreenenter"",""1"",""3737""
","
","
","""event"",""trial"",""time""
""fullscreenenter"",""1"",""3737""
","
","","","-1","","","15","9687","4534","&#9854;","elianto","#FFFFF080","-1","-1","1","&#10004","[]","0","0","1","","","","","","","",""
"pit-trial","16","245751","0.0-2.0-6.2-0.2","battery-v0.2","","""event"",""trial"",""time""
""fullscreenenter"",""1"",""3737""
","
","
","""event"",""trial"",""time""
""fullscreenenter"",""1"",""3737""
","
","","","-1","","","15","9687","4534","&#9854;","elianto","#FFFFF080","-1","-1","1","&#10004","[]","0","0","1","","","","","","","",""
"pit-trial","17","250604","0.0-2.0-6.3-0.3","battery-v0.2","","""event"",""trial"",""time""
""fullscreenenter"",""1"",""3737""
","
","
","""event"",""trial"",""time""
""fullscreenenter"",""1"",""3737""
","
","","","-1","","","15","9687","4534","&#9854;","elianto","#FFFFF080","-1","-1","1","&#10004","[]","0","0","1","","","","","","","",""
"pit-trial","18","255470","0.0-2.0-6.4-0.4","battery-v0.2","","""event"",""trial"",""time""
""fullscreenenter"",""1"",""3737""
","
","
","""event"",""trial"",""time""
""fullscreenenter"",""1"",""3737""
","
","","","-1","","","15","9687","4534","&#9854;","elianto","#FFFFF080","-1","-1","1","&#10004","[]","0","0","1","","","","","","","",""
"pit-instructions","19","383136","0.0-2.0-7.0","battery-v0.2","","""event"",""trial"",""time""
""fullscreenenter"",""1"",""3737""
","
","
","""event"",""trial"",""time""
""fullscreenenter"",""1"",""3737""
","
","","[{""page_index"":0,""viewing_time"":5180.599999904633},{""page_index"":1,""viewing_time"":8799.900000095367},{""page_index"":2,""viewing_time"":7168},{""page_index"":3,""viewing_time"":7016.199999928474},{""page_index"":4,""viewing_time"":5703.700000047684},{""page_index"":5,""viewing_time"":5919.899999976158},{""page_index"":6,""viewing_time"":6528.299999952316},{""page_index"":7,""viewing_time"":7847.900000095367},{""page_index"":8,""viewing_time"":6871.899999976158},{""page_index"":9,""viewing_time"":6688.100000023842},{""page_index"":10,""viewing_time"":6983.799999952316},{""page_index"":11,""viewing_time"":5160.200000047684},{""page_index"":12,""viewing_time"":7247.899999976158},{""page_index"":13,""viewing_time"":5776.100000023842},{""page_index"":12,""viewing_time"":4695.899999976158},{""page_index"":13,""viewing_time"":2167.899999976158},{""page_index"":14,""viewing_time"":7512.100000023842},{""page_index"":15,""viewing_time"":6471.899999976158},{""page_index"":16,""viewing_time"":6080.100000023842},{""page_index"":17,""viewing_time"":7840}]","127660.69999992847","","","","","","","","","","","","","","","","","","","","","","","",""
"pit-trial","20","386700","0.0-2.0-8.0-0.0","battery-v0.2","","""event"",""trial"",""time""
""fullscreenenter"",""1"",""3737""
","
","
","""event"",""trial"",""time""
""fullscreenenter"",""1"",""3737""
","
","","","706.2000000476837","","","15","9687","4534","&#9776;","elianto","#3366ff99"," "," ","1","+10","[1560.2000000476837]","1","0","1","","","","","","","",""
"pit-trial","21","390131","0.0-2.0-8.0-1.0","battery-v0.2","","""event"",""trial"",""time""
""fullscreenenter"",""1"",""3737""
","
","
","""event"",""trial"",""time""
""fullscreenenter"",""1"",""3737""
","
","","","569.1000000238419","","","15","9687","4534","&#9776;","elianto","#3366ff99"," "," ","1","+10","[1427.1999999284744]","1","0","1","","","","","","","",""
"pit-trial","22","393158","0.0-2.0-8.0-2.0","battery-v0.2","","""event"",""trial"",""time""
""fullscreenenter"",""1"",""3737""
","
","
","""event"",""trial"",""time""
""fullscreenenter"",""1"",""3737""
","
","","","166.80000007152557","","","15","9687","4534","&#9776;","elianto","#3366ff99"," "," ","1","+10","[1020.3999999761581]","1","0","1","","","","","","","",""
"pit-trial","23","396487","0.0-2.0-8.0-3.0","battery-v0.2","","""event"",""trial"",""time""
""fullscreenenter"",""1"",""3737""
","
","
","""event"",""trial"",""time""
""fullscreenenter"",""1"",""3737""
","
","","","469.3000000715256","","","15","9687","4534","&#9776;","elianto","#3366ff99"," "," ","1","0","[1321.7000000476837]","1","0","1","","","","","","","",""
"pit-trial","24","399849","0.0-2.0-8.0-4.0","battery-v0.2","","""event"",""trial"",""time""
""fullscreenenter"",""1"",""3737""
","
","
","""event"",""trial"",""time""
""fullscreenenter"",""1"",""3737""
","
","","","508.39999997615814","","","15","9687","4534","&#9776;","elianto","#3366ff99"," "," ","1","+10","[1360.2999999523163]","1","0","1","","","","","","","",""
"pit-trial","25","403007","0.0-2.0-8.1-0.1","battery-v0.2","","""event"",""trial"",""time""
""fullscreenenter"",""1"",""3737""
","
","
","""event"",""trial"",""time""
""fullscreenenter"",""1"",""3737""
","
","","","277.7000000476837","","","15","9687","4534","&#9776;","elianto","#3366ff99"," "," ","1","+10","[1138.6000000238419]","1","0","1","","","","","","","",""
"pit-trial","26","405912","0.0-2.0-8.1-1.1","battery-v0.2","","""event"",""trial"",""time""
""fullscreenenter"",""1"",""3737""
","
","
","""event"",""trial"",""time""
""fullscreenenter"",""1"",""3737""
","
","","","36.5","","","15","9687","4534","&#9776;","elianto","#3366ff99"," "," ","1","+10","[886.7000000476837]","1","0","1","","","","","","","",""
"pit-trial","27","409290","0.0-2.0-8.1-2.1","battery-v0.2","","""event"",""trial"",""time""
""fullscreenenter"",""1"",""3737""
","
","
","""event"",""trial"",""time""
""fullscreenenter"",""1"",""3737""
","
","","","513.7000000476837","","","15","9687","4534","&#9776;","elianto","#3366ff99"," "," ","1","+10","[1366.7999999523163]","1","0","1","","","","","","","",""
"pit-trial","28","412608","0.0-2.0-8.1-3.1","battery-v0.2","","""event"",""trial"",""time""
""fullscreenenter"",""1"",""3737""
","
","
","""event"",""trial"",""time""
""fullscreenenter"",""1"",""3737""
","
","","","462.5","","","15","9687","4534","&#9776;","elianto","#3366ff99"," "," ","1","0","[1316.5]","1","0","1","","","","","","","",""
"pit-trial","29","415681","0.0-2.0-8.1-4.1","battery-v0.2","","""event"",""trial"",""time""
""fullscreenenter"",""1"",""3737""
","
","
","""event"",""trial"",""time""
""fullscreenenter"",""1"",""3737""
","
","","","219.69999992847443","","","15","9687","4534","&#9776;","elianto","#3366ff99"," "," ","1","+10","[1070.1000000238419]","1","0","1","","","","","","","",""
"pit-trial","30","420535","0.0-2.0-8.2-0.2","battery-v0.2","","""event"",""trial"",""time""
""fullscreenenter"",""1"",""3737""
","
","
","""event"",""trial"",""time""
""fullscreenenter"",""1"",""3737""
","
","","","-1","","","15","9687","4534","&#9776;","elianto","#3366ff99"," ","-1","0","0","[824.8999999761581]","1","0","1","","","","","","","",""
"pit-trial","31","423432","0.0-2.0-8.2-1.2","battery-v0.2","","""event"",""trial"",""time""
""fullscreenenter"",""1"",""3737""
","
","
","""event"",""trial"",""time""
""fullscreenenter"",""1"",""3737""
","
","","","44.60000002384186","","","15","9687","4534","&#9776;","elianto","#3366ff99"," "," ","1","+10","[431.2000000476837,895.1000000238419]","2","0","1","","","","","","","",""
"pit-trial","32","426377","0.0-2.0-8.2-2.2","battery-v0.2","","""event"",""trial"",""time""
""fullscreenenter"",""1"",""3737""
","
","
","""event"",""trial"",""time""
""fullscreenenter"",""1"",""3737""
","
","","","92.19999992847443","","","15","9687","4534","&#9776;","elianto","#3366ff99"," "," ","1","+10","[943]","1","0","1","","","","","","","",""
"pit-trial","33","429576","0.0-2.0-8.2-3.2","battery-v0.2","","""event"",""trial"",""time""
""fullscreenenter"",""1"",""3737""
","
","
","""event"",""trial"",""time""
""fullscreenenter"",""1"",""3737""
","
","","","345.39999997615814","","","15","9687","4534","&#9776;","elianto","#3366ff99"," "," ","1","0","[1197.1999999284744]","1","0","1","","","","","","","",""
"pit-trial","34","432481","0.0-2.0-8.2-4.2","battery-v0.2","","""event"",""trial"",""time""
""fullscreenenter"",""1"",""3737""
","
","
","""event"",""trial"",""time""
""fullscreenenter"",""1"",""3737""
","
","","","53.300000071525574","","","15","9687","4534","&#9776;","elianto","#3366ff99"," "," ","1","+10","[903.5,2752.2999999523163]","2","0","1","","","","","","","",""
"call-function","35","432483","0.0-2.0-9.0","battery-v0.2","","""event"",""trial"",""time""
""fullscreenenter"",""1"",""3737""
","
","
","""event"",""trial"",""time""
""fullscreenenter"",""1"",""3737""
","
","","","","","","","","","","","","","","","","","","","","","","","","","","",""
"pit-instructions","36","471424","0.0-2.0-10.0","battery-v0.2","","""event"",""trial"",""time""
""fullscreenenter"",""1"",""3737""
","
","
","""event"",""trial"",""time""
""fullscreenenter"",""1"",""3737""
","
","","[{""page_index"":0,""viewing_time"":5827.899999976158},{""page_index"":1,""viewing_time"":6936.100000023842},{""page_index"":2,""viewing_time"":9319.899999976158},{""page_index"":3,""viewing_time"":8128},{""page_index"":4,""viewing_time"":8727.800000071526}]","38940","","","","","","","","","","","","","","","","","","","","","","","",""
"pit-trial","37","474721","0.0-2.0-11.0-0.0","battery-v0.2","","""event"",""trial"",""time""
""fullscreenenter"",""1"",""3737""
","
","
","""event"",""trial"",""time""
""fullscreenenter"",""1"",""3737""
","
","","","435","","","15","9687","4534","&#9761;","elianto","#3366ff99","-1"," ","0","0","[1295]","1","0","2","","","","","","","",""
"pit-trial","38","477985","0.0-2.0-11.0-1.0","battery-v0.2","","""event"",""trial"",""time""
""fullscreenenter"",""1"",""3737""
","
","
","""event"",""trial"",""time""
""fullscreenenter"",""1"",""3737""
","
","","","409.6999999284744","","","15","9687","4534","&#9761;","elianto","#3366ff99","-1"," ","0","0","[1261.6000000238419]","1","0","2","","","","","","","",""
"pit-trial","39","480946","0.0-2.0-11.0-2.0","battery-v0.2","","""event"",""trial"",""time""
""fullscreenenter"",""1"",""3737""
","
","
","""event"",""trial"",""time""
""fullscreenenter"",""1"",""3737""
","
","","","106.79999995231628","","","15","9687","4534","&#9761;","elianto","#3366ff99","-1"," ","0","0","[958.8999999761581]","1","0","2","","","","","","","",""
"pit-trial","40","483977","0.0-2.0-11.0-3.0","battery-v0.2","","""event"",""trial"",""time""
""fullscreenenter"",""1"",""3737""
","
","
","""event"",""trial"",""time""
""fullscreenenter"",""1"",""3737""
","
","","","173.89999997615814","","","15","9687","4534","&#9761;","elianto","#3366ff99","-1"," ","0","+10","[1029.2999999523163]","1","0","2","","","","","","","",""
"pit-trial","41","487547","0.0-2.0-11.0-4.0","battery-v0.2","","""event"",""trial"",""time""
""fullscreenenter"",""1"",""3737""
","
","
","""event"",""trial"",""time""
""fullscreenenter"",""1"",""3737""
","
","","","716.6999999284744","","","15","9687","4534","&#9761;","elianto","#3366ff99","-1"," ","0","0","[65.40000009536743,1567.1000000238419,1567.3000000715256,1623.8000000715256]","4","0","2","","","","","","","",""
"pit-trial","42","492408","0.0-2.0-11.1-0.1","battery-v0.2","","""event"",""trial"",""time""
""fullscreenenter"",""1"",""3737""
","
","
","""event"",""trial"",""time""
""fullscreenenter"",""1"",""3737""
","
","","","1991.8000000715256","","","15","9687","4534","&#9761;","elianto","#3366ff99","-1"," ","0","0","[811.5999999046326,2842.399999976158,3730.0999999046326]","3","0","2","","","","","","","",""
"pit-trial","43","495462","0.0-2.0-11.1-1.1","battery-v0.2","","""event"",""trial"",""time""
""fullscreenenter"",""1"",""3737""
","
","
","""event"",""trial"",""time""
""fullscreenenter"",""1"",""3737""
","
","","","180.5","","","15","9687","4534","&#9761;","elianto","#3366ff99","-1"," ","0","0","[1038.3000000715256]","1","0","2","","","","","","","",""
"pit-trial","44","498610","0.0-2.0-11.1-2.1","battery-v0.2","","""event"",""trial"",""time""
""fullscreenenter"",""1"",""3737""
","
","
","""event"",""trial"",""time""
""fullscreenenter"",""1"",""3737""
","
","","","286.10000002384186","","","15","9687","4534","&#9761;","elianto","#3366ff99","-1"," ","0","0","[1137.2999999523163]","1","0","2","","","","","","","",""
"pit-trial","45","501721","0.0-2.0-11.1-3.1","battery-v0.2","","""event"",""trial"",""time""
""fullscreenenter"",""1"",""3737""
","
","
","""event"",""trial"",""time""
""fullscreenenter"",""1"",""3737""
","
","","","255.29999995231628","","","15","9687","4534","&#9761;","elianto","#3366ff99","-1"," ","0","+10","[1107.5]","1","0","2","","","","","","","",""
"pit-trial","46","505041","0.0-2.0-11.1-4.1","battery-v0.2","","""event"",""trial"",""time""
""fullscreenenter"",""1"",""3737""
","
","
","""event"",""trial"",""time""
""fullscreenenter"",""1"",""3737""
","
","","","467.7000000476837","","","15","9687","4534","&#9761;","elianto","#3366ff99","-1"," ","0","0","[1317.9000000953674]","1","0","2","","","","","","","",""
"pit-trial","47","508225","0.0-2.0-11.2-0.2","battery-v0.2","","""event"",""trial"",""time""
""fullscreenenter"",""1"",""3737""
","
","
","""event"",""trial"",""time""
""fullscreenenter"",""1"",""3737""
","
","","","330.39999997615814","","","15","9687","4534","&#9761;","elianto","#3366ff99","-1"," ","0","0","[1181.5]","1","0","2","","","","","","","",""
"pit-trial","48","511257","0.0-2.0-11.2-1.2","battery-v0.2","","""event"",""trial"",""time""
""fullscreenenter"",""1"",""3737""
","
","
","""event"",""trial"",""time""
""fullscreenenter"",""1"",""3737""
","
","","","176.10000002384186","","","15","9687","4534","&#9761;","elianto","#3366ff99","-1"," ","0","0","[1028.1000000238419]","1","0","2","","","","","","","",""
"pit-trial","49","514265","0.0-2.0-11.2-2.2","battery-v0.2","","""event"",""trial"",""time""
""fullscreenenter"",""1"",""3737""
","
","
","""event"",""trial"",""time""
""fullscreenenter"",""1"",""3737""
","
","","","154.09999990463257","","","15","9687","4534","&#9761;","elianto","#3366ff99","-1"," ","0","0","[1004.6999999284744]","1","0","2","","","","","","","",""
"pit-trial","50","517347","0.0-2.0-11.2-3.2","battery-v0.2","","""event"",""trial"",""time""
""fullscreenenter"",""1"",""3737""
","
","
","""event"",""trial"",""time""
""fullscreenenter"",""1"",""3737""
","
","","","225.60000002384186","","","15","9687","4534","&#9761;","elianto","#3366ff99","-1"," ","0","+10","[1078.6000000238419]","1","0","2","","","","","","","",""
"pit-trial","51","520674","0.0-2.0-11.2-4.2","battery-v0.2","","""event"",""trial"",""time""
""fullscreenenter"",""1"",""3737""
","
","
","""event"",""trial"",""time""
""fullscreenenter"",""1"",""3737""
","
","","","473.39999997615814","","","15","9687","4534","&#9761;","elianto","#3366ff99","-1"," ","0","0","[1325.1999999284744,2499.7999999523163,3203.6999999284744]","3","0","2","","","","","","","",""
"pit-trial","52","524019","0.0-2.0-11.3-0.3","battery-v0.2","","""event"",""trial"",""time""
""fullscreenenter"",""1"",""3737""
","
","
","""event"",""trial"",""time""
""fullscreenenter"",""1"",""3737""
","
","","","491.89999997615814","","","15","9687","4534","&#9761;","elianto","#3366ff99","-1"," ","0","0","[1342.2999999523163]","1","0","2","","","","","","","",""
"pit-trial","53","527129","0.0-2.0-11.3-1.3","battery-v0.2","","""event"",""trial"",""time""
""fullscreenenter"",""1"",""3737""
","
","
","""event"",""trial"",""time""
""fullscreenenter"",""1"",""3737""
","
","","","253","","","15","9687","4534","&#9761;","elianto","#3366ff99","-1"," ","0","0","[1106.7000000476837]","1","0","2","","","","","","","",""
"pit-trial","54","530361","0.0-2.0-11.3-2.3","battery-v0.2","","""event"",""trial"",""time""
""fullscreenenter"",""1"",""3737""
","
","
","""event"",""trial"",""time""
""fullscreenenter"",""1"",""3737""
","
","","","378.2000000476837","","","15","9687","4534","&#9761;","elianto","#3366ff99","-1"," ","0","0","[765,1229]","2","0","2","","","","","","","",""
"pit-trial","55","535215","0.0-2.0-11.3-3.3","battery-v0.2","","""event"",""trial"",""time""
""fullscreenenter"",""1"",""3737""
","
","
","""event"",""trial"",""time""
""fullscreenenter"",""1"",""3737""
","
","","","-1","","","15","9687","4534","&#9761;","elianto","#3366ff99","-1","-1","1","0","[788.6000000238419]","1","0","2","","","","","","","",""
"pit-trial","56","538138","0.0-2.0-11.3-4.3","battery-v0.2","","""event"",""trial"",""time""
""fullscreenenter"",""1"",""3737""
","
","
","""event"",""trial"",""time""
""fullscreenenter"",""1"",""3737""
","
","","","62.5","","","15","9687","4534","&#9761;","elianto","#3366ff99","-1"," ","0","0","[912.6000000238419]","1","0","2","","","","","","","",""
"call-function","57","538139","0.0-2.0-12.0","battery-v0.2","","""event"",""trial"",""time""
""fullscreenenter"",""1"",""3737""
","
","
","""event"",""trial"",""time""
""fullscreenenter"",""1"",""3737""
","
","","","","","","","","","","","","","","","","","","","","","","","","","","",""
"pit-instructions","58","574328","0.0-2.0-13.0","battery-v0.2","","""event"",""trial"",""time""
""fullscreenenter"",""1"",""3737""
","
","
","""event"",""trial"",""time""
""fullscreenenter"",""1"",""3737""
","
","","[{""page_index"":0,""viewing_time"":7979.199999928474},{""page_index"":1,""viewing_time"":8184},{""page_index"":2,""viewing_time"":3984.100000023842},{""page_index"":3,""viewing_time"":10959.799999952316},{""page_index"":4,""viewing_time"":5080.100000023842}]","36187.5","","","","","","","","","","","","","","","","","","","","","","","",""
"pit-trial","59","579186","0.0-2.0-14.0-0.0","battery-v0.2","","""event"",""trial"",""time""
""fullscreenenter"",""1"",""3737""
","
","
","""event"",""trial"",""time""
""fullscreenenter"",""1"",""3737""
","
","","","-1","","","15","9687","4534","&#9826;","elianto","#f73b6a7A","-1","-1","1","0","[]","0","0","3","","","","","","","",""
"pit-trial","60","584054","0.0-2.0-14.0-1.0","battery-v0.2","","""event"",""trial"",""time""
""fullscreenenter"",""1"",""3737""
","
","
","""event"",""trial"",""time""
""fullscreenenter"",""1"",""3737""
","
","","","-1","","","15","9687","4534","&#9826;","elianto","#f73b6a7A","-1","-1","1","0","[]","0","0","3","","","","","","","",""
"pit-trial","61","587188","0.0-2.0-14.0-2.0","battery-v0.2","","""event"",""trial"",""time""
""fullscreenenter"",""1"",""3737""
","
","
","""event"",""trial"",""time""
""fullscreenenter"",""1"",""3737""
","
","","","277.39999997615814","","","15","9687","4534","&#9826;","elianto","#f73b6a7A","-1"," ","0","-10","[1129.9000000953674]","1","0","3","","","","","","","",""
"pit-trial","62","592050","0.0-2.0-14.0-3.0","battery-v0.2","","""event"",""trial"",""time""
""fullscreenenter"",""1"",""3737""
","
","
","""event"",""trial"",""time""
""fullscreenenter"",""1"",""3737""
","
","","","-1","","","15","9687","4534","&#9826;","elianto","#f73b6a7A","-1","-1","1","-10","[]","0","0","3","","","","","","","",""
"pit-trial","63","596905","0.0-2.0-14.0-4.0","battery-v0.2","","""event"",""trial"",""time""
""fullscreenenter"",""1"",""3737""
","
","
","""event"",""trial"",""time""
""fullscreenenter"",""1"",""3737""
","
","","","-1","","","15","9687","4534","&#9826;","elianto","#f73b6a7A","-1","-1","1","0","[]","0","0","3","","","","","","","",""
"pit-trial","64","601768","0.0-2.0-14.1-0.1","battery-v0.2","","""event"",""trial"",""time""
""fullscreenenter"",""1"",""3737""
","
","
","""event"",""trial"",""time""
""fullscreenenter"",""1"",""3737""
","
","","","-1","","","15","9687","4534","&#9826;","elianto","#f73b6a7A","-1","-1","1","0","[]","0","0","3","","","","","","","",""
"pit-trial","65","606621","0.0-2.0-14.1-1.1","battery-v0.2","","""event"",""trial"",""time""
""fullscreenenter"",""1"",""3737""
","
","
","""event"",""trial"",""time""
""fullscreenenter"",""1"",""3737""
","
","","","-1","","","15","9687","4534","&#9826;","elianto","#f73b6a7A","-1","-1","1","0","[]","0","0","3","","","","","","","",""
"pit-trial","66","611475","0.0-2.0-14.1-2.1","battery-v0.2","","""event"",""trial"",""time""
""fullscreenenter"",""1"",""3737""
","
","
","""event"",""trial"",""time""
""fullscreenenter"",""1"",""3737""
","
","","","-1","","","15","9687","4534","&#9826;","elianto","#f73b6a7A","-1","-1","1","0","[]","0","0","3","","","","","","","",""
"pit-trial","67","616328","0.0-2.0-14.1-3.1","battery-v0.2","","""event"",""trial"",""time""
""fullscreenenter"",""1"",""3737""
","
","
","""event"",""trial"",""time""
""fullscreenenter"",""1"",""3737""
","
","","","-1","","","15","9687","4534","&#9826;","elianto","#f73b6a7A","-1","-1","1","-10","[]","0","0","3","","","","","","","",""
"pit-trial","68","621182","0.0-2.0-14.1-4.1","battery-v0.2","","""event"",""trial"",""time""
""fullscreenenter"",""1"",""3737""
","
","
","""event"",""trial"",""time""
""fullscreenenter"",""1"",""3737""
","
","","","-1","","","15","9687","4534","&#9826;","elianto","#f73b6a7A","-1","-1","1","0","[]","0","0","3","","","","","","","",""
"pit-trial","69","626037","0.0-2.0-14.2-0.2","battery-v0.2","","""event"",""trial"",""time""
""fullscreenenter"",""1"",""3737""
","
","
","""event"",""trial"",""time""
""fullscreenenter"",""1"",""3737""
","
","","","-1","","","15","9687","4534","&#9826;","elianto","#f73b6a7A","-1","-1","1","0","[]","0","0","3","","","","","","","",""
"pit-trial","70","630891","0.0-2.0-14.2-1.2","battery-v0.2","","""event"",""trial"",""time""
""fullscreenenter"",""1"",""3737""
","
","
","""event"",""trial"",""time""
""fullscreenenter"",""1"",""3737""
","
","","","-1","","","15","9687","4534","&#9826;","elianto","#f73b6a7A","-1","-1","1","0","[]","0","0","3","","","","","","","",""
"pit-trial","71","635745","0.0-2.0-14.2-2.2","battery-v0.2","","""event"",""trial"",""time""
""fullscreenenter"",""1"",""3737""
","
","
","""event"",""trial"",""time""
""fullscreenenter"",""1"",""3737""
","
","","","-1","","","15","9687","4534","&#9826;","elianto","#f73b6a7A","-1","-1","1","0","[]","0","0","3","","","","","","","",""
"pit-trial","72","640600","0.0-2.0-14.2-3.2","battery-v0.2","","""event"",""trial"",""time""
""fullscreenenter"",""1"",""3737""
","
","
","""event"",""trial"",""time""
""fullscreenenter"",""1"",""3737""
","
","","","-1","","","15","9687","4534","&#9826;","elianto","#f73b6a7A","-1","-1","1","-10","[]","0","0","3","","","","","","","",""
"pit-trial","73","645453","0.0-2.0-14.2-4.2","battery-v0.2","","""event"",""trial"",""time""
""fullscreenenter"",""1"",""3737""
","
","
","""event"",""trial"",""time""
""fullscreenenter"",""1"",""3737""
","
","","","-1","","","15","9687","4534","&#9826;","elianto","#f73b6a7A","-1","-1","1","0","[]","0","0","3","","","","","","","",""
"pit-trial","74","650308","0.0-2.0-14.3-0.3","battery-v0.2","","""event"",""trial"",""time""
""fullscreenenter"",""1"",""3737""
","
","
","""event"",""trial"",""time""
""fullscreenenter"",""1"",""3737""
","
","","","-1","","","15","9687","4534","&#9826;","elianto","#f73b6a7A","-1","-1","1","0","[]","0","0","3","","","","","","","",""
"pit-trial","75","655161","0.0-2.0-14.3-1.3","battery-v0.2","","""event"",""trial"",""time""
""fullscreenenter"",""1"",""3737""
","
","
","""event"",""trial"",""time""
""fullscreenenter"",""1"",""3737""
","
","","","-1","","","15","9687","4534","&#9826;","elianto","#f73b6a7A","-1","-1","1","0","[]","0","0","3","","","","","","","",""
"pit-trial","76","660015","0.0-2.0-14.3-2.3","battery-v0.2","","""event"",""trial"",""time""
""fullscreenenter"",""1"",""3737""
","
","
","""event"",""trial"",""time""
""fullscreenenter"",""1"",""3737""
","
","","","-1","","","15","9687","4534","&#9826;","elianto","#f73b6a7A","-1","-1","1","0","[]","0","0","3","","","","","","","",""
"pit-trial","77","664868","0.0-2.0-14.3-3.3","battery-v0.2","","""event"",""trial"",""time""
""fullscreenenter"",""1"",""3737""
","
","
","""event"",""trial"",""time""
""fullscreenenter"",""1"",""3737""
","
","","","-1","","","15","9687","4534","&#9826;","elianto","#f73b6a7A","-1","-1","1","-10","[]","0","0","3","","","","","","","",""
"pit-trial","78","669722","0.0-2.0-14.3-4.3","battery-v0.2","","""event"",""trial"",""time""
""fullscreenenter"",""1"",""3737""
","
","
","""event"",""trial"",""time""
""fullscreenenter"",""1"",""3737""
","
","","","-1","","","15","9687","4534","&#9826;","elianto","#f73b6a7A","-1","-1","1","0","[]","0","0","3","","","","","","","",""
"call-function","79","669726","0.0-2.0-15.0","battery-v0.2","","""event"",""trial"",""time""
""fullscreenenter"",""1"",""3737""
","
","
","""event"",""trial"",""time""
""fullscreenenter"",""1"",""3737""
","
","","","","","","","","","","","","","","","","","","","","","","","","","","",""
"pit-instructions","80","697616","0.0-2.0-16.0","battery-v0.2","","""event"",""trial"",""time""
""fullscreenenter"",""1"",""3737""
","
","
","""event"",""trial"",""time""
""fullscreenenter"",""1"",""3737""
","
","","[{""page_index"":0,""viewing_time"":9089.099999904633},{""page_index"":1,""viewing_time"":9183.900000095367},{""page_index"":2,""viewing_time"":4600},{""page_index"":3,""viewing_time"":5016}]","27889.299999952316","","","","","","","","","","","","","","","","","","","","","","","",""
"pit-trial","81","702486","0.0-2.0-17.0-0.0","battery-v0.2","","""event"",""trial"",""time""
""fullscreenenter"",""1"",""3737""
","
","
","""event"",""trial"",""time""
""fullscreenenter"",""1"",""3737""
","
","","","-1","","","15","9687","4534","&#9789;","elianto","#f73b6a7A"," ","-1","0","-10","[]","0","0","4","","","","","","","",""
"pit-trial","82","707347","0.0-2.0-17.0-1.0","battery-v0.2","","""event"",""trial"",""time""
""fullscreenenter"",""1"",""3737""
","
","
","""event"",""trial"",""time""
""fullscreenenter"",""1"",""3737""
","
","","","-1","","","15","9687","4534","&#9789;","elianto","#f73b6a7A"," ","-1","0","-10","[]","0","0","4","","","","","","","",""
"pit-trial","83","712207","0.0-2.0-17.0-2.0","battery-v0.2","","""event"",""trial"",""time""
""fullscreenenter"",""1"",""3737""
","
","
","""event"",""trial"",""time""
""fullscreenenter"",""1"",""3737""
","
","","","-1","","","15","9687","4534","&#9789;","elianto","#f73b6a7A"," ","-1","0","-10","[]","0","0","4","","","","","","","",""
"pit-trial","84","717089","0.0-2.0-17.0-3.0","battery-v0.2","","""event"",""trial"",""time""
""fullscreenenter"",""1"",""3737""
","
","
","""event"",""trial"",""time""
""fullscreenenter"",""1"",""3737""
","
","","","-1","","","15","9687","4534","&#9789;","elianto","#f73b6a7A"," ","-1","0","0","[]","0","0","4","","","","","","","",""
"pit-trial","85","721949","0.0-2.0-17.0-4.0","battery-v0.2","","""event"",""trial"",""time""
""fullscreenenter"",""1"",""3737""
","
","
","""event"",""trial"",""time""
""fullscreenenter"",""1"",""3737""
","
","","","-1","","","15","9687","4534","&#9789;","elianto","#f73b6a7A"," ","-1","0","-10","[]","0","0","4","","","","","","","",""
"pit-trial","86","726805","0.0-2.0-17.1-0.1","battery-v0.2","","""event"",""trial"",""time""
""fullscreenenter"",""1"",""3737""
","
","
","""event"",""trial"",""time""
""fullscreenenter"",""1"",""3737""
","
","","","-1","","","15","9687","4534","&#9789;","elianto","#f73b6a7A"," ","-1","0","-10","[]","0","0","4","","","","","","","",""
"pit-trial","87","731659","0.0-2.0-17.1-1.1","battery-v0.2","","""event"",""trial"",""time""
""fullscreenenter"",""1"",""3737""
","
","
","""event"",""trial"",""time""
""fullscreenenter"",""1"",""3737""
","
","","","-1","","","15","9687","4534","&#9789;","elianto","#f73b6a7A"," ","-1","0","-10","[]","0","0","4","","","","","","","",""
"pit-trial","88","736513","0.0-2.0-17.1-2.1","battery-v0.2","","""event"",""trial"",""time""
""fullscreenenter"",""1"",""3737""
","
","
","""event"",""trial"",""time""
""fullscreenenter"",""1"",""3737""
","
","","","-1","","","15","9687","4534","&#9789;","elianto","#f73b6a7A"," ","-1","0","-10","[]","0","0","4","","","","","","","",""
"pit-trial","89","741368","0.0-2.0-17.1-3.1","battery-v0.2","","""event"",""trial"",""time""
""fullscreenenter"",""1"",""3737""
","
","
","""event"",""trial"",""time""
""fullscreenenter"",""1"",""3737""
","
","","","-1","","","15","9687","4534","&#9789;","elianto","#f73b6a7A"," ","-1","0","0","[]","0","0","4","","","","","","","",""
"pit-trial","90","746222","0.0-2.0-17.1-4.1","battery-v0.2","","""event"",""trial"",""time""
""fullscreenenter"",""1"",""3737""
","
","
","""event"",""trial"",""time""
""fullscreenenter"",""1"",""3737""
","
","","","-1","","","15","9687","4534","&#9789;","elianto","#f73b6a7A"," ","-1","0","-10","[]","0","0","4","","","","","","","",""
"pit-trial","91","751078","0.0-2.0-17.2-0.2","battery-v0.2","","""event"",""trial"",""time""
""fullscreenenter"",""1"",""3737""
","
","
","""event"",""trial"",""time""
""fullscreenenter"",""1"",""3737""
","
","","","-1","","","15","9687","4534","&#9789;","elianto","#f73b6a7A"," ","-1","0","-10","[]","0","0","4","","","","","","","",""
"pit-trial","92","755932","0.0-2.0-17.2-1.2","battery-v0.2","","""event"",""trial"",""time""
""fullscreenenter"",""1"",""3737""
","
","
","""event"",""trial"",""time""
""fullscreenenter"",""1"",""3737""
","
","","","-1","","","15","9687","4534","&#9789;","elianto","#f73b6a7A"," ","-1","0","-10","[]","0","0","4","","","","","","","",""
"pit-trial","93","760786","0.0-2.0-17.2-2.2","battery-v0.2","","""event"",""trial"",""time""
""fullscreenenter"",""1"",""3737""
","
","
","""event"",""trial"",""time""
""fullscreenenter"",""1"",""3737""
","
","","","-1","","","15","9687","4534","&#9789;","elianto","#f73b6a7A"," ","-1","0","-10","[]","0","0","4","","","","","","","",""
"pit-trial","94","765642","0.0-2.0-17.2-3.2","battery-v0.2","","""event"",""trial"",""time""
""fullscreenenter"",""1"",""3737""
","
","
","""event"",""trial"",""time""
""fullscreenenter"",""1"",""3737""
","
","","","-1","","","15","9687","4534","&#9789;","elianto","#f73b6a7A"," ","-1","0","0","[]","0","0","4","","","","","","","",""
"pit-trial","95","770496","0.0-2.0-17.2-4.2","battery-v0.2","","""event"",""trial"",""time""
""fullscreenenter"",""1"",""3737""
","
","
","""event"",""trial"",""time""
""fullscreenenter"",""1"",""3737""
","
","","","-1","","","15","9687","4534","&#9789;","elianto","#f73b6a7A"," ","-1","0","-10","[]","0","0","4","","","","","","","",""
"pit-trial","96","775352","0.0-2.0-17.3-0.3","battery-v0.2","","""event"",""trial"",""time""
""fullscreenenter"",""1"",""3737""
","
","
","""event"",""trial"",""time""
""fullscreenenter"",""1"",""3737""
","
","","","-1","","","15","9687","4534","&#9789;","elianto","#f73b6a7A"," ","-1","0","-10","[]","0","0","4","","","","","","","",""
"pit-trial","97","780205","0.0-2.0-17.3-1.3","battery-v0.2","","""event"",""trial"",""time""
""fullscreenenter"",""1"",""3737""
","
","
","""event"",""trial"",""time""
""fullscreenenter"",""1"",""3737""
","
","","","-1","","","15","9687","4534","&#9789;","elianto","#f73b6a7A"," ","-1","0","-10","[]","0","0","4","","","","","","","",""
"pit-trial","98","785058","0.0-2.0-17.3-2.3","battery-v0.2","","""event"",""trial"",""time""
""fullscreenenter"",""1"",""3737""
","
","
","""event"",""trial"",""time""
""fullscreenenter"",""1"",""3737""
","
","","","-1","","","15","9687","4534","&#9789;","elianto","#f73b6a7A"," ","-1","0","-10","[]","0","0","4","","","","","","","",""
"pit-trial","99","789912","0.0-2.0-17.3-3.3","battery-v0.2","","""event"",""trial"",""time""
""fullscreenenter"",""1"",""3737""
","
","
","""event"",""trial"",""time""
""fullscreenenter"",""1"",""3737""
","
","","","-1","","","15","9687","4534","&#9789;","elianto","#f73b6a7A"," ","-1","0","0","[]","0","0","4","","","","","","","",""
"pit-trial","100","794765","0.0-2.0-17.3-4.3","battery-v0.2","","""event"",""trial"",""time""
""fullscreenenter"",""1"",""3737""
","
","
","""event"",""trial"",""time""
""fullscreenenter"",""1"",""3737""
","
","","","-1","","","15","9687","4534","&#9789;","elianto","#f73b6a7A"," ","-1","0","-10","[]","0","0","4","","","","","","","",""
"call-function","101","794768","0.0-2.0-18.0","battery-v0.2","","""event"",""trial"",""time""
""fullscreenenter"",""1"",""3737""
","
","
","""event"",""trial"",""time""
""fullscreenenter"",""1"",""3737""
","
","","","","","","","","","","","","","","","","","","","","","","","","","","",""
"pit-instructions","102","963551","0.0-2.0-19.0","battery-v0.2","","""event"",""trial"",""time""
""fullscreenenter"",""1"",""3737""
","
","
","""event"",""trial"",""time""
""fullscreenenter"",""1"",""3737""
","
","","[{""page_index"":0,""viewing_time"":14334.100000023842},{""page_index"":1,""viewing_time"":7240.100000023842},{""page_index"":2,""viewing_time"":102367.79999995232},{""page_index"":3,""viewing_time"":9464},{""page_index"":4,""viewing_time"":7800},{""page_index"":5,""viewing_time"":8056},{""page_index"":6,""viewing_time"":8287.899999976158},{""page_index"":7,""viewing_time"":7504},{""page_index"":8,""viewing_time"":3727.9000000953674}]","168782","","","","","","","","","","","","","","","","","","","","","","","",""
"pit-comprehension","103","972472","0.0-2.0-20.0-0.0","battery-v0.2","","""event"",""trial"",""time""
""fullscreenenter"",""1"",""3737""
","
","
","""event"",""trial"",""time""
""fullscreenenter"",""1"",""3737""
","
","","","8917.899999976158","[""SPACE""]","0","15","9687","4534","","","","","","","","","","","","","","","","","","",""
"pit-instructions","104","975519","0.0-2.0-20.0-1.0","battery-v0.2","","""event"",""trial"",""time""
""fullscreenenter"",""1"",""3737""
","
","
","""event"",""trial"",""time""
""fullscreenenter"",""1"",""3737""
","
","","[{""page_index"":0,""viewing_time"":2957.7000000476837}]","2957.899999976158","","","","","","","","","","","","","","","","","","","","","","","",""
"pit-comprehension","105","981944","0.0-2.0-21.0-0.0","battery-v0.2","","""event"",""trial"",""time""
""fullscreenenter"",""1"",""3737""
","
","
","""event"",""trial"",""time""
""fullscreenenter"",""1"",""3737""
","
","","","6422.399999976158","[""10""]","0","15","9687","4534","","","","","","","","","","","","","","","","","","",""
"pit-instructions","106","983496","0.0-2.0-21.0-1.0","battery-v0.2","","""event"",""trial"",""time""
""fullscreenenter"",""1"",""3737""
","
","
","""event"",""trial"",""time""
""fullscreenenter"",""1"",""3737""
","
","","[{""page_index"":0,""viewing_time"":1517.5}]","1518.1000000238419","","","","","","","","","","","","","","","","","","","","","","","",""
"pit-comprehension","107","997584","0.0-2.0-22.0-0.0","battery-v0.2","","""event"",""trial"",""time""
""fullscreenenter"",""1"",""3737""
","
","
","""event"",""trial"",""time""
""fullscreenenter"",""1"",""3737""
","
","","","14086","[""0""]","0","15","9687","4534","","","","","","","","","","","","","","","","","","",""
"pit-instructions","108","999287","0.0-2.0-22.0-1.0","battery-v0.2","","""event"",""trial"",""time""
""fullscreenenter"",""1"",""3737""
","
","
","""event"",""trial"",""time""
""fullscreenenter"",""1"",""3737""
","
","","[{""page_index"":0,""viewing_time"":1669.3000000715256}]","1669.5","","","","","","","","","","","","","","","","","","","","","","","",""
"pit-comprehension","109","1011312","0.0-2.0-23.0-0.0","battery-v0.2","","""event"",""trial"",""time""
""fullscreenenter"",""1"",""3737""
","
","
","""event"",""trial"",""time""
""fullscreenenter"",""1"",""3737""
","
","","","12022.399999976158","[""False""]","1","15","9687","4534","","","","","","","","","","","","","","","","","","",""
"pit-instructions","110","1012841","0.0-2.0-23.0-1.0","battery-v0.2","","""event"",""trial"",""time""
""fullscreenenter"",""1"",""3737""
","
","
","""event"",""trial"",""time""
""fullscreenenter"",""1"",""3737""
","
","","[{""page_index"":0,""viewing_time"":1494.5}]","1494.6999999284744","","","","","","","","","","","","","","","","","","","","","","","",""
"pit-instructions","111","1013743","0.0-2.0-23.0-2.0-0.0","battery-v0.2","","""event"",""trial"",""time""
""fullscreenenter"",""1"",""3737""
","
","
","""event"",""trial"",""time""
""fullscreenenter"",""1"",""3737""
","
","","[{""page_index"":0,""viewing_time"":901.5}]","901.7000000476837","","","","","","","","","","","","","","","","","","","","","","","",""
"pit-comprehension","112","1025144","0.0-2.0-23.1-0.1","battery-v0.2","","""event"",""trial"",""time""
""fullscreenenter"",""1"",""3737""
","
","
","""event"",""trial"",""time""
""fullscreenenter"",""1"",""3737""
","
","","","11399.200000047684","[""True""]","0","15","9687","4534","","","","","","","","","","","","","","","","","","",""
"pit-instructions","113","1037735","0.0-2.0-23.1-1.1","battery-v0.2","","""event"",""trial"",""time""
""fullscreenenter"",""1"",""3737""
","
","
","""event"",""trial"",""time""
""fullscreenenter"",""1"",""3737""
","
","","[{""page_index"":0,""viewing_time"":12555.600000023842}]","12555.800000071526","","","","","","","","","","","","","","","","","","","","","","","",""
"pit-comprehension","114","1074520","0.0-2.0-24.0-0.0","battery-v0.2","","""event"",""trial"",""time""
""fullscreenenter"",""1"",""3737""
","
","
","""event"",""trial"",""time""
""fullscreenenter"",""1"",""3737""
","
","","","36782.5","[""True""]","0","15","9687","4534","","","","","","","","","","","","","","","","","","",""
"pit-instructions","115","1089423","0.0-2.0-24.0-1.0","battery-v0.2","","""event"",""trial"",""time""
""fullscreenenter"",""1"",""3737""
","
","
","""event"",""trial"",""time""
""fullscreenenter"",""1"",""3737""
","
","","[{""page_index"":0,""viewing_time"":14867.299999952316}]","14867.599999904633","","","","","","","","","","","","","","","","","","","","","","","",""
"pit-comprehension","116","1102511","0.0-2.0-25.0-0.0","battery-v0.2","","""event"",""trial"",""time""
""fullscreenenter"",""1"",""3737""
","
","
","""event"",""trial"",""time""
""fullscreenenter"",""1"",""3737""
","
","","","13086.200000047684","[""True""]","0","15","9687","4534","","","","","","","","","","","","","","","","","","",""
"pit-instructions","117","1111039","0.0-2.0-25.0-1.0","battery-v0.2","","""event"",""trial"",""time""
""fullscreenenter"",""1"",""3737""
","
","
","""event"",""trial"",""time""
""fullscreenenter"",""1"",""3737""
","
","","[{""page_index"":0,""viewing_time"":8490.899999976158}]","8491.100000023842","","","","","","","","","","","","","","","","","","","","","","","",""
"pit-comprehension","118","1118519","0.0-2.0-26.0-0.0","battery-v0.2","","""event"",""trial"",""time""
""fullscreenenter"",""1"",""3737""
","
","
","""event"",""trial"",""time""
""fullscreenenter"",""1"",""3737""
","
","","","7478.200000047684","[""True""]","1","15","9687","4534","","","","","","","","","","","","","","","","","","",""
"pit-instructions","119","1122887","0.0-2.0-26.0-1.0","battery-v0.2","","""event"",""trial"",""time""
""fullscreenenter"",""1"",""3737""
","
","
","""event"",""trial"",""time""
""fullscreenenter"",""1"",""3737""
","
","","[{""page_index"":0,""viewing_time"":4329.399999976158}]","4329.599999904633","","","","","","","","","","","","","","","","","","","","","","","",""
"pit-instructions","120","1127911","0.0-2.0-26.0-2.0-0.0","battery-v0.2","","""event"",""trial"",""time""
""fullscreenenter"",""1"",""3737""
","
","
","""event"",""trial"",""time""
""fullscreenenter"",""1"",""3737""
","
","","[{""page_index"":0,""viewing_time"":5022.700000047684}]","5022.900000095367","","","","","","","","","","","","","","","","","","","","","","","",""
"pit-comprehension","121","1132503","0.0-2.0-26.1-0.1","battery-v0.2","","""event"",""trial"",""time""
""fullscreenenter"",""1"",""3737""
","
","
","""event"",""trial"",""time""
""fullscreenenter"",""1"",""3737""
","
","","","4590.600000023842","[""False""]","0","15","9687","4534","","","","","","","","","","","","","","","","","","",""
"pit-instructions","122","1133783","0.0-2.0-26.1-1.1","battery-v0.2","","""event"",""trial"",""time""
""fullscreenenter"",""1"",""3737""
","
","
","""event"",""trial"",""time""
""fullscreenenter"",""1"",""3737""
","
","","[{""page_index"":0,""viewing_time"":1241.7999999523163}]","1242.1000000238419","","","","","","","","","","","","","","","","","","","","","","","",""
"pit-instructions","123","1149663","0.0-3.0","battery-v0.2","","""event"",""trial"",""time""
""fullscreenenter"",""1"",""3737""
","
","
","""event"",""trial"",""time""
""fullscreenenter"",""1"",""3737""
","
","","[{""page_index"":0,""viewing_time"":3502.899999976158},{""page_index"":1,""viewing_time"":5471.899999976158},{""page_index"":2,""viewing_time"":6904.100000023842}]","15879.100000023842","","","","","","","","","","","","","","","","","","","","","","","",""
"pit-trial","124","1153537","0.0-4.0","battery-v0.2","","""event"",""trial"",""time""
""fullscreenenter"",""1"",""3737""
","
","
","""event"",""trial"",""time""
""fullscreenenter"",""1"",""3737""
","
","","","1018.7999999523163","","","15","9687","4534","&#9730;","elianto","#3366ff99"," "," ","1","0","[1869.6000000238419]","1","1","","","9687","1","1","1","win","go","1"
"pit-trial","125","1158394","0.0-5.0","battery-v0.2","","""event"",""trial"",""time""
""fullscreenenter"",""1"",""3737""
","
","
","""event"",""trial"",""time""
""fullscreenenter"",""1"",""3737""
","
","","","-1","","","15","9687","4534","&#9752;","elianto","#f73b6a7A"," ","-1","0","-10","[]","0","1","","","9687","2","3","3","lose","go","0"
"pit-trial","126","1161858","0.0-6.0","battery-v0.2","","""event"",""trial"",""time""
""fullscreenenter"",""1"",""3737""
","
","
","""event"",""trial"",""time""
""fullscreenenter"",""1"",""3737""
","
","","","606","","","15","9687","4534","&#9733;","elianto","#3366ff99","-1"," ","0","0","[1459.6000000238419]","1","1","","","9687","3","2","2","win","no-go","0"
"pit-trial","127","1166725","0.0-7.0","battery-v0.2","","""event"",""trial"",""time""
""fullscreenenter"",""1"",""3737""
","
","
","""event"",""trial"",""time""
""fullscreenenter"",""1"",""3737""
","
","","","-1","","","15","9687","4534","&#9728;","elianto","#f73b6a7A","-1","-1","1","0","[]","0","1","","","9687","4","0","4","lose","no-go","0"
"pit-trial","128","1169977","0.0-8.0","battery-v0.2","","""event"",""trial"",""time""
""fullscreenenter"",""1"",""3737""
","
","
","""event"",""trial"",""time""
""fullscreenenter"",""1"",""3737""
","
","","","395.40000009536743","","","15","9687","4534","&#9730;","elianto","#3366ff99"," "," ","1","0","[1249.5]","1","1","","","9687","5","1","1","win","go","1"
"pit-trial","129","1173706","0.0-9.0","battery-v0.2","","""event"",""trial"",""time""
""fullscreenenter"",""1"",""3737""
","
","
","""event"",""trial"",""time""
""fullscreenenter"",""1"",""3737""
","
","","","870.3000000715256","","","15","9687","4534","&#9728;","elianto","#f73b6a7A","-1"," ","0","-10","[1724.3999999761581]","1","1","","","9687","6","0","4","lose","no-go","0"
"pit-trial","130","1178566","0.0-10.0","battery-v0.2","","""event"",""trial"",""time""
""fullscreenenter"",""1"",""3737""
","
","
","""event"",""trial"",""time""
""fullscreenenter"",""1"",""3737""
","
","","","-1","","","15","9687","4534","&#9752;","elianto","#f73b6a7A"," ","-1","0","-10","[3019.100000023842]","1","1","","","9687","7","3","3","lose","go","0"
"pit-trial","131","1182033","0.0-11.0","battery-v0.2","","""event"",""trial"",""time""
""fullscreenenter"",""1"",""3737""
","
","
","""event"",""trial"",""time""
""fullscreenenter"",""1"",""3737""
","
","","","609.1000000238419","","","15","9687","4534","&#9733;","elianto","#3366ff99","-1"," ","0","0","[1463.2000000476837]","1","1","","","9687","8","2","2","win","no-go","0"
"pit-trial","132","1186887","0.0-12.0","battery-v0.2","","""event"",""trial"",""time""
""fullscreenenter"",""1"",""3737""
","
","
","""event"",""trial"",""time""
""fullscreenenter"",""1"",""3737""
","
","","","-1","","","15","9687","4534","&#9752;","elianto","#f73b6a7A"," ","-1","0","0","[]","0","1","","","9687","9","3","3","lose","go","1"
"pit-trial","133","1191741","0.0-13.0","battery-v0.2","","""event"",""trial"",""time""
""fullscreenenter"",""1"",""3737""
","
","
","""event"",""trial"",""time""
""fullscreenenter"",""1"",""3737""
","
","","","-1","","","15","9687","4534","&#9728;","elianto","#f73b6a7A","-1","-1","1","0","[]","0","1","","","9687","10","0","4","lose","no-go","0"
"pit-trial","134","1195202","0.0-14.0","battery-v0.2","","""event"",""trial"",""time""
""fullscreenenter"",""1"",""3737""
","
","
","""event"",""trial"",""time""
""fullscreenenter"",""1"",""3737""
","
","","","604.2999999523163","","","15","9687","4534","&#9733;","elianto","#3366ff99","-1"," ","0","+10","[1455.8000000715256]","1","1","","","9687","11","2","2","win","no-go","1"
"pit-trial","135","1200058","0.0-15.0","battery-v0.2","","""event"",""trial"",""time""
""fullscreenenter"",""1"",""3737""
","
","
","""event"",""trial"",""time""
""fullscreenenter"",""1"",""3737""
","
","","","-1","","","15","9687","4534","&#9730;","elianto","#3366ff99"," ","-1","0","0","[]","0","1","","","9687","12","1","1","win","go","0"
"pit-trial","136","1204912","0.0-16.0","battery-v0.2","","""event"",""trial"",""time""
""fullscreenenter"",""1"",""3737""
","
","
","""event"",""trial"",""time""
""fullscreenenter"",""1"",""3737""
","
","","","-1","","","15","9687","4534","&#9730;","elianto","#3366ff99"," ","-1","0","0","[]","0","1","","","9687","13","1","1","win","go","0"
"pit-trial","137","1209767","0.0-17.0","battery-v0.2","","""event"",""trial"",""time""
""fullscreenenter"",""1"",""3737""
","
","
","""event"",""trial"",""time""
""fullscreenenter"",""1"",""3737""
","
","","","-1","","","15","9687","4534","&#9728;","elianto","#f73b6a7A","-1","-1","1","0","[]","0","1","","","9687","14","0","4","lose","no-go","0"
"pit-trial","138","1214622","0.0-18.0","battery-v0.2","","""event"",""trial"",""time""
""fullscreenenter"",""1"",""3737""
","
","
","""event"",""trial"",""time""
""fullscreenenter"",""1"",""3737""
","
","","","-1","","","15","9687","4534","&#9752;","elianto","#f73b6a7A"," ","-1","0","-10","[]","0","1","","","9687","15","3","3","lose","go","0"
"pit-trial","139","1218210","0.0-19.0","battery-v0.2","","""event"",""trial"",""time""
""fullscreenenter"",""1"",""3737""
","
","
","""event"",""trial"",""time""
""fullscreenenter"",""1"",""3737""
","
","","","732.5","","","15","9687","4534","&#9733;","elianto","#3366ff99","-1"," ","0","0","[1583.8000000715256]","1","1","","","9687","16","2","2","win","no-go","0"
"pit-trial","140","1221953","0.0-20.0","battery-v0.2","","""event"",""trial"",""time""
""fullscreenenter"",""1"",""3737""
","
","
","""event"",""trial"",""time""
""fullscreenenter"",""1"",""3737""
","
","","","889","","","15","9687","4534","&#9733;","elianto","#3366ff99","-1"," ","0","+10","[1739.8999999761581]","1","1","","","9687","17","2","2","win","no-go","1"
"pit-trial","141","1226807","0.0-21.0","battery-v0.2","","""event"",""trial"",""time""
""fullscreenenter"",""1"",""3737""
","
","
","""event"",""trial"",""time""
""fullscreenenter"",""1"",""3737""
","
","","","-1","","","15","9687","4534","&#9752;","elianto","#f73b6a7A"," ","-1","0","-10","[]","0","1","","","9687","18","3","3","lose","go","0"
"pit-trial","142","1231661","0.0-22.0","battery-v0.2","","""event"",""trial"",""time""
""fullscreenenter"",""1"",""3737""
","
","
","""event"",""trial"",""time""
""fullscreenenter"",""1"",""3737""
","
","","","-1","","","15","9687","4534","&#9730;","elianto","#3366ff99"," ","-1","0","+10","[3895.6999999284744]","1","1","","","9687","19","1","1","win","go","1"
"pit-trial","143","1236514","0.0-23.0","battery-v0.2","","""event"",""trial"",""time""
""fullscreenenter"",""1"",""3737""
","
","
","""event"",""trial"",""time""
""fullscreenenter"",""1"",""3737""
","
","","","-1","","","15","9687","4534","&#9728;","elianto","#f73b6a7A","-1","-1","1","0","[]","0","1","","","9687","20","0","4","lose","no-go","0"
"pit-instructions","144","1248335","0.0-24.0","battery-v0.2","","""event"",""trial"",""time""
""fullscreenenter"",""1"",""3737""
","
","
","""event"",""trial"",""time""
""fullscreenenter"",""1"",""3737""
","
","","[{""page_index"":0,""viewing_time"":5681.899999976158},{""page_index"":1,""viewing_time"":6136}]","11818.100000023842","","","","","","","","","","","","","","","","","","","","","","","",""
"pit-trial","145","1251833","0.0-25.0","battery-v0.2","","""event"",""trial"",""time""
""fullscreenenter"",""1"",""3737""
","
","
","""event"",""trial"",""time""
""fullscreenenter"",""1"",""3737""
","
","","","637","","","15","9687","4534","d","elianto","#3366ff99","-1"," ","0","0","[1494.3999999761581]","1","2","","","9687","21","1","2","win","no-go","0"
"pit-trial","146","1256688","0.0-26.0","battery-v0.2","","""event"",""trial"",""time""
""fullscreenenter"",""1"",""3737""
","
","
","""event"",""trial"",""time""
""fullscreenenter"",""1"",""3737""
","
","","","-1","","","15","9687","4534","e","elianto","#f73b6a7A"," ","-1","0","-10","[]","0","2","","","9687","22","2","3","lose","go","0"
"pit-trial","147","1261543","0.0-27.0","battery-v0.2","","""event"",""trial"",""time""
""fullscreenenter"",""1"",""3737""
","
","
","""event"",""trial"",""time""
""fullscreenenter"",""1"",""3737""
","
","","","-1","","","15","9687","4534","w","elianto","#f73b6a7A","-1","-1","1","0","[]","0","2","","","9687","23","3","4","lose","no-go","0"
"pit-trial","148","1266399","0.0-28.0","battery-v0.2","","""event"",""trial"",""time""
""fullscreenenter"",""1"",""3737""
","
","
","""event"",""trial"",""time""
""fullscreenenter"",""1"",""3737""
","
","","","-1","","","15","9687","4534","j","elianto","#f73b6a7A"," ","-1","0","0","[]","0","2","","","9687","24","0","3","lose","go","1"
"pit-trial","149","1269745","0.0-29.0","battery-v0.2","","""event"",""trial"",""time""
""fullscreenenter"",""1"",""3737""
","
","
","""event"",""trial"",""time""
""fullscreenenter"",""1"",""3737""
","
","","","493.39999997615814","","","15","9687","4534","d","elianto","#3366ff99","-1"," ","0","+10","[1343.7999999523163]","1","2","","","9687","25","1","2","win","no-go","1"
"pit-trial","150","1274608","0.0-30.0","battery-v0.2","","""event"",""trial"",""time""
""fullscreenenter"",""1"",""3737""
","
","
","""event"",""trial"",""time""
""fullscreenenter"",""1"",""3737""
","
","","","-1","","","15","9687","4534","j","elianto","#f73b6a7A"," ","-1","0","-10","[]","0","2","","","9687","26","0","3","lose","go","0"
"pit-trial","151","1279469","0.0-31.0","battery-v0.2","","""event"",""trial"",""time""
""fullscreenenter"",""1"",""3737""
","
","
","""event"",""trial"",""time""
""fullscreenenter"",""1"",""3737""
","
","","","-1","","","15","9687","4534","e","elianto","#f73b6a7A"," ","-1","0","-10","[]","0","2","","","9687","27","2","3","lose","go","0"
"pit-trial","152","1284323","0.0-32.0","battery-v0.2","","""event"",""trial"",""time""
""fullscreenenter"",""1"",""3737""
","
","
","""event"",""trial"",""time""
""fullscreenenter"",""1"",""3737""
","
","","","-1","","","15","9687","4534","w","elianto","#f73b6a7A","-1","-1","1","0","[]","0","2","","","9687","28","3","4","lose","no-go","0"
"pit-trial","153","1287737","0.0-33.0","battery-v0.2","","""event"",""trial"",""time""
""fullscreenenter"",""1"",""3737""
","
","
","""event"",""trial"",""time""
""fullscreenenter"",""1"",""3737""
","
","","","559.3999999761581","","","15","9687","4534","d","elianto","#3366ff99","-1"," ","0","0","[1411]","1","2","","","9687","29","1","2","win","no-go","0"
"pit-trial","154","1292590","0.0-34.0","battery-v0.2","","""event"",""trial"",""time""
""fullscreenenter"",""1"",""3737""
","
","
","""event"",""trial"",""time""
""fullscreenenter"",""1"",""3737""
","
","","","-1","","","15","9687","4534","e","elianto","#f73b6a7A"," ","-1","0","-10","[]","0","2","","","9687","30","2","3","lose","go","0"
"pit-trial","155","1297444","0.0-35.0","battery-v0.2","","""event"",""trial"",""time""
""fullscreenenter"",""1"",""3737""
","
","
","""event"",""trial"",""time""
""fullscreenenter"",""1"",""3737""
","
","","","-1","","","15","9687","4534","j","elianto","#f73b6a7A"," ","-1","0","-10","[]","0","2","","","9687","31","0","3","lose","go","0"
"pit-trial","156","1302298","0.0-36.0","battery-v0.2","","""event"",""trial"",""time""
""fullscreenenter"",""1"",""3737""
","
","
","""event"",""trial"",""time""
""fullscreenenter"",""1"",""3737""
","
","","","-1","","","15","9687","4534","w","elianto","#f73b6a7A","-1","-1","1","-10","[]","0","2","","","9687","32","3","4","lose","no-go","1"
"pit-trial","157","1307152","0.0-37.0","battery-v0.2","","""event"",""trial"",""time""
""fullscreenenter"",""1"",""3737""
","
","
","""event"",""trial"",""time""
""fullscreenenter"",""1"",""3737""
","
","","","-1","","","15","9687","4534","w","elianto","#f73b6a7A","-1","-1","1","0","[]","0","2","","","9687","33","3","4","lose","no-go","0"
"pit-trial","158","1310594","0.0-38.0","battery-v0.2","","""event"",""trial"",""time""
""fullscreenenter"",""1"",""3737""
","
","
","""event"",""trial"",""time""
""fullscreenenter"",""1"",""3737""
","
","","","587.3999999761581","","","15","9687","4534","d","elianto","#3366ff99","-1"," ","0","0","[1437.6000000238419]","1","2","","","9687","34","1","2","win","no-go","0"
"pit-trial","159","1315448","0.0-39.0","battery-v0.2","","""event"",""trial"",""time""
""fullscreenenter"",""1"",""3737""
","
","
","""event"",""trial"",""time""
""fullscreenenter"",""1"",""3737""
","
","","","-1","","","15","9687","4534","j","elianto","#f73b6a7A"," ","-1","0","0","[]","0","2","","","9687","35","0","3","lose","go","1"
"pit-trial","160","1320305","0.0-40.0","battery-v0.2","","""event"",""trial"",""time""
""fullscreenenter"",""1"",""3737""
","
","
","""event"",""trial"",""time""
""fullscreenenter"",""1"",""3737""
","
","","","-1","","","15","9687","4534","e","elianto","#f73b6a7A"," ","-1","0","0","[]","0","2","","","9687","36","2","3","lose","go","1"
"pit-trial","161","1323712","0.0-41.0","battery-v0.2","","""event"",""trial"",""time""
""fullscreenenter"",""1"",""3737""
","
","
","""event"",""trial"",""time""
""fullscreenenter"",""1"",""3737""
","
","","","553.5","","","15","9687","4534","d","elianto","#3366ff99","-1"," ","0","0","[1403.7000000476837]","1","2","","","9687","37","1","2","win","no-go","0"
"pit-trial","162","1328566","0.0-42.0","battery-v0.2","","""event"",""trial"",""time""
""fullscreenenter"",""1"",""3737""
","
","
","""event"",""trial"",""time""
""fullscreenenter"",""1"",""3737""
","
","","","-1","","","15","9687","4534","w","elianto","#f73b6a7A","-1","-1","1","-10","[]","0","2","","","9687","38","3","4","lose","no-go","1"
"pit-trial","163","1333419","0.0-43.0","battery-v0.2","","""event"",""trial"",""time""
""fullscreenenter"",""1"",""3737""
","
","
","""event"",""trial"",""time""
""fullscreenenter"",""1"",""3737""
","
","","","-1","","","15","9687","4534","e","elianto","#f73b6a7A"," ","-1","0","-10","[]","0","2","","","9687","39","2","3","lose","go","0"
"pit-trial","164","1338272","0.0-44.0","battery-v0.2","","""event"",""trial"",""time""
""fullscreenenter"",""1"",""3737""
","
","
","""event"",""trial"",""time""
""fullscreenenter"",""1"",""3737""
","
","","","-1","","","15","9687","4534","j","elianto","#f73b6a7A"," ","-1","0","-10","[]","0","2","","","9687","40","0","3","lose","go","0"
"pit-trial","165","1343125","0.0-45.0","battery-v0.2","","""event"",""trial"",""time""
""fullscreenenter"",""1"",""3737""
","
","
","""event"",""trial"",""time""
""fullscreenenter"",""1"",""3737""
","
","","","-1","","","15","9687","4534","w","elianto","#f73b6a7A","-1","-1","1","0","[]","0","2","","","9687","41","3","4","lose","no-go","0"
"pit-trial","166","1347978","0.0-46.0","battery-v0.2","","""event"",""trial"",""time""
""fullscreenenter"",""1"",""3737""
","
","
","""event"",""trial"",""time""
""fullscreenenter"",""1"",""3737""
","
","","","-1","","","15","9687","4534","e","elianto","#f73b6a7A"," ","-1","0","-10","[]","0","2","","","9687","42","2","3","lose","go","0"
"pit-trial","167","1352832","0.0-47.0","battery-v0.2","","""event"",""trial"",""time""
""fullscreenenter"",""1"",""3737""
","
","
","""event"",""trial"",""time""
""fullscreenenter"",""1"",""3737""
","
","","","-1","","","15","9687","4534","j","elianto","#f73b6a7A"," ","-1","0","-10","[]","0","2","","","9687","43","0","3","lose","go","0"
"pit-trial","168","1356233","0.0-48.0","battery-v0.2","","""event"",""trial"",""time""
""fullscreenenter"",""1"",""3737""
","
","
","""event"",""trial"",""time""
""fullscreenenter"",""1"",""3737""
","
","","","546.3999999761581","","","15","9687","4534","d","elianto","#3366ff99","-1"," ","0","0","[1397.1000000238419]","1","2","","","9687","44","1","2","win","no-go","0"
"pit-trial","169","1359895","0.0-49.0","battery-v0.2","","""event"",""trial"",""time""
""fullscreenenter"",""1"",""3737""
","
","
","""event"",""trial"",""time""
""fullscreenenter"",""1"",""3737""
","
","","","808.7999999523163","","","15","9687","4534","d","elianto","#3366ff99","-1"," ","0","0","[1659.2999999523163]","1","2","","","9687","45","1","2","win","no-go","0"
"pit-trial","170","1364748","0.0-50.0","battery-v0.2","","""event"",""trial"",""time""
""fullscreenenter"",""1"",""3737""
","
","
","""event"",""trial"",""time""
""fullscreenenter"",""1"",""3737""
","
","","","-1","","","15","9687","4534","e","elianto","#f73b6a7A"," ","-1","0","-10","[]","0","2","","","9687","46","2","3","lose","go","0"
"pit-trial","171","1369602","0.0-51.0","battery-v0.2","","""event"",""trial"",""time""
""fullscreenenter"",""1"",""3737""
","
","
","""event"",""trial"",""time""
""fullscreenenter"",""1"",""3737""
","
","","","-1","","","15","9687","4534","j","elianto","#f73b6a7A"," ","-1","0","0","[]","0","2","","","9687","47","0","3","lose","go","1"
"pit-trial","172","1374465","0.0-52.0","battery-v0.2","","""event"",""trial"",""time""
""fullscreenenter"",""1"",""3737""
","
","
","""event"",""trial"",""time""
""fullscreenenter"",""1"",""3737""
","
","","","-1","","","15","9687","4534","w","elianto","#f73b6a7A","-1","-1","1","0","[]","0","2","","","9687","48","3","4","lose","no-go","0"
"pit-trial","173","1379323","0.0-53.0","battery-v0.2","","""event"",""trial"",""time""
""fullscreenenter"",""1"",""3737""
","
","
","""event"",""trial"",""time""
""fullscreenenter"",""1"",""3737""
","
","","","-1","","","15","9687","4534","e","elianto","#f73b6a7A"," ","-1","0","0","[]","0","2","","","9687","49","2","3","lose","go","1"
"pit-trial","174","1384176","0.0-54.0","battery-v0.2","","""event"",""trial"",""time""
""fullscreenenter"",""1"",""3737""
","
","
","""event"",""trial"",""time""
""fullscreenenter"",""1"",""3737""
","
","","","-1","","","15","9687","4534","j","elianto","#f73b6a7A"," ","-1","0","-10","[]","0","2","","","9687","50","0","3","lose","go","0"
"pit-trial","175","1389031","0.0-55.0","battery-v0.2","","""event"",""trial"",""time""
""fullscreenenter"",""1"",""3737""
","
","
","""event"",""trial"",""time""
""fullscreenenter"",""1"",""3737""
","
","","","-1","","","15","9687","4534","w","elianto","#f73b6a7A","-1","-1","1","0","[]","0","2","","","9687","51","3","4","lose","no-go","0"
"pit-trial","176","1392465","0.0-56.0","battery-v0.2","","""event"",""trial"",""time""
""fullscreenenter"",""1"",""3737""
","
","
","""event"",""trial"",""time""
""fullscreenenter"",""1"",""3737""
","
","","","579.8999999761581","","","15","9687","4534","d","elianto","#3366ff99","-1"," ","0","0","[1430]","1","2","","","9687","52","1","2","win","no-go","0"
"pit-trial","177","1397318","0.0-57.0","battery-v0.2","","""event"",""trial"",""time""
""fullscreenenter"",""1"",""3737""
","
","
","""event"",""trial"",""time""
""fullscreenenter"",""1"",""3737""
","
","","","-1","","","15","9687","4534","e","elianto","#f73b6a7A"," ","-1","0","-10","[]","0","2","","","9687","53","2","3","lose","go","0"
"pit-trial","178","1401145","0.0-58.0","battery-v0.2","","""event"",""trial"",""time""
""fullscreenenter"",""1"",""3737""
","
","
","""event"",""trial"",""time""
""fullscreenenter"",""1"",""3737""
","
","","","972.1999999284744","","","15","9687","4534","d","elianto","#3366ff99","-1"," ","0","+10","[1823]","1","2","","","9687","54","1","2","win","no-go","1"
"pit-trial","179","1405998","0.0-59.0","battery-v0.2","","""event"",""trial"",""time""
""fullscreenenter"",""1"",""3737""
","
","
","""event"",""trial"",""time""
""fullscreenenter"",""1"",""3737""
","
","","","-1","","","15","9687","4534","w","elianto","#f73b6a7A","-1","-1","1","0","[]","0","2","","","9687","55","3","4","lose","no-go","0"
"pit-trial","180","1410853","0.0-60.0","battery-v0.2","","""event"",""trial"",""time""
""fullscreenenter"",""1"",""3737""
","
","
","""event"",""trial"",""time""
""fullscreenenter"",""1"",""3737""
","
","","","-1","","","15","9687","4534","j","elianto","#f73b6a7A"," ","-1","0","-10","[]","0","2","","","9687","56","0","3","lose","go","0"
"pit-trial","181","1415706","0.0-61.0","battery-v0.2","","""event"",""trial"",""time""
""fullscreenenter"",""1"",""3737""
","
","
","""event"",""trial"",""time""
""fullscreenenter"",""1"",""3737""
","
","","","-1","","","15","9687","4534","e","elianto","#f73b6a7A"," ","-1","0","-10","[]","0","2","","","9687","57","2","3","lose","go","0"
"pit-trial","182","1420560","0.0-62.0","battery-v0.2","","""event"",""trial"",""time""
""fullscreenenter"",""1"",""3737""
","
","
","""event"",""trial"",""time""
""fullscreenenter"",""1"",""3737""
","
","","","-1","","","15","9687","4534","j","elianto","#f73b6a7A"," ","-1","0","-10","[]","0","2","","","9687","58","0","3","lose","go","0"
"pit-trial","183","1425414","0.0-63.0","battery-v0.2","","""event"",""trial"",""time""
""fullscreenenter"",""1"",""3737""
","
","
","""event"",""trial"",""time""
""fullscreenenter"",""1"",""3737""
","
","","","-1","","","15","9687","4534","w","elianto","#f73b6a7A","-1","-1","1","0","[]","0","2","","","9687","59","3","4","lose","no-go","0"
"pit-trial","184","1429042","0.0-64.0","battery-v0.2","","""event"",""trial"",""time""
""fullscreenenter"",""1"",""3737""
","
","
","""event"",""trial"",""time""
""fullscreenenter"",""1"",""3737""
","
","","","774.5","","","15","9687","4534","s","elianto","#3366ff99"," "," ","1","+10","[1625.1000000238419]","1","2","","","9687","60","4","1","win","go","0"
"pit-trial","185","1433895","0.0-65.0","battery-v0.2","","""event"",""trial"",""time""
""fullscreenenter"",""1"",""3737""
","
","
","""event"",""trial"",""time""
""fullscreenenter"",""1"",""3737""
","
","","","-1","","","15","9687","4534","e","elianto","#f73b6a7A"," ","-1","0","-10","[]","0","2","","","9687","61","2","3","lose","go","0"
"pit-trial","186","1437336","0.0-66.0","battery-v0.2","","""event"",""trial"",""time""
""fullscreenenter"",""1"",""3737""
","
","
","""event"",""trial"",""time""
""fullscreenenter"",""1"",""3737""
","
","","","586.6000000238419","","","15","9687","4534","d","elianto","#3366ff99","-1"," ","0","0","[1437.1000000238419]","1","2","","","9687","62","1","2","win","no-go","0"
"pit-trial","187","1442189","0.0-67.0","battery-v0.2","","""event"",""trial"",""time""
""fullscreenenter"",""1"",""3737""
","
","
","""event"",""trial"",""time""
""fullscreenenter"",""1"",""3737""
","
","","","-1","","","15","9687","4534","s","elianto","#3366ff99"," ","-1","0","0","[]","0","2","","","9687","63","4","1","win","go","0"
"pit-trial","188","1447044","0.0-68.0","battery-v0.2","","""event"",""trial"",""time""
""fullscreenenter"",""1"",""3737""
","
","
","""event"",""trial"",""time""
""fullscreenenter"",""1"",""3737""
","
","","","-1","","","15","9687","4534","w","elianto","#f73b6a7A","-1","-1","1","0","[]","0","2","","","9687","64","3","4","lose","no-go","0"
"pit-trial","189","1451008","0.0-69.0","battery-v0.2","","""event"",""trial"",""time""
""fullscreenenter"",""1"",""3737""
","
","
","""event"",""trial"",""time""
""fullscreenenter"",""1"",""3737""
","
","","","1110.7999999523163","","","15","9687","4534","s","elianto","#3366ff99"," "," ","1","+10","[1961.1999999284744]","1","2","","","9687","65","4","1","win","go","0"
"pit-trial","190","1455862","0.0-70.0","battery-v0.2","","""event"",""trial"",""time""
""fullscreenenter"",""1"",""3737""
","
","
","""event"",""trial"",""time""
""fullscreenenter"",""1"",""3737""
","
","","","-1","","","15","9687","4534","w","elianto","#f73b6a7A","-1","-1","1","-10","[]","0","2","","","9687","66","3","4","lose","no-go","1"
"pit-trial","191","1460716","0.0-71.0","battery-v0.2","","""event"",""trial"",""time""
""fullscreenenter"",""1"",""3737""
","
","
","""event"",""trial"",""time""
""fullscreenenter"",""1"",""3737""
","
","","","-1","","","15","9687","4534","p","elianto","#3366ff99","-1","-1","1","+10","[]","0","2","","","9687","67","5","2","win","no-go","0"
"pit-trial","192","1465571","0.0-72.0","battery-v0.2","","""event"",""trial"",""time""
""fullscreenenter"",""1"",""3737""
","
","
","""event"",""trial"",""time""
""fullscreenenter"",""1"",""3737""
","
","","","-1","","","15","9687","4534","d","elianto","#3366ff99","-1","-1","1","+10","[]","0","2","","","9687","68","1","2","win","no-go","0"
"pit-trial","193","1470424","0.0-73.0","battery-v0.2","","""event"",""trial"",""time""
""fullscreenenter"",""1"",""3737""
","
","
","""event"",""trial"",""time""
""fullscreenenter"",""1"",""3737""
","
","","","-1","","","15","9687","4534","p","elianto","#3366ff99","-1","-1","1","+10","[4369.799999952316]","1","2","","","9687","69","5","2","win","no-go","0"
"pit-trial","194","1473792","0.0-74.0","battery-v0.2","","""event"",""trial"",""time""
""fullscreenenter"",""1"",""3737""
","
","
","""event"",""trial"",""time""
""fullscreenenter"",""1"",""3737""
","
","","","514.6000000238419","","","15","9687","4534","s","elianto","#3366ff99"," "," ","1","+10","[1365.2999999523163]","1","2","","","9687","70","4","1","win","go","0"
"pit-trial","195","1477161","0.0-75.0","battery-v0.2","","""event"",""trial"",""time""
""fullscreenenter"",""1"",""3737""
","
","
","""event"",""trial"",""time""
""fullscreenenter"",""1"",""3737""
","
","","","514.5999999046326","","","15","9687","4534","d","elianto","#3366ff99","-1"," ","0","+10","[1365.0999999046326]","1","2","","","9687","71","1","2","win","no-go","1"
"pit-trial","196","1482014","0.0-76.0","battery-v0.2","","""event"",""trial"",""time""
""fullscreenenter"",""1"",""3737""
","
","
","""event"",""trial"",""time""
""fullscreenenter"",""1"",""3737""
","
","","","-1","","","15","9687","4534","e","elianto","#f73b6a7A"," ","-1","0","0","[]","0","2","","","9687","72","2","3","lose","go","1"
"pit-trial","197","1486479","0.0-77.0","battery-v0.2","","""event"",""trial"",""time""
""fullscreenenter"",""1"",""3737""
","
","
","""event"",""trial"",""time""
""fullscreenenter"",""1"",""3737""
","
","","","1611.1000000238419","","","15","9687","4534","s","elianto","#3366ff99"," "," ","1","+10","[2461.6999999284744]","1","2","","","9687","73","4","1","win","go","0"
"pit-trial","198","1489889","0.0-78.0","battery-v0.2","","""event"",""trial"",""time""
""fullscreenenter"",""1"",""3737""
","
","
","""event"",""trial"",""time""
""fullscreenenter"",""1"",""3737""
","
","","","557","","","15","9687","4534","d","elianto","#3366ff99","-1"," ","0","0","[1407.2000000476837]","1","2","","","9687","74","1","2","win","no-go","0"
"pit-trial","199","1494742","0.0-79.0","battery-v0.2","","""event"",""trial"",""time""
""fullscreenenter"",""1"",""3737""
","
","
","""event"",""trial"",""time""
""fullscreenenter"",""1"",""3737""
","
","","","-1","","","15","9687","4534","w","elianto","#f73b6a7A","-1","-1","1","0","[]","0","2","","","9687","75","3","4","lose","no-go","0"
"pit-trial","200","1498178","0.0-80.0","battery-v0.2","","""event"",""trial"",""time""
""fullscreenenter"",""1"",""3737""
","
","
","""event"",""trial"",""time""
""fullscreenenter"",""1"",""3737""
","
","","","583.2000000476837","","","15","9687","4534","p","elianto","#3366ff99","-1"," ","0","+10","[1433.2000000476837]","1","2","","","9687","76","5","2","win","no-go","1"
"pit-trial","201","1502297","0.0-81.0","battery-v0.2","","""event"",""trial"",""time""
""fullscreenenter"",""1"",""3737""
","
","
","""event"",""trial"",""time""
""fullscreenenter"",""1"",""3737""
","
","","","1256.5","","","15","9687","4534","s","elianto","#3366ff99"," "," ","1","+10","[2114.899999976158]","1","2","","","9687","77","4","1","win","go","0"
"pit-trial","202","1507151","0.0-82.0","battery-v0.2","","""event"",""trial"",""time""
""fullscreenenter"",""1"",""3737""
","
","
","""event"",""trial"",""time""
""fullscreenenter"",""1"",""3737""
","
","","","-1","","","15","9687","4534","w","elianto","#f73b6a7A","-1","-1","1","-10","[]","0","2","","","9687","78","3","4","lose","no-go","1"
"pit-trial","203","1510584","0.0-83.0","battery-v0.2","","""event"",""trial"",""time""
""fullscreenenter"",""1"",""3737""
","
","
","""event"",""trial"",""time""
""fullscreenenter"",""1"",""3737""
","
","","","578.9000000953674","","","15","9687","4534","p","elianto","#3366ff99","-1"," ","0","+10","[1429.4000000953674]","1","2","","","9687","79","5","2","win","no-go","1"
"pit-trial","204","1513929","0.0-84.0","battery-v0.2","","""event"",""trial"",""time""
""fullscreenenter"",""1"",""3737""
","
","
","""event"",""trial"",""time""
""fullscreenenter"",""1"",""3737""
","
","","","490.5","","","15","9687","4534","s","elianto","#3366ff99"," "," ","1","0","[1341.3999999761581]","1","2","","","9687","80","4","1","win","go","1"
"pit-trial","205","1517456","0.0-85.0","battery-v0.2","","""event"",""trial"",""time""
""fullscreenenter"",""1"",""3737""
","
","
","""event"",""trial"",""time""
""fullscreenenter"",""1"",""3737""
","
","","","672.5","","","15","9687","4534","p","elianto","#3366ff99","-1"," ","0","0","[1522.5999999046326]","1","2","","","9687","81","5","2","win","no-go","0"
"pit-trial","206","1521000","0.0-86.0","battery-v0.2","","""event"",""trial"",""time""
""fullscreenenter"",""1"",""3737""
","
","
","""event"",""trial"",""time""
""fullscreenenter"",""1"",""3737""
","
","","","691.7999999523163","","","15","9687","4534","a","elianto","#f73b6a7A","-1"," ","0","0","[1542.2999999523163]","1","2","","","9687","82","7","4","lose","no-go","1"
"pit-trial","207","1525854","0.0-87.0","battery-v0.2","","""event"",""trial"",""time""
""fullscreenenter"",""1"",""3737""
","
","
","""event"",""trial"",""time""
""fullscreenenter"",""1"",""3737""
","
","","","-1","","","15","9687","4534","w","elianto","#f73b6a7A","-1","-1","1","0","[]","0","2","","","9687","83","3","4","lose","no-go","0"
"pit-trial","208","1530432","0.0-88.0","battery-v0.2","","""event"",""trial"",""time""
""fullscreenenter"",""1"",""3737""
","
","
","""event"",""trial"",""time""
""fullscreenenter"",""1"",""3737""
","
","","","1724","","","15","9687","4534","s","elianto","#3366ff99"," "," ","1","+10","[2575.100000023842]","1","2","","","9687","84","4","1","win","go","0"
"pit-trial","209","1533648","0.0-89.0","battery-v0.2","","""event"",""trial"",""time""
""fullscreenenter"",""1"",""3737""
","
","
","""event"",""trial"",""time""
""fullscreenenter"",""1"",""3737""
","
","","","361.10000002384186","","","15","9687","4534","s","elianto","#3366ff99"," "," ","1","0","[1213.3000000715256]","1","2","","","9687","85","4","1","win","go","1"
"pit-trial","210","1537617","0.0-90.0","battery-v0.2","","""event"",""trial"",""time""
""fullscreenenter"",""1"",""3737""
","
","
","""event"",""trial"",""time""
""fullscreenenter"",""1"",""3737""
","
","","","1112.1000000238419","","","15","9687","4534","p","elianto","#3366ff99","-1"," ","0","0","[1964.8000000715256]","1","2","","","9687","86","5","2","win","no-go","0"
"pit-trial","211","1542472","0.0-91.0","battery-v0.2","","""event"",""trial"",""time""
""fullscreenenter"",""1"",""3737""
","
","
","""event"",""trial"",""time""
""fullscreenenter"",""1"",""3737""
","
","","","-1","","","15","9687","4534","a","elianto","#f73b6a7A","-1","-1","1","0","[]","0","2","","","9687","87","7","4","lose","no-go","0"
"pit-trial","212","1547325","0.0-92.0","battery-v0.2","","""event"",""trial"",""time""
""fullscreenenter"",""1"",""3737""
","
","
","""event"",""trial"",""time""
""fullscreenenter"",""1"",""3737""
","
","","","-1","","","15","9687","4534","g","elianto","#f73b6a7A"," ","-1","0","0","[]","0","2","","","9687","88","6","3","lose","go","1"
"pit-trial","213","1552179","0.0-93.0","battery-v0.2","","""event"",""trial"",""time""
""fullscreenenter"",""1"",""3737""
","
","
","""event"",""trial"",""time""
""fullscreenenter"",""1"",""3737""
","
","","","-1","","","15","9687","4534","g","elianto","#f73b6a7A"," ","-1","0","-10","[]","0","2","","","9687","89","6","3","lose","go","0"
"pit-trial","214","1555809","0.0-94.0","battery-v0.2","","""event"",""trial"",""time""
""fullscreenenter"",""1"",""3737""
","
","
","""event"",""trial"",""time""
""fullscreenenter"",""1"",""3737""
","
","","","776.7000000476837","","","15","9687","4534","s","elianto","#3366ff99"," "," ","1","+10","[1627.8999999761581]","1","2","","","9687","90","4","1","win","go","0"
"pit-trial","215","1559721","0.0-95.0","battery-v0.2","","""event"",""trial"",""time""
""fullscreenenter"",""1"",""3737""
","
","
","""event"",""trial"",""time""
""fullscreenenter"",""1"",""3737""
","
","","","1059.0999999046326","","","15","9687","4534","p","elianto","#3366ff99","-1"," ","0","0","[1910]","1","2","","","9687","91","5","2","win","no-go","0"
"pit-trial","216","1564575","0.0-96.0","battery-v0.2","","""event"",""trial"",""time""
""fullscreenenter"",""1"",""3737""
","
","
","""event"",""trial"",""time""
""fullscreenenter"",""1"",""3737""
","
","","","-1","","","15","9687","4534","a","elianto","#f73b6a7A","-1","-1","1","0","[]","0","2","","","9687","92","7","4","lose","no-go","0"
"pit-trial","217","1568569","0.0-97.0","battery-v0.2","","""event"",""trial"",""time""
""fullscreenenter"",""1"",""3737""
","
","
","""event"",""trial"",""time""
""fullscreenenter"",""1"",""3737""
","
","","","1141.8000000715256","","","15","9687","4534","p","elianto","#3366ff99","-1"," ","0","+10","[1992.1000000238419]","1","2","","","9687","93","5","2","win","no-go","1"
"pit-trial","218","1573421","0.0-98.0","battery-v0.2","","""event"",""trial"",""time""
""fullscreenenter"",""1"",""3737""
","
","
","""event"",""trial"",""time""
""fullscreenenter"",""1"",""3737""
","
","","","-1","","","15","9687","4534","g","elianto","#f73b6a7A"," ","-1","0","0","[]","0","2","","","9687","94","6","3","lose","go","1"
"pit-trial","219","1578276","0.0-99.0","battery-v0.2","","""event"",""trial"",""time""
""fullscreenenter"",""1"",""3737""
","
","
","""event"",""trial"",""time""
""fullscreenenter"",""1"",""3737""
","
","","","-1","","","15","9687","4534","a","elianto","#f73b6a7A","-1","-1","1","0","[]","0","2","","","9687","95","7","4","lose","no-go","0"
"pit-trial","220","1581641","0.0-100.0","battery-v0.2","","""event"",""trial"",""time""
""fullscreenenter"",""1"",""3737""
","
","
","""event"",""trial"",""time""
""fullscreenenter"",""1"",""3737""
","
","","","510.1999999284744","","","15","9687","4534","l","elianto","#3366ff99"," "," ","1","+10","[1361.5]","1","2","","","9687","96","8","1","win","go","0"
"pit-trial","221","1586496","0.0-101.0","battery-v0.2","","""event"",""trial"",""time""
""fullscreenenter"",""1"",""3737""
","
","
","""event"",""trial"",""time""
""fullscreenenter"",""1"",""3737""
","
","","","-1","","","15","9687","4534","a","elianto","#f73b6a7A","-1","-1","1","0","[]","0","2","","","9687","97","7","4","lose","no-go","0"
"pit-trial","222","1591153","0.0-102.0","battery-v0.2","","""event"",""trial"",""time""
""fullscreenenter"",""1"",""3737""
","
","
","""event"",""trial"",""time""
""fullscreenenter"",""1"",""3737""
","
","","","1801.7999999523163","","","15","9687","4534","p","elianto","#3366ff99","-1"," ","0","0","[2652.2000000476837]","1","2","","","9687","98","5","2","win","no-go","0"
"pit-trial","223","1596007","0.0-103.0","battery-v0.2","","""event"",""trial"",""time""
""fullscreenenter"",""1"",""3737""
","
","
","""event"",""trial"",""time""
""fullscreenenter"",""1"",""3737""
","
","","","-1","","","15","9687","4534","l","elianto","#3366ff99"," ","-1","0","0","[3931.1999999284744]","1","2","","","9687","99","8","1","win","go","0"
"pit-trial","224","1599618","0.0-104.0","battery-v0.2","","""event"",""trial"",""time""
""fullscreenenter"",""1"",""3737""
","
","
","""event"",""trial"",""time""
""fullscreenenter"",""1"",""3737""
","
","","","755.7000000476837","","","15","9687","4534","g","elianto","#f73b6a7A"," "," ","1","0","[1607.2999999523163]","1","2","","","9687","100","6","3","lose","go","0"
"pit-trial","225","1604472","0.0-105.0","battery-v0.2","","""event"",""trial"",""time""
""fullscreenenter"",""1"",""3737""
","
","
","""event"",""trial"",""time""
""fullscreenenter"",""1"",""3737""
","
","","","-1","","","15","9687","4534","a","elianto","#f73b6a7A","-1","-1","1","0","[]","0","2","","","9687","101","7","4","lose","no-go","0"
"pit-trial","226","1609217","0.0-106.0","battery-v0.2","","""event"",""trial"",""time""
""fullscreenenter"",""1"",""3737""
","
","
","""event"",""trial"",""time""
""fullscreenenter"",""1"",""3737""
","
","","","1891","","","15","9687","4534","u","elianto","#3366ff99"," "," ","1","+10","[2741.2999999523163]","1","2","","","9687","102","9","1","win","go","0"
"pit-trial","227","1612697","0.0-107.0","battery-v0.2","","""event"",""trial"",""time""
""fullscreenenter"",""1"",""3737""
","
","
","""event"",""trial"",""time""
""fullscreenenter"",""1"",""3737""
","
","","","626.7000000476837","","","15","9687","4534","l","elianto","#3366ff99"," "," ","1","+10","[1477.2999999523163]","1","2","","","9687","103","8","1","win","go","0"
"pit-trial","228","1616137","0.0-108.0","battery-v0.2","","""event"",""trial"",""time""
""fullscreenenter"",""1"",""3737""
","
","
","""event"",""trial"",""time""
""fullscreenenter"",""1"",""3737""
","
","","","577.3000000715256","","","15","9687","4534","p","elianto","#3366ff99","-1"," ","0","0","[1436.2000000476837]","1","2","","","9687","104","5","2","win","no-go","0"
"pit-trial","229","1619529","0.0-109.0","battery-v0.2","","""event"",""trial"",""time""
""fullscreenenter"",""1"",""3737""
","
","
","""event"",""trial"",""time""
""fullscreenenter"",""1"",""3737""
","
","","","539.3999999761581","","","15","9687","4534","l","elianto","#3366ff99"," "," ","1","0","[1390.2999999523163]","1","2","","","9687","105","8","1","win","go","1"
"pit-trial","230","1623232","0.0-110.0","battery-v0.2","","""event"",""trial"",""time""
""fullscreenenter"",""1"",""3737""
","
","
","""event"",""trial"",""time""
""fullscreenenter"",""1"",""3737""
","
","","","851","","","15","9687","4534","u","elianto","#3366ff99"," "," ","1","0","[1701.3000000715256]","1","2","","","9687","106","9","1","win","go","1"
"pit-trial","231","1628088","0.0-111.0","battery-v0.2","","""event"",""trial"",""time""
""fullscreenenter"",""1"",""3737""
","
","
","""event"",""trial"",""time""
""fullscreenenter"",""1"",""3737""
","
","","","-1","","","15","9687","4534","g","elianto","#f73b6a7A"," ","-1","0","-10","[]","0","2","","","9687","107","6","3","lose","go","0"
"pit-trial","232","1631473","0.0-112.0","battery-v0.2","","""event"",""trial"",""time""
""fullscreenenter"",""1"",""3737""
","
","
","""event"",""trial"",""time""
""fullscreenenter"",""1"",""3737""
","
","","","530.7999999523163","","","15","9687","4534","s","elianto","#3366ff99"," "," ","1","+10","[1381.1000000238419]","1","2","","","9687","108","4","1","win","go","0"
"pit-trial","233","1636185","0.0-113.0","battery-v0.2","","""event"",""trial"",""time""
""fullscreenenter"",""1"",""3737""
","
","
","""event"",""trial"",""time""
""fullscreenenter"",""1"",""3737""
","
","","","1858.7000000476837","","","15","9687","4534","p","elianto","#3366ff99","-1"," ","0","+10","[2709.100000023842]","1","2","","","9687","109","5","2","win","no-go","1"
"pit-trial","234","1641043","0.0-114.0","battery-v0.2","","""event"",""trial"",""time""
""fullscreenenter"",""1"",""3737""
","
","
","""event"",""trial"",""time""
""fullscreenenter"",""1"",""3737""
","
","","","-1","","","15","9687","4534","u","elianto","#3366ff99"," ","-1","0","+10","[3612.7000000476837]","1","2","","","9687","110","9","1","win","go","1"
"pit-trial","235","1645897","0.0-115.0","battery-v0.2","","""event"",""trial"",""time""
""fullscreenenter"",""1"",""3737""
","
","
","""event"",""trial"",""time""
""fullscreenenter"",""1"",""3737""
","
","","","-1","","","15","9687","4534","l","elianto","#3366ff99"," ","-1","0","0","[]","0","2","","","9687","111","8","1","win","go","0"
"pit-trial","236","1650752","0.0-116.0","battery-v0.2","","""event"",""trial"",""time""
""fullscreenenter"",""1"",""3737""
","
","
","""event"",""trial"",""time""
""fullscreenenter"",""1"",""3737""
","
","","","-1","","","15","9687","4534","g","elianto","#f73b6a7A"," ","-1","0","-10","[]","0","2","","","9687","112","6","3","lose","go","0"
"pit-trial","237","1654128","0.0-117.0","battery-v0.2","","""event"",""trial"",""time""
""fullscreenenter"",""1"",""3737""
","
","
","""event"",""trial"",""time""
""fullscreenenter"",""1"",""3737""
","
","","","519.7000000476837","","","15","9687","4534","l","elianto","#3366ff99"," "," ","1","+10","[1372.7000000476837]","1","2","","","9687","113","8","1","win","go","0"
"pit-trial","238","1658232","0.0-118.0","battery-v0.2","","""event"",""trial"",""time""
""fullscreenenter"",""1"",""3737""
","
","
","""event"",""trial"",""time""
""fullscreenenter"",""1"",""3737""
","
","","","1248.8000000715256","","","15","9687","4534","u","elianto","#3366ff99"," "," ","1","0","[2100.899999976158]","1","2","","","9687","114","9","1","win","go","1"
"pit-trial","239","1663086","0.0-119.0","battery-v0.2","","""event"",""trial"",""time""
""fullscreenenter"",""1"",""3737""
","
","
","""event"",""trial"",""time""
""fullscreenenter"",""1"",""3737""
","
","","","-1","","","15","9687","4534","g","elianto","#f73b6a7A"," ","-1","0","-10","[]","0","2","","","9687","115","6","3","lose","go","0"
"pit-trial","240","1666785","0.0-120.0","battery-v0.2","","""event"",""trial"",""time""
""fullscreenenter"",""1"",""3737""
","
","
","""event"",""trial"",""time""
""fullscreenenter"",""1"",""3737""
","
","","","845.3999999761581","","","15","9687","4534","p","elianto","#3366ff99","-1"," ","0","0","[1696.2999999523163]","1","2","","","9687","116","5","2","win","no-go","0"
"pit-trial","241","1671639","0.0-121.0","battery-v0.2","","""event"",""trial"",""time""
""fullscreenenter"",""1"",""3737""
","
","
","""event"",""trial"",""time""
""fullscreenenter"",""1"",""3737""
","
","","","-1","","","15","9687","4534","u","elianto","#3366ff99"," ","-1","0","0","[3812.600000023842]","1","2","","","9687","117","9","1","win","go","0"
"pit-trial","242","1676496","0.0-122.0","battery-v0.2","","""event"",""trial"",""time""
""fullscreenenter"",""1"",""3737""
","
","
","""event"",""trial"",""time""
""fullscreenenter"",""1"",""3737""
","
","","","-1","","","15","9687","4534","g","elianto","#f73b6a7A"," ","-1","0","-10","[]","0","2","","","9687","118","6","3","lose","go","0"
"pit-trial","243","1679874","0.0-123.0","battery-v0.2","","""event"",""trial"",""time""
""fullscreenenter"",""1"",""3737""
","
","
","""event"",""trial"",""time""
""fullscreenenter"",""1"",""3737""
","
","","","523.7999999523163","","","15","9687","4534","p","elianto","#3366ff99","-1"," ","0","0","[1374.1000000238419]","1","2","","","9687","119","5","2","win","no-go","0"
"pit-trial","244","1684728","0.0-124.0","battery-v0.2","","""event"",""trial"",""time""
""fullscreenenter"",""1"",""3737""
","
","
","""event"",""trial"",""time""
""fullscreenenter"",""1"",""3737""
","
","","","-1","","","15","9687","4534","l","elianto","#3366ff99"," ","-1","0","0","[3010.5]","1","2","","","9687","120","8","1","win","go","0"
"pit-trial","245","1689583","0.0-125.0","battery-v0.2","","""event"",""trial"",""time""
""fullscreenenter"",""1"",""3737""
","
","
","""event"",""trial"",""time""
""fullscreenenter"",""1"",""3737""
","
","","","-1","","","15","9687","4534","a","elianto","#f73b6a7A","-1","-1","1","0","[]","0","2","","","9687","121","7","4","lose","no-go","0"
"pit-trial","246","1692912","0.0-126.0","battery-v0.2","","""event"",""trial"",""time""
""fullscreenenter"",""1"",""3737""
","
","
","""event"",""trial"",""time""
""fullscreenenter"",""1"",""3737""
","
","","","474.7000000476837","","","15","9687","4534","u","elianto","#3366ff99"," "," ","1","0","[1325.1000000238419]","1","2","","","9687","122","9","1","win","go","1"
"pit-trial","247","1696297","0.0-127.0","battery-v0.2","","""event"",""trial"",""time""
""fullscreenenter"",""1"",""3737""
","
","
","""event"",""trial"",""time""
""fullscreenenter"",""1"",""3737""
","
","","","530.6000000238419","","","15","9687","4534","l","elianto","#3366ff99"," "," ","1","+10","[1381.6000000238419]","1","2","","","9687","123","8","1","win","go","0"
"pit-trial","248","1701150","0.0-128.0","battery-v0.2","","""event"",""trial"",""time""
""fullscreenenter"",""1"",""3737""
","
","
","""event"",""trial"",""time""
""fullscreenenter"",""1"",""3737""
","
","","","-1","","","15","9687","4534","g","elianto","#f73b6a7A"," ","-1","0","-10","[]","0","2","","","9687","124","6","3","lose","go","0"
"pit-trial","249","1706005","0.0-129.0","battery-v0.2","","""event"",""trial"",""time""
""fullscreenenter"",""1"",""3737""
","
","
","""event"",""trial"",""time""
""fullscreenenter"",""1"",""3737""
","
","","","-1","","","15","9687","4534","a","elianto","#f73b6a7A","-1","-1","1","-10","[]","0","2","","","9687","125","7","4","lose","no-go","1"
"pit-trial","250","1709411","0.0-130.0","battery-v0.2","","""event"",""trial"",""time""
""fullscreenenter"",""1"",""3737""
","
","
","""event"",""trial"",""time""
""fullscreenenter"",""1"",""3737""
","
","","","550.2999999523163","","","15","9687","4534","l","elianto","#3366ff99"," "," ","1","0","[1400.6999999284744]","1","2","","","9687","126","8","1","win","go","1"
"pit-trial","251","1714265","0.0-131.0","battery-v0.2","","""event"",""trial"",""time""
""fullscreenenter"",""1"",""3737""
","
","
","""event"",""trial"",""time""
""fullscreenenter"",""1"",""3737""
","
","","","-1","","","15","9687","4534","g","elianto","#f73b6a7A"," ","-1","0","-10","[]","0","2","","","9687","127","6","3","lose","go","0"
"pit-trial","252","1717767","0.0-132.0","battery-v0.2","","""event"",""trial"",""time""
""fullscreenenter"",""1"",""3737""
","
","
","""event"",""trial"",""time""
""fullscreenenter"",""1"",""3737""
","
","","","633.0999999046326","","","15","9687","4534","u","elianto","#3366ff99"," "," ","1","+10","[1483.2999999523163]","1","2","","","9687","128","9","1","win","go","0"
"pit-trial","253","1722621","0.0-133.0","battery-v0.2","","""event"",""trial"",""time""
""fullscreenenter"",""1"",""3737""
","
","
","""event"",""trial"",""time""
""fullscreenenter"",""1"",""3737""
","
","","","-1","","","15","9687","4534","l","elianto","#3366ff99"," ","-1","0","0","[]","0","2","","","9687","129","8","1","win","go","0"
"pit-trial","254","1727474","0.0-134.0","battery-v0.2","","""event"",""trial"",""time""
""fullscreenenter"",""1"",""3737""
","
","
","""event"",""trial"",""time""
""fullscreenenter"",""1"",""3737""
","
","","","-1","","","15","9687","4534","g","elianto","#f73b6a7A"," ","-1","0","-10","[]","0","2","","","9687","130","6","3","lose","go","0"
"pit-trial","255","1732329","0.0-135.0","battery-v0.2","","""event"",""trial"",""time""
""fullscreenenter"",""1"",""3737""
","
","
","""event"",""trial"",""time""
""fullscreenenter"",""1"",""3737""
","
","","","-1","","","15","9687","4534","a","elianto","#f73b6a7A","-1","-1","1","-10","[]","0","2","","","9687","131","7","4","lose","no-go","1"
"pit-trial","256","1735664","0.0-136.0","battery-v0.2","","""event"",""trial"",""time""
""fullscreenenter"",""1"",""3737""
","
","
","""event"",""trial"",""time""
""fullscreenenter"",""1"",""3737""
","
","","","480.5","","","15","9687","4534","u","elianto","#3366ff99"," "," ","1","+10","[1331.7000000476837]","1","2","","","9687","132","9","1","win","go","0"
"pit-trial","257","1740518","0.0-137.0","battery-v0.2","","""event"",""trial"",""time""
""fullscreenenter"",""1"",""3737""
","
","
","""event"",""trial"",""time""
""fullscreenenter"",""1"",""3737""
","
","","","-1","","","15","9687","4534","u","elianto","#3366ff99"," ","-1","0","0","[4804.5]","1","2","","","9687","133","9","1","win","go","0"
"pit-trial","258","1745373","0.0-138.0","battery-v0.2","","""event"",""trial"",""time""
""fullscreenenter"",""1"",""3737""
","
","
","""event"",""trial"",""time""
""fullscreenenter"",""1"",""3737""
","
","","","-1","","","15","9687","4534","g","elianto","#f73b6a7A"," ","-1","0","-10","[]","0","2","","","9687","134","6","3","lose","go","0"
"pit-trial","259","1750227","0.0-139.0","battery-v0.2","","""event"",""trial"",""time""
""fullscreenenter"",""1"",""3737""
","
","
","""event"",""trial"",""time""
""fullscreenenter"",""1"",""3737""
","
","","","-1","","","15","9687","4534","a","elianto","#f73b6a7A","-1","-1","1","-10","[]","0","2","","","9687","135","7","4","lose","no-go","1"
"pit-trial","260","1753664","0.0-140.0","battery-v0.2","","""event"",""trial"",""time""
""fullscreenenter"",""1"",""3737""
","
","
","""event"",""trial"",""time""
""fullscreenenter"",""1"",""3737""
","
","","","583.2999999523163","","","15","9687","4534","l","elianto","#3366ff99"," "," ","1","+10","[1433.7999999523163]","1","2","","","9687","136","8","1","win","go","0"
"pit-trial","261","1758519","0.0-141.0","battery-v0.2","","""event"",""trial"",""time""
""fullscreenenter"",""1"",""3737""
","
","
","""event"",""trial"",""time""
""fullscreenenter"",""1"",""3737""
","
","","","-1","","","15","9687","4534","l","elianto","#3366ff99"," ","-1","0","+10","[]","0","2","","","9687","137","8","1","win","go","1"
"pit-trial","262","1763374","0.0-142.0","battery-v0.2","","""event"",""trial"",""time""
""fullscreenenter"",""1"",""3737""
","
","
","""event"",""trial"",""time""
""fullscreenenter"",""1"",""3737""
","
","","","-1","","","15","9687","4534","g","elianto","#f73b6a7A"," ","-1","0","-10","[]","0","2","","","9687","138","6","3","lose","go","0"
"pit-trial","263","1767153","0.0-143.0","battery-v0.2","","""event"",""trial"",""time""
""fullscreenenter"",""1"",""3737""
","
","
","""event"",""trial"",""time""
""fullscreenenter"",""1"",""3737""
","
","","","924.8999999761581","","","15","9687","4534","u","elianto","#3366ff99"," "," ","1","+10","[1774.8999999761581]","1","2","","","9687","139","9","1","win","go","0"
"pit-trial","264","1772008","0.0-144.0","battery-v0.2","","""event"",""trial"",""time""
""fullscreenenter"",""1"",""3737""
""blur"",""265"",""1982581""
""focus"",""265"",""1988823""
","""event"",""trial"",""time""
""blur"",""265"",""1982581""
","""event"",""trial"",""time""
""focus"",""265"",""1988823""
","""event"",""trial"",""time""
""fullscreenenter"",""1"",""3737""
","
","","","-1","","","15","9687","4534","a","elianto","#f73b6a7A","-1","-1","1","0","[]","0","2","","","9687","140","7","4","lose","no-go","0"
"pit-instructions","265","2044150","0.0-145.0","battery-v0.2","","""event"",""trial"",""time""
""fullscreenenter"",""1"",""3737""
""blur"",""265"",""1982581""
""focus"",""265"",""1988823""
","""event"",""trial"",""time""
""blur"",""265"",""1982581""
","""event"",""trial"",""time""
""focus"",""265"",""1988823""
","""event"",""trial"",""time""
""fullscreenenter"",""1"",""3737""
","
","","[{""page_index"":0,""viewing_time"":247483.80000007153},{""page_index"":1,""viewing_time"":24656}]","272140.10000002384","","","","","","","","","","","","","","","","","","","","","","","",""
"pit-trial","266","2049018","0.0-146.0","battery-v0.2","","""event"",""trial"",""time""
""fullscreenenter"",""1"",""3737""
""blur"",""265"",""1982581""
""focus"",""265"",""1988823""
","""event"",""trial"",""time""
""blur"",""265"",""1982581""
","""event"",""trial"",""time""
""focus"",""265"",""1988823""
","""event"",""trial"",""time""
""fullscreenenter"",""1"",""3737""
","
","","","-1","","","15","9687","4534","h","elianto","#f73b6a7A"," ","-1","0","-10","[]","0","3","","","9687","141","3","3","lose","go","0"
"pit-trial","267","2053881","0.0-147.0","battery-v0.2","","""event"",""trial"",""time""
""fullscreenenter"",""1"",""3737""
""blur"",""265"",""1982581""
""focus"",""265"",""1988823""
