"trial_type","trial_index","time_elapsed","internal_node_id","task_version","subject_id","interactions","blur_events","focus_events","fullscreenenter_events","fullscreenexit_events","success","view_history","rt","responses","num_errors","age","subject","participantId","rune","rune_set","hex","correct","choice","accuracy","outcome","keys","total_keys","block","practice","value","sub","trial","stimulus","robot","valence","action","sham"
"pavlovia","0","13","0.0-0.0","battery-v0.2","","""event"",""trial"",""time""
""fullscreenenter"",""1"",""2840""
","
","
","""event"",""trial"",""time""
""fullscreenenter"",""1"",""2840""
","
","","","","","","","","","","","","","","","","","","","","","","","","","","",""
"fullscreen","1","3834","0.0-1.0","battery-v0.2","","""event"",""trial"",""time""
""fullscreenenter"",""1"",""2840""
""blur"",""2"",""8963""
""focus"",""2"",""16569""
","""event"",""trial"",""time""
""blur"",""2"",""8963""
","""event"",""trial"",""time""
""focus"",""2"",""16569""
","""event"",""trial"",""time""
""fullscreenenter"",""1"",""2840""
","
","true","","","","","","","","","","","","","","","","","","","","","","","","","",""
"pit-instructions","2","16693","0.0-2.0-0.0","battery-v0.2","","""event"",""trial"",""time""
""fullscreenenter"",""1"",""2840""
""blur"",""2"",""8963""
""focus"",""2"",""16569""
","""event"",""trial"",""time""
""blur"",""2"",""8963""
","""event"",""trial"",""time""
""focus"",""2"",""16569""
","""event"",""trial"",""time""
""fullscreenenter"",""1"",""2840""
","
","","[{""page_index"":0,""viewing_time"":12854.700000047684}]","12855.700000047684","","","","","","","","","","","","","","","","","","","","","","","",""
"pit-comprehension","3","22017","0.0-2.0-1.0-0.0","battery-v0.2","","""event"",""trial"",""time""
""fullscreenenter"",""1"",""2840""
""blur"",""2"",""8963""
""focus"",""2"",""16569""
","""event"",""trial"",""time""
""blur"",""2"",""8963""
","""event"",""trial"",""time""
""focus"",""2"",""16569""
","""event"",""trial"",""time""
""fullscreenenter"",""1"",""2840""
","
","","","5318.899999976158","[""shark""]","0","12","9744","4319","","","","","","","","","","","","","","","","","","",""
"pit-instructions","4","27734","0.0-2.0-1.0-1.0","battery-v0.2","","""event"",""trial"",""time""
""fullscreenenter"",""1"",""2840""
""blur"",""2"",""8963""
""focus"",""2"",""16569""
","""event"",""trial"",""time""
""blur"",""2"",""8963""
","""event"",""trial"",""time""
""focus"",""2"",""16569""
","""event"",""trial"",""time""
""fullscreenenter"",""1"",""2840""
","
","","[{""page_index"":0,""viewing_time"":5684.800000011921}]","5685.600000023842","","","","","","","","","","","","","","","","","","","","","","","",""
"pit-comprehension","5","31347","0.0-2.0-2.0-0.0","battery-v0.2","","""event"",""trial"",""time""
""fullscreenenter"",""1"",""2840""
""blur"",""2"",""8963""
""focus"",""2"",""16569""
","""event"",""trial"",""time""
""blur"",""2"",""8963""
","""event"",""trial"",""time""
""focus"",""2"",""16569""
","""event"",""trial"",""time""
""fullscreenenter"",""1"",""2840""
","
","","","3603.300000011921","[""tiger""]","0","12","9744","4319","","","","","","","","","","","","","","","","","","",""
"pit-instructions","6","32675","0.0-2.0-2.0-1.0","battery-v0.2","","""event"",""trial"",""time""
""fullscreenenter"",""1"",""2840""
""blur"",""2"",""8963""
""focus"",""2"",""16569""
","""event"",""trial"",""time""
""blur"",""2"",""8963""
","""event"",""trial"",""time""
""focus"",""2"",""16569""
","""event"",""trial"",""time""
""fullscreenenter"",""1"",""2840""
","
","","[{""page_index"":0,""viewing_time"":1319.5}]","1320.3999999761581","","","","","","","","","","","","","","","","","","","","","","","",""
"pit-instructions","7","141571","0.0-2.0-3.0","battery-v0.2","","""event"",""trial"",""time""
""fullscreenenter"",""1"",""2840""
""blur"",""2"",""8963""
""focus"",""2"",""16569""
","""event"",""trial"",""time""
""blur"",""2"",""8963""
","""event"",""trial"",""time""
""focus"",""2"",""16569""
","""event"",""trial"",""time""
""fullscreenenter"",""1"",""2840""
","
","","[{""page_index"":0,""viewing_time"":9991.699999988079},{""page_index"":1,""viewing_time"":8370.699999988079},{""page_index"":2,""viewing_time"":6641.200000047684},{""page_index"":3,""viewing_time"":6689.199999988079},{""page_index"":4,""viewing_time"":6612.300000011921},{""page_index"":5,""viewing_time"":6687.599999964237},{""page_index"":6,""viewing_time"":8423.900000035763},{""page_index"":7,""viewing_time"":7917.599999964237},{""page_index"":8,""viewing_time"":6489.5},{""page_index"":9,""viewing_time"":9535.400000035763},{""page_index"":10,""viewing_time"":7747.399999976158},{""page_index"":11,""viewing_time"":9993.800000011921},{""page_index"":12,""viewing_time"":7608.300000011921},{""page_index"":13,""viewing_time"":6182.099999964237}]","108891.69999998808","","","","","","","","","","","","","","","","","","","","","","","",""
"pit-trial","8","145434","0.0-2.0-4.0-0.0","battery-v0.2","","""event"",""trial"",""time""
""fullscreenenter"",""1"",""2840""
""blur"",""2"",""8963""
""focus"",""2"",""16569""
","""event"",""trial"",""time""
""blur"",""2"",""8963""
","""event"",""trial"",""time""
""focus"",""2"",""16569""
","""event"",""trial"",""time""
""fullscreenenter"",""1"",""2840""
","
","","","999.4000000357628","","","12","9744","4319","&#9784;","elianto","#FFFFF080"," "," ","1","&#10004","[1849.1000000238419]","1","0","0","","","","","","","",""
"pit-trial","9","148891","0.0-2.0-4.1-0.1","battery-v0.2","","""event"",""trial"",""time""
""fullscreenenter"",""1"",""2840""
""blur"",""2"",""8963""
""focus"",""2"",""16569""
","""event"",""trial"",""time""
""blur"",""2"",""8963""
","""event"",""trial"",""time""
""focus"",""2"",""16569""
","""event"",""trial"",""time""
""fullscreenenter"",""1"",""2840""
","
","","","582.9000000357628","","","12","9744","4319","&#9784;","elianto","#FFFFF080"," "," ","1","&#10004","[1435.5]","1","0","0","","","","","","","",""
"pit-trial","10","152344","0.0-2.0-4.2-0.2","battery-v0.2","","""event"",""trial"",""time""
""fullscreenenter"",""1"",""2840""
""blur"",""2"",""8963""
""focus"",""2"",""16569""
","""event"",""trial"",""time""
""blur"",""2"",""8963""
","""event"",""trial"",""time""
""focus"",""2"",""16569""
","""event"",""trial"",""time""
""fullscreenenter"",""1"",""2840""
","
","","","589.3000000119209","","","12","9744","4319","&#9784;","elianto","#FFFFF080"," "," ","1","&#10004","[1439.699999988079]","1","0","0","","","","","","","",""
"pit-trial","11","155776","0.0-2.0-4.3-0.3","battery-v0.2","","""event"",""trial"",""time""
""fullscreenenter"",""1"",""2840""
""blur"",""2"",""8963""
""focus"",""2"",""16569""
","""event"",""trial"",""time""
""blur"",""2"",""8963""
","""event"",""trial"",""time""
""focus"",""2"",""16569""
","""event"",""trial"",""time""
""fullscreenenter"",""1"",""2840""
","
","","","560.0999999642372","","","12","9744","4319","&#9784;","elianto","#FFFFF080"," "," ","1","&#10004","[1410.7999999523163]","1","0","0","","","","","","","",""
"pit-trial","12","159191","0.0-2.0-4.4-0.4","battery-v0.2","","""event"",""trial"",""time""
""fullscreenenter"",""1"",""2840""
""blur"",""2"",""8963""
""focus"",""2"",""16569""
","""event"",""trial"",""time""
""blur"",""2"",""8963""
","""event"",""trial"",""time""
""focus"",""2"",""16569""
","""event"",""trial"",""time""
""fullscreenenter"",""1"",""2840""
","
","","","550.5","","","12","9744","4319","&#9784;","elianto","#FFFFF080"," "," ","1","&#10004","[1408.1000000238419]","1","0","0","","","","","","","",""
"pit-instructions","13","217920","0.0-2.0-5.0","battery-v0.2","","""event"",""trial"",""time""
""fullscreenenter"",""1"",""2840""
""blur"",""2"",""8963""
""focus"",""2"",""16569""
","""event"",""trial"",""time""
""blur"",""2"",""8963""
","""event"",""trial"",""time""
""focus"",""2"",""16569""
","""event"",""trial"",""time""
""fullscreenenter"",""1"",""2840""
","
","","[{""page_index"":0,""viewing_time"":42422.90000003576},{""page_index"":1,""viewing_time"":5245.399999976158},{""page_index"":2,""viewing_time"":5891.699999988079},{""page_index"":3,""viewing_time"":5157.200000047684}]","58717.700000047684","","","","","","","","","","","","","","","","","","","","","","","",""
"pit-trial","14","222802","0.0-2.0-6.0-0.0","battery-v0.2","","""event"",""trial"",""time""
""fullscreenenter"",""1"",""2840""
""blur"",""2"",""8963""
""focus"",""2"",""16569""
","""event"",""trial"",""time""
""blur"",""2"",""8963""
","""event"",""trial"",""time""
""focus"",""2"",""16569""
","""event"",""trial"",""time""
""fullscreenenter"",""1"",""2840""
","
","","","-1","","","12","9744","4319","&#9854;","elianto","#FFFFF080","-1","-1","1","&#10004","[]","0","0","1","","","","","","","",""
"pit-trial","15","227675","0.0-2.0-6.1-0.1","battery-v0.2","","""event"",""trial"",""time""
""fullscreenenter"",""1"",""2840""
""blur"",""2"",""8963""
""focus"",""2"",""16569""
","""event"",""trial"",""time""
""blur"",""2"",""8963""
","""event"",""trial"",""time""
""focus"",""2"",""16569""
","""event"",""trial"",""time""
""fullscreenenter"",""1"",""2840""
","
","","","-1","","","12","9744","4319","&#9854;","elianto","#FFFFF080","-1","-1","1","&#10004","[]","0","0","1","","","","","","","",""
"pit-trial","16","232535","0.0-2.0-6.2-0.2","battery-v0.2","","""event"",""trial"",""time""
""fullscreenenter"",""1"",""2840""
""blur"",""2"",""8963""
""focus"",""2"",""16569""
","""event"",""trial"",""time""
""blur"",""2"",""8963""
","""event"",""trial"",""time""
""focus"",""2"",""16569""
","""event"",""trial"",""time""
""fullscreenenter"",""1"",""2840""
","
","","","-1","","","12","9744","4319","&#9854;","elianto","#FFFFF080","-1","-1","1","&#10004","[]","0","0","1","","","","","","","",""
"pit-trial","17","237412","0.0-2.0-6.3-0.3","battery-v0.2","","""event"",""trial"",""time""
""fullscreenenter"",""1"",""2840""
""blur"",""2"",""8963""
""focus"",""2"",""16569""
","""event"",""trial"",""time""
""blur"",""2"",""8963""
","""event"",""trial"",""time""
""focus"",""2"",""16569""
","""event"",""trial"",""time""
""fullscreenenter"",""1"",""2840""
","
","","","-1","","","12","9744","4319","&#9854;","elianto","#FFFFF080","-1","-1","1","&#10004","[]","0","0","1","","","","","","","",""
"pit-trial","18","242267","0.0-2.0-6.4-0.4","battery-v0.2","","""event"",""trial"",""time""
""fullscreenenter"",""1"",""2840""
""blur"",""2"",""8963""
""focus"",""2"",""16569""
","""event"",""trial"",""time""
""blur"",""2"",""8963""
","""event"",""trial"",""time""
""focus"",""2"",""16569""
","""event"",""trial"",""time""
""fullscreenenter"",""1"",""2840""
","
","","","-1","","","12","9744","4319","&#9854;","elianto","#FFFFF080","-1","-1","1","&#10004","[]","0","0","1","","","","","","","",""
"pit-instructions","19","377052","0.0-2.0-7.0","battery-v0.2","","""event"",""trial"",""time""
""fullscreenenter"",""1"",""2840""
""blur"",""2"",""8963""
""focus"",""2"",""16569""
","""event"",""trial"",""time""
""blur"",""2"",""8963""
","""event"",""trial"",""time""
""focus"",""2"",""16569""
","""event"",""trial"",""time""
""fullscreenenter"",""1"",""2840""
","
","","[{""page_index"":0,""viewing_time"":7358.199999988079},{""page_index"":1,""viewing_time"":9729},{""page_index"":2,""viewing_time"":7120.900000035763},{""page_index"":3,""viewing_time"":7299.399999976158},{""page_index"":4,""viewing_time"":6531.800000011921},{""page_index"":5,""viewing_time"":6097.100000023842},{""page_index"":6,""viewing_time"":4886.599999964237},{""page_index"":7,""viewing_time"":8729.199999988079},{""page_index"":8,""viewing_time"":7400.400000035763},{""page_index"":9,""viewing_time"":8076.699999988079},{""page_index"":10,""viewing_time"":9153.300000011921},{""page_index"":11,""viewing_time"":4174.5},{""page_index"":12,""viewing_time"":8975.699999988079},{""page_index"":13,""viewing_time"":8175.399999976158},{""page_index"":14,""viewing_time"":9129.900000035763},{""page_index"":15,""viewing_time"":7338.099999964237},{""page_index"":16,""viewing_time"":6553},{""page_index"":17,""viewing_time"":8047.300000011921}]","134777.30000001192","","","","","","","","","","","","","","","","","","","","","","","",""
"pit-trial","20","380907","0.0-2.0-8.0-0.0","battery-v0.2","","""event"",""trial"",""time""
""fullscreenenter"",""1"",""2840""
""blur"",""2"",""8963""
""focus"",""2"",""16569""
","""event"",""trial"",""time""
""blur"",""2"",""8963""
","""event"",""trial"",""time""
""focus"",""2"",""16569""
","""event"",""trial"",""time""
""fullscreenenter"",""1"",""2840""
","
","","","989.5999999642372","","","12","9744","4319","&#9776;","elianto","#3366ff99"," "," ","1","+10","[1839.800000011921]","1","0","1","","","","","","","",""
"pit-trial","21","384679","0.0-2.0-8.0-1.0","battery-v0.2","","""event"",""trial"",""time""
""fullscreenenter"",""1"",""2840""
""blur"",""2"",""8963""
""focus"",""2"",""16569""
","""event"",""trial"",""time""
""blur"",""2"",""8963""
","""event"",""trial"",""time""
""focus"",""2"",""16569""
","""event"",""trial"",""time""
""fullscreenenter"",""1"",""2840""
","
","","","913","","","12","9744","4319","&#9776;","elianto","#3366ff99"," "," ","1","+10","[1766]","1","0","1","","","","","","","",""
"pit-trial","22","388125","0.0-2.0-8.0-2.0","battery-v0.2","","""event"",""trial"",""time""
""fullscreenenter"",""1"",""2840""
""blur"",""2"",""8963""
""focus"",""2"",""16569""
","""event"",""trial"",""time""
""blur"",""2"",""8963""
","""event"",""trial"",""time""
""focus"",""2"",""16569""
","""event"",""trial"",""time""
""fullscreenenter"",""1"",""2840""
","
","","","579.3000000119209","","","12","9744","4319","&#9776;","elianto","#3366ff99"," "," ","1","+10","[1441.300000011921]","1","0","1","","","","","","","",""
"pit-trial","23","391593","0.0-2.0-8.0-3.0","battery-v0.2","","""event"",""trial"",""time""
""fullscreenenter"",""1"",""2840""
""blur"",""2"",""8963""
""focus"",""2"",""16569""
","""event"",""trial"",""time""
""blur"",""2"",""8963""
","""event"",""trial"",""time""
""focus"",""2"",""16569""
","""event"",""trial"",""time""
""fullscreenenter"",""1"",""2840""
","
","","","602","","","12","9744","4319","&#9776;","elianto","#3366ff99"," "," ","1","0","[1455.5999999642372]","1","0","1","","","","","","","",""
"pit-trial","24","395002","0.0-2.0-8.0-4.0","battery-v0.2","","""event"",""trial"",""time""
""fullscreenenter"",""1"",""2840""
""blur"",""2"",""8963""
""focus"",""2"",""16569""
","""event"",""trial"",""time""
""blur"",""2"",""8963""
","""event"",""trial"",""time""
""focus"",""2"",""16569""
","""event"",""trial"",""time""
""fullscreenenter"",""1"",""2840""
","
","","","544.9000000357628","","","12","9744","4319","&#9776;","elianto","#3366ff99"," "," ","1","+10","[1397.4000000357628]","1","0","1","","","","","","","",""
"pit-trial","25","398290","0.0-2.0-8.1-0.1","battery-v0.2","","""event"",""trial"",""time""
""fullscreenenter"",""1"",""2840""
""blur"",""2"",""8963""
""focus"",""2"",""16569""
","""event"",""trial"",""time""
""blur"",""2"",""8963""
","""event"",""trial"",""time""
""focus"",""2"",""16569""
","""event"",""trial"",""time""
""fullscreenenter"",""1"",""2840""
","
","","","429.0999999642372","","","12","9744","4319","&#9776;","elianto","#3366ff99"," "," ","1","+10","[1280.800000011921]","1","0","1","","","","","","","",""
"pit-trial","26","401676","0.0-2.0-8.1-1.1","battery-v0.2","","""event"",""trial"",""time""
""fullscreenenter"",""1"",""2840""
""blur"",""2"",""8963""
""focus"",""2"",""16569""
","""event"",""trial"",""time""
""blur"",""2"",""8963""
","""event"",""trial"",""time""
""focus"",""2"",""16569""
","""event"",""trial"",""time""
""fullscreenenter"",""1"",""2840""
","
","","","507.19999998807907","","","12","9744","4319","&#9776;","elianto","#3366ff99"," "," ","1","+10","[1367.3999999761581]","1","0","1","","","","","","","",""
"pit-trial","27","404974","0.0-2.0-8.1-2.1","battery-v0.2","","""event"",""trial"",""time""
""fullscreenenter"",""1"",""2840""
""blur"",""2"",""8963""
""focus"",""2"",""16569""
","""event"",""trial"",""time""
""blur"",""2"",""8963""
","""event"",""trial"",""time""
""focus"",""2"",""16569""
","""event"",""trial"",""time""
""fullscreenenter"",""1"",""2840""
","
","","","429.60000002384186","","","12","9744","4319","&#9776;","elianto","#3366ff99"," "," ","1","+10","[1281.699999988079]","1","0","1","","","","","","","",""
"pit-trial","28","408525","0.0-2.0-8.1-3.1","battery-v0.2","","""event"",""trial"",""time""
""fullscreenenter"",""1"",""2840""
""blur"",""2"",""8963""
""focus"",""2"",""16569""
","""event"",""trial"",""time""
""blur"",""2"",""8963""
","""event"",""trial"",""time""
""focus"",""2"",""16569""
","""event"",""trial"",""time""
""fullscreenenter"",""1"",""2840""
","
","","","687.6999999880791","","","12","9744","4319","&#9776;","elianto","#3366ff99"," "," ","1","0","[1547.199999988079]","1","0","1","","","","","","","",""
"pit-trial","29","411798","0.0-2.0-8.1-4.1","battery-v0.2","","""event"",""trial"",""time""
""fullscreenenter"",""1"",""2840""
""blur"",""2"",""8963""
""focus"",""2"",""16569""
","""event"",""trial"",""time""
""blur"",""2"",""8963""
","""event"",""trial"",""time""
""focus"",""2"",""16569""
","""event"",""trial"",""time""
""fullscreenenter"",""1"",""2840""
","
","","","411.19999998807907","","","12","9744","4319","&#9776;","elianto","#3366ff99"," "," ","1","+10","[1263.2000000476837]","1","0","1","","","","","","","",""
"pit-trial","30","414878","0.0-2.0-8.2-0.2","battery-v0.2","","""event"",""trial"",""time""
""fullscreenenter"",""1"",""2840""
""blur"",""2"",""8963""
""focus"",""2"",""16569""
","""event"",""trial"",""time""
""blur"",""2"",""8963""
","""event"",""trial"",""time""
""focus"",""2"",""16569""
","""event"",""trial"",""time""
""fullscreenenter"",""1"",""2840""
","
","","","223.80000001192093","","","12","9744","4319","&#9776;","elianto","#3366ff99"," "," ","1","+10","[1074.7000000476837]","1","0","1","","","","","","","",""
"pit-trial","31","417993","0.0-2.0-8.2-1.2","battery-v0.2","","""event"",""trial"",""time""
""fullscreenenter"",""1"",""2840""
""blur"",""2"",""8963""
""focus"",""2"",""16569""
","""event"",""trial"",""time""
""blur"",""2"",""8963""
","""event"",""trial"",""time""
""focus"",""2"",""16569""
","""event"",""trial"",""time""
""fullscreenenter"",""1"",""2840""
","
","","","254.29999995231628","","","12","9744","4319","&#9776;","elianto","#3366ff99"," "," ","1","+10","[1107.300000011921]","1","0","1","","","","","","","",""
"pit-trial","32","421035","0.0-2.0-8.2-2.2","battery-v0.2","","""event"",""trial"",""time""
""fullscreenenter"",""1"",""2840""
""blur"",""2"",""8963""
""focus"",""2"",""16569""
","""event"",""trial"",""time""
""blur"",""2"",""8963""
","""event"",""trial"",""time""
""focus"",""2"",""16569""
","""event"",""trial"",""time""
""fullscreenenter"",""1"",""2840""
","
","","","184.89999997615814","","","12","9744","4319","&#9776;","elianto","#3366ff99"," "," ","1","+10","[1035.5]","1","0","1","","","","","","","",""
"pit-trial","33","424158","0.0-2.0-8.2-3.2","battery-v0.2","","""event"",""trial"",""time""
""fullscreenenter"",""1"",""2840""
""blur"",""2"",""8963""
""focus"",""2"",""16569""
","""event"",""trial"",""time""
""blur"",""2"",""8963""
","""event"",""trial"",""time""
""focus"",""2"",""16569""
","""event"",""trial"",""time""
""fullscreenenter"",""1"",""2840""
","
","","","261.89999997615814","","","12","9744","4319","&#9776;","elianto","#3366ff99"," "," ","1","0","[1112.8999999761581]","1","0","1","","","","","","","",""
"pit-trial","34","429024","0.0-2.0-8.2-4.2","battery-v0.2","","""event"",""trial"",""time""
""fullscreenenter"",""1"",""2840""
""blur"",""2"",""8963""
""focus"",""2"",""16569""
","""event"",""trial"",""time""
""blur"",""2"",""8963""
","""event"",""trial"",""time""
""focus"",""2"",""16569""
","""event"",""trial"",""time""
""fullscreenenter"",""1"",""2840""
","
","","","-1","","","12","9744","4319","&#9776;","elianto","#3366ff99"," ","-1","0","0","[3129.900000035763]","1","0","1","","","","","","","",""
"call-function","35","429026","0.0-2.0-9.0","battery-v0.2","","""event"",""trial"",""time""
""fullscreenenter"",""1"",""2840""
""blur"",""2"",""8963""
""focus"",""2"",""16569""
","""event"",""trial"",""time""
""blur"",""2"",""8963""
","""event"",""trial"",""time""
""focus"",""2"",""16569""
","""event"",""trial"",""time""
""fullscreenenter"",""1"",""2840""
","
","","","","","","","","","","","","","","","","","","","","","","","","","","",""
"pit-instructions","36","473653","0.0-2.0-10.0","battery-v0.2","","""event"",""trial"",""time""
""fullscreenenter"",""1"",""2840""
""blur"",""2"",""8963""
""focus"",""2"",""16569""
","""event"",""trial"",""time""
""blur"",""2"",""8963""
","""event"",""trial"",""time""
""focus"",""2"",""16569""
","""event"",""trial"",""time""
""fullscreenenter"",""1"",""2840""
","
","","[{""page_index"":0,""viewing_time"":7553.200000047684},{""page_index"":1,""viewing_time"":7750.699999988079},{""page_index"":2,""viewing_time"":10700.300000011921},{""page_index"":3,""viewing_time"":10490},{""page_index"":4,""viewing_time"":8130.699999988079}]","44625.5","","","","","","","","","","","","","","","","","","","","","","","",""
"pit-trial","37","477152","0.0-2.0-11.0-0.0","battery-v0.2","","""event"",""trial"",""time""
""fullscreenenter"",""1"",""2840""
""blur"",""2"",""8963""
""focus"",""2"",""16569""
","""event"",""trial"",""time""
""blur"",""2"",""8963""
","""event"",""trial"",""time""
""focus"",""2"",""16569""
","""event"",""trial"",""time""
""fullscreenenter"",""1"",""2840""
","
","","","628.1999999880791","","","12","9744","4319","&#9761;","elianto","#3366ff99","-1"," ","0","0","[1479.4000000357628]","1","0","2","","","","","","","",""
"pit-trial","38","480674","0.0-2.0-11.0-1.0","battery-v0.2","","""event"",""trial"",""time""
""fullscreenenter"",""1"",""2840""
""blur"",""2"",""8963""
""focus"",""2"",""16569""
","""event"",""trial"",""time""
""blur"",""2"",""8963""
","""event"",""trial"",""time""
""focus"",""2"",""16569""
","""event"",""trial"",""time""
""fullscreenenter"",""1"",""2840""
","
","","","664","","","12","9744","4319","&#9761;","elianto","#3366ff99","-1"," ","0","0","[1515.3999999761581]","1","0","2","","","","","","","",""
"pit-trial","39","485544","0.0-2.0-11.0-2.0","battery-v0.2","","""event"",""trial"",""time""
""fullscreenenter"",""1"",""2840""
""blur"",""2"",""8963""
""focus"",""2"",""16569""
","""event"",""trial"",""time""
""blur"",""2"",""8963""
","""event"",""trial"",""time""
""focus"",""2"",""16569""
","""event"",""trial"",""time""
""fullscreenenter"",""1"",""2840""
","
","","","-1","","","12","9744","4319","&#9761;","elianto","#3366ff99","-1","-1","1","+10","[]","0","0","2","","","","","","","",""
"pit-trial","40","490413","0.0-2.0-11.0-3.0","battery-v0.2","","""event"",""trial"",""time""
""fullscreenenter"",""1"",""2840""
""blur"",""2"",""8963""
""focus"",""2"",""16569""
","""event"",""trial"",""time""
""blur"",""2"",""8963""
","""event"",""trial"",""time""
""focus"",""2"",""16569""
","""event"",""trial"",""time""
""fullscreenenter"",""1"",""2840""
","
","","","-1","","","12","9744","4319","&#9761;","elianto","#3366ff99","-1","-1","1","0","[]","0","0","2","","","","","","","",""
"pit-trial","41","495277","0.0-2.0-11.0-4.0","battery-v0.2","","""event"",""trial"",""time""
""fullscreenenter"",""1"",""2840""
""blur"",""2"",""8963""
""focus"",""2"",""16569""
","""event"",""trial"",""time""
""blur"",""2"",""8963""
","""event"",""trial"",""time""
""focus"",""2"",""16569""
","""event"",""trial"",""time""
""fullscreenenter"",""1"",""2840""
","
","","","-1","","","12","9744","4319","&#9761;","elianto","#3366ff99","-1","-1","1","+10","[]","0","0","2","","","","","","","",""
"pit-trial","42","500137","0.0-2.0-11.1-0.1","battery-v0.2","","""event"",""trial"",""time""
""fullscreenenter"",""1"",""2840""
""blur"",""2"",""8963""
""focus"",""2"",""16569""
","""event"",""trial"",""time""
""blur"",""2"",""8963""
","""event"",""trial"",""time""
""focus"",""2"",""16569""
","""event"",""trial"",""time""
""fullscreenenter"",""1"",""2840""
","
","","","-1","","","12","9744","4319","&#9761;","elianto","#3366ff99","-1","-1","1","+10","[]","0","0","2","","","","","","","",""
"pit-trial","43","505003","0.0-2.0-11.1-1.1","battery-v0.2","","""event"",""trial"",""time""
""fullscreenenter"",""1"",""2840""
""blur"",""2"",""8963""
""focus"",""2"",""16569""
","""event"",""trial"",""time""
""blur"",""2"",""8963""
","""event"",""trial"",""time""
""focus"",""2"",""16569""
","""event"",""trial"",""time""
""fullscreenenter"",""1"",""2840""
","
","","","-1","","","12","9744","4319","&#9761;","elianto","#3366ff99","-1","-1","1","+10","[]","0","0","2","","","","","","","",""
"pit-trial","44","509864","0.0-2.0-11.1-2.1","battery-v0.2","","""event"",""trial"",""time""
""fullscreenenter"",""1"",""2840""
""blur"",""2"",""8963""
""focus"",""2"",""16569""
","""event"",""trial"",""time""
""blur"",""2"",""8963""
","""event"",""trial"",""time""
""focus"",""2"",""16569""
","""event"",""trial"",""time""
""fullscreenenter"",""1"",""2840""
","
","","","-1","","","12","9744","4319","&#9761;","elianto","#3366ff99","-1","-1","1","+10","[]","0","0","2","","","","","","","",""
"pit-trial","45","514727","0.0-2.0-11.1-3.1","battery-v0.2","","""event"",""trial"",""time""
""fullscreenenter"",""1"",""2840""
""blur"",""2"",""8963""
""focus"",""2"",""16569""
","""event"",""trial"",""time""
""blur"",""2"",""8963""
","""event"",""trial"",""time""
""focus"",""2"",""16569""
","""event"",""trial"",""time""
""fullscreenenter"",""1"",""2840""
","
","","","-1","","","12","9744","4319","&#9761;","elianto","#3366ff99","-1","-1","1","0","[]","0","0","2","","","","","","","",""
"pit-trial","46","519581","0.0-2.0-11.1-4.1","battery-v0.2","","""event"",""trial"",""time""
""fullscreenenter"",""1"",""2840""
""blur"",""2"",""8963""
""focus"",""2"",""16569""
","""event"",""trial"",""time""
""blur"",""2"",""8963""
","""event"",""trial"",""time""
""focus"",""2"",""16569""
","""event"",""trial"",""time""
""fullscreenenter"",""1"",""2840""
","
","","","-1","","","12","9744","4319","&#9761;","elianto","#3366ff99","-1","-1","1","+10","[]","0","0","2","","","","","","","",""
"pit-trial","47","524443","0.0-2.0-11.2-0.2","battery-v0.2","","""event"",""trial"",""time""
""fullscreenenter"",""1"",""2840""
""blur"",""2"",""8963""
""focus"",""2"",""16569""
","""event"",""trial"",""time""
""blur"",""2"",""8963""
","""event"",""trial"",""time""
""focus"",""2"",""16569""
","""event"",""trial"",""time""
""fullscreenenter"",""1"",""2840""
","
","","","-1","","","12","9744","4319","&#9761;","elianto","#3366ff99","-1","-1","1","+10","[]","0","0","2","","","","","","","",""
"pit-trial","48","529302","0.0-2.0-11.2-1.2","battery-v0.2","","""event"",""trial"",""time""
""fullscreenenter"",""1"",""2840""
""blur"",""2"",""8963""
""focus"",""2"",""16569""
","""event"",""trial"",""time""
""blur"",""2"",""8963""
","""event"",""trial"",""time""
""focus"",""2"",""16569""
","""event"",""trial"",""time""
""fullscreenenter"",""1"",""2840""
","
","","","-1","","","12","9744","4319","&#9761;","elianto","#3366ff99","-1","-1","1","+10","[]","0","0","2","","","","","","","",""
"pit-trial","49","534158","0.0-2.0-11.2-2.2","battery-v0.2","","""event"",""trial"",""time""
""fullscreenenter"",""1"",""2840""
""blur"",""2"",""8963""
""focus"",""2"",""16569""
","""event"",""trial"",""time""
""blur"",""2"",""8963""
","""event"",""trial"",""time""
""focus"",""2"",""16569""
","""event"",""trial"",""time""
""fullscreenenter"",""1"",""2840""
","
","","","-1","","","12","9744","4319","&#9761;","elianto","#3366ff99","-1","-1","1","+10","[]","0","0","2","","","","","","","",""
"pit-trial","50","539018","0.0-2.0-11.2-3.2","battery-v0.2","","""event"",""trial"",""time""
""fullscreenenter"",""1"",""2840""
""blur"",""2"",""8963""
""focus"",""2"",""16569""
","""event"",""trial"",""time""
""blur"",""2"",""8963""
","""event"",""trial"",""time""
""focus"",""2"",""16569""
","""event"",""trial"",""time""
""fullscreenenter"",""1"",""2840""
","
","","","-1","","","12","9744","4319","&#9761;","elianto","#3366ff99","-1","-1","1","0","[]","0","0","2","","","","","","","",""
"pit-trial","51","543879","0.0-2.0-11.2-4.2","battery-v0.2","","""event"",""trial"",""time""
""fullscreenenter"",""1"",""2840""
""blur"",""2"",""8963""
""focus"",""2"",""16569""
","""event"",""trial"",""time""
""blur"",""2"",""8963""
","""event"",""trial"",""time""
""focus"",""2"",""16569""
","""event"",""trial"",""time""
""fullscreenenter"",""1"",""2840""
","
","","","-1","","","12","9744","4319","&#9761;","elianto","#3366ff99","-1","-1","1","+10","[]","0","0","2","","","","","","","",""
"pit-trial","52","548752","0.0-2.0-11.3-0.3","battery-v0.2","","""event"",""trial"",""time""
""fullscreenenter"",""1"",""2840""
""blur"",""2"",""8963""
""focus"",""2"",""16569""
","""event"",""trial"",""time""
""blur"",""2"",""8963""
","""event"",""trial"",""time""
""focus"",""2"",""16569""
","""event"",""trial"",""time""
""fullscreenenter"",""1"",""2840""
","
","","","-1","","","12","9744","4319","&#9761;","elianto","#3366ff99","-1","-1","1","+10","[]","0","0","2","","","","","","","",""
"pit-trial","53","553624","0.0-2.0-11.3-1.3","battery-v0.2","","""event"",""trial"",""time""
""fullscreenenter"",""1"",""2840""
""blur"",""2"",""8963""
""focus"",""2"",""16569""
","""event"",""trial"",""time""
""blur"",""2"",""8963""
","""event"",""trial"",""time""
""focus"",""2"",""16569""
","""event"",""trial"",""time""
""fullscreenenter"",""1"",""2840""
","
","","","-1","","","12","9744","4319","&#9761;","elianto","#3366ff99","-1","-1","1","+10","[]","0","0","2","","","","","","","",""
"pit-trial","54","558487","0.0-2.0-11.3-2.3","battery-v0.2","","""event"",""trial"",""time""
""fullscreenenter"",""1"",""2840""
""blur"",""2"",""8963""
""focus"",""2"",""16569""
","""event"",""trial"",""time""
""blur"",""2"",""8963""
","""event"",""trial"",""time""
""focus"",""2"",""16569""
","""event"",""trial"",""time""
""fullscreenenter"",""1"",""2840""
","
","","","-1","","","12","9744","4319","&#9761;","elianto","#3366ff99","-1","-1","1","+10","[]","0","0","2","","","","","","","",""
"pit-trial","55","563342","0.0-2.0-11.3-3.3","battery-v0.2","","""event"",""trial"",""time""
""fullscreenenter"",""1"",""2840""
""blur"",""2"",""8963""
""focus"",""2"",""16569""
","""event"",""trial"",""time""
""blur"",""2"",""8963""
","""event"",""trial"",""time""
""focus"",""2"",""16569""
","""event"",""trial"",""time""
""fullscreenenter"",""1"",""2840""
","
","","","-1","","","12","9744","4319","&#9761;","elianto","#3366ff99","-1","-1","1","0","[]","0","0","2","","","","","","","",""
"pit-trial","56","568203","0.0-2.0-11.3-4.3","battery-v0.2","","""event"",""trial"",""time""
""fullscreenenter"",""1"",""2840""
""blur"",""2"",""8963""
""focus"",""2"",""16569""
","""event"",""trial"",""time""
""blur"",""2"",""8963""
","""event"",""trial"",""time""
""focus"",""2"",""16569""
","""event"",""trial"",""time""
""fullscreenenter"",""1"",""2840""
","
","","","-1","","","12","9744","4319","&#9761;","elianto","#3366ff99","-1","-1","1","+10","[]","0","0","2","","","","","","","",""
"call-function","57","568206","0.0-2.0-12.0","battery-v0.2","","""event"",""trial"",""time""
""fullscreenenter"",""1"",""2840""
""blur"",""2"",""8963""
""focus"",""2"",""16569""
","""event"",""trial"",""time""
""blur"",""2"",""8963""
","""event"",""trial"",""time""
""focus"",""2"",""16569""
","""event"",""trial"",""time""
""fullscreenenter"",""1"",""2840""
","
","","","","","","","","","","","","","","","","","","","","","","","","","","",""
"pit-instructions","58","611699","0.0-2.0-13.0","battery-v0.2","","""event"",""trial"",""time""
""fullscreenenter"",""1"",""2840""
""blur"",""2"",""8963""
""focus"",""2"",""16569""
","""event"",""trial"",""time""
""blur"",""2"",""8963""
","""event"",""trial"",""time""
""focus"",""2"",""16569""
","""event"",""trial"",""time""
""fullscreenenter"",""1"",""2840""
","
","","[{""page_index"":0,""viewing_time"":9724.100000023842},{""page_index"":1,""viewing_time"":10471.699999988079},{""page_index"":2,""viewing_time"":4558.699999988079},{""page_index"":3,""viewing_time"":11464.300000011921},{""page_index"":4,""viewing_time"":7269.300000011921}]","43488.5","","","","","","","","","","","","","","","","","","","","","","","",""
"pit-trial","59","615057","0.0-2.0-14.0-0.0","battery-v0.2","","""event"",""trial"",""time""
""fullscreenenter"",""1"",""2840""
""blur"",""2"",""8963""
""focus"",""2"",""16569""
","""event"",""trial"",""time""
""blur"",""2"",""8963""
","""event"",""trial"",""time""
""focus"",""2"",""16569""
","""event"",""trial"",""time""
""fullscreenenter"",""1"",""2840""
","
","","","499.10000002384186","","","12","9744","4319","&#9826;","elianto","#f73b6a7A","-1"," ","0","-10","[1351.8999999761581]","1","0","3","","","","","","","",""
"pit-trial","60","619913","0.0-2.0-14.0-1.0","battery-v0.2","","""event"",""trial"",""time""
""fullscreenenter"",""1"",""2840""
""blur"",""2"",""8963""
""focus"",""2"",""16569""
","""event"",""trial"",""time""
""blur"",""2"",""8963""
","""event"",""trial"",""time""
""focus"",""2"",""16569""
","""event"",""trial"",""time""
""fullscreenenter"",""1"",""2840""
","
","","","-1","","","12","9744","4319","&#9826;","elianto","#f73b6a7A","-1","-1","1","0","[]","0","0","3","","","","","","","",""
"pit-trial","61","624790","0.0-2.0-14.0-2.0","battery-v0.2","","""event"",""trial"",""time""
""fullscreenenter"",""1"",""2840""
""blur"",""2"",""8963""
""focus"",""2"",""16569""
","""event"",""trial"",""time""
""blur"",""2"",""8963""
","""event"",""trial"",""time""
""focus"",""2"",""16569""
","""event"",""trial"",""time""
""fullscreenenter"",""1"",""2840""
","
","","","-1","","","12","9744","4319","&#9826;","elianto","#f73b6a7A","-1","-1","1","0","[]","0","0","3","","","","","","","",""
"pit-trial","62","629660","0.0-2.0-14.0-3.0","battery-v0.2","","""event"",""trial"",""time""
""fullscreenenter"",""1"",""2840""
""blur"",""2"",""8963""
""focus"",""2"",""16569""
","""event"",""trial"",""time""
""blur"",""2"",""8963""
","""event"",""trial"",""time""
""focus"",""2"",""16569""
","""event"",""trial"",""time""
""fullscreenenter"",""1"",""2840""
","
","","","-1","","","12","9744","4319","&#9826;","elianto","#f73b6a7A","-1","-1","1","-10","[]","0","0","3","","","","","","","",""
"pit-trial","63","633113","0.0-2.0-14.0-4.0","battery-v0.2","","""event"",""trial"",""time""
""fullscreenenter"",""1"",""2840""
""blur"",""2"",""8963""
""focus"",""2"",""16569""
","""event"",""trial"",""time""
""blur"",""2"",""8963""
","""event"",""trial"",""time""
""focus"",""2"",""16569""
","""event"",""trial"",""time""
""fullscreenenter"",""1"",""2840""
","
","","","580.1999999880791","","","12","9744","4319","&#9826;","elianto","#f73b6a7A","-1"," ","0","-10","[1440.300000011921]","1","0","3","","","","","","","",""
"pit-trial","64","637568","0.0-2.0-14.1-0.1","battery-v0.2","","""event"",""trial"",""time""
""fullscreenenter"",""1"",""2840""
""blur"",""2"",""8963""
""focus"",""2"",""16569""
","""event"",""trial"",""time""
""blur"",""2"",""8963""
","""event"",""trial"",""time""
""focus"",""2"",""16569""
","""event"",""trial"",""time""
""fullscreenenter"",""1"",""2840""
","
","","","1591.1000000238419","","","12","9744","4319","&#9826;","elianto","#f73b6a7A","-1"," ","0","-10","[2444.5]","1","0","3","","","","","","","",""
"pit-trial","65","642430","0.0-2.0-14.1-1.1","battery-v0.2","","""event"",""trial"",""time""
""fullscreenenter"",""1"",""2840""
""blur"",""2"",""8963""
""focus"",""2"",""16569""
","""event"",""trial"",""time""
""blur"",""2"",""8963""
","""event"",""trial"",""time""
""focus"",""2"",""16569""
","""event"",""trial"",""time""
""fullscreenenter"",""1"",""2840""
","
","","","-1","","","12","9744","4319","&#9826;","elianto","#f73b6a7A","-1","-1","1","0","[]","0","0","3","","","","","","","",""
"pit-trial","66","647294","0.0-2.0-14.1-2.1","battery-v0.2","","""event"",""trial"",""time""
""fullscreenenter"",""1"",""2840""
""blur"",""2"",""8963""
""focus"",""2"",""16569""
","""event"",""trial"",""time""
""blur"",""2"",""8963""
","""event"",""trial"",""time""
""focus"",""2"",""16569""
","""event"",""trial"",""time""
""fullscreenenter"",""1"",""2840""
","
","","","-1","","","12","9744","4319","&#9826;","elianto","#f73b6a7A","-1","-1","1","0","[]","0","0","3","","","","","","","",""
"pit-trial","67","652151","0.0-2.0-14.1-3.1","battery-v0.2","","""event"",""trial"",""time""
""fullscreenenter"",""1"",""2840""
""blur"",""2"",""8963""
""focus"",""2"",""16569""
","""event"",""trial"",""time""
""blur"",""2"",""8963""
","""event"",""trial"",""time""
""focus"",""2"",""16569""
","""event"",""trial"",""time""
""fullscreenenter"",""1"",""2840""
","
","","","-1","","","12","9744","4319","&#9826;","elianto","#f73b6a7A","-1","-1","1","-10","[]","0","0","3","","","","","","","",""
"pit-trial","68","655569","0.0-2.0-14.1-4.1","battery-v0.2","","""event"",""trial"",""time""
""fullscreenenter"",""1"",""2840""
""blur"",""2"",""8963""
""focus"",""2"",""16569""
","""event"",""trial"",""time""
""blur"",""2"",""8963""
","""event"",""trial"",""time""
""focus"",""2"",""16569""
","""event"",""trial"",""time""
""fullscreenenter"",""1"",""2840""
","
","","","555.6999999880791","","","12","9744","4319","&#9826;","elianto","#f73b6a7A","-1"," ","0","-10","[1412.199999988079]","1","0","3","","","","","","","",""
"pit-trial","69","660437","0.0-2.0-14.2-0.2","battery-v0.2","","""event"",""trial"",""time""
""fullscreenenter"",""1"",""2840""
""blur"",""2"",""8963""
""focus"",""2"",""16569""
","""event"",""trial"",""time""
""blur"",""2"",""8963""
","""event"",""trial"",""time""
""focus"",""2"",""16569""
","""event"",""trial"",""time""
""fullscreenenter"",""1"",""2840""
","
","","","-1","","","12","9744","4319","&#9826;","elianto","#f73b6a7A","-1","-1","1","0","[]","0","0","3","","","","","","","",""
"pit-trial","70","665298","0.0-2.0-14.2-1.2","battery-v0.2","","""event"",""trial"",""time""
""fullscreenenter"",""1"",""2840""
""blur"",""2"",""8963""
""focus"",""2"",""16569""
","""event"",""trial"",""time""
""blur"",""2"",""8963""
","""event"",""trial"",""time""
""focus"",""2"",""16569""
","""event"",""trial"",""time""
""fullscreenenter"",""1"",""2840""
","
","","","-1","","","12","9744","4319","&#9826;","elianto","#f73b6a7A","-1","-1","1","0","[]","0","0","3","","","","","","","",""
"pit-trial","71","668994","0.0-2.0-14.2-2.2","battery-v0.2","","""event"",""trial"",""time""
""fullscreenenter"",""1"",""2840""
""blur"",""2"",""8963""
""focus"",""2"",""16569""
","""event"",""trial"",""time""
""blur"",""2"",""8963""
","""event"",""trial"",""time""
""focus"",""2"",""16569""
","""event"",""trial"",""time""
""fullscreenenter"",""1"",""2840""
","
","","","838.8999999761581","","","12","9744","4319","&#9826;","elianto","#f73b6a7A","-1"," ","0","-10","[1690.300000011921]","1","0","3","","","","","","","",""
"pit-trial","72","673856","0.0-2.0-14.2-3.2","battery-v0.2","","""event"",""trial"",""time""
""fullscreenenter"",""1"",""2840""
""blur"",""2"",""8963""
""focus"",""2"",""16569""
","""event"",""trial"",""time""
""blur"",""2"",""8963""
","""event"",""trial"",""time""
""focus"",""2"",""16569""
","""event"",""trial"",""time""
""fullscreenenter"",""1"",""2840""
","
","","","-1","","","12","9744","4319","&#9826;","elianto","#f73b6a7A","-1","-1","1","-10","[]","0","0","3","","","","","","","",""
"pit-trial","73","678716","0.0-2.0-14.2-4.2","battery-v0.2","","""event"",""trial"",""time""
""fullscreenenter"",""1"",""2840""
""blur"",""2"",""8963""
""focus"",""2"",""16569""
","""event"",""trial"",""time""
""blur"",""2"",""8963""
","""event"",""trial"",""time""
""focus"",""2"",""16569""
","""event"",""trial"",""time""
""fullscreenenter"",""1"",""2840""
","
","","","-1","","","12","9744","4319","&#9826;","elianto","#f73b6a7A","-1","-1","1","0","[3082.600000023842]","1","0","3","","","","","","","",""
"pit-trial","74","683577","0.0-2.0-14.3-0.3","battery-v0.2","","""event"",""trial"",""time""
""fullscreenenter"",""1"",""2840""
""blur"",""2"",""8963""
""focus"",""2"",""16569""
","""event"",""trial"",""time""
""blur"",""2"",""8963""
","""event"",""trial"",""time""
""focus"",""2"",""16569""
","""event"",""trial"",""time""
""fullscreenenter"",""1"",""2840""
","
","","","-1","","","12","9744","4319","&#9826;","elianto","#f73b6a7A","-1","-1","1","0","[]","0","0","3","","","","","","","",""
"pit-trial","75","688446","0.0-2.0-14.3-1.3","battery-v0.2","","""event"",""trial"",""time""
""fullscreenenter"",""1"",""2840""
""blur"",""2"",""8963""
""focus"",""2"",""16569""
","""event"",""trial"",""time""
""blur"",""2"",""8963""
","""event"",""trial"",""time""
""focus"",""2"",""16569""
","""event"",""trial"",""time""
""fullscreenenter"",""1"",""2840""
","
","","","-1","","","12","9744","4319","&#9826;","elianto","#f73b6a7A","-1","-1","1","0","[]","0","0","3","","","","","","","",""
"pit-trial","76","693305","0.0-2.0-14.3-2.3","battery-v0.2","","""event"",""trial"",""time""
""fullscreenenter"",""1"",""2840""
""blur"",""2"",""8963""
""focus"",""2"",""16569""
","""event"",""trial"",""time""
""blur"",""2"",""8963""
","""event"",""trial"",""time""
""focus"",""2"",""16569""
","""event"",""trial"",""time""
""fullscreenenter"",""1"",""2840""
","
","","","-1","","","12","9744","4319","&#9826;","elianto","#f73b6a7A","-1","-1","1","0","[]","0","0","3","","","","","","","",""
"pit-trial","77","698162","0.0-2.0-14.3-3.3","battery-v0.2","","""event"",""trial"",""time""
""fullscreenenter"",""1"",""2840""
""blur"",""2"",""8963""
""focus"",""2"",""16569""
","""event"",""trial"",""time""
""blur"",""2"",""8963""
","""event"",""trial"",""time""
""focus"",""2"",""16569""
","""event"",""trial"",""time""
""fullscreenenter"",""1"",""2840""
","
","","","-1","","","12","9744","4319","&#9826;","elianto","#f73b6a7A","-1","-1","1","-10","[]","0","0","3","","","","","","","",""
"pit-trial","78","703018","0.0-2.0-14.3-4.3","battery-v0.2","","""event"",""trial"",""time""
""fullscreenenter"",""1"",""2840""
""blur"",""2"",""8963""
""focus"",""2"",""16569""
","""event"",""trial"",""time""
""blur"",""2"",""8963""
","""event"",""trial"",""time""
""focus"",""2"",""16569""
","""event"",""trial"",""time""
""fullscreenenter"",""1"",""2840""
","
","","","-1","","","12","9744","4319","&#9826;","elianto","#f73b6a7A","-1","-1","1","0","[]","0","0","3","","","","","","","",""
"call-function","79","703020","0.0-2.0-15.0","battery-v0.2","","""event"",""trial"",""time""
""fullscreenenter"",""1"",""2840""
""blur"",""2"",""8963""
""focus"",""2"",""16569""
","""event"",""trial"",""time""
""blur"",""2"",""8963""
","""event"",""trial"",""time""
""focus"",""2"",""16569""
","""event"",""trial"",""time""
""fullscreenenter"",""1"",""2840""
","
","","","","","","","","","","","","","","","","","","","","","","","","","","",""
"pit-instructions","80","737183","0.0-2.0-16.0","battery-v0.2","","""event"",""trial"",""time""
""fullscreenenter"",""1"",""2840""
""blur"",""2"",""8963""
""focus"",""2"",""16569""
","""event"",""trial"",""time""
""blur"",""2"",""8963""
","""event"",""trial"",""time""
""focus"",""2"",""16569""
","""event"",""trial"",""time""
""fullscreenenter"",""1"",""2840""
","
","","[{""page_index"":0,""viewing_time"":11951.800000011921},{""page_index"":1,""viewing_time"":10274},{""page_index"":2,""viewing_time"":5631},{""page_index"":3,""viewing_time"":6305.199999988079}]","34162.40000003576","","","","","","","","","","","","","","","","","","","","","","","",""
"pit-trial","81","740539","0.0-2.0-17.0-0.0","battery-v0.2","","""event"",""trial"",""time""
""fullscreenenter"",""1"",""2840""
""blur"",""2"",""8963""
""focus"",""2"",""16569""
","""event"",""trial"",""time""
""blur"",""2"",""8963""
","""event"",""trial"",""time""
""focus"",""2"",""16569""
","""event"",""trial"",""time""
""fullscreenenter"",""1"",""2840""
","
","","","498.2000000476837","","","12","9744","4319","&#9789;","elianto","#f73b6a7A"," "," ","1","0","[1348.4000000357628]","1","0","4","","","","","","","",""
"pit-trial","82","743746","0.0-2.0-17.0-1.0","battery-v0.2","","""event"",""trial"",""time""
""fullscreenenter"",""1"",""2840""
""blur"",""2"",""8963""
""focus"",""2"",""16569""
","""event"",""trial"",""time""
""blur"",""2"",""8963""
","""event"",""trial"",""time""
""focus"",""2"",""16569""
","""event"",""trial"",""time""
""fullscreenenter"",""1"",""2840""
","
","","","345.7999999523163","","","12","9744","4319","&#9789;","elianto","#f73b6a7A"," "," ","1","0","[1199.5]","1","0","4","","","","","","","",""
"pit-trial","83","747184","0.0-2.0-17.0-2.0","battery-v0.2","","""event"",""trial"",""time""
""fullscreenenter"",""1"",""2840""
""blur"",""2"",""8963""
""focus"",""2"",""16569""
","""event"",""trial"",""time""
""blur"",""2"",""8963""
","""event"",""trial"",""time""
""focus"",""2"",""16569""
","""event"",""trial"",""time""
""fullscreenenter"",""1"",""2840""
","
","","","572.5","","","12","9744","4319","&#9789;","elianto","#f73b6a7A"," "," ","1","0","[1425.3999999761581]","1","0","4","","","","","","","",""
"pit-trial","84","750330","0.0-2.0-17.0-3.0","battery-v0.2","","""event"",""trial"",""time""
""fullscreenenter"",""1"",""2840""
""blur"",""2"",""8963""
""focus"",""2"",""16569""
","""event"",""trial"",""time""
""blur"",""2"",""8963""
","""event"",""trial"",""time""
""focus"",""2"",""16569""
","""event"",""trial"",""time""
""fullscreenenter"",""1"",""2840""
","
","","","273.69999998807907","","","12","9744","4319","&#9789;","elianto","#f73b6a7A"," "," ","1","-10","[1132]","1","0","4","","","","","","","",""
"pit-trial","85","753682","0.0-2.0-17.0-4.0","battery-v0.2","","""event"",""trial"",""time""
""fullscreenenter"",""1"",""2840""
""blur"",""2"",""8963""
""focus"",""2"",""16569""
","""event"",""trial"",""time""
""blur"",""2"",""8963""
","""event"",""trial"",""time""
""focus"",""2"",""16569""
","""event"",""trial"",""time""
""fullscreenenter"",""1"",""2840""
","
","","","490.39999997615814","","","12","9744","4319","&#9789;","elianto","#f73b6a7A"," "," ","1","0","[1344.5999999642372]","1","0","4","","","","","","","",""
"pit-trial","86","756968","0.0-2.0-17.1-0.1","battery-v0.2","","""event"",""trial"",""time""
""fullscreenenter"",""1"",""2840""
""blur"",""2"",""8963""
""focus"",""2"",""16569""
","""event"",""trial"",""time""
""blur"",""2"",""8963""
","""event"",""trial"",""time""
""focus"",""2"",""16569""
","""event"",""trial"",""time""
""fullscreenenter"",""1"",""2840""
","
","","","411.5","","","12","9744","4319","&#9789;","elianto","#f73b6a7A"," "," ","1","0","[1263.6000000238419]","1","0","4","","","","","","","",""
"pit-trial","87","760094","0.0-2.0-17.1-1.1","battery-v0.2","","""event"",""trial"",""time""
""fullscreenenter"",""1"",""2840""
""blur"",""2"",""8963""
""focus"",""2"",""16569""
","""event"",""trial"",""time""
""blur"",""2"",""8963""
","""event"",""trial"",""time""
""focus"",""2"",""16569""
","""event"",""trial"",""time""
""fullscreenenter"",""1"",""2840""
","
","","","261.30000001192093","","","12","9744","4319","&#9789;","elianto","#f73b6a7A"," "," ","1","0","[1121.5]","1","0","4","","","","","","","",""
"pit-trial","88","763256","0.0-2.0-17.1-2.1","battery-v0.2","","""event"",""trial"",""time""
""fullscreenenter"",""1"",""2840""
""blur"",""2"",""8963""
""focus"",""2"",""16569""
","""event"",""trial"",""time""
""blur"",""2"",""8963""
","""event"",""trial"",""time""
""focus"",""2"",""16569""
","""event"",""trial"",""time""
""fullscreenenter"",""1"",""2840""
","
","","","294.19999998807907","","","12","9744","4319","&#9789;","elianto","#f73b6a7A"," "," ","1","0","[1145.4000000357628]","1","0","4","","","","","","","",""
"pit-trial","89","766317","0.0-2.0-17.1-3.1","battery-v0.2","","""event"",""trial"",""time""
""fullscreenenter"",""1"",""2840""
""blur"",""2"",""8963""
""focus"",""2"",""16569""
","""event"",""trial"",""time""
""blur"",""2"",""8963""
","""event"",""trial"",""time""
""focus"",""2"",""16569""
","""event"",""trial"",""time""
""fullscreenenter"",""1"",""2840""
","
","","","204.39999997615814","","","12","9744","4319","&#9789;","elianto","#f73b6a7A"," "," ","1","-10","[1056.199999988079]","1","0","4","","","","","","","",""
"pit-trial","90","769460","0.0-2.0-17.1-4.1","battery-v0.2","","""event"",""trial"",""time""
""fullscreenenter"",""1"",""2840""
""blur"",""2"",""8963""
""focus"",""2"",""16569""
","""event"",""trial"",""time""
""blur"",""2"",""8963""
","""event"",""trial"",""time""
""focus"",""2"",""16569""
","""event"",""trial"",""time""
""fullscreenenter"",""1"",""2840""
","
","","","285.5","","","12","9744","4319","&#9789;","elianto","#f73b6a7A"," "," ","1","0","[1136.300000011921]","1","0","4","","","","","","","",""
"pit-trial","91","772564","0.0-2.0-17.2-0.2","battery-v0.2","","""event"",""trial"",""time""
""fullscreenenter"",""1"",""2840""
""blur"",""2"",""8963""
""focus"",""2"",""16569""
","""event"",""trial"",""time""
""blur"",""2"",""8963""
","""event"",""trial"",""time""
""focus"",""2"",""16569""
","""event"",""trial"",""time""
""fullscreenenter"",""1"",""2840""
","
","","","241.89999997615814","","","12","9744","4319","&#9789;","elianto","#f73b6a7A"," "," ","1","0","[1092.699999988079]","1","0","4","","","","","","","",""
"pit-trial","92","775938","0.0-2.0-17.2-1.2","battery-v0.2","","""event"",""trial"",""time""
""fullscreenenter"",""1"",""2840""
""blur"",""2"",""8963""
""focus"",""2"",""16569""
","""event"",""trial"",""time""
""blur"",""2"",""8963""
","""event"",""trial"",""time""
""focus"",""2"",""16569""
","""event"",""trial"",""time""
""fullscreenenter"",""1"",""2840""
","
","","","516.5","","","12","9744","4319","&#9789;","elianto","#f73b6a7A"," "," ","1","0","[1367.8999999761581]","1","0","4","","","","","","","",""
"pit-trial","93","779560","0.0-2.0-17.2-2.2","battery-v0.2","","""event"",""trial"",""time""
""fullscreenenter"",""1"",""2840""
""blur"",""2"",""8963""
""focus"",""2"",""16569""
","""event"",""trial"",""time""
""blur"",""2"",""8963""
","""event"",""trial"",""time""
""focus"",""2"",""16569""
","""event"",""trial"",""time""
""fullscreenenter"",""1"",""2840""
","
","","","768.3999999761581","","","12","9744","4319","&#9789;","elianto","#f73b6a7A"," "," ","1","0","[1619.5]","1","0","4","","","","","","","",""
"pit-trial","94","782568","0.0-2.0-17.2-3.2","battery-v0.2","","""event"",""trial"",""time""
""fullscreenenter"",""1"",""2840""
""blur"",""2"",""8963""
""focus"",""2"",""16569""
","""event"",""trial"",""time""
""blur"",""2"",""8963""
","""event"",""trial"",""time""
""focus"",""2"",""16569""
","""event"",""trial"",""time""
""fullscreenenter"",""1"",""2840""
","
","","","142.69999998807907","","","12","9744","4319","&#9789;","elianto","#f73b6a7A"," "," ","1","-10","[358.39999997615814,1004.1999999880791]","2","0","4","","","","","","","",""
"pit-trial","95","785678","0.0-2.0-17.2-4.2","battery-v0.2","","""event"",""trial"",""time""
""fullscreenenter"",""1"",""2840""
""blur"",""2"",""8963""
""focus"",""2"",""16569""
","""event"",""trial"",""time""
""blur"",""2"",""8963""
","""event"",""trial"",""time""
""focus"",""2"",""16569""
","""event"",""trial"",""time""
""fullscreenenter"",""1"",""2840""
","
","","","245.60000002384186","","","12","9744","4319","&#9789;","elianto","#f73b6a7A"," "," ","1","0","[1098.699999988079]","1","0","4","","","","","","","",""
"pit-trial","96","788813","0.0-2.0-17.3-0.3","battery-v0.2","","""event"",""trial"",""time""
""fullscreenenter"",""1"",""2840""
""blur"",""2"",""8963""
""focus"",""2"",""16569""
","""event"",""trial"",""time""
""blur"",""2"",""8963""
","""event"",""trial"",""time""
""focus"",""2"",""16569""
","""event"",""trial"",""time""
""fullscreenenter"",""1"",""2840""
","
","","","273.89999997615814","","","12","9744","4319","&#9789;","elianto","#f73b6a7A"," "," ","1","0","[1127.7999999523163]","1","0","4","","","","","","","",""
"pit-trial","97","791906","0.0-2.0-17.3-1.3","battery-v0.2","","""event"",""trial"",""time""
""fullscreenenter"",""1"",""2840""
""blur"",""2"",""8963""
""focus"",""2"",""16569""
","""event"",""trial"",""time""
""blur"",""2"",""8963""
","""event"",""trial"",""time""
""focus"",""2"",""16569""
","""event"",""trial"",""time""
""fullscreenenter"",""1"",""2840""
","
","","","232.10000002384186","","","12","9744","4319","&#9789;","elianto","#f73b6a7A"," "," ","1","0","[1090.1000000238419]","1","0","4","","","","","","","",""
"pit-trial","98","795083","0.0-2.0-17.3-2.3","battery-v0.2","","""event"",""trial"",""time""
""fullscreenenter"",""1"",""2840""
""blur"",""2"",""8963""
""focus"",""2"",""16569""
","""event"",""trial"",""time""
""blur"",""2"",""8963""
","""event"",""trial"",""time""
""focus"",""2"",""16569""
","""event"",""trial"",""time""
""fullscreenenter"",""1"",""2840""
","
","","","312.80000001192093","","","12","9744","4319","&#9789;","elianto","#f73b6a7A"," "," ","1","0","[1169.1000000238419]","1","0","4","","","","","","","",""
"pit-trial","99","798450","0.0-2.0-17.3-3.3","battery-v0.2","","""event"",""trial"",""time""
""fullscreenenter"",""1"",""2840""
""blur"",""2"",""8963""
""focus"",""2"",""16569""
","""event"",""trial"",""time""
""blur"",""2"",""8963""
","""event"",""trial"",""time""
""focus"",""2"",""16569""
","""event"",""trial"",""time""
""fullscreenenter"",""1"",""2840""
","
","","","511.2999999523163","","","12","9744","4319","&#9789;","elianto","#f73b6a7A"," "," ","1","-10","[1361.699999988079]","1","0","4","","","","","","","",""
"pit-trial","100","801910","0.0-2.0-17.3-4.3","battery-v0.2","","""event"",""trial"",""time""
""fullscreenenter"",""1"",""2840""
""blur"",""2"",""8963""
""focus"",""2"",""16569""
","""event"",""trial"",""time""
""blur"",""2"",""8963""
","""event"",""trial"",""time""
""focus"",""2"",""16569""
","""event"",""trial"",""time""
""fullscreenenter"",""1"",""2840""
","
","","","600.5999999642372","","","12","9744","4319","&#9789;","elianto","#f73b6a7A"," "," ","1","0","[1452.3999999761581]","1","0","4","","","","","","","",""
"call-function","101","801913","0.0-2.0-18.0","battery-v0.2","","""event"",""trial"",""time""
""fullscreenenter"",""1"",""2840""
""blur"",""2"",""8963""
""focus"",""2"",""16569""
","""event"",""trial"",""time""
""blur"",""2"",""8963""
","""event"",""trial"",""time""
""focus"",""2"",""16569""
","""event"",""trial"",""time""
""fullscreenenter"",""1"",""2840""
","
","","","","","","","","","","","","","","","","","","","","","","","","","","",""
"pit-instructions","102","880623","0.0-2.0-19.0","battery-v0.2","","""event"",""trial"",""time""
""fullscreenenter"",""1"",""2840""
""blur"",""2"",""8963""
""focus"",""2"",""16569""
","""event"",""trial"",""time""
""blur"",""2"",""8963""
","""event"",""trial"",""time""
""focus"",""2"",""16569""
","""event"",""trial"",""time""
""fullscreenenter"",""1"",""2840""
","
","","[{""page_index"":0,""viewing_time"":8441.199999988079},{""page_index"":1,""viewing_time"":6166.800000011921},{""page_index"":2,""viewing_time"":14691.699999988079},{""page_index"":3,""viewing_time"":7762.100000023842},{""page_index"":4,""viewing_time"":10939.099999964237},{""page_index"":5,""viewing_time"":9376.900000035763},{""page_index"":6,""viewing_time"":9635.299999952316},{""page_index"":7,""viewing_time"":7172.100000023842},{""page_index"":8,""viewing_time"":4524.600000023842}]","78710.5","","","","","","","","","","","","","","","","","","","","","","","",""
"pit-comprehension","103","887297","0.0-2.0-20.0-0.0","battery-v0.2","","""event"",""trial"",""time""
""fullscreenenter"",""1"",""2840""
""blur"",""2"",""8963""
""focus"",""2"",""16569""
","""event"",""trial"",""time""
""blur"",""2"",""8963""
","""event"",""trial"",""time""
""focus"",""2"",""16569""
","""event"",""trial"",""time""
""fullscreenenter"",""1"",""2840""
","
","","","6663.399999976158","[""SPACE""]","0","12","9744","4319","","","","","","","","","","","","","","","","","","",""
"pit-instructions","104","890009","0.0-2.0-20.0-1.0","battery-v0.2","","""event"",""trial"",""time""
""fullscreenenter"",""1"",""2840""
""blur"",""2"",""8963""
""focus"",""2"",""16569""
","""event"",""trial"",""time""
""blur"",""2"",""8963""
","""event"",""trial"",""time""
""focus"",""2"",""16569""
","""event"",""trial"",""time""
""fullscreenenter"",""1"",""2840""
","
","","[{""page_index"":0,""viewing_time"":2636.800000011921}]","2637.399999976158","","","","","","","","","","","","","","","","","","","","","","","",""
"pit-comprehension","105","896533","0.0-2.0-21.0-0.0","battery-v0.2","","""event"",""trial"",""time""
""fullscreenenter"",""1"",""2840""
""blur"",""2"",""8963""
""focus"",""2"",""16569""
","""event"",""trial"",""time""
""blur"",""2"",""8963""
","""event"",""trial"",""time""
""focus"",""2"",""16569""
","""event"",""trial"",""time""
""fullscreenenter"",""1"",""2840""
","
","","","6515.099999964237","[""10""]","0","12","9744","4319","","","","","","","","","","","","","","","","","","",""
"pit-instructions","106","898688","0.0-2.0-21.0-1.0","battery-v0.2","","""event"",""trial"",""time""
""fullscreenenter"",""1"",""2840""
""blur"",""2"",""8963""
""focus"",""2"",""16569""
","""event"",""trial"",""time""
""blur"",""2"",""8963""
","""event"",""trial"",""time""
""focus"",""2"",""16569""
","""event"",""trial"",""time""
""fullscreenenter"",""1"",""2840""
","
","","[{""page_index"":0,""viewing_time"":2088.300000011921}]","2088.899999976158","","","","","","","","","","","","","","","","","","","","","","","",""
"pit-comprehension","107","906462","0.0-2.0-22.0-0.0","battery-v0.2","","""event"",""trial"",""time""
""fullscreenenter"",""1"",""2840""
""blur"",""2"",""8963""
""focus"",""2"",""16569""
","""event"",""trial"",""time""
""blur"",""2"",""8963""
","""event"",""trial"",""time""
""focus"",""2"",""16569""
","""event"",""trial"",""time""
""fullscreenenter"",""1"",""2840""
","
","","","7765.899999976158","[""0""]","0","12","9744","4319","","","","","","","","","","","","","","","","","","",""
"pit-instructions","108","909143","0.0-2.0-22.0-1.0","battery-v0.2","","""event"",""trial"",""time""
""fullscreenenter"",""1"",""2840""
""blur"",""2"",""8963""
""focus"",""2"",""16569""
","""event"",""trial"",""time""
""blur"",""2"",""8963""
","""event"",""trial"",""time""
""focus"",""2"",""16569""
","""event"",""trial"",""time""
""fullscreenenter"",""1"",""2840""
","
","","[{""page_index"":0,""viewing_time"":2617.300000011921}]","2617.7000000476837","","","","","","","","","","","","","","","","","","","","","","","",""
"pit-comprehension","109","921545","0.0-2.0-23.0-0.0","battery-v0.2","","""event"",""trial"",""time""
""fullscreenenter"",""1"",""2840""
""blur"",""2"",""8963""
""focus"",""2"",""16569""
","""event"",""trial"",""time""
""blur"",""2"",""8963""
","""event"",""trial"",""time""
""focus"",""2"",""16569""
","""event"",""trial"",""time""
""fullscreenenter"",""1"",""2840""
","
","","","12392.699999988079","[""True""]","0","12","9744","4319","","","","","","","","","","","","","","","","","","",""
"pit-instructions","110","923866","0.0-2.0-23.0-1.0","battery-v0.2","","""event"",""trial"",""time""
""fullscreenenter"",""1"",""2840""
""blur"",""2"",""8963""
""focus"",""2"",""16569""
","""event"",""trial"",""time""
""blur"",""2"",""8963""
","""event"",""trial"",""time""
""focus"",""2"",""16569""
","""event"",""trial"",""time""
""fullscreenenter"",""1"",""2840""
","
","","[{""page_index"":0,""viewing_time"":2257.800000011921}]","2258.300000011921","","","","","","","","","","","","","","","","","","","","","","","",""
"pit-comprehension","111","934201","0.0-2.0-24.0-0.0","battery-v0.2","","""event"",""trial"",""time""
""fullscreenenter"",""1"",""2840""
""blur"",""2"",""8963""
""focus"",""2"",""16569""
","""event"",""trial"",""time""
""blur"",""2"",""8963""
","""event"",""trial"",""time""
""focus"",""2"",""16569""
","""event"",""trial"",""time""
""fullscreenenter"",""1"",""2840""
","
","","","10325.699999988079","[""True""]","0","12","9744","4319","","","","","","","","","","","","","","","","","","",""
"pit-instructions","112","936912","0.0-2.0-24.0-1.0","battery-v0.2","","""event"",""trial"",""time""
""fullscreenenter"",""1"",""2840""
""blur"",""2"",""8963""
""focus"",""2"",""16569""
","""event"",""trial"",""time""
""blur"",""2"",""8963""
","""event"",""trial"",""time""
""focus"",""2"",""16569""
","""event"",""trial"",""time""
""fullscreenenter"",""1"",""2840""
","
","","[{""page_index"":0,""viewing_time"":2641.800000011921}]","2642.300000011921","","","","","","","","","","","","","","","","","","","","","","","",""
"pit-comprehension","113","955644","0.0-2.0-25.0-0.0","battery-v0.2","","""event"",""trial"",""time""
""fullscreenenter"",""1"",""2840""
""blur"",""2"",""8963""
""focus"",""2"",""16569""
","""event"",""trial"",""time""
""blur"",""2"",""8963""
","""event"",""trial"",""time""
""focus"",""2"",""16569""
","""event"",""trial"",""time""
""fullscreenenter"",""1"",""2840""
","
","","","18722.700000047684","[""True""]","0","12","9744","4319","","","","","","","","","","","","","","","","","","",""
"pit-instructions","114","957389","0.0-2.0-25.0-1.0","battery-v0.2","","""event"",""trial"",""time""
""fullscreenenter"",""1"",""2840""
""blur"",""2"",""8963""
""focus"",""2"",""16569""
","""event"",""trial"",""time""
""blur"",""2"",""8963""
","""event"",""trial"",""time""
""focus"",""2"",""16569""
","""event"",""trial"",""time""
""fullscreenenter"",""1"",""2840""
","
","","[{""page_index"":0,""viewing_time"":1679.3999999761581}]","1680","","","","","","","","","","","","","","","","","","","","","","","",""
"pit-comprehension","115","964317","0.0-2.0-26.0-0.0","battery-v0.2","","""event"",""trial"",""time""
""fullscreenenter"",""1"",""2840""
""blur"",""2"",""8963""
""focus"",""2"",""16569""
","""event"",""trial"",""time""
""blur"",""2"",""8963""
","""event"",""trial"",""time""
""focus"",""2"",""16569""
","""event"",""trial"",""time""
""fullscreenenter"",""1"",""2840""
","
","","","6918.399999976158","[""True""]","1","12","9744","4319","","","","","","","","","","","","","","","","","","",""
"pit-instructions","116","968858","0.0-2.0-26.0-1.0","battery-v0.2","","""event"",""trial"",""time""
""fullscreenenter"",""1"",""2840""
""blur"",""2"",""8963""
""focus"",""2"",""16569""
","""event"",""trial"",""time""
""blur"",""2"",""8963""
","""event"",""trial"",""time""
""focus"",""2"",""16569""
","""event"",""trial"",""time""
""fullscreenenter"",""1"",""2840""
","
","","[{""page_index"":0,""viewing_time"":4475.900000035763}]","4477.400000035763","","","","","","","","","","","","","","","","","","","","","","","",""
"pit-instructions","117","970368","0.0-2.0-26.0-2.0-0.0","battery-v0.2","","""event"",""trial"",""time""
""fullscreenenter"",""1"",""2840""
""blur"",""2"",""8963""
""focus"",""2"",""16569""
","""event"",""trial"",""time""
""blur"",""2"",""8963""
","""event"",""trial"",""time""
""focus"",""2"",""16569""
","""event"",""trial"",""time""
""fullscreenenter"",""1"",""2840""
","
","","[{""page_index"":0,""viewing_time"":1504.8999999761581}]","1505.3999999761581","","","","","","","","","","","","","","","","","","","","","","","",""
"pit-comprehension","118","974777","0.0-2.0-26.1-0.1","battery-v0.2","","""event"",""trial"",""time""
""fullscreenenter"",""1"",""2840""
""blur"",""2"",""8963""
""focus"",""2"",""16569""
","""event"",""trial"",""time""
""blur"",""2"",""8963""
","""event"",""trial"",""time""
""focus"",""2"",""16569""
","""event"",""trial"",""time""
""fullscreenenter"",""1"",""2840""
","
","","","4402.099999964237","[""False""]","0","12","9744","4319","","","","","","","","","","","","","","","","","","",""
"pit-instructions","119","976513","0.0-2.0-26.1-1.1","battery-v0.2","","""event"",""trial"",""time""
""fullscreenenter"",""1"",""2840""
""blur"",""2"",""8963""
""focus"",""2"",""16569""
","""event"",""trial"",""time""
""blur"",""2"",""8963""
","""event"",""trial"",""time""
""focus"",""2"",""16569""
","""event"",""trial"",""time""
""fullscreenenter"",""1"",""2840""
","
","","[{""page_index"":0,""viewing_time"":1667.0999999642372}]","1667.3999999761581","","","","","","","","","","","","","","","","","","","","","","","",""
"pit-instructions","120","994401","0.0-3.0","battery-v0.2","","""event"",""trial"",""time""
""fullscreenenter"",""1"",""2840""
""blur"",""2"",""8963""
""focus"",""2"",""16569""
","""event"",""trial"",""time""
""blur"",""2"",""8963""
","""event"",""trial"",""time""
""focus"",""2"",""16569""
","""event"",""trial"",""time""
""fullscreenenter"",""1"",""2840""
","
","","[{""page_index"":0,""viewing_time"":4516.300000011921},{""page_index"":1,""viewing_time"":5866.300000011921},{""page_index"":2,""viewing_time"":7502}]","17885.200000047684","","","","","","","","","","","","","","","","","","","","","","","",""
"pit-trial","121","998191","0.0-4.0","battery-v0.2","","""event"",""trial"",""time""
""fullscreenenter"",""1"",""2840""
""blur"",""2"",""8963""
""focus"",""2"",""16569""
","""event"",""trial"",""time""
""blur"",""2"",""8963""
","""event"",""trial"",""time""
""focus"",""2"",""16569""
","""event"",""trial"",""time""
""fullscreenenter"",""1"",""2840""
","
","","","909.0999999642372","","","12","9744","4319","&#9728;","elianto","#f73b6a7A","-1"," ","0","-10","[1766.8999999761581]","1","1","","","9744","1","0","4","lose","no-go","0"
"pit-trial","122","1001613","0.0-5.0","battery-v0.2","","""event"",""trial"",""time""
""fullscreenenter"",""1"",""2840""
""blur"",""2"",""8963""
""focus"",""2"",""16569""
","""event"",""trial"",""time""
""blur"",""2"",""8963""
","""event"",""trial"",""time""
""focus"",""2"",""16569""
","""event"",""trial"",""time""
""fullscreenenter"",""1"",""2840""
","
","","","560.1999999880791","","","12","9744","4319","&#9733;","elianto","#3366ff99","-1"," ","0","+10","[1413.699999988079]","1","1","","","9744","2","2","2","win","no-go","1"
"pit-trial","123","1006485","0.0-6.0","battery-v0.2","","""event"",""trial"",""time""
""fullscreenenter"",""1"",""2840""
""blur"",""2"",""8963""
""focus"",""2"",""16569""
","""event"",""trial"",""time""
""blur"",""2"",""8963""
","""event"",""trial"",""time""
""focus"",""2"",""16569""
","""event"",""trial"",""time""
""fullscreenenter"",""1"",""2840""
","
","","","-1","","","12","9744","4319","&#9752;","elianto","#f73b6a7A"," ","-1","0","-10","[]","0","1","","","9744","3","3","3","lose","go","0"
"pit-trial","124","1010067","0.0-7.0","battery-v0.2","","""event"",""trial"",""time""
""fullscreenenter"",""1"",""2840""
""blur"",""2"",""8963""
""focus"",""2"",""16569""
","""event"",""trial"",""time""
""blur"",""2"",""8963""
","""event"",""trial"",""time""
""focus"",""2"",""16569""
","""event"",""trial"",""time""
""fullscreenenter"",""1"",""2840""
","
","","","719.5","","","12","9744","4319","&#9730;","elianto","#3366ff99"," "," ","1","+10","[1570.2000000476837]","1","1","","","9744","4","1","1","win","go","0"
"pit-trial","125","1013679","0.0-8.0","battery-v0.2","","""event"",""trial"",""time""
""fullscreenenter"",""1"",""2840""
""blur"",""2"",""8963""
""focus"",""2"",""16569""
","""event"",""trial"",""time""
""blur"",""2"",""8963""
","""event"",""trial"",""time""
""focus"",""2"",""16569""
","""event"",""trial"",""time""
""fullscreenenter"",""1"",""2840""
","
","","","739.1000000238419","","","12","9744","4319","&#9752;","elianto","#f73b6a7A"," "," ","1","0","[1593.5]","1","1","","","9744","5","3","3","lose","go","0"
"pit-trial","126","1017257","0.0-9.0","battery-v0.2","","""event"",""trial"",""time""
""fullscreenenter"",""1"",""2840""
""blur"",""2"",""8963""
""focus"",""2"",""16569""
","""event"",""trial"",""time""
""blur"",""2"",""8963""
","""event"",""trial"",""time""
""focus"",""2"",""16569""
","""event"",""trial"",""time""
""fullscreenenter"",""1"",""2840""
","
","","","717.0999999642372","","","12","9744","4319","&#9733;","elianto","#3366ff99","-1"," ","0","0","[1568.0999999642372]","1","1","","","9744","6","2","2","win","no-go","0"
"pit-trial","127","1020788","0.0-10.0","battery-v0.2","","""event"",""trial"",""time""
""fullscreenenter"",""1"",""2840""
""blur"",""2"",""8963""
""focus"",""2"",""16569""
","""event"",""trial"",""time""
""blur"",""2"",""8963""
","""event"",""trial"",""time""
""focus"",""2"",""16569""
","""event"",""trial"",""time""
""fullscreenenter"",""1"",""2840""
","
","","","663.6999999880791","","","12","9744","4319","&#9730;","elianto","#3366ff99"," "," ","1","+10","[1514.5999999642372]","1","1","","","9744","7","1","1","win","go","0"
"pit-trial","128","1024555","0.0-11.0","battery-v0.2","","""event"",""trial"",""time""
""fullscreenenter"",""1"",""2840""
""blur"",""2"",""8963""
""focus"",""2"",""16569""
","""event"",""trial"",""time""
""blur"",""2"",""8963""
","""event"",""trial"",""time""
""focus"",""2"",""16569""
","""event"",""trial"",""time""
""fullscreenenter"",""1"",""2840""
","
","","","893.1000000238419","","","12","9744","4319","&#9728;","elianto","#f73b6a7A","-1"," ","0","-10","[1750.800000011921]","1","1","","","9744","8","0","4","lose","no-go","0"
"pit-trial","129","1028217","0.0-12.0","battery-v0.2","","""event"",""trial"",""time""
""fullscreenenter"",""1"",""2840""
""blur"",""2"",""8963""
""focus"",""2"",""16569""
","""event"",""trial"",""time""
""blur"",""2"",""8963""
","""event"",""trial"",""time""
""focus"",""2"",""16569""
","""event"",""trial"",""time""
""fullscreenenter"",""1"",""2840""
","
","","","801.1000000238419","","","12","9744","4319","&#9752;","elianto","#f73b6a7A"," "," ","1","-10","[1656.199999988079]","1","1","","","9744","9","3","3","lose","go","1"
"pit-trial","130","1031759","0.0-13.0","battery-v0.2","","""event"",""trial"",""time""
""fullscreenenter"",""1"",""2840""
""blur"",""2"",""8963""
""focus"",""2"",""16569""
","""event"",""trial"",""time""
""blur"",""2"",""8963""
","""event"",""trial"",""time""
""focus"",""2"",""16569""
","""event"",""trial"",""time""
""fullscreenenter"",""1"",""2840""
","
","","","675.1999999880791","","","12","9744","4319","&#9730;","elianto","#3366ff99"," "," ","1","+10","[1531.9000000357628]","1","1","","","9744","10","1","1","win","go","0"
"pit-trial","131","1035892","0.0-14.0","battery-v0.2","","""event"",""trial"",""time""
""fullscreenenter"",""1"",""2840""
""blur"",""2"",""8963""
""focus"",""2"",""16569""
","""event"",""trial"",""time""
""blur"",""2"",""8963""
","""event"",""trial"",""time""
""focus"",""2"",""16569""
","""event"",""trial"",""time""
""fullscreenenter"",""1"",""2840""
","
","","","1270.300000011921","","","12","9744","4319","&#9728;","elianto","#f73b6a7A","-1"," ","0","-10","[2121.199999988079]","1","1","","","9744","11","0","4","lose","no-go","0"
"pit-trial","132","1039362","0.0-15.0","battery-v0.2","","""event"",""trial"",""time""
""fullscreenenter"",""1"",""2840""
""blur"",""2"",""8963""
""focus"",""2"",""16569""
","""event"",""trial"",""time""
""blur"",""2"",""8963""
","""event"",""trial"",""time""
""focus"",""2"",""16569""
","""event"",""trial"",""time""
""fullscreenenter"",""1"",""2840""
","
","","","612","","","12","9744","4319","&#9733;","elianto","#3366ff99","-1"," ","0","0","[1463.0999999642372]","1","1","","","9744","12","2","2","win","no-go","0"
"pit-trial","133","1043151","0.0-16.0","battery-v0.2","","""event"",""trial"",""time""
""fullscreenenter"",""1"",""2840""
""blur"",""2"",""8963""
""focus"",""2"",""16569""
","""event"",""trial"",""time""
""blur"",""2"",""8963""
","""event"",""trial"",""time""
""focus"",""2"",""16569""
","""event"",""trial"",""time""
""fullscreenenter"",""1"",""2840""
","
","","","927.3000000119209","","","12","9744","4319","&#9730;","elianto","#3366ff99"," "," ","1","+10","[1778.199999988079]","1","1","","","9744","13","1","1","win","go","0"
"pit-trial","134","1046819","0.0-17.0","battery-v0.2","","""event"",""trial"",""time""
""fullscreenenter"",""1"",""2840""
""blur"",""2"",""8963""
""focus"",""2"",""16569""
","""event"",""trial"",""time""
""blur"",""2"",""8963""
","""event"",""trial"",""time""
""focus"",""2"",""16569""
","""event"",""trial"",""time""
""fullscreenenter"",""1"",""2840""
","
","","","806.3000000119209","","","12","9744","4319","&#9733;","elianto","#3366ff99","-1"," ","0","0","[1664.2000000476837]","1","1","","","9744","14","2","2","win","no-go","0"
"pit-trial","135","1051678","0.0-18.0","battery-v0.2","","""event"",""trial"",""time""
""fullscreenenter"",""1"",""2840""
""blur"",""2"",""8963""
""focus"",""2"",""16569""
","""event"",""trial"",""time""
""blur"",""2"",""8963""
","""event"",""trial"",""time""
""focus"",""2"",""16569""
","""event"",""trial"",""time""
""fullscreenenter"",""1"",""2840""
","
","","","1999.1000000238419","","","12","9744","4319","&#9752;","elianto","#f73b6a7A"," "," ","1","0","[2852.5]","1","1","","","9744","15","3","3","lose","go","0"
"pit-trial","136","1056539","0.0-19.0","battery-v0.2","","""event"",""trial"",""time""
""fullscreenenter"",""1"",""2840""
""blur"",""2"",""8963""
""focus"",""2"",""16569""
","""event"",""trial"",""time""
""blur"",""2"",""8963""
","""event"",""trial"",""time""
""focus"",""2"",""16569""
","""event"",""trial"",""time""
""fullscreenenter"",""1"",""2840""
","
","","","-1","","","12","9744","4319","&#9728;","elianto","#f73b6a7A","-1","-1","1","-10","[]","0","1","","","9744","16","0","4","lose","no-go","1"
"pit-trial","137","1059876","0.0-20.0","battery-v0.2","","""event"",""trial"",""time""
""fullscreenenter"",""1"",""2840""
""blur"",""2"",""8963""
""focus"",""2"",""16569""
","""event"",""trial"",""time""
""blur"",""2"",""8963""
","""event"",""trial"",""time""
""focus"",""2"",""16569""
","""event"",""trial"",""time""
""fullscreenenter"",""1"",""2840""
","
","","","476","","","12","9744","4319","&#9730;","elianto","#3366ff99"," "," ","1","+10","[1333.199999988079]","1","1","","","9744","17","1","1","win","go","0"
"pit-trial","138","1063794","0.0-21.0","battery-v0.2","","""event"",""trial"",""time""
""fullscreenenter"",""1"",""2840""
""blur"",""2"",""8963""
""focus"",""2"",""16569""
""blur"",""139"",""1063844""
""focus"",""139"",""1067682""
","""event"",""trial"",""time""
""blur"",""2"",""8963""
""blur"",""139"",""1063844""
","""event"",""trial"",""time""
""focus"",""2"",""16569""
""focus"",""139"",""1067682""
","""event"",""trial"",""time""
""fullscreenenter"",""1"",""2840""
","
","","","1060.300000011921","","","12","9744","4319","&#9728;","elianto","#f73b6a7A","-1"," ","0","-10","[1911.0999999642372]","1","1","","","9744","18","0","4","lose","no-go","0"
"pit-trial","139","1068659","0.0-22.0","battery-v0.2","","""event"",""trial"",""time""
""fullscreenenter"",""1"",""2840""
""blur"",""2"",""8963""
""focus"",""2"",""16569""
""blur"",""139"",""1063844""
""focus"",""139"",""1067682""
","""event"",""trial"",""time""
""blur"",""2"",""8963""
""blur"",""139"",""1063844""
","""event"",""trial"",""time""
""focus"",""2"",""16569""
""focus"",""139"",""1067682""
","""event"",""trial"",""time""
""fullscreenenter"",""1"",""2840""
","
","","","-1","","","12","9744","4319","&#9752;","elianto","#f73b6a7A"," ","-1","0","-10","[]","0","1","","","9744","19","3","3","lose","go","0"
"pit-trial","140","1072259","0.0-23.0","battery-v0.2","","""event"",""trial"",""time""
""fullscreenenter"",""1"",""2840""
""blur"",""2"",""8963""
""focus"",""2"",""16569""
""blur"",""139"",""1063844""
""focus"",""139"",""1067682""
","""event"",""trial"",""time""
""blur"",""2"",""8963""
""blur"",""139"",""1063844""
","""event"",""trial"",""time""
""focus"",""2"",""16569""
""focus"",""139"",""1067682""
","""event"",""trial"",""time""
""fullscreenenter"",""1"",""2840""
","
","","","742.7999999523163","","","12","9744","4319","&#9733;","elianto","#3366ff99","-1"," ","0","+10","[1593.300000011921]","1","1","","","9744","20","2","2","win","no-go","1"
"pit-instructions","141","1096205","0.0-24.0","battery-v0.2","","""event"",""trial"",""time""
""fullscreenenter"",""1"",""2840""
""blur"",""2"",""8963""
""focus"",""2"",""16569""
""blur"",""139"",""1063844""
""focus"",""139"",""1067682""
","""event"",""trial"",""time""
""blur"",""2"",""8963""
""blur"",""139"",""1063844""
","""event"",""trial"",""time""
""focus"",""2"",""16569""
""focus"",""139"",""1067682""
","""event"",""trial"",""time""
""fullscreenenter"",""1"",""2840""
","
","","[{""page_index"":0,""viewing_time"":11954.5},{""page_index"":1,""viewing_time"":11988.199999988079}]","23943.30000001192","","","","","","","","","","","","","","","","","","","","","","","",""
"pit-trial","142","1099871","0.0-25.0","battery-v0.2","","""event"",""trial"",""time""
""fullscreenenter"",""1"",""2840""
""blur"",""2"",""8963""
""focus"",""2"",""16569""
""blur"",""139"",""1063844""
""focus"",""139"",""1067682""
","""event"",""trial"",""time""
""blur"",""2"",""8963""
""blur"",""139"",""1063844""
","""event"",""trial"",""time""
""focus"",""2"",""16569""
""focus"",""139"",""1067682""
","""event"",""trial"",""time""
""fullscreenenter"",""1"",""2840""
","
","","","787","","","12","9744","4319","a","elianto","#f73b6a7A","-1"," ","0","0","[1642.3999999761581]","1","2","","","9744","21","2","4","lose","no-go","1"
"pit-trial","143","1103513","0.0-26.0","battery-v0.2","","""event"",""trial"",""time""
""fullscreenenter"",""1"",""2840""
""blur"",""2"",""8963""
""focus"",""2"",""16569""
""blur"",""139"",""1063844""
""focus"",""139"",""1067682""
","""event"",""trial"",""time""
""blur"",""2"",""8963""
""blur"",""139"",""1063844""
","""event"",""trial"",""time""
""focus"",""2"",""16569""
""focus"",""139"",""1067682""
","""event"",""trial"",""time""
""fullscreenenter"",""1"",""2840""
","
","","","785.5","","","12","9744","4319","u","elianto","#f73b6a7A","-1"," ","0","-10","[1635.699999988079]","1","2","","","9744","22","0","4","lose","no-go","0"
"pit-trial","144","1107197","0.0-27.0","battery-v0.2","","""event"",""trial"",""time""
""fullscreenenter"",""1"",""2840""
""blur"",""2"",""8963""
""focus"",""2"",""16569""
""blur"",""139"",""1063844""
""focus"",""139"",""1067682""
","""event"",""trial"",""time""
""blur"",""2"",""8963""
""blur"",""139"",""1063844""
","""event"",""trial"",""time""
""focus"",""2"",""16569""
""focus"",""139"",""1067682""
","""event"",""trial"",""time""
""fullscreenenter"",""1"",""2840""
","
","","","824.8000000119209","","","12","9744","4319","l","elianto","#3366ff99"," "," ","1","+10","[1675.2000000476837]","1","2","","","9744","23","1","1","win","go","0"
"pit-trial","145","1111214","0.0-28.0","battery-v0.2","","""event"",""trial"",""time""
""fullscreenenter"",""1"",""2840""
""blur"",""2"",""8963""
""focus"",""2"",""16569""
""blur"",""139"",""1063844""
""focus"",""139"",""1067682""
","""event"",""trial"",""time""
""blur"",""2"",""8963""
""blur"",""139"",""1063844""
","""event"",""trial"",""time""
""focus"",""2"",""16569""
""focus"",""139"",""1067682""
","""event"",""trial"",""time""
""fullscreenenter"",""1"",""2840""
","
","","","1149.0999999642372","","","12","9744","4319","g","elianto","#f73b6a7A"," "," ","1","0","[2009.199999988079]","1","2","","","9744","24","3","3","lose","go","0"
"pit-trial","146","1114962","0.0-29.0","battery-v0.2","","""event"",""trial"",""time""
""fullscreenenter"",""1"",""2840""
""blur"",""2"",""8963""
""focus"",""2"",""16569""
""blur"",""139"",""1063844""
""focus"",""139"",""1067682""
","""event"",""trial"",""time""
""blur"",""2"",""8963""
""blur"",""139"",""1063844""
","""event"",""trial"",""time""
""focus"",""2"",""16569""
""focus"",""139"",""1067682""
","""event"",""trial"",""time""
""fullscreenenter"",""1"",""2840""
","
","","","873.3999999761581","","","12","9744","4319","u","elianto","#f73b6a7A","-1"," ","0","0","[1735.7999999523163]","1","2","","","9744","25","0","4","lose","no-go","1"
"pit-trial","147","1119833","0.0-30.0","battery-v0.2","","""event"",""trial"",""time""
""fullscreenenter"",""1"",""2840""
""blur"",""2"",""8963""
""focus"",""2"",""16569""
""blur"",""139"",""1063844""
""focus"",""139"",""1067682""
","""event"",""trial"",""time""
""blur"",""2"",""8963""
""blur"",""139"",""1063844""
","""event"",""trial"",""time""
""focus"",""2"",""16569""
""focus"",""139"",""1067682""
","""event"",""trial"",""time""
""fullscreenenter"",""1"",""2840""
","
","","","-1","","","12","9744","4319","a","elianto","#f73b6a7A","-1","-1","1","0","[]","0","2","","","9744","26","2","4","lose","no-go","0"
"pit-trial","148","1123270","0.0-31.0","battery-v0.2","","""event"",""trial"",""time""
""fullscreenenter"",""1"",""2840""
""blur"",""2"",""8963""
""focus"",""2"",""16569""
""blur"",""139"",""1063844""
""focus"",""139"",""1067682""
","""event"",""trial"",""time""
""blur"",""2"",""8963""
""blur"",""139"",""1063844""
","""event"",""trial"",""time""
""focus"",""2"",""16569""
""focus"",""139"",""1067682""
","""event"",""trial"",""time""
""fullscreenenter"",""1"",""2840""
","
","","","574.7999999523163","","","12","9744","4319","g","elianto","#f73b6a7A"," "," ","1","0","[1427.699999988079]","1","2","","","9744","27","3","3","lose","go","0"
"pit-trial","149","1126668","0.0-32.0","battery-v0.2","","""event"",""trial"",""time""
""fullscreenenter"",""1"",""2840""
""blur"",""2"",""8963""
""focus"",""2"",""16569""
""blur"",""139"",""1063844""
""focus"",""139"",""1067682""
","""event"",""trial"",""time""
""blur"",""2"",""8963""
""blur"",""139"",""1063844""
","""event"",""trial"",""time""
""focus"",""2"",""16569""
""focus"",""139"",""1067682""
","""event"",""trial"",""time""
""fullscreenenter"",""1"",""2840""
","
","","","533","","","12","9744","4319","l","elianto","#3366ff99"," "," ","1","+10","[1393.5]","1","2","","","9744","28","1","1","win","go","0"
"pit-trial","150","1130117","0.0-33.0","battery-v0.2","","""event"",""trial"",""time""
""fullscreenenter"",""1"",""2840""
""blur"",""2"",""8963""
""focus"",""2"",""16569""
""blur"",""139"",""1063844""
""focus"",""139"",""1067682""
","""event"",""trial"",""time""
""blur"",""2"",""8963""
""blur"",""139"",""1063844""
","""event"",""trial"",""time""
""focus"",""2"",""16569""
""focus"",""139"",""1067682""
","""event"",""trial"",""time""
""fullscreenenter"",""1"",""2840""
","
","","","586.6000000238419","","","12","9744","4319","l","elianto","#3366ff99"," "," ","1","0","[1443.5]","1","2","","","9744","29","1","1","win","go","1"
"pit-trial","151","1133883","0.0-34.0","battery-v0.2","","""event"",""trial"",""time""
""fullscreenenter"",""1"",""2840""
""blur"",""2"",""8963""
""focus"",""2"",""16569""
""blur"",""139"",""1063844""
""focus"",""139"",""1067682""
","""event"",""trial"",""time""
""blur"",""2"",""8963""
""blur"",""139"",""1063844""
","""event"",""trial"",""time""
""focus"",""2"",""16569""
""focus"",""139"",""1067682""
","""event"",""trial"",""time""
""fullscreenenter"",""1"",""2840""
","
","","","908.6000000238419","","","12","9744","4319","a","elianto","#f73b6a7A","-1"," ","0","-10","[1761.5]","1","2","","","9744","30","2","4","lose","no-go","0"
"pit-trial","152","1137830","0.0-35.0","battery-v0.2","","""event"",""trial"",""time""
""fullscreenenter"",""1"",""2840""
""blur"",""2"",""8963""
""focus"",""2"",""16569""
""blur"",""139"",""1063844""
""focus"",""139"",""1067682""
","""event"",""trial"",""time""
""blur"",""2"",""8963""
""blur"",""139"",""1063844""
","""event"",""trial"",""time""
""focus"",""2"",""16569""
""focus"",""139"",""1067682""
","""event"",""trial"",""time""
""fullscreenenter"",""1"",""2840""
","
","","","1077","","","12","9744","4319","g","elianto","#f73b6a7A"," "," ","1","-10","[1938.699999988079]","1","2","","","9744","31","3","3","lose","go","1"
"pit-trial","153","1142691","0.0-36.0","battery-v0.2","","""event"",""trial"",""time""
""fullscreenenter"",""1"",""2840""
""blur"",""2"",""8963""
""focus"",""2"",""16569""
""blur"",""139"",""1063844""
""focus"",""139"",""1067682""
","""event"",""trial"",""time""
""blur"",""2"",""8963""
""blur"",""139"",""1063844""
","""event"",""trial"",""time""
""focus"",""2"",""16569""
""focus"",""139"",""1067682""
","""event"",""trial"",""time""
""fullscreenenter"",""1"",""2840""
","
","","","-1","","","12","9744","4319","u","elianto","#f73b6a7A","-1","-1","1","0","[]","0","2","","","9744","32","0","4","lose","no-go","0"
"pit-trial","154","1146170","0.0-37.0","battery-v0.2","","""event"",""trial"",""time""
""fullscreenenter"",""1"",""2840""
""blur"",""2"",""8963""
""focus"",""2"",""16569""
""blur"",""139"",""1063844""
""focus"",""139"",""1067682""
","""event"",""trial"",""time""
""blur"",""2"",""8963""
""blur"",""139"",""1063844""
","""event"",""trial"",""time""
""focus"",""2"",""16569""
""focus"",""139"",""1067682""
","""event"",""trial"",""time""
""fullscreenenter"",""1"",""2840""
","
","","","617.5","","","12","9744","4319","g","elianto","#f73b6a7A"," "," ","1","0","[1472.699999988079]","1","2","","","9744","33","3","3","lose","go","0"
"pit-trial","155","1149935","0.0-38.0","battery-v0.2","","""event"",""trial"",""time""
""fullscreenenter"",""1"",""2840""
""blur"",""2"",""8963""
""focus"",""2"",""16569""
""blur"",""139"",""1063844""
""focus"",""139"",""1067682""
","""event"",""trial"",""time""
""blur"",""2"",""8963""
""blur"",""139"",""1063844""
","""event"",""trial"",""time""
""focus"",""2"",""16569""
""focus"",""139"",""1067682""
","""event"",""trial"",""time""
""fullscreenenter"",""1"",""2840""
","
","","","904.7999999523163","","","12","9744","4319","u","elianto","#f73b6a7A","-1"," ","0","-10","[1761.0999999642372]","1","2","","","9744","34","0","4","lose","no-go","0"
"pit-trial","156","1153775","0.0-39.0","battery-v0.2","","""event"",""trial"",""time""
""fullscreenenter"",""1"",""2840""
""blur"",""2"",""8963""
""focus"",""2"",""16569""
""blur"",""139"",""1063844""
""focus"",""139"",""1067682""
","""event"",""trial"",""time""
""blur"",""2"",""8963""
""blur"",""139"",""1063844""
","""event"",""trial"",""time""
""focus"",""2"",""16569""
""focus"",""139"",""1067682""
","""event"",""trial"",""time""
""fullscreenenter"",""1"",""2840""
","
","","","970.7999999523163","","","12","9744","4319","l","elianto","#3366ff99"," "," ","1","+10","[1823.2999999523163]","1","2","","","9744","35","1","1","win","go","0"
"pit-trial","157","1157278","0.0-40.0","battery-v0.2","","""event"",""trial"",""time""
""fullscreenenter"",""1"",""2840""
""blur"",""2"",""8963""
""focus"",""2"",""16569""
""blur"",""139"",""1063844""
""focus"",""139"",""1067682""
","""event"",""trial"",""time""
""blur"",""2"",""8963""
""blur"",""139"",""1063844""
","""event"",""trial"",""time""
""focus"",""2"",""16569""
""focus"",""139"",""1067682""
","""event"",""trial"",""time""
""fullscreenenter"",""1"",""2840""
","
","","","641.5","","","12","9744","4319","a","elianto","#f73b6a7A","-1"," ","0","0","[1493.8999999761581]","1","2","","","9744","36","2","4","lose","no-go","1"
"pit-trial","158","1160634","0.0-41.0","battery-v0.2","","""event"",""trial"",""time""
""fullscreenenter"",""1"",""2840""
""blur"",""2"",""8963""
""focus"",""2"",""16569""
""blur"",""139"",""1063844""
""focus"",""139"",""1067682""
","""event"",""trial"",""time""
""blur"",""2"",""8963""
""blur"",""139"",""1063844""
","""event"",""trial"",""time""
""focus"",""2"",""16569""
""focus"",""139"",""1067682""
","""event"",""trial"",""time""
""fullscreenenter"",""1"",""2840""
","
","","","492.7999999523163","","","12","9744","4319","a","elianto","#f73b6a7A","-1"," ","0","-10","[1346.5]","1","2","","","9744","37","2","4","lose","no-go","0"
"pit-trial","159","1165403","0.0-42.0","battery-v0.2","","""event"",""trial"",""time""
""fullscreenenter"",""1"",""2840""
""blur"",""2"",""8963""
""focus"",""2"",""16569""
""blur"",""139"",""1063844""
""focus"",""139"",""1067682""
","""event"",""trial"",""time""
""blur"",""2"",""8963""
""blur"",""139"",""1063844""
","""event"",""trial"",""time""
""focus"",""2"",""16569""
""focus"",""139"",""1067682""
","""event"",""trial"",""time""
""fullscreenenter"",""1"",""2840""
","
","","","1904.699999988079","","","12","9744","4319","u","elianto","#f73b6a7A","-1"," ","0","-10","[2758.100000023842]","1","2","","","9744","38","0","4","lose","no-go","0"
"pit-trial","160","1168861","0.0-43.0","battery-v0.2","","""event"",""trial"",""time""
""fullscreenenter"",""1"",""2840""
""blur"",""2"",""8963""
""focus"",""2"",""16569""
""blur"",""139"",""1063844""
""focus"",""139"",""1067682""
","""event"",""trial"",""time""
""blur"",""2"",""8963""
""blur"",""139"",""1063844""
","""event"",""trial"",""time""
""focus"",""2"",""16569""
""focus"",""139"",""1067682""
","""event"",""trial"",""time""
""fullscreenenter"",""1"",""2840""
","
","","","593.3999999761581","","","12","9744","4319","l","elianto","#3366ff99"," "," ","1","0","[1448.699999988079]","1","2","","","9744","39","1","1","win","go","1"
"pit-trial","161","1172297","0.0-44.0","battery-v0.2","","""event"",""trial"",""time""
""fullscreenenter"",""1"",""2840""
""blur"",""2"",""8963""
""focus"",""2"",""16569""
""blur"",""139"",""1063844""
""focus"",""139"",""1067682""
","""event"",""trial"",""time""
""blur"",""2"",""8963""
""blur"",""139"",""1063844""
","""event"",""trial"",""time""
""focus"",""2"",""16569""
""focus"",""139"",""1067682""
","""event"",""trial"",""time""
""fullscreenenter"",""1"",""2840""
","
","","","577.1000000238419","","","12","9744","4319","g","elianto","#f73b6a7A"," "," ","1","0","[1431.3999999761581]","1","2","","","9744","40","3","3","lose","go","0"
"pit-trial","162","1175741","0.0-45.0","battery-v0.2","","""event"",""trial"",""time""
""fullscreenenter"",""1"",""2840""
""blur"",""2"",""8963""
""focus"",""2"",""16569""
""blur"",""139"",""1063844""
""focus"",""139"",""1067682""
","""event"",""trial"",""time""
""blur"",""2"",""8963""
""blur"",""139"",""1063844""
","""event"",""trial"",""time""
""focus"",""2"",""16569""
""focus"",""139"",""1067682""
","""event"",""trial"",""time""
""fullscreenenter"",""1"",""2840""
","
","","","589.8999999761581","","","12","9744","4319","g","elianto","#f73b6a7A"," "," ","1","-10","[1440.0999999642372]","1","2","","","9744","41","3","3","lose","go","1"
"pit-trial","163","1179058","0.0-46.0","battery-v0.2","","""event"",""trial"",""time""
""fullscreenenter"",""1"",""2840""
""blur"",""2"",""8963""
""focus"",""2"",""16569""
""blur"",""139"",""1063844""
""focus"",""139"",""1067682""
","""event"",""trial"",""time""
""blur"",""2"",""8963""
""blur"",""139"",""1063844""
","""event"",""trial"",""time""
""focus"",""2"",""16569""
""focus"",""139"",""1067682""
","""event"",""trial"",""time""
""fullscreenenter"",""1"",""2840""
","
","","","460.9000000357628","","","12","9744","4319","l","elianto","#3366ff99"," "," ","1","+10","[1313.4000000357628]","1","2","","","9744","42","1","1","win","go","0"
"pit-trial","164","1183915","0.0-47.0","battery-v0.2","","""event"",""trial"",""time""
""fullscreenenter"",""1"",""2840""
""blur"",""2"",""8963""
""focus"",""2"",""16569""
""blur"",""139"",""1063844""
""focus"",""139"",""1067682""
","""event"",""trial"",""time""
""blur"",""2"",""8963""
""blur"",""139"",""1063844""
","""event"",""trial"",""time""
""focus"",""2"",""16569""
""focus"",""139"",""1067682""
","""event"",""trial"",""time""
""fullscreenenter"",""1"",""2840""
","
","","","-1","","","12","9744","4319","u","elianto","#f73b6a7A","-1","-1","1","0","[]","0","2","","","9744","43","0","4","lose","no-go","0"
"pit-trial","165","1187000","0.0-48.0","battery-v0.2","","""event"",""trial"",""time""
""fullscreenenter"",""1"",""2840""
""blur"",""2"",""8963""
""focus"",""2"",""16569""
""blur"",""139"",""1063844""
""focus"",""139"",""1067682""
","""event"",""trial"",""time""
""blur"",""2"",""8963""
""blur"",""139"",""1063844""
","""event"",""trial"",""time""
""focus"",""2"",""16569""
""focus"",""139"",""1067682""
","""event"",""trial"",""time""
""fullscreenenter"",""1"",""2840""
","
","","","208.4000000357628","","","12","9744","4319","a","elianto","#f73b6a7A","-1"," ","0","-10","[227.5999999642372,1074]","2","2","","","9744","44","2","4","lose","no-go","0"
"pit-trial","166","1190470","0.0-49.0","battery-v0.2","","""event"",""trial"",""time""
""fullscreenenter"",""1"",""2840""
""blur"",""2"",""8963""
""focus"",""2"",""16569""
""blur"",""139"",""1063844""
""focus"",""139"",""1067682""
","""event"",""trial"",""time""
""blur"",""2"",""8963""
""blur"",""139"",""1063844""
","""event"",""trial"",""time""
""focus"",""2"",""16569""
""focus"",""139"",""1067682""
","""event"",""trial"",""time""
""fullscreenenter"",""1"",""2840""
","
","","","609.8000000119209","","","12","9744","4319","u","elianto","#f73b6a7A","-1"," ","0","-10","[1466.5999999642372]","1","2","","","9744","45","0","4","lose","no-go","0"
"pit-trial","167","1193910","0.0-50.0","battery-v0.2","","""event"",""trial"",""time""
""fullscreenenter"",""1"",""2840""
""blur"",""2"",""8963""
""focus"",""2"",""16569""
""blur"",""139"",""1063844""
""focus"",""139"",""1067682""
","""event"",""trial"",""time""
""blur"",""2"",""8963""
""blur"",""139"",""1063844""
","""event"",""trial"",""time""
""focus"",""2"",""16569""
""focus"",""139"",""1067682""
","""event"",""trial"",""time""
""fullscreenenter"",""1"",""2840""
","
","","","571.8000000119209","","","12","9744","4319","a","elianto","#f73b6a7A","-1"," ","0","-10","[1429.800000011921]","1","2","","","9744","46","2","4","lose","no-go","0"
"pit-trial","168","1198768","0.0-51.0","battery-v0.2","","""event"",""trial"",""time""
""fullscreenenter"",""1"",""2840""
""blur"",""2"",""8963""
""focus"",""2"",""16569""
""blur"",""139"",""1063844""
""focus"",""139"",""1067682""
","""event"",""trial"",""time""
""blur"",""2"",""8963""
""blur"",""139"",""1063844""
","""event"",""trial"",""time""
""focus"",""2"",""16569""
""focus"",""139"",""1067682""
","""event"",""trial"",""time""
""fullscreenenter"",""1"",""2840""
","
","","","-1","","","12","9744","4319","g","elianto","#f73b6a7A"," ","-1","0","0","[]","0","2","","","9744","47","3","3","lose","go","1"
"pit-trial","169","1202281","0.0-52.0","battery-v0.2","","""event"",""trial"",""time""
""fullscreenenter"",""1"",""2840""
""blur"",""2"",""8963""
""focus"",""2"",""16569""
""blur"",""139"",""1063844""
""focus"",""139"",""1067682""
","""event"",""trial"",""time""
""blur"",""2"",""8963""
""blur"",""139"",""1063844""
","""event"",""trial"",""time""
""focus"",""2"",""16569""
""focus"",""139"",""1067682""
","""event"",""trial"",""time""
""fullscreenenter"",""1"",""2840""
","
","","","651","","","12","9744","4319","p","elianto","#3366ff99","-1"," ","0","0","[1507.800000011921]","1","2","","","9744","48","4","2","win","no-go","0"
"pit-trial","170","1206251","0.0-53.0","battery-v0.2","","""event"",""trial"",""time""
""fullscreenenter"",""1"",""2840""
""blur"",""2"",""8963""
""focus"",""2"",""16569""
""blur"",""139"",""1063844""
""focus"",""139"",""1067682""
","""event"",""trial"",""time""
""blur"",""2"",""8963""
""blur"",""139"",""1063844""
","""event"",""trial"",""time""
""focus"",""2"",""16569""
""focus"",""139"",""1067682""
","""event"",""trial"",""time""
""fullscreenenter"",""1"",""2840""
","
","","","1102.5","","","12","9744","4319","u","elianto","#f73b6a7A","-1"," ","0","-10","[1960]","1","2","","","9744","49","0","4","lose","no-go","0"
"pit-trial","171","1209832","0.0-54.0","battery-v0.2","","""event"",""trial"",""time""
""fullscreenenter"",""1"",""2840""
""blur"",""2"",""8963""
""focus"",""2"",""16569""
""blur"",""139"",""1063844""
""focus"",""139"",""1067682""
","""event"",""trial"",""time""
""blur"",""2"",""8963""
""blur"",""139"",""1063844""
","""event"",""trial"",""time""
""focus"",""2"",""16569""
""focus"",""139"",""1067682""
","""event"",""trial"",""time""
""fullscreenenter"",""1"",""2840""
","
","","","715.3000000119209","","","12","9744","4319","g","elianto","#f73b6a7A"," "," ","1","-10","[1571.5]","1","2","","","9744","50","3","3","lose","go","1"
"pit-trial","172","1213164","0.0-55.0","battery-v0.2","","""event"",""trial"",""time""
""fullscreenenter"",""1"",""2840""
""blur"",""2"",""8963""
""focus"",""2"",""16569""
""blur"",""139"",""1063844""
""focus"",""139"",""1067682""
","""event"",""trial"",""time""
""blur"",""2"",""8963""
""blur"",""139"",""1063844""
","""event"",""trial"",""time""
""focus"",""2"",""16569""
""focus"",""139"",""1067682""
","""event"",""trial"",""time""
""fullscreenenter"",""1"",""2840""
","
","","","475.5999999642372","","","12","9744","4319","p","elianto","#3366ff99","-1"," ","0","0","[1327.5]","1","2","","","9744","51","4","2","win","no-go","0"
"pit-trial","173","1216629","0.0-56.0","battery-v0.2","","""event"",""trial"",""time""
""fullscreenenter"",""1"",""2840""
""blur"",""2"",""8963""
""focus"",""2"",""16569""
""blur"",""139"",""1063844""
""focus"",""139"",""1067682""
","""event"",""trial"",""time""
""blur"",""2"",""8963""
""blur"",""139"",""1063844""
","""event"",""trial"",""time""
""focus"",""2"",""16569""
""focus"",""139"",""1067682""
","""event"",""trial"",""time""
""fullscreenenter"",""1"",""2840""
","
","","","603.3000000119209","","","12","9744","4319","l","elianto","#3366ff99"," "," ","1","+10","[1456.2000000476837]","1","2","","","9744","52","1","1","win","go","0"
"pit-trial","174","1221490","0.0-57.0","battery-v0.2","","""event"",""trial"",""time""
""fullscreenenter"",""1"",""2840""
""blur"",""2"",""8963""
""focus"",""2"",""16569""
""blur"",""139"",""1063844""
""focus"",""139"",""1067682""
","""event"",""trial"",""time""
""blur"",""2"",""8963""
""blur"",""139"",""1063844""
","""event"",""trial"",""time""
""focus"",""2"",""16569""
""focus"",""139"",""1067682""
","""event"",""trial"",""time""
""fullscreenenter"",""1"",""2840""
","
","","","-1","","","12","9744","4319","u","elianto","#f73b6a7A","-1","-1","1","0","[]","0","2","","","9744","53","0","4","lose","no-go","0"
"pit-trial","175","1226356","0.0-58.0","battery-v0.2","","""event"",""trial"",""time""
""fullscreenenter"",""1"",""2840""
""blur"",""2"",""8963""
""focus"",""2"",""16569""
""blur"",""139"",""1063844""
""focus"",""139"",""1067682""
","""event"",""trial"",""time""
""blur"",""2"",""8963""
""blur"",""139"",""1063844""
","""event"",""trial"",""time""
""focus"",""2"",""16569""
""focus"",""139"",""1067682""
","""event"",""trial"",""time""
""fullscreenenter"",""1"",""2840""
","
","","","-1","","","12","9744","4319","p","elianto","#3366ff99","-1","-1","1","+10","[]","0","2","","","9744","54","4","2","win","no-go","0"
"pit-trial","176","1230233","0.0-59.0","battery-v0.2","","""event"",""trial"",""time""
""fullscreenenter"",""1"",""2840""
""blur"",""2"",""8963""
""focus"",""2"",""16569""
""blur"",""139"",""1063844""
""focus"",""139"",""1067682""
","""event"",""trial"",""time""
