"trial_type","trial_index","time_elapsed","internal_node_id","task_version","subject_id","interactions","blur_events","focus_events","fullscreenenter_events","fullscreenexit_events","success","view_history","rt","responses","num_errors","age","subject","participantId","rune","rune_set","hex","correct","choice","accuracy","outcome","keys","total_keys","block","practice","value","sub","trial","stimulus","robot","valence","action","sham"
"pavlovia","0","12","0.0-0.0","battery-v0.2","","""event"",""trial"",""time""
""fullscreenenter"",""1"",""4098""
","
","
","""event"",""trial"",""time""
""fullscreenenter"",""1"",""4098""
","
","","","","","","","","","","","","","","","","","","","","","","","","","","",""
"fullscreen","1","5026","0.0-1.0","battery-v0.2","","""event"",""trial"",""time""
""fullscreenenter"",""1"",""4098""
","
","
","""event"",""trial"",""time""
""fullscreenenter"",""1"",""4098""
","
","true","","","","","","","","","","","","","","","","","","","","","","","","","",""
"pit-instructions","2","9591","0.0-2.0-0.0","battery-v0.2","","""event"",""trial"",""time""
""fullscreenenter"",""1"",""4098""
","
","
","""event"",""trial"",""time""
""fullscreenenter"",""1"",""4098""
","
","","[{""page_index"":0,""viewing_time"":4558.10000000149}]","4558.60000000149","","","","","","","","","","","","","","","","","","","","","","","",""
"pit-comprehension","3","15469","0.0-2.0-1.0-0.0","battery-v0.2","","""event"",""trial"",""time""
""fullscreenenter"",""1"",""4098""
","
","
","""event"",""trial"",""time""
""fullscreenenter"",""1"",""4098""
","
","","","5861.0999999996275","[""shark""]","0","13","20582","7625","","","","","","","","","","","","","","","","","","",""
"pit-instructions","4","20240","0.0-2.0-1.0-1.0","battery-v0.2","","""event"",""trial"",""time""
""fullscreenenter"",""1"",""4098""
","
","
","""event"",""trial"",""time""
""fullscreenenter"",""1"",""4098""
","
","","[{""page_index"":0,""viewing_time"":4764.4000000003725}]","4764.700000001118","","","","","","","","","","","","","","","","","","","","","","","",""
"pit-comprehension","5","24885","0.0-2.0-2.0-0.0","battery-v0.2","","""event"",""trial"",""time""
""fullscreenenter"",""1"",""4098""
","
","
","""event"",""trial"",""time""
""fullscreenenter"",""1"",""4098""
","
","","","4639.800000000745","[""tiger""]","0","13","20582","7625","","","","","","","","","","","","","","","","","","",""
"pit-instructions","6","25719","0.0-2.0-2.0-1.0","battery-v0.2","","""event"",""trial"",""time""
""fullscreenenter"",""1"",""4098""
","
","
","""event"",""trial"",""time""
""fullscreenenter"",""1"",""4098""
","
","","[{""page_index"":0,""viewing_time"":828.9000000003725}]","829.9000000003725","","","","","","","","","","","","","","","","","","","","","","","",""
"pit-instructions","7","124591","0.0-2.0-3.0","battery-v0.2","","""event"",""trial"",""time""
""fullscreenenter"",""1"",""4098""
","
","
","""event"",""trial"",""time""
""fullscreenenter"",""1"",""4098""
","
","","[{""page_index"":0,""viewing_time"":8369},{""page_index"":1,""viewing_time"":6198.799999998882},{""page_index"":2,""viewing_time"":7052.0999999996275},{""page_index"":3,""viewing_time"":5699.9000000003725},{""page_index"":4,""viewing_time"":6536.200000001118},{""page_index"":5,""viewing_time"":6359.0999999996275},{""page_index"":6,""viewing_time"":7686.199999999255},{""page_index"":7,""viewing_time"":7136.300000000745},{""page_index"":8,""viewing_time"":7596},{""page_index"":9,""viewing_time"":8573.599999999627},{""page_index"":10,""viewing_time"":7422.0999999996275},{""page_index"":11,""viewing_time"":7823.300000000745},{""page_index"":12,""viewing_time"":6544.5999999996275},{""page_index"":13,""viewing_time"":5866.300000000745}]","98864.09999999963","","","","","","","","","","","","","","","","","","","","","","","",""
"pit-trial","8","127773","0.0-2.0-4.0-0.0","battery-v0.2","","""event"",""trial"",""time""
""fullscreenenter"",""1"",""4098""
","
","
","""event"",""trial"",""time""
""fullscreenenter"",""1"",""4098""
","
","","","327.80000000074506","","","13","20582","7625","&#9784;","elianto","#FFFFF080"," "," ","1","&#10004","[1177.9000000003725]","1","0","0","","","","","","","",""
"pit-trial","9","131104","0.0-2.0-4.1-0.1","battery-v0.2","","""event"",""trial"",""time""
""fullscreenenter"",""1"",""4098""
","
","
","""event"",""trial"",""time""
""fullscreenenter"",""1"",""4098""
","
","","","477.30000000074506","","","13","20582","7625","&#9784;","elianto","#FFFFF080"," "," ","1","&#10004","[1327.5]","1","0","0","","","","","","","",""
"pit-trial","10","134469","0.0-2.0-4.2-0.2","battery-v0.2","","""event"",""trial"",""time""
""fullscreenenter"",""1"",""4098""
","
","
","""event"",""trial"",""time""
""fullscreenenter"",""1"",""4098""
","
","","","510.09999999962747","","","13","20582","7625","&#9784;","elianto","#FFFFF080"," "," ","1","&#10004","[1360.5999999996275]","1","0","0","","","","","","","",""
"pit-trial","11","137918","0.0-2.0-4.3-0.3","battery-v0.2","","""event"",""trial"",""time""
""fullscreenenter"",""1"",""4098""
","
","
","""event"",""trial"",""time""
""fullscreenenter"",""1"",""4098""
","
","","","594.1999999992549","","","13","20582","7625","&#9784;","elianto","#FFFFF080"," "," ","1","&#10004","[1444.5,3201.9000000003725]","2","0","0","","","","","","","",""
"pit-trial","12","141444","0.0-2.0-4.4-0.4","battery-v0.2","","""event"",""trial"",""time""
""fullscreenenter"",""1"",""4098""
","
","
","""event"",""trial"",""time""
""fullscreenenter"",""1"",""4098""
","
","","","672.9000000003725","","","13","20582","7625","&#9784;","elianto","#FFFFF080"," "," ","1","&#10004","[1522.9000000003725]","1","0","0","","","","","","","",""
"pit-instructions","13","165150","0.0-2.0-5.0","battery-v0.2","","""event"",""trial"",""time""
""fullscreenenter"",""1"",""4098""
","
","
","""event"",""trial"",""time""
""fullscreenenter"",""1"",""4098""
","
","","[{""page_index"":0,""viewing_time"":5221.700000001118},{""page_index"":1,""viewing_time"":5161.9000000003725},{""page_index"":2,""viewing_time"":6599.89999999851},{""page_index"":3,""viewing_time"":6718.200000001118}]","23702.10000000149","","","","","","","","","","","","","","","","","","","","","","","",""
"pit-trial","14","170004","0.0-2.0-6.0-0.0","battery-v0.2","","""event"",""trial"",""time""
""fullscreenenter"",""1"",""4098""
","
","
","""event"",""trial"",""time""
""fullscreenenter"",""1"",""4098""
","
","","","-1","","","13","20582","7625","&#9854;","elianto","#FFFFF080","-1","-1","1","&#10004","[]","0","0","1","","","","","","","",""
"pit-trial","15","174857","0.0-2.0-6.1-0.1","battery-v0.2","","""event"",""trial"",""time""
""fullscreenenter"",""1"",""4098""
","
","
","""event"",""trial"",""time""
""fullscreenenter"",""1"",""4098""
","
","","","-1","","","13","20582","7625","&#9854;","elianto","#FFFFF080","-1","-1","1","&#10004","[]","0","0","1","","","","","","","",""
"pit-trial","16","179711","0.0-2.0-6.2-0.2","battery-v0.2","","""event"",""trial"",""time""
""fullscreenenter"",""1"",""4098""
","
","
","""event"",""trial"",""time""
""fullscreenenter"",""1"",""4098""
","
","","","-1","","","13","20582","7625","&#9854;","elianto","#FFFFF080","-1","-1","1","&#10004","[]","0","0","1","","","","","","","",""
"pit-trial","17","184564","0.0-2.0-6.3-0.3","battery-v0.2","","""event"",""trial"",""time""
""fullscreenenter"",""1"",""4098""
","
","
","""event"",""trial"",""time""
""fullscreenenter"",""1"",""4098""
","
","","","-1","","","13","20582","7625","&#9854;","elianto","#FFFFF080","-1","-1","1","&#10004","[]","0","0","1","","","","","","","",""
"pit-trial","18","189418","0.0-2.0-6.4-0.4","battery-v0.2","","""event"",""trial"",""time""
""fullscreenenter"",""1"",""4098""
","
","
","""event"",""trial"",""time""
""fullscreenenter"",""1"",""4098""
","
","","","-1","","","13","20582","7625","&#9854;","elianto","#FFFFF080","-1","-1","1","&#10004","[]","0","0","1","","","","","","","",""
"pit-instructions","19","326377","0.0-2.0-7.0","battery-v0.2","","""event"",""trial"",""time""
""fullscreenenter"",""1"",""4098""
","
","
","""event"",""trial"",""time""
""fullscreenenter"",""1"",""4098""
","
","","[{""page_index"":0,""viewing_time"":6768.5},{""page_index"":1,""viewing_time"":7402.5},{""page_index"":2,""viewing_time"":6748.700000001118},{""page_index"":3,""viewing_time"":7589.89999999851},{""page_index"":4,""viewing_time"":6456.300000000745},{""page_index"":5,""viewing_time"":6532.800000000745},{""page_index"":6,""viewing_time"":5721.89999999851},{""page_index"":7,""viewing_time"":8568.700000001118},{""page_index"":8,""viewing_time"":9606.099999999627},{""page_index"":9,""viewing_time"":9703},{""page_index"":10,""viewing_time"":8167.0999999996275},{""page_index"":11,""viewing_time"":7305.9000000003725},{""page_index"":12,""viewing_time"":6914.5999999996275},{""page_index"":13,""viewing_time"":10571.599999999627},{""page_index"":14,""viewing_time"":7655.700000001118},{""page_index"":15,""viewing_time"":6210.299999998882},{""page_index"":16,""viewing_time"":6972.10000000149},{""page_index"":17,""viewing_time"":8059.299999998882}]","136955.5","","","","","","","","","","","","","","","","","","","","","","","",""
"pit-trial","20","330019","0.0-2.0-8.0-0.0","battery-v0.2","","""event"",""trial"",""time""
""fullscreenenter"",""1"",""4098""
","
","
","""event"",""trial"",""time""
""fullscreenenter"",""1"",""4098""
","
","","","789.1000000014901","","","13","20582","7625","&#9776;","elianto","#3366ff99"," "," ","1","+10","[1639.5999999996275]","1","0","1","","","","","","","",""
"pit-trial","21","333603","0.0-2.0-8.0-1.0","battery-v0.2","","""event"",""trial"",""time""
""fullscreenenter"",""1"",""4098""
","
","
","""event"",""trial"",""time""
""fullscreenenter"",""1"",""4098""
","
","","","731.3000000007451","","","13","20582","7625","&#9776;","elianto","#3366ff99"," "," ","1","+10","[1581.300000000745]","1","0","1","","","","","","","",""
"pit-trial","22","337227","0.0-2.0-8.0-2.0","battery-v0.2","","""event"",""trial"",""time""
""fullscreenenter"",""1"",""4098""
","
","
","""event"",""trial"",""time""
""fullscreenenter"",""1"",""4098""
","
","","","771.4000000003725","","","13","20582","7625","&#9776;","elianto","#3366ff99"," "," ","1","+10","[1621.4000000003725]","1","0","1","","","","","","","",""
"pit-trial","23","340853","0.0-2.0-8.0-3.0","battery-v0.2","","""event"",""trial"",""time""
""fullscreenenter"",""1"",""4098""
","
","
","""event"",""trial"",""time""
""fullscreenenter"",""1"",""4098""
","
","","","773.3000000007451","","","13","20582","7625","&#9776;","elianto","#3366ff99"," "," ","1","0","[1623.300000000745]","1","0","1","","","","","","","",""
"pit-trial","24","344466","0.0-2.0-8.0-4.0","battery-v0.2","","""event"",""trial"",""time""
""fullscreenenter"",""1"",""4098""
","
","
","""event"",""trial"",""time""
""fullscreenenter"",""1"",""4098""
","
","","","759.3000000007451","","","13","20582","7625","&#9776;","elianto","#3366ff99"," "," ","1","+10","[1609.5999999996275]","1","0","1","","","","","","","",""
"pit-trial","25","348039","0.0-2.0-8.1-0.1","battery-v0.2","","""event"",""trial"",""time""
""fullscreenenter"",""1"",""4098""
","
","
","""event"",""trial"",""time""
""fullscreenenter"",""1"",""4098""
","
","","","720.8000000007451","","","13","20582","7625","&#9776;","elianto","#3366ff99"," "," ","1","+10","[1570.9000000003725]","1","0","1","","","","","","","",""
"pit-trial","26","351534","0.0-2.0-8.1-1.1","battery-v0.2","","""event"",""trial"",""time""
""fullscreenenter"",""1"",""4098""
","
","
","""event"",""trial"",""time""
""fullscreenenter"",""1"",""4098""
","
","","","642.2999999988824","","","13","20582","7625","&#9776;","elianto","#3366ff99"," "," ","1","+10","[1492.5999999996275]","1","0","1","","","","","","","",""
"pit-trial","27","354889","0.0-2.0-8.1-2.1","battery-v0.2","","""event"",""trial"",""time""
""fullscreenenter"",""1"",""4098""
","
","
","""event"",""trial"",""time""
""fullscreenenter"",""1"",""4098""
","
","","","502.59999999962747","","","13","20582","7625","&#9776;","elianto","#3366ff99"," "," ","1","+10","[1352.8999999985099]","1","0","1","","","","","","","",""
"pit-trial","28","358266","0.0-2.0-8.1-3.1","battery-v0.2","","""event"",""trial"",""time""
""fullscreenenter"",""1"",""4098""
","
","
","""event"",""trial"",""time""
""fullscreenenter"",""1"",""4098""
","
","","","523.9000000003725","","","13","20582","7625","&#9776;","elianto","#3366ff99"," "," ","1","0","[1374.199999999255]","1","0","1","","","","","","","",""
"pit-trial","29","361945","0.0-2.0-8.1-4.1","battery-v0.2","","""event"",""trial"",""time""
""fullscreenenter"",""1"",""4098""
","
","
","""event"",""trial"",""time""
""fullscreenenter"",""1"",""4098""
","
","","","824.9000000003725","","","13","20582","7625","&#9776;","elianto","#3366ff99"," "," ","1","+10","[1675.0999999996275]","1","0","1","","","","","","","",""
"pit-trial","30","365421","0.0-2.0-8.2-0.2","battery-v0.2","","""event"",""trial"",""time""
""fullscreenenter"",""1"",""4098""
","
","
","""event"",""trial"",""time""
""fullscreenenter"",""1"",""4098""
","
","","","622.5","","","13","20582","7625","&#9776;","elianto","#3366ff99"," "," ","1","+10","[1473.0999999996275]","1","0","1","","","","","","","",""
"pit-trial","31","368731","0.0-2.0-8.2-1.2","battery-v0.2","","""event"",""trial"",""time""
""fullscreenenter"",""1"",""4098""
","
","
","""event"",""trial"",""time""
""fullscreenenter"",""1"",""4098""
","
","","","456","","","13","20582","7625","&#9776;","elianto","#3366ff99"," "," ","1","+10","[1306.0999999996275]","1","0","1","","","","","","","",""
"pit-trial","32","372188","0.0-2.0-8.2-2.2","battery-v0.2","","""event"",""trial"",""time""
""fullscreenenter"",""1"",""4098""
","
","
","""event"",""trial"",""time""
""fullscreenenter"",""1"",""4098""
","
","","","602.4000000003725","","","13","20582","7625","&#9776;","elianto","#3366ff99"," "," ","1","+10","[1452.4000000003725]","1","0","1","","","","","","","",""
"pit-trial","33","375634","0.0-2.0-8.2-3.2","battery-v0.2","","""event"",""trial"",""time""
""fullscreenenter"",""1"",""4098""
","
","
","""event"",""trial"",""time""
""fullscreenenter"",""1"",""4098""
","
","","","591.1000000014901","","","13","20582","7625","&#9776;","elianto","#3366ff99"," "," ","1","0","[1441.199999999255]","1","0","1","","","","","","","",""
"pit-trial","34","379085","0.0-2.0-8.2-4.2","battery-v0.2","","""event"",""trial"",""time""
""fullscreenenter"",""1"",""4098""
","
","
","""event"",""trial"",""time""
""fullscreenenter"",""1"",""4098""
","
","","","598.7999999988824","","","13","20582","7625","&#9776;","elianto","#3366ff99"," "," ","1","+10","[1449]","1","0","1","","","","","","","",""
"call-function","35","379090","0.0-2.0-9.0","battery-v0.2","","""event"",""trial"",""time""
""fullscreenenter"",""1"",""4098""
","
","
","""event"",""trial"",""time""
""fullscreenenter"",""1"",""4098""
","
","","","","","","","","","","","","","","","","","","","","","","","","","","",""
"pit-instructions","36","424614","0.0-2.0-10.0","battery-v0.2","","""event"",""trial"",""time""
""fullscreenenter"",""1"",""4098""
","
","
","""event"",""trial"",""time""
""fullscreenenter"",""1"",""4098""
","
","","[{""page_index"":0,""viewing_time"":7682.300000000745},{""page_index"":1,""viewing_time"":7420.5999999996275},{""page_index"":2,""viewing_time"":9712.400000000373},{""page_index"":3,""viewing_time"":11336.39999999851},{""page_index"":4,""viewing_time"":9369.800000000745}]","45522.09999999963","","","","","","","","","","","","","","","","","","","","","","","",""
"pit-trial","37","428342","0.0-2.0-11.0-0.0","battery-v0.2","","""event"",""trial"",""time""
""fullscreenenter"",""1"",""4098""
","
","
","""event"",""trial"",""time""
""fullscreenenter"",""1"",""4098""
","
","","","875.9000000003725","","","13","20582","7625","&#9761;","elianto","#3366ff99","-1"," ","0","0","[1726]","1","0","2","","","","","","","",""
"pit-trial","38","432089","0.0-2.0-11.0-1.0","battery-v0.2","","""event"",""trial"",""time""
""fullscreenenter"",""1"",""4098""
","
","
","""event"",""trial"",""time""
""fullscreenenter"",""1"",""4098""
","
","","","894.6000000014901","","","13","20582","7625","&#9761;","elianto","#3366ff99","-1"," ","0","0","[1744.699999999255]","1","0","2","","","","","","","",""
"pit-trial","39","436942","0.0-2.0-11.0-2.0","battery-v0.2","","""event"",""trial"",""time""
""fullscreenenter"",""1"",""4098""
","
","
","""event"",""trial"",""time""
""fullscreenenter"",""1"",""4098""
","
","","","-1","","","13","20582","7625","&#9761;","elianto","#3366ff99","-1","-1","1","+10","[]","0","0","2","","","","","","","",""
"pit-trial","40","441795","0.0-2.0-11.0-3.0","battery-v0.2","","""event"",""trial"",""time""
""fullscreenenter"",""1"",""4098""
","
","
","""event"",""trial"",""time""
""fullscreenenter"",""1"",""4098""
","
","","","-1","","","13","20582","7625","&#9761;","elianto","#3366ff99","-1","-1","1","0","[]","0","0","2","","","","","","","",""
"pit-trial","41","446648","0.0-2.0-11.0-4.0","battery-v0.2","","""event"",""trial"",""time""
""fullscreenenter"",""1"",""4098""
","
","
","""event"",""trial"",""time""
""fullscreenenter"",""1"",""4098""
","
","","","-1","","","13","20582","7625","&#9761;","elianto","#3366ff99","-1","-1","1","+10","[]","0","0","2","","","","","","","",""
"pit-trial","42","451501","0.0-2.0-11.1-0.1","battery-v0.2","","""event"",""trial"",""time""
""fullscreenenter"",""1"",""4098""
","
","
","""event"",""trial"",""time""
""fullscreenenter"",""1"",""4098""
","
","","","-1","","","13","20582","7625","&#9761;","elianto","#3366ff99","-1","-1","1","+10","[]","0","0","2","","","","","","","",""
"pit-trial","43","456355","0.0-2.0-11.1-1.1","battery-v0.2","","""event"",""trial"",""time""
""fullscreenenter"",""1"",""4098""
","
","
","""event"",""trial"",""time""
""fullscreenenter"",""1"",""4098""
","
","","","-1","","","13","20582","7625","&#9761;","elianto","#3366ff99","-1","-1","1","+10","[]","0","0","2","","","","","","","",""
"pit-trial","44","461209","0.0-2.0-11.1-2.1","battery-v0.2","","""event"",""trial"",""time""
""fullscreenenter"",""1"",""4098""
","
","
","""event"",""trial"",""time""
""fullscreenenter"",""1"",""4098""
","
","","","-1","","","13","20582","7625","&#9761;","elianto","#3366ff99","-1","-1","1","+10","[]","0","0","2","","","","","","","",""
"pit-trial","45","464815","0.0-2.0-11.1-3.1","battery-v0.2","","""event"",""trial"",""time""
""fullscreenenter"",""1"",""4098""
","
","
","""event"",""trial"",""time""
""fullscreenenter"",""1"",""4098""
","
","","","748.5999999996275","","","13","20582","7625","&#9761;","elianto","#3366ff99","-1"," ","0","+10","[1600.3999999985099]","1","0","2","","","","","","","",""
"pit-trial","46","468467","0.0-2.0-11.1-4.1","battery-v0.2","","""event"",""trial"",""time""
""fullscreenenter"",""1"",""4098""
","
","
","""event"",""trial"",""time""
""fullscreenenter"",""1"",""4098""
","
","","","797.4000000003725","","","13","20582","7625","&#9761;","elianto","#3366ff99","-1"," ","0","0","[1647.699999999255]","1","0","2","","","","","","","",""
"pit-trial","47","471867","0.0-2.0-11.2-0.2","battery-v0.2","","""event"",""trial"",""time""
""fullscreenenter"",""1"",""4098""
","
","
","""event"",""trial"",""time""
""fullscreenenter"",""1"",""4098""
","
","","","544","","","13","20582","7625","&#9761;","elianto","#3366ff99","-1"," ","0","0","[1394.5]","1","0","2","","","","","","","",""
"pit-trial","48","475411","0.0-2.0-11.2-1.2","battery-v0.2","","""event"",""trial"",""time""
""fullscreenenter"",""1"",""4098""
","
","
","""event"",""trial"",""time""
""fullscreenenter"",""1"",""4098""
","
","","","691.2999999988824","","","13","20582","7625","&#9761;","elianto","#3366ff99","-1"," ","0","0","[1541.4000000003725]","1","0","2","","","","","","","",""
"pit-trial","49","479004","0.0-2.0-11.2-2.2","battery-v0.2","","""event"",""trial"",""time""
""fullscreenenter"",""1"",""4098""
","
","
","""event"",""trial"",""time""
""fullscreenenter"",""1"",""4098""
","
","","","738","","","13","20582","7625","&#9761;","elianto","#3366ff99","-1"," ","0","0","[1588.199999999255]","1","0","2","","","","","","","",""
"pit-trial","50","482315","0.0-2.0-11.2-3.2","battery-v0.2","","""event"",""trial"",""time""
""fullscreenenter"",""1"",""4098""
","
","
","""event"",""trial"",""time""
""fullscreenenter"",""1"",""4098""
","
","","","457","","","13","20582","7625","&#9761;","elianto","#3366ff99","-1"," ","0","+10","[1307.3999999985099]","1","0","2","","","","","","","",""
"pit-trial","51","485803","0.0-2.0-11.2-4.2","battery-v0.2","","""event"",""trial"",""time""
""fullscreenenter"",""1"",""4098""
","
","
","""event"",""trial"",""time""
""fullscreenenter"",""1"",""4098""
","
","","","634.9000000003725","","","13","20582","7625","&#9761;","elianto","#3366ff99","-1"," ","0","0","[1484.9000000003725]","1","0","2","","","","","","","",""
"pit-trial","52","489198","0.0-2.0-11.3-0.3","battery-v0.2","","""event"",""trial"",""time""
""fullscreenenter"",""1"",""4098""
","
","
","""event"",""trial"",""time""
""fullscreenenter"",""1"",""4098""
","
","","","540.7999999988824","","","13","20582","7625","&#9761;","elianto","#3366ff99","-1"," ","0","0","[1390.9000000003725]","1","0","2","","","","","","","",""
"pit-trial","53","492573","0.0-2.0-11.3-1.3","battery-v0.2","","""event"",""trial"",""time""
""fullscreenenter"",""1"",""4098""
","
","
","""event"",""trial"",""time""
""fullscreenenter"",""1"",""4098""
","
","","","520.5999999996275","","","13","20582","7625","&#9761;","elianto","#3366ff99","-1"," ","0","0","[1370.7000000011176]","1","0","2","","","","","","","",""
"pit-trial","54","496081","0.0-2.0-11.3-2.3","battery-v0.2","","""event"",""trial"",""time""
""fullscreenenter"",""1"",""4098""
","
","
","""event"",""trial"",""time""
""fullscreenenter"",""1"",""4098""
","
","","","655.0999999996275","","","13","20582","7625","&#9761;","elianto","#3366ff99","-1"," ","0","0","[1505]","1","0","2","","","","","","","",""
"pit-trial","55","499604","0.0-2.0-11.3-3.3","battery-v0.2","","""event"",""trial"",""time""
""fullscreenenter"",""1"",""4098""
","
","
","""event"",""trial"",""time""
""fullscreenenter"",""1"",""4098""
","
","","","668","","","13","20582","7625","&#9761;","elianto","#3366ff99","-1"," ","0","+10","[1518.199999999255]","1","0","2","","","","","","","",""
"pit-trial","56","503214","0.0-2.0-11.3-4.3","battery-v0.2","","""event"",""trial"",""time""
""fullscreenenter"",""1"",""4098""
","
","
","""event"",""trial"",""time""
""fullscreenenter"",""1"",""4098""
","
","","","756.5","","","13","20582","7625","&#9761;","elianto","#3366ff99","-1"," ","0","0","[1606.699999999255]","1","0","2","","","","","","","",""
"call-function","57","503219","0.0-2.0-12.0","battery-v0.2","","""event"",""trial"",""time""
""fullscreenenter"",""1"",""4098""
","
","
","""event"",""trial"",""time""
""fullscreenenter"",""1"",""4098""
","
","","","","","","","","","","","","","","","","","","","","","","","","","","",""
"pit-instructions","58","541229","0.0-2.0-13.0","battery-v0.2","","""event"",""trial"",""time""
""fullscreenenter"",""1"",""4098""
","
","
","""event"",""trial"",""time""
""fullscreenenter"",""1"",""4098""
","
","","[{""page_index"":0,""viewing_time"":7395.300000000745},{""page_index"":1,""viewing_time"":7880.0999999996275},{""page_index"":2,""viewing_time"":3969.5999999996275},{""page_index"":3,""viewing_time"":12652.900000000373},{""page_index"":4,""viewing_time"":6110.5999999996275}]","38008.800000000745","","","","","","","","","","","","","","","","","","","","","","","",""
"pit-trial","59","546082","0.0-2.0-14.0-0.0","battery-v0.2","","""event"",""trial"",""time""
""fullscreenenter"",""1"",""4098""
","
","
","""event"",""trial"",""time""
""fullscreenenter"",""1"",""4098""
","
","","","-1","","","13","20582","7625","&#9826;","elianto","#f73b6a7A","-1","-1","1","0","[]","0","0","3","","","","","","","",""
"pit-trial","60","550935","0.0-2.0-14.0-1.0","battery-v0.2","","""event"",""trial"",""time""
""fullscreenenter"",""1"",""4098""
","
","
","""event"",""trial"",""time""
""fullscreenenter"",""1"",""4098""
","
","","","-1","","","13","20582","7625","&#9826;","elianto","#f73b6a7A","-1","-1","1","0","[]","0","0","3","","","","","","","",""
"pit-trial","61","555790","0.0-2.0-14.0-2.0","battery-v0.2","","""event"",""trial"",""time""
""fullscreenenter"",""1"",""4098""
","
","
","""event"",""trial"",""time""
""fullscreenenter"",""1"",""4098""
","
","","","-1","","","13","20582","7625","&#9826;","elianto","#f73b6a7A","-1","-1","1","0","[]","0","0","3","","","","","","","",""
"pit-trial","62","560643","0.0-2.0-14.0-3.0","battery-v0.2","","""event"",""trial"",""time""
""fullscreenenter"",""1"",""4098""
","
","
","""event"",""trial"",""time""
""fullscreenenter"",""1"",""4098""
","
","","","-1","","","13","20582","7625","&#9826;","elianto","#f73b6a7A","-1","-1","1","-10","[]","0","0","3","","","","","","","",""
"pit-trial","63","565497","0.0-2.0-14.0-4.0","battery-v0.2","","""event"",""trial"",""time""
""fullscreenenter"",""1"",""4098""
","
","
","""event"",""trial"",""time""
""fullscreenenter"",""1"",""4098""
","
","","","-1","","","13","20582","7625","&#9826;","elianto","#f73b6a7A","-1","-1","1","0","[]","0","0","3","","","","","","","",""
"pit-trial","64","570352","0.0-2.0-14.1-0.1","battery-v0.2","","""event"",""trial"",""time""
""fullscreenenter"",""1"",""4098""
","
","
","""event"",""trial"",""time""
""fullscreenenter"",""1"",""4098""
","
","","","-1","","","13","20582","7625","&#9826;","elianto","#f73b6a7A","-1","-1","1","0","[]","0","0","3","","","","","","","",""
"pit-trial","65","575206","0.0-2.0-14.1-1.1","battery-v0.2","","""event"",""trial"",""time""
""fullscreenenter"",""1"",""4098""
","
","
","""event"",""trial"",""time""
""fullscreenenter"",""1"",""4098""
","
","","","-1","","","13","20582","7625","&#9826;","elianto","#f73b6a7A","-1","-1","1","0","[]","0","0","3","","","","","","","",""
"pit-trial","66","580061","0.0-2.0-14.1-2.1","battery-v0.2","","""event"",""trial"",""time""
""fullscreenenter"",""1"",""4098""
","
","
","""event"",""trial"",""time""
""fullscreenenter"",""1"",""4098""
","
","","","-1","","","13","20582","7625","&#9826;","elianto","#f73b6a7A","-1","-1","1","0","[]","0","0","3","","","","","","","",""
"pit-trial","67","584916","0.0-2.0-14.1-3.1","battery-v0.2","","""event"",""trial"",""time""
""fullscreenenter"",""1"",""4098""
","
","
","""event"",""trial"",""time""
""fullscreenenter"",""1"",""4098""
","
","","","-1","","","13","20582","7625","&#9826;","elianto","#f73b6a7A","-1","-1","1","-10","[]","0","0","3","","","","","","","",""
"pit-trial","68","589771","0.0-2.0-14.1-4.1","battery-v0.2","","""event"",""trial"",""time""
""fullscreenenter"",""1"",""4098""
","
","
","""event"",""trial"",""time""
""fullscreenenter"",""1"",""4098""
","
","","","-1","","","13","20582","7625","&#9826;","elianto","#f73b6a7A","-1","-1","1","0","[]","0","0","3","","","","","","","",""
"pit-trial","69","594625","0.0-2.0-14.2-0.2","battery-v0.2","","""event"",""trial"",""time""
""fullscreenenter"",""1"",""4098""
","
","
","""event"",""trial"",""time""
""fullscreenenter"",""1"",""4098""
","
","","","-1","","","13","20582","7625","&#9826;","elianto","#f73b6a7A","-1","-1","1","0","[]","0","0","3","","","","","","","",""
"pit-trial","70","599481","0.0-2.0-14.2-1.2","battery-v0.2","","""event"",""trial"",""time""
""fullscreenenter"",""1"",""4098""
","
","
","""event"",""trial"",""time""
""fullscreenenter"",""1"",""4098""
","
","","","-1","","","13","20582","7625","&#9826;","elianto","#f73b6a7A","-1","-1","1","0","[]","0","0","3","","","","","","","",""
"pit-trial","71","604335","0.0-2.0-14.2-2.2","battery-v0.2","","""event"",""trial"",""time""
""fullscreenenter"",""1"",""4098""
","
","
","""event"",""trial"",""time""
""fullscreenenter"",""1"",""4098""
","
","","","-1","","","13","20582","7625","&#9826;","elianto","#f73b6a7A","-1","-1","1","0","[]","0","0","3","","","","","","","",""
"pit-trial","72","609188","0.0-2.0-14.2-3.2","battery-v0.2","","""event"",""trial"",""time""
""fullscreenenter"",""1"",""4098""
","
","
","""event"",""trial"",""time""
""fullscreenenter"",""1"",""4098""
","
","","","-1","","","13","20582","7625","&#9826;","elianto","#f73b6a7A","-1","-1","1","-10","[]","0","0","3","","","","","","","",""
"pit-trial","73","614041","0.0-2.0-14.2-4.2","battery-v0.2","","""event"",""trial"",""time""
""fullscreenenter"",""1"",""4098""
","
","
","""event"",""trial"",""time""
""fullscreenenter"",""1"",""4098""
","
","","","-1","","","13","20582","7625","&#9826;","elianto","#f73b6a7A","-1","-1","1","0","[]","0","0","3","","","","","","","",""
"pit-trial","74","618898","0.0-2.0-14.3-0.3","battery-v0.2","","""event"",""trial"",""time""
""fullscreenenter"",""1"",""4098""
","
","
","""event"",""trial"",""time""
""fullscreenenter"",""1"",""4098""
","
","","","-1","","","13","20582","7625","&#9826;","elianto","#f73b6a7A","-1","-1","1","0","[]","0","0","3","","","","","","","",""
"pit-trial","75","623753","0.0-2.0-14.3-1.3","battery-v0.2","","""event"",""trial"",""time""
""fullscreenenter"",""1"",""4098""
","
","
","""event"",""trial"",""time""
""fullscreenenter"",""1"",""4098""
","
","","","-1","","","13","20582","7625","&#9826;","elianto","#f73b6a7A","-1","-1","1","0","[]","0","0","3","","","","","","","",""
"pit-trial","76","628608","0.0-2.0-14.3-2.3","battery-v0.2","","""event"",""trial"",""time""
""fullscreenenter"",""1"",""4098""
","
","
","""event"",""trial"",""time""
""fullscreenenter"",""1"",""4098""
","
","","","-1","","","13","20582","7625","&#9826;","elianto","#f73b6a7A","-1","-1","1","0","[]","0","0","3","","","","","","","",""
"pit-trial","77","633461","0.0-2.0-14.3-3.3","battery-v0.2","","""event"",""trial"",""time""
""fullscreenenter"",""1"",""4098""
","
","
","""event"",""trial"",""time""
""fullscreenenter"",""1"",""4098""
","
","","","-1","","","13","20582","7625","&#9826;","elianto","#f73b6a7A","-1","-1","1","-10","[]","0","0","3","","","","","","","",""
"pit-trial","78","638316","0.0-2.0-14.3-4.3","battery-v0.2","","""event"",""trial"",""time""
""fullscreenenter"",""1"",""4098""
","
","
","""event"",""trial"",""time""
""fullscreenenter"",""1"",""4098""
","
","","","-1","","","13","20582","7625","&#9826;","elianto","#f73b6a7A","-1","-1","1","0","[]","0","0","3","","","","","","","",""
"call-function","79","638321","0.0-2.0-15.0","battery-v0.2","","""event"",""trial"",""time""
""fullscreenenter"",""1"",""4098""
","
","
","""event"",""trial"",""time""
""fullscreenenter"",""1"",""4098""
","
","","","","","","","","","","","","","","","","","","","","","","","","","","",""
"pit-instructions","80","666809","0.0-2.0-16.0","battery-v0.2","","""event"",""trial"",""time""
""fullscreenenter"",""1"",""4098""
","
","
","""event"",""trial"",""time""
""fullscreenenter"",""1"",""4098""
","
","","[{""page_index"":0,""viewing_time"":7654.5},{""page_index"":1,""viewing_time"":8992.099999999627},{""page_index"":2,""viewing_time"":5338.10000000149},{""page_index"":3,""viewing_time"":6501.199999999255}]","28486.300000000745","","","","","","","","","","","","","","","","","","","","","","","",""
"pit-trial","81","671079","0.0-2.0-17.0-0.0","battery-v0.2","","""event"",""trial"",""time""
""fullscreenenter"",""1"",""4098""
","
","
","""event"",""trial"",""time""
""fullscreenenter"",""1"",""4098""
","
","","","1418","","","13","20582","7625","&#9789;","elianto","#f73b6a7A"," "," ","1","0","[2268.2000000011176]","1","0","4","","","","","","","",""
"pit-trial","82","675557","0.0-2.0-17.0-1.0","battery-v0.2","","""event"",""trial"",""time""
""fullscreenenter"",""1"",""4098""
","
","
","""event"",""trial"",""time""
""fullscreenenter"",""1"",""4098""
","
","","","1624.7999999988824","","","13","20582","7625","&#9789;","elianto","#f73b6a7A"," "," ","1","0","[2475]","1","0","4","","","","","","","",""
"pit-trial","83","680410","0.0-2.0-17.0-2.0","battery-v0.2","","""event"",""trial"",""time""
""fullscreenenter"",""1"",""4098""
","
","
","""event"",""trial"",""time""
""fullscreenenter"",""1"",""4098""
","
","","","-1","","","13","20582","7625","&#9789;","elianto","#f73b6a7A"," ","-1","0","-10","[]","0","0","4","","","","","","","",""
"pit-trial","84","685263","0.0-2.0-17.0-3.0","battery-v0.2","","""event"",""trial"",""time""
""fullscreenenter"",""1"",""4098""
","
","
","""event"",""trial"",""time""
""fullscreenenter"",""1"",""4098""
","
","","","-1","","","13","20582","7625","&#9789;","elianto","#f73b6a7A"," ","-1","0","0","[]","0","0","4","","","","","","","",""
"pit-trial","85","690115","0.0-2.0-17.0-4.0","battery-v0.2","","""event"",""trial"",""time""
""fullscreenenter"",""1"",""4098""
","
","
","""event"",""trial"",""time""
""fullscreenenter"",""1"",""4098""
","
","","","-1","","","13","20582","7625","&#9789;","elianto","#f73b6a7A"," ","-1","0","-10","[]","0","0","4","","","","","","","",""
"pit-trial","86","694969","0.0-2.0-17.1-0.1","battery-v0.2","","""event"",""trial"",""time""
""fullscreenenter"",""1"",""4098""
","
","
","""event"",""trial"",""time""
""fullscreenenter"",""1"",""4098""
","
","","","-1","","","13","20582","7625","&#9789;","elianto","#f73b6a7A"," ","-1","0","-10","[]","0","0","4","","","","","","","",""
"pit-trial","87","699822","0.0-2.0-17.1-1.1","battery-v0.2","","""event"",""trial"",""time""
""fullscreenenter"",""1"",""4098""
","
","
","""event"",""trial"",""time""
""fullscreenenter"",""1"",""4098""
","
","","","-1","","","13","20582","7625","&#9789;","elianto","#f73b6a7A"," ","-1","0","-10","[]","0","0","4","","","","","","","",""
"pit-trial","88","703749","0.0-2.0-17.1-2.1","battery-v0.2","","""event"",""trial"",""time""
""fullscreenenter"",""1"",""4098""
","
","
","""event"",""trial"",""time""
""fullscreenenter"",""1"",""4098""
","
","","","1073.0999999996275","","","13","20582","7625","&#9789;","elianto","#f73b6a7A"," "," ","1","0","[1923.199999999255]","1","0","4","","","","","","","",""
"pit-trial","89","708603","0.0-2.0-17.1-3.1","battery-v0.2","","""event"",""trial"",""time""
""fullscreenenter"",""1"",""4098""
","
","
","""event"",""trial"",""time""
""fullscreenenter"",""1"",""4098""
","
","","","-1","","","13","20582","7625","&#9789;","elianto","#f73b6a7A"," ","-1","0","0","[3002]","1","0","4","","","","","","","",""
"pit-trial","90","712348","0.0-2.0-17.1-4.1","battery-v0.2","","""event"",""trial"",""time""
""fullscreenenter"",""1"",""4098""
","
","
","""event"",""trial"",""time""
""fullscreenenter"",""1"",""4098""
","
","","","890.3000000007451","","","13","20582","7625","&#9789;","elianto","#f73b6a7A"," "," ","1","0","[1740.2000000011176]","1","0","4","","","","","","","",""
"pit-trial","91","717088","0.0-2.0-17.2-0.2","battery-v0.2","","""event"",""trial"",""time""
""fullscreenenter"",""1"",""4098""
","
","
","""event"",""trial"",""time""
""fullscreenenter"",""1"",""4098""
","
","","","1884.5","","","13","20582","7625","&#9789;","elianto","#f73b6a7A"," "," ","1","0","[2734.5999999996275]","1","0","4","","","","","","","",""
"pit-trial","92","720975","0.0-2.0-17.2-1.2","battery-v0.2","","""event"",""trial"",""time""
""fullscreenenter"",""1"",""4098""
","
","
","""event"",""trial"",""time""
""fullscreenenter"",""1"",""4098""
","
","","","1033.699999999255","","","13","20582","7625","&#9789;","elianto","#f73b6a7A"," "," ","1","0","[1883.9000000003725]","1","0","4","","","","","","","",""
"pit-trial","93","724805","0.0-2.0-17.2-2.2","battery-v0.2","","""event"",""trial"",""time""
""fullscreenenter"",""1"",""4098""
","
","
","""event"",""trial"",""time""
""fullscreenenter"",""1"",""4098""
","
","","","975","","","13","20582","7625","&#9789;","elianto","#f73b6a7A"," "," ","1","0","[1825.4000000003725]","1","0","4","","","","","","","",""
"pit-trial","94","728546","0.0-2.0-17.2-3.2","battery-v0.2","","""event"",""trial"",""time""
""fullscreenenter"",""1"",""4098""
","
","
","""event"",""trial"",""time""
""fullscreenenter"",""1"",""4098""
","
","","","886.0999999996275","","","13","20582","7625","&#9789;","elianto","#f73b6a7A"," "," ","1","-10","[1736.300000000745]","1","0","4","","","","","","","",""
"pit-trial","95","731899","0.0-2.0-17.2-4.2","battery-v0.2","","""event"",""trial"",""time""
""fullscreenenter"",""1"",""4098""
","
","
","""event"",""trial"",""time""
""fullscreenenter"",""1"",""4098""
","
","","","498.5","","","13","20582","7625","&#9789;","elianto","#f73b6a7A"," "," ","1","0","[1348.5999999996275]","1","0","4","","","","","","","",""
"pit-trial","96","735674","0.0-2.0-17.3-0.3","battery-v0.2","","""event"",""trial"",""time""
""fullscreenenter"",""1"",""4098""
","
","
","""event"",""trial"",""time""
""fullscreenenter"",""1"",""4098""
","
","","","919.1999999992549","","","13","20582","7625","&#9789;","elianto","#f73b6a7A"," "," ","1","0","[1769.300000000745]","1","0","4","","","","","","","",""
"pit-trial","97","739278","0.0-2.0-17.3-1.3","battery-v0.2","","""event"",""trial"",""time""
""fullscreenenter"",""1"",""4098""
","
","
","""event"",""trial"",""time""
""fullscreenenter"",""1"",""4098""
","
","","","749.2999999988824","","","13","20582","7625","&#9789;","elianto","#f73b6a7A"," "," ","1","0","[1599.7999999988824]","1","0","4","","","","","","","",""
"pit-trial","98","742865","0.0-2.0-17.3-2.3","battery-v0.2","","""event"",""trial"",""time""
""fullscreenenter"",""1"",""4098""
","
","
","""event"",""trial"",""time""
""fullscreenenter"",""1"",""4098""
","
","","","729.8000000007451","","","13","20582","7625","&#9789;","elianto","#f73b6a7A"," "," ","1","0","[1582.5999999996275]","1","0","4","","","","","","","",""
"pit-trial","99","746246","0.0-2.0-17.3-3.3","battery-v0.2","","""event"",""trial"",""time""
""fullscreenenter"",""1"",""4098""
","
","
","""event"",""trial"",""time""
""fullscreenenter"",""1"",""4098""
","
","","","527.7999999988824","","","13","20582","7625","&#9789;","elianto","#f73b6a7A"," "," ","1","-10","[1377.9000000003725]","1","0","4","","","","","","","",""
"pit-trial","100","749724","0.0-2.0-17.3-4.3","battery-v0.2","","""event"",""trial"",""time""
""fullscreenenter"",""1"",""4098""
","
","
","""event"",""trial"",""time""
""fullscreenenter"",""1"",""4098""
","
","","","624.5","","","13","20582","7625","&#9789;","elianto","#f73b6a7A"," "," ","1","0","[1475.5]","1","0","4","","","","","","","",""
"call-function","101","749728","0.0-2.0-18.0","battery-v0.2","","""event"",""trial"",""time""
""fullscreenenter"",""1"",""4098""
","
","
","""event"",""trial"",""time""
""fullscreenenter"",""1"",""4098""
","
","","","","","","","","","","","","","","","","","","","","","","","","","","",""
"pit-instructions","102","822468","0.0-2.0-19.0","battery-v0.2","","""event"",""trial"",""time""
""fullscreenenter"",""1"",""4098""
","
","
","""event"",""trial"",""time""
""fullscreenenter"",""1"",""4098""
","
","","[{""page_index"":0,""viewing_time"":6829.799999998882},{""page_index"":1,""viewing_time"":6227.10000000149},{""page_index"":2,""viewing_time"":14634.699999999255},{""page_index"":3,""viewing_time"":8211.5},{""page_index"":4,""viewing_time"":8935.699999999255},{""page_index"":5,""viewing_time"":9591.300000000745},{""page_index"":6,""viewing_time"":8597.599999999627},{""page_index"":7,""viewing_time"":6072.0999999996275},{""page_index"":8,""viewing_time"":3637.800000000745}]","72738.09999999963","","","","","","","","","","","","","","","","","","","","","","","",""
"pit-comprehension","103","827398","0.0-2.0-20.0-0.0","battery-v0.2","","""event"",""trial"",""time""
""fullscreenenter"",""1"",""4098""
","
","
","""event"",""trial"",""time""
""fullscreenenter"",""1"",""4098""
","
","","","4924.89999999851","[""SPACE""]","0","13","20582","7625","","","","","","","","","","","","","","","","","","",""
"pit-instructions","104","831143","0.0-2.0-20.0-1.0","battery-v0.2","","""event"",""trial"",""time""
""fullscreenenter"",""1"",""4098""
","
","
","""event"",""trial"",""time""
""fullscreenenter"",""1"",""4098""
","
","","[{""page_index"":0,""viewing_time"":3698.699999999255}]","3699.0999999996275","","","","","","","","","","","","","","","","","","","","","","","",""
"pit-comprehension","105","837375","0.0-2.0-21.0-0.0","battery-v0.2","","""event"",""trial"",""time""
""fullscreenenter"",""1"",""4098""
","
","
","""event"",""trial"",""time""
""fullscreenenter"",""1"",""4098""
","
","","","6227.4000000003725","[""10""]","0","13","20582","7625","","","","","","","","","","","","","","","","","","",""
"pit-instructions","106","842226","0.0-2.0-21.0-1.0","battery-v0.2","","""event"",""trial"",""time""
""fullscreenenter"",""1"",""4098""
","
","
","""event"",""trial"",""time""
""fullscreenenter"",""1"",""4098""
","
","","[{""page_index"":0,""viewing_time"":4817.4000000003725}]","4817.699999999255","","","","","","","","","","","","","","","","","","","","","","","",""
"pit-comprehension","107","849067","0.0-2.0-22.0-0.0","battery-v0.2","","""event"",""trial"",""time""
""fullscreenenter"",""1"",""4098""
","
","
","""event"",""trial"",""time""
""fullscreenenter"",""1"",""4098""
","
","","","6836.300000000745","[""0""]","0","13","20582","7625","","","","","","","","","","","","","","","","","","",""
"pit-instructions","108","850876","0.0-2.0-22.0-1.0","battery-v0.2","","""event"",""trial"",""time""
""fullscreenenter"",""1"",""4098""
","
","
","""event"",""trial"",""time""
""fullscreenenter"",""1"",""4098""
","
","","[{""page_index"":0,""viewing_time"":1764.5999999996275}]","1764.8999999985099","","","","","","","","","","","","","","","","","","","","","","","",""
"pit-comprehension","109","867489","0.0-2.0-23.0-0.0","battery-v0.2","","""event"",""trial"",""time""
""fullscreenenter"",""1"",""4098""
","
","
","""event"",""trial"",""time""
""fullscreenenter"",""1"",""4098""
","
","","","16608.5","[""True""]","0","13","20582","7625","","","","","","","","","","","","","","","","","","",""
"pit-instructions","110","869122","0.0-2.0-23.0-1.0","battery-v0.2","","""event"",""trial"",""time""
""fullscreenenter"",""1"",""4098""
","
","
","""event"",""trial"",""time""
""fullscreenenter"",""1"",""4098""
","
","","[{""page_index"":0,""viewing_time"":1597}]","1597.4000000003725","","","","","","","","","","","","","","","","","","","","","","","",""
"pit-comprehension","111","876851","0.0-2.0-24.0-0.0","battery-v0.2","","""event"",""trial"",""time""
""fullscreenenter"",""1"",""4098""
","
","
","""event"",""trial"",""time""
""fullscreenenter"",""1"",""4098""
","
","","","7724.700000001118","[""True""]","0","13","20582","7625","","","","","","","","","","","","","","","","","","",""
"pit-instructions","112","879168","0.0-2.0-24.0-1.0","battery-v0.2","","""event"",""trial"",""time""
""fullscreenenter"",""1"",""4098""
","
","
","""event"",""trial"",""time""
""fullscreenenter"",""1"",""4098""
","
","","[{""page_index"":0,""viewing_time"":2274.10000000149}]","2274.4000000003725","","","","","","","","","","","","","","","","","","","","","","","",""
"pit-comprehension","113","885802","0.0-2.0-25.0-0.0","battery-v0.2","","""event"",""trial"",""time""
""fullscreenenter"",""1"",""4098""
","
","
","""event"",""trial"",""time""
""fullscreenenter"",""1"",""4098""
","
","","","6629.200000001118","[""True""]","0","13","20582","7625","","","","","","","","","","","","","","","","","","",""
"pit-instructions","114","888511","0.0-2.0-25.0-1.0","battery-v0.2","","""event"",""trial"",""time""
""fullscreenenter"",""1"",""4098""
","
","
","""event"",""trial"",""time""
""fullscreenenter"",""1"",""4098""
","
","","[{""page_index"":0,""viewing_time"":2672.199999999255}]","2672.5","","","","","","","","","","","","","","","","","","","","","","","",""
"pit-comprehension","115","893844","0.0-2.0-26.0-0.0","battery-v0.2","","""event"",""trial"",""time""
""fullscreenenter"",""1"",""4098""
","
","
","""event"",""trial"",""time""
""fullscreenenter"",""1"",""4098""
","
","","","5328.700000001118","[""False""]","0","13","20582","7625","","","","","","","","","","","","","","","","","","",""
"pit-instructions","116","897776","0.0-2.0-26.0-1.0","battery-v0.2","","""event"",""trial"",""time""
""fullscreenenter"",""1"",""4098""
","
","
","""event"",""trial"",""time""
""fullscreenenter"",""1"",""4098""
","
","","[{""page_index"":0,""viewing_time"":3886.699999999255}]","3887","","","","","","","","","","","","","","","","","","","","","","","",""
"pit-instructions","117","915688","0.0-3.0","battery-v0.2","","""event"",""trial"",""time""
""fullscreenenter"",""1"",""4098""
","
","
","""event"",""trial"",""time""
""fullscreenenter"",""1"",""4098""
","
","","[{""page_index"":0,""viewing_time"":4203.0999999996275},{""page_index"":1,""viewing_time"":5439.10000000149},{""page_index"":2,""viewing_time"":8267.299999998882}]","17909.800000000745","","","","","","","","","","","","","","","","","","","","","","","",""
"pit-trial","118","919451","0.0-4.0","battery-v0.2","","""event"",""trial"",""time""
""fullscreenenter"",""1"",""4098""
","
","
","""event"",""trial"",""time""
""fullscreenenter"",""1"",""4098""
","
","","","906.5","","","13","20582","7625","&#9728;","elianto","#f73b6a7A","-1"," ","0","-10","[1756.7000000011176]","1","1","","","20582","1","0","4","lose","no-go","0"
"pit-trial","119","923352","0.0-5.0","battery-v0.2","","""event"",""trial"",""time""
""fullscreenenter"",""1"",""4098""
","
","
","""event"",""trial"",""time""
""fullscreenenter"",""1"",""4098""
","
","","","1048.5","","","13","20582","7625","&#9730;","elianto","#3366ff99"," "," ","1","+10","[1898.7999999988824]","1","1","","","20582","2","1","1","win","go","0"
"pit-trial","120","927108","0.0-6.0","battery-v0.2","","""event"",""trial"",""time""
""fullscreenenter"",""1"",""4098""
","
","
","""event"",""trial"",""time""
""fullscreenenter"",""1"",""4098""
","
","","","903","","","13","20582","7625","&#9733;","elianto","#3366ff99","-1"," ","0","0","[1753.4000000003725]","1","1","","","20582","3","2","2","win","no-go","0"
"pit-trial","121","931472","0.0-7.0","battery-v0.2","","""event"",""trial"",""time""
""fullscreenenter"",""1"",""4098""
","
","
","""event"",""trial"",""time""
""fullscreenenter"",""1"",""4098""
","
","","","1511.4000000003725","","","13","20582","7625","&#9752;","elianto","#f73b6a7A"," "," ","1","0","[2361.60000000149]","1","1","","","20582","4","3","3","lose","go","0"
"pit-trial","122","935383","0.0-8.0","battery-v0.2","","""event"",""trial"",""time""
""fullscreenenter"",""1"",""4098""
","
","
","""event"",""trial"",""time""
""fullscreenenter"",""1"",""4098""
","
","","","1058.3999999985099","","","13","20582","7625","&#9752;","elianto","#f73b6a7A"," "," ","1","0","[1908.4000000003725]","1","1","","","20582","5","3","3","lose","go","0"
"pit-trial","123","940236","0.0-9.0","battery-v0.2","","""event"",""trial"",""time""
""fullscreenenter"",""1"",""4098""
","
","
","""event"",""trial"",""time""
""fullscreenenter"",""1"",""4098""
","
","","","-1","","","13","20582","7625","&#9728;","elianto","#f73b6a7A","-1","-1","1","0","[]","0","1","","","20582","6","0","4","lose","no-go","0"
"pit-trial","124","944388","0.0-10.0","battery-v0.2","","""event"",""trial"",""time""
""fullscreenenter"",""1"",""4098""
","
","
","""event"",""trial"",""time""
""fullscreenenter"",""1"",""4098""
","
","","","1297.9000000003725","","","13","20582","7625","&#9730;","elianto","#3366ff99"," "," ","1","0","[2149.300000000745]","1","1","","","20582","7","1","1","win","go","1"
"pit-trial","125","948775","0.0-11.0","battery-v0.2","","""event"",""trial"",""time""
""fullscreenenter"",""1"",""4098""
","
","
","""event"",""trial"",""time""
""fullscreenenter"",""1"",""4098""
","
","","","1534.199999999255","","","13","20582","7625","&#9733;","elianto","#3366ff99","-1"," ","0","+10","[2384.2000000011176]","1","1","","","20582","8","2","2","win","no-go","1"
"pit-trial","126","953630","0.0-12.0","battery-v0.2","","""event"",""trial"",""time""
""fullscreenenter"",""1"",""4098""
","
","
","""event"",""trial"",""time""
""fullscreenenter"",""1"",""4098""
","
","","","-1","","","13","20582","7625","&#9728;","elianto","#f73b6a7A","-1","-1","1","0","[]","0","1","","","20582","9","0","4","lose","no-go","0"
"pit-trial","127","957671","0.0-13.0","battery-v0.2","","""event"",""trial"",""time""
""fullscreenenter"",""1"",""4098""
","
","
","""event"",""trial"",""time""
""fullscreenenter"",""1"",""4098""
","
","","","1186.2999999988824","","","13","20582","7625","&#9733;","elianto","#3366ff99","-1"," ","0","0","[2036.5999999996275]","1","1","","","20582","10","2","2","win","no-go","0"
"pit-trial","128","962527","0.0-14.0","battery-v0.2","","""event"",""trial"",""time""
""fullscreenenter"",""1"",""4098""
","
","
","""event"",""trial"",""time""
""fullscreenenter"",""1"",""4098""
","
","","","-1","","","13","20582","7625","&#9730;","elianto","#3366ff99"," ","-1","0","0","[3050.0999999996275]","1","1","","","20582","11","1","1","win","go","0"
"pit-trial","129","966945","0.0-15.0","battery-v0.2","","""event"",""trial"",""time""
""fullscreenenter"",""1"",""4098""
","
","
","""event"",""trial"",""time""
""fullscreenenter"",""1"",""4098""
","
","","","1563.5","","","13","20582","7625","&#9752;","elianto","#f73b6a7A"," "," ","1","0","[2413.800000000745]","1","1","","","20582","12","3","3","lose","go","0"
"pit-trial","130","970653","0.0-16.0","battery-v0.2","","""event"",""trial"",""time""
""fullscreenenter"",""1"",""4098""
","
","
","""event"",""trial"",""time""
""fullscreenenter"",""1"",""4098""
","
","","","853.4000000003725","","","13","20582","7625","&#9733;","elianto","#3366ff99","-1"," ","0","0","[1703.5999999996275]","1","1","","","20582","13","2","2","win","no-go","0"
"pit-trial","131","974830","0.0-17.0","battery-v0.2","","""event"",""trial"",""time""
""fullscreenenter"",""1"",""4098""
","
","
","""event"",""trial"",""time""
""fullscreenenter"",""1"",""4098""
","
","","","1322.0999999996275","","","13","20582","7625","&#9752;","elianto","#f73b6a7A"," "," ","1","0","[2171.9000000003725]","1","1","","","20582","14","3","3","lose","go","0"
"pit-trial","132","979253","0.0-18.0","battery-v0.2","","""event"",""trial"",""time""
""fullscreenenter"",""1"",""4098""
","
","
","""event"",""trial"",""time""
""fullscreenenter"",""1"",""4098""
","
","","","1567.9000000003725","","","13","20582","7625","&#9730;","elianto","#3366ff99"," "," ","1","+10","[2418]","1","1","","","20582","15","1","1","win","go","0"
"pit-trial","133","984108","0.0-19.0","battery-v0.2","","""event"",""trial"",""time""
""fullscreenenter"",""1"",""4098""
","
","
","""event"",""trial"",""time""
""fullscreenenter"",""1"",""4098""
","
","","","-1","","","13","20582","7625","&#9728;","elianto","#f73b6a7A","-1","-1","1","0","[2873]","1","1","","","20582","16","0","4","lose","no-go","0"
"pit-trial","134","988144","0.0-20.0","battery-v0.2","","""event"",""trial"",""time""
""fullscreenenter"",""1"",""4098""
","
","
","""event"",""trial"",""time""
""fullscreenenter"",""1"",""4098""
","
","","","1181.2999999988824","","","13","20582","7625","&#9752;","elianto","#f73b6a7A"," "," ","1","0","[2031.300000000745]","1","1","","","20582","17","3","3","lose","go","0"
"pit-trial","135","991739","0.0-21.0","battery-v0.2","","""event"",""trial"",""time""
""fullscreenenter"",""1"",""4098""
","
","
","""event"",""trial"",""time""
""fullscreenenter"",""1"",""4098""
","
","","","739.6000000014901","","","13","20582","7625","&#9730;","elianto","#3366ff99"," "," ","1","+10","[1589.699999999255]","1","1","","","20582","18","1","1","win","go","0"
"pit-trial","136","996594","0.0-22.0","battery-v0.2","","""event"",""trial"",""time""
""fullscreenenter"",""1"",""4098""
","
","
","""event"",""trial"",""time""
""fullscreenenter"",""1"",""4098""
","
","","","-1","","","13","20582","7625","&#9733;","elianto","#3366ff99","-1","-1","1","+10","[]","0","1","","","20582","19","2","2","win","no-go","0"
"pit-trial","137","1000284","0.0-23.0","battery-v0.2","","""event"",""trial"",""time""
""fullscreenenter"",""1"",""4098""
","
","
","""event"",""trial"",""time""
""fullscreenenter"",""1"",""4098""
","
","","","835.1999999992549","","","13","20582","7625","&#9728;","elianto","#f73b6a7A","-1"," ","0","-10","[1685.4000000003725]","1","1","","","20582","20","0","4","lose","no-go","0"
"pit-instructions","138","1014870","0.0-24.0","battery-v0.2","","""event"",""trial"",""time""
""fullscreenenter"",""1"",""4098""
","
","
","""event"",""trial"",""time""
""fullscreenenter"",""1"",""4098""
","
","","[{""page_index"":0,""viewing_time"":6406.9000000003725},{""page_index"":1,""viewing_time"":8174.699999999255}]","14581.900000000373","","","","","","","","","","","","","","","","","","","","","","","",""
"pit-trial","139","1019063","0.0-25.0","battery-v0.2","","""event"",""trial"",""time""
""fullscreenenter"",""1"",""4098""
","
","
","""event"",""trial"",""time""
""fullscreenenter"",""1"",""4098""
","
","","","1338.4000000003725","","","13","20582","7625","n","elianto","#f73b6a7A","-1"," ","0","0","[2188.5999999996275]","1","2","","","20582","21","0","4","lose","no-go","1"
"pit-trial","140","1023501","0.0-26.0","battery-v0.2","","""event"",""trial"",""time""
""fullscreenenter"",""1"",""4098""
","
","
","""event"",""trial"",""time""
""fullscreenenter"",""1"",""4098""
","
","","","1584.7999999988824","","","13","20582","7625","t","elianto","#f73b6a7A","-1"," ","0","-10","[2435.4000000003725]","1","2","","","20582","22","2","4","lose","no-go","0"
"pit-trial","141","1027155","0.0-27.0","battery-v0.2","","""event"",""trial"",""time""
""fullscreenenter"",""1"",""4098""
","
","
","""event"",""trial"",""time""
""fullscreenenter"",""1"",""4098""
","
","","","801.1000000014901","","","13","20582","7625","f","elianto","#3366ff99"," "," ","1","+10","[1651.2000000011176]","1","2","","","20582","23","1","1","win","go","0"
"pit-trial","142","1030892","0.0-28.0","battery-v0.2","","""event"",""trial"",""time""
""fullscreenenter"",""1"",""4098""
","
","
","""event"",""trial"",""time""
""fullscreenenter"",""1"",""4098""
","
","","","883.8000000007451","","","13","20582","7625","b","elianto","#f73b6a7A"," "," ","1","0","[1734]","1","2","","","20582","24","3","3","lose","go","0"
"pit-trial","143","1035255","0.0-29.0","battery-v0.2","","""event"",""trial"",""time""
""fullscreenenter"",""1"",""4098""
","
","
","""event"",""trial"",""time""
""fullscreenenter"",""1"",""4098""
","
","","","1511.2000000011176","","","13","20582","7625","t","elianto","#f73b6a7A","-1"," ","0","-10","[2361.300000000745]","1","2","","","20582","25","2","4","lose","no-go","0"
"pit-trial","144","1038910","0.0-30.0","battery-v0.2","","""event"",""trial"",""time""
""fullscreenenter"",""1"",""4098""
","
","
","""event"",""trial"",""time""
""fullscreenenter"",""1"",""4098""
","
","","","801.5999999996275","","","13","20582","7625","n","elianto","#f73b6a7A","-1"," ","0","-10","[1651.7000000011176]","1","2","","","20582","26","0","4","lose","no-go","0"
"pit-trial","145","1043192","0.0-31.0","battery-v0.2","","""event"",""trial"",""time""
""fullscreenenter"",""1"",""4098""
","
","
","""event"",""trial"",""time""
""fullscreenenter"",""1"",""4098""
","
","","","1429.8999999985099","","","13","20582","7625","f","elianto","#3366ff99"," "," ","1","+10","[2280.2999999988824]","1","2","","","20582","27","1","1","win","go","0"
"pit-trial","146","1046976","0.0-32.0","battery-v0.2","","""event"",""trial"",""time""
""fullscreenenter"",""1"",""4098""
","
","
","""event"",""trial"",""time""
""fullscreenenter"",""1"",""4098""
","
","","","930.3999999985099","","","13","20582","7625","b","elianto","#f73b6a7A"," "," ","1","0","[1781.0999999996275]","1","2","","","20582","28","3","3","lose","go","0"
"pit-trial","147","1050831","0.0-33.0","battery-v0.2","","""event"",""trial"",""time""
""fullscreenenter"",""1"",""4098""
","
","
","""event"",""trial"",""time""
""fullscreenenter"",""1"",""4098""
","
","","","999.5999999996275","","","13","20582","7625","f","elianto","#3366ff99"," "," ","1","+10","[1850.2999999988824]","1","2","","","20582","29","1","1","win","go","0"
"pit-trial","148","1055687","0.0-34.0","battery-v0.2","","""event"",""trial"",""time""
""fullscreenenter"",""1"",""4098""
","
","
","""event"",""trial"",""time""
""fullscreenenter"",""1"",""4098""
","
","","","-1","","","13","20582","7625","t","elianto","#f73b6a7A","-1","-1","1","0","[]","0","2","","","20582","30","2","4","lose","no-go","0"
"pit-trial","149","1059304","0.0-35.0","battery-v0.2","","""event"",""trial"",""time""
""fullscreenenter"",""1"",""4098""
","
","
","""event"",""trial"",""time""
""fullscreenenter"",""1"",""4098""
","
","","","763","","","13","20582","7625","b","elianto","#f73b6a7A"," "," ","1","0","[1613.0999999996275]","1","2","","","20582","31","3","3","lose","go","0"
"pit-trial","150","1063543","0.0-36.0","battery-v0.2","","""event"",""trial"",""time""
""fullscreenenter"",""1"",""4098""
","
","
","""event"",""trial"",""time""
""fullscreenenter"",""1"",""4098""
","
","","","1384.4000000003725","","","13","20582","7625","n","elianto","#f73b6a7A","-1"," ","0","-10","[2234.5999999996275]","1","2","","","20582","32","0","4","lose","no-go","0"
"pit-trial","151","1068397","0.0-37.0","battery-v0.2","","""event"",""trial"",""time""
""fullscreenenter"",""1"",""4098""
","
","
","""event"",""trial"",""time""
""fullscreenenter"",""1"",""4098""
","
","","","-1","","","13","20582","7625","n","elianto","#f73b6a7A","-1","-1","1","-10","[]","0","2","","","20582","33","0","4","lose","no-go","1"
"pit-trial","152","1071938","0.0-38.0","battery-v0.2","","""event"",""trial"",""time""
""fullscreenenter"",""1"",""4098""
","
","
","""event"",""trial"",""time""
""fullscreenenter"",""1"",""4098""
","
","","","686.5999999996275","","","13","20582","7625","f","elianto","#3366ff99"," "," ","1","+10","[1536.699999999255]","1","2","","","20582","34","1","1","win","go","0"
"pit-trial","153","1076793","0.0-39.0","battery-v0.2","","""event"",""trial"",""time""
""fullscreenenter"",""1"",""4098""
","
","
","""event"",""trial"",""time""
""fullscreenenter"",""1"",""4098""
","
","","","-1","","","13","20582","7625","t","elianto","#f73b6a7A","-1","-1","1","0","[]","0","2","","","20582","35","2","4","lose","no-go","0"
"pit-trial","154","1080649","0.0-40.0","battery-v0.2","","""event"",""trial"",""time""
""fullscreenenter"",""1"",""4098""
","
","
","""event"",""trial"",""time""
""fullscreenenter"",""1"",""4098""
","
","","","1001.3000000007451","","","13","20582","7625","b","elianto","#f73b6a7A"," "," ","1","0","[1851.5]","1","2","","","20582","36","3","3","lose","go","0"
"pit-trial","155","1084520","0.0-41.0","battery-v0.2","","""event"",""trial"",""time""
""fullscreenenter"",""1"",""4098""
","
","
","""event"",""trial"",""time""
""fullscreenenter"",""1"",""4098""
","
","","","1018","","","13","20582","7625","f","elianto","#3366ff99"," "," ","1","+10","[1868]","1","2","","","20582","37","1","1","win","go","0"
"pit-trial","156","1089374","0.0-42.0","battery-v0.2","","""event"",""trial"",""time""
""fullscreenenter"",""1"",""4098""
","
","
","""event"",""trial"",""time""
""fullscreenenter"",""1"",""4098""
","
","","","-1","","","13","20582","7625","n","elianto","#f73b6a7A","-1","-1","1","0","[]","0","2","","","20582","38","0","4","lose","no-go","0"
"pit-trial","157","1093555","0.0-43.0","battery-v0.2","","""event"",""trial"",""time""
""fullscreenenter"",""1"",""4098""
","
","
","""event"",""trial"",""time""
""fullscreenenter"",""1"",""4098""
","
","","","1326.4000000003725","","","13","20582","7625","b","elianto","#f73b6a7A"," "," ","1","0","[2176.5]","1","2","","","20582","39","3","3","lose","go","0"
"pit-trial","158","1098411","0.0-44.0","battery-v0.2","","""event"",""trial"",""time""
""fullscreenenter"",""1"",""4098""
","
","
","""event"",""trial"",""time""
""fullscreenenter"",""1"",""4098""
","
","","","-1","","","13","20582","7625","t","elianto","#f73b6a7A","-1","-1","1","0","[]","0","2","","","20582","40","2","4","lose","no-go","0"
"pit-trial","159","1103265","0.0-45.0","battery-v0.2","","""event"",""trial"",""time""
""fullscreenenter"",""1"",""4098""
","
","
","""event"",""trial"",""time""
""fullscreenenter"",""1"",""4098""
","
","","","-1","","","13","20582","7625","n","elianto","#f73b6a7A","-1","-1","1","0","[]","0","2","","","20582","41","0","4","lose","no-go","0"
"pit-trial","160","1106735","0.0-46.0","battery-v0.2","","""event"",""trial"",""time""
""fullscreenenter"",""1"",""4098""
","
","
","""event"",""trial"",""time""
""fullscreenenter"",""1"",""4098""
","
","","","616.8000000007451","","","13","20582","7625","f","elianto","#3366ff99"," "," ","1","0","[1466.9000000003725]","1","2","","","20582","42","1","1","win","go","1"
"pit-trial","161","1111590","0.0-47.0","battery-v0.2","","""event"",""trial"",""time""
""fullscreenenter"",""1"",""4098""
","
","
","""event"",""trial"",""time""
""fullscreenenter"",""1"",""4098""
","
","","","-1","","","13","20582","7625","t","elianto","#f73b6a7A","-1","-1","1","0","[]","0","2","","","20582","43","2","4","lose","no-go","0"
"pit-trial","162","1115183","0.0-48.0","battery-v0.2","","""event"",""trial"",""time""
""fullscreenenter"",""1"",""4098""
","
","
","""event"",""trial"",""time""
""fullscreenenter"",""1"",""4098""
","
","","","738","","","13","20582","7625","b","elianto","#f73b6a7A"," "," ","1","0","[1588.2999999988824]","1","2","","","20582","44","3","3","lose","go","0"
"pit-trial","163","1120038","0.0-49.0","battery-v0.2","","""event"",""trial"",""time""
""fullscreenenter"",""1"",""4098""
","
","
","""event"",""trial"",""time""
""fullscreenenter"",""1"",""4098""
","
","","","-1","","","13","20582","7625","n","elianto","#f73b6a7A","-1","-1","1","0","[]","0","2","","","20582","45","0","4","lose","no-go","0"
"pit-trial","164","1123776","0.0-50.0","battery-v0.2","","""event"",""trial"",""time""
""fullscreenenter"",""1"",""4098""
","
","
","""event"",""trial"",""time""
""fullscreenenter"",""1"",""4098""
","
","","","883","","","13","20582","7625","b","elianto","#f73b6a7A"," "," ","1","0","[1733.0999999996275]","1","2","","","20582","46","3","3","lose","go","0"
"pit-trial","165","1127577","0.0-51.0","battery-v0.2","","""event"",""trial"",""time""
""fullscreenenter"",""1"",""4098""
","
","
","""event"",""trial"",""time""
""fullscreenenter"",""1"",""4098""
","
","","","946","","","13","20582","7625","c","elianto","#3366ff99","-1"," ","0","0","[1796.0999999996275]","1","2","","","20582","47","4","2","win","no-go","0"
"pit-trial","166","1132431","0.0-52.0","battery-v0.2","","""event"",""trial"",""time""
""fullscreenenter"",""1"",""4098""
","
","
","""event"",""trial"",""time""
""fullscreenenter"",""1"",""4098""
","
","","","-1","","","13","20582","7625","t","elianto","#f73b6a7A","-1","-1","1","0","[]","0","2","","","20582","48","2","4","lose","no-go","0"
"pit-trial","167","1136596","0.0-53.0","battery-v0.2","","""event"",""trial"",""time""
""fullscreenenter"",""1"",""4098""
","
","
","""event"",""trial"",""time""
""fullscreenenter"",""1"",""4098""
","
","","","1309.6000000014901","","","13","20582","7625","b","elianto","#f73b6a7A"," "," ","1","0","[2159.699999999255]","1","2","","","20582","49","3","3","lose","go","0"
"pit-trial","168","1140339","0.0-54.0","battery-v0.2","","""event"",""trial"",""time""
""fullscreenenter"",""1"",""4098""
","
","
","""event"",""trial"",""time""
""fullscreenenter"",""1"",""4098""
","
","","","888.5","","","13","20582","7625","f","elianto","#3366ff99"," "," ","1","+10","[1738.5]","1","2","","","20582","50","1","1","win","go","0"
"pit-trial","169","1144212","0.0-55.0","battery-v0.2","","""event"",""trial"",""time""
""fullscreenenter"",""1"",""4098""
","
","
","""event"",""trial"",""time""
""fullscreenenter"",""1"",""4098""
","
","","","1020.4000000003725","","","13","20582","7625","c","elianto","#3366ff99","-1"," ","0","0","[1870.699999999255]","1","2","","","20582","51","4","2","win","no-go","0"
"pit-trial","170","1149067","0.0-56.0","battery-v0.2","","""event"",""trial"",""time""
""fullscreenenter"",""1"",""4098""
","
","
","""event"",""trial"",""time""
""fullscreenenter"",""1"",""4098""
","
","","","-1","","","13","20582","7625","n","elianto","#f73b6a7A","-1","-1","1","0","[]","0","2","","","20582","52","0","4","lose","no-go","0"
"pit-trial","171","1153922","0.0-57.0","battery-v0.2","","""event"",""trial"",""time""
""fullscreenenter"",""1"",""4098""
","
","
","""event"",""trial"",""time""
""fullscreenenter"",""1"",""4098""
","
","","","-1","","","13","20582","7625","n","elianto","#f73b6a7A","-1","-1","1","0","[]","0","2","","","20582","53","0","4","lose","no-go","0"
"pit-trial","172","1158777","0.0-58.0","battery-v0.2","","""event"",""trial"",""time""
""fullscreenenter"",""1"",""4098""
","
","
","""event"",""trial"",""time""
""fullscreenenter"",""1"",""4098""
","
","","","-1","","","13","20582","7625","t","elianto","#f73b6a7A","-1","-1","1","-10","[]","0","2","","","20582","54","2","4","lose","no-go","1"
"pit-trial","173","1162420","0.0-59.0","battery-v0.2","","""event"",""trial"",""time""
""fullscreenenter"",""1"",""4098""
","
","
","""event"",""trial"",""time""
""fullscreenenter"",""1"",""4098""
","
","","","787.8999999985099","","","13","20582","7625","f","elianto","#3366ff99"," "," ","1","0","[1638.199999999255]","1","2","","","20582","55","1","1","win","go","1"
"pit-trial","174","1167275","0.0-60.0","battery-v0.2","","""event"",""trial"",""time""
""fullscreenenter"",""1"",""4098""
","
","
","""event"",""trial"",""time""
""fullscreenenter"",""1"",""4098""
","
","","","-1","","","13","20582","7625","c","elianto","#3366ff99","-1","-1","1","+10","[]","0","2","","","20582","56","4","2","win","no-go","0"
"pit-trial","175","1170841","0.0-61.0","battery-v0.2","","""event"",""trial"",""time""
""fullscreenenter"",""1"",""4098""
","
","
","""event"",""trial"",""time""
""fullscreenenter"",""1"",""4098""
","
","","","710.8000000007451","","","13","20582","7625","f","elianto","#3366ff99"," "," ","1","0","[1562.9000000003725]","1","2","","","20582","57","1","1","win","go","1"
"pit-trial","176","1175552","0.0-62.0","battery-v0.2","","""event"",""trial"",""time""
""fullscreenenter"",""1"",""4098""
","
","
","""event"",""trial"",""time""
""fullscreenenter"",""1"",""4098""
","
","","","1854.800000000745","","","13","20582","7625","b","elianto","#f73b6a7A"," "," ","1","0","[2705.300000000745]","1","2","","","20582","58","3","3","lose","go","0"
"pit-trial","177","1179930","0.0-63.0","battery-v0.2","","""event"",""trial"",""time""
""fullscreenenter"",""1"",""4098""
","
","
","""event"",""trial"",""time""
""fullscreenenter"",""1"",""4098""
","
","","","1523.800000000745","","","13","20582","7625","c","elianto","#3366ff99","-1"," ","0","0","[2373.9000000003725]","1","2","","","20582","59","4","2","win","no-go","0"
"pit-trial","178","1184785","0.0-64.0","battery-v0.2","","""event"",""trial"",""time""
""fullscreenenter"",""1"",""4098""
","
","
","""event"",""trial"",""time""
""fullscreenenter"",""1"",""4098""
","
","","","-1","","","13","20582","7625","n","elianto","#f73b6a7A","-1","-1","1","0","[]","0","2","","","20582","60","0","4","lose","no-go","0"
"pit-trial","179","1189641","0.0-65.0","battery-v0.2","","""event"",""trial"",""time""
""fullscreenenter"",""1"",""4098""
","
","
","""event"",""trial"",""time""
""fullscreenenter"",""1"",""4098""
","
","","","-1","","","13","20582","7625","t","elianto","#f73b6a7A","-1","-1","1","0","[]","0","2","","","20582","61","2","4","lose","no-go","0"
"pit-trial","180","1193704","0.0-66.0","battery-v0.2","","""event"",""trial"",""time""
""fullscreenenter"",""1"",""4098""
","
","
","""event"",""trial"",""time""
""fullscreenenter"",""1"",""4098""
","
","","","1209.5999999996275","","","13","20582","7625","b","elianto","#f73b6a7A"," "," ","1","0","[2060.5999999996275]","1","2","","","20582","62","3","3","lose","go","0"
"pit-trial","181","1197770","0.0-67.0","battery-v0.2","","""event"",""trial"",""time""
""fullscreenenter"",""1"",""4098""
","
","
","""event"",""trial"",""time""
""fullscreenenter"",""1"",""4098""
","
","","","1210.5","","","13","20582","7625","c","elianto","#3366ff99","-1"," ","0","0","[2060.699999999255]","1","2","","","20582","63","4","2","win","no-go","0"
"pit-trial","182","1201576","0.0-68.0","battery-v0.2","","""event"",""trial"",""time""
""fullscreenenter"",""1"",""4098""
","
","
","""event"",""trial"",""time""
""fullscreenenter"",""1"",""4098""
","
","","","950.9000000003725","","","13","20582","7625","f","elianto","#3366ff99"," "," ","1","+10","[1801.5999999996275]","1","2","","","20582","64","1","1","win","go","0"
"pit-trial","183","1206081","0.0-69.0","battery-v0.2","","""event"",""trial"",""time""
""fullscreenenter"",""1"",""4098""
","
","
","""event"",""trial"",""time""
""fullscreenenter"",""1"",""4098""
","
","","","1651.5","","","13","20582","7625","b","elianto","#f73b6a7A"," "," ","1","0","[2501.5]","1","2","","","20582","65","3","3","lose","go","0"
"pit-trial","184","1210382","0.0-70.0","battery-v0.2","","""event"",""trial"",""time""
""fullscreenenter"",""1"",""4098""
","
","
","""event"",""trial"",""time""
""fullscreenenter"",""1"",""4098""
","
","","","1447.0999999996275","","","13","20582","7625","c","elianto","#3366ff99","-1"," ","0","0","[2297.4000000003725]","1","2","","","20582","66","4","2","win","no-go","0"
"pit-trial","185","1215235","0.0-71.0","battery-v0.2","","""event"",""trial"",""time""
""fullscreenenter"",""1"",""4098""
","
","
","""event"",""trial"",""time""
""fullscreenenter"",""1"",""4098""
","
","","","-1","","","13","20582","7625","t","elianto","#f73b6a7A","-1","-1","1","-10","[]","0","2","","","20582","67","2","4","lose","no-go","1"
"pit-trial","186","1219049","0.0-72.0","battery-v0.2","","""event"",""trial"",""time""
""fullscreenenter"",""1"",""4098""
","
","
","""event"",""trial"",""time""
""fullscreenenter"",""1"",""4098""
","
","","","961.9000000003725","","","13","20582","7625","f","elianto","#3366ff99"," "," ","1","+10","[1812]","1","2","","","20582","68","1","1","win","go","0"
"pit-trial","187","1223116","0.0-73.0","battery-v0.2","","""event"",""trial"",""time""
""fullscreenenter"",""1"",""4098""
","
","
","""event"",""trial"",""time""
""fullscreenenter"",""1"",""4098""
","
","","","1213.2999999988824","","","13","20582","7625","b","elianto","#f73b6a7A"," "," ","1","0","[2063.5999999996275]","1","2","","","20582","69","3","3","lose","go","0"
"pit-trial","188","1226932","0.0-74.0","battery-v0.2","","""event"",""trial"",""time""
""fullscreenenter"",""1"",""4098""
","
","
","""event"",""trial"",""time""
""fullscreenenter"",""1"",""4098""
","
","","","963.2000000011176","","","13","20582","7625","c","elianto","#3366ff99","-1"," ","0","+10","[1813.4000000003725]","1","2","","","20582","70","4","2","win","no-go","1"
"pit-trial","189","1230563","0.0-75.0","battery-v0.2","","""event"",""trial"",""time""
""fullscreenenter"",""1"",""4098""
","
","
","""event"",""trial"",""time""
""fullscreenenter"",""1"",""4098""
","
","","","776.0999999996275","","","13","20582","7625","z","elianto","#3366ff99"," "," ","1","+10","[1626.2999999988824]","1","2","","","20582","71","5","1","win","go","0"
"pit-trial","190","1234190","0.0-76.0","battery-v0.2","","""event"",""trial"",""time""
""fullscreenenter"",""1"",""4098""
","
","
","""event"",""trial"",""time""
""fullscreenenter"",""1"",""4098""
","
","","","771.4000000003725","","","13","20582","7625","f","elianto","#3366ff99"," "," ","1","+10","[1621.5999999996275]","1","2","","","20582","72","1","1","win","go","0"
"pit-trial","191","1238187","0.0-77.0","battery-v0.2","","""event"",""trial"",""time""
""fullscreenenter"",""1"",""4098""
","
","
","""event"",""trial"",""time""
""fullscreenenter"",""1"",""4098""
","
","","","1142.5999999996275","","","13","20582","7625","b","elianto","#f73b6a7A"," "," ","1","0","[1992.6000000014901]","1","2","","","20582","73","3","3","lose","go","0"
"pit-trial","192","1241842","0.0-78.0","battery-v0.2","","""event"",""trial"",""time""
""fullscreenenter"",""1"",""4098""
","
","
","""event"",""trial"",""time""
""fullscreenenter"",""1"",""4098""
","
","","","799.0999999996275","","","13","20582","7625","f","elianto","#3366ff99"," "," ","1","+10","[1649.800000000745]","1","2","","","20582","74","1","1","win","go","0"
"pit-trial","193","1245361","0.0-79.0","battery-v0.2","","""event"",""trial"",""time""
""fullscreenenter"",""1"",""4098""
","
","
","""event"",""trial"",""time""
""fullscreenenter"",""1"",""4098""
","
","","","663.6999999992549","","","13","20582","7625","z","elianto","#3366ff99"," "," ","1","+10","[1513.699999999255]","1","2","","","20582","75","5","1","win","go","0"
"pit-trial","194","1248993","0.0-80.0","battery-v0.2","","""event"",""trial"",""time""
""fullscreenenter"",""1"",""4098""
","
","
","""event"",""trial"",""time""
""fullscreenenter"",""1"",""4098""
","
","","","777","","","13","20582","7625","c","elianto","#3366ff99","-1"," ","0","+10","[1627.199999999255]","1","2","","","20582","76","4","2","win","no-go","1"
"pit-trial","195","1253431","0.0-81.0","battery-v0.2","","""event"",""trial"",""time""
""fullscreenenter"",""1"",""4098""
","
","
","""event"",""trial"",""time""
""fullscreenenter"",""1"",""4098""
","
","","","1583.4000000003725","","","13","20582","7625","z","elianto","#3366ff99"," "," ","1","+10","[2433.5999999996275]","1","2","","","20582","77","5","1","win","go","0"
"pit-trial","196","1257571","0.0-82.0","battery-v0.2","","""event"",""trial"",""time""
""fullscreenenter"",""1"",""4098""
","
","
","""event"",""trial"",""time""
""fullscreenenter"",""1"",""4098""
","
","","","1284.300000000745","","","13","20582","7625","b","elianto","#f73b6a7A"," "," ","1","0","[2134.5999999996275]","1","2","","","20582","78","3","3","lose","go","0"
"pit-trial","197","1261097","0.0-83.0","battery-v0.2","","""event"",""trial"",""time""
""fullscreenenter"",""1"",""4098""
","
","
","""event"",""trial"",""time""
""fullscreenenter"",""1"",""4098""
","
","","","671.2999999988824","","","13","20582","7625","c","elianto","#3366ff99","-1"," ","0","0","[1521.4000000003725]","1","2","","","20582","79","4","2","win","no-go","0"
"pit-trial","198","1265953","0.0-84.0","battery-v0.2","","""event"",""trial"",""time""
""fullscreenenter"",""1"",""4098""
","
","
","""event"",""trial"",""time""
""fullscreenenter"",""1"",""4098""
","
","","","-1","","","13","20582","7625","h","elianto","#f73b6a7A","-1","-1","1","0","[3005.699999999255,4050.199999999255]","2","2","","","20582","80","6","4","lose","no-go","0"
"pit-trial","199","1270809","0.0-85.0","battery-v0.2","","""event"",""trial"",""time""
""fullscreenenter"",""1"",""4098""
","
","
","""event"",""trial"",""time""
""fullscreenenter"",""1"",""4098""
","
","","","-1","","","13","20582","7625","h","elianto","#f73b6a7A","-1","-1","1","0","[]","0","2","","","20582","81","6","4","lose","no-go","0"
"pit-trial","200","1274453","0.0-86.0","battery-v0.2","","""event"",""trial"",""time""
""fullscreenenter"",""1"",""4098""
","
","
","""event"",""trial"",""time""
""fullscreenenter"",""1"",""4098""
","
","","","789.5","","","13","20582","7625","c","elianto","#3366ff99","-1"," ","0","0","[1639.4000000003725]","1","2","","","20582","82","4","2","win","no-go","0"
"pit-trial","201","1279308","0.0-87.0","battery-v0.2","","""event"",""trial"",""time""
""fullscreenenter"",""1"",""4098""
","
","
","""event"",""trial"",""time""
""fullscreenenter"",""1"",""4098""
","
","","","-1","","","13","20582","7625","y","elianto","#f73b6a7A"," ","-1","0","-10","[4839.5]","1","2","","","20582","83","7","3","lose","go","0"
"pit-trial","202","1282886","0.0-88.0","battery-v0.2","","""event"",""trial"",""time""
""fullscreenenter"",""1"",""4098""
","
","
","""event"",""trial"",""time""
""fullscreenenter"",""1"",""4098""
","
","","","722.7999999988824","","","13","20582","7625","z","elianto","#3366ff99"," "," ","1","+10","[1572.800000000745]","1","2","","","20582","84","5","1","win","go","0"
"pit-trial","203","1286878","0.0-89.0","battery-v0.2","","""event"",""trial"",""time""
""fullscreenenter"",""1"",""4098""
","
","
","""event"",""trial"",""time""
""fullscreenenter"",""1"",""4098""
","
","","","1137.4000000003725","","","13","20582","7625","z","elianto","#3366ff99"," "," ","1","0","[1987.4000000003725]","1","2","","","20582","85","5","1","win","go","1"
"pit-trial","204","1291105","0.0-90.0","battery-v0.2","","""event"",""trial"",""time""
""fullscreenenter"",""1"",""4098""
","
","
","""event"",""trial"",""time""
""fullscreenenter"",""1"",""4098""
","
","","","1373.300000000745","","","13","20582","7625","y","elianto","#f73b6a7A"," "," ","1","-10","[2223.5]","1","2","","","20582","86","7","3","lose","go","1"
"pit-trial","205","1295960","0.0-91.0","battery-v0.2","","""event"",""trial"",""time""
""fullscreenenter"",""1"",""4098""
","
","
","""event"",""trial"",""time""
""fullscreenenter"",""1"",""4098""
","
","","","-1","","","13","20582","7625","h","elianto","#f73b6a7A","-1","-1","1","-10","[2862.5999999996275]","1","2","","","20582","87","6","4","lose","no-go","1"
"pit-trial","206","1299611","0.0-92.0","battery-v0.2","","""event"",""trial"",""time""
""fullscreenenter"",""1"",""4098""
","
","
","""event"",""trial"",""time""
""fullscreenenter"",""1"",""4098""
","
","","","795.3000000007451","","","13","20582","7625","c","elianto","#3366ff99","-1"," ","0","+10","[821.5999999996275,1645.4000000003725]","2","2","","","20582","88","4","2","win","no-go","1"
"pit-trial","207","1304012","0.0-93.0","battery-v0.2","","""event"",""trial"",""time""
""fullscreenenter"",""1"",""4098""
","
","
","""event"",""trial"",""time""
""fullscreenenter"",""1"",""4098""
","
","","","1546.3999999985099","","","13","20582","7625","y","elianto","#f73b6a7A"," "," ","1","0","[2396.699999999255]","1","2","","","20582","89","7","3","lose","go","0"
"pit-trial","208","1307557","0.0-94.0","battery-v0.2","","""event"",""trial"",""time""
""fullscreenenter"",""1"",""4098""
","
","
","""event"",""trial"",""time""
""fullscreenenter"",""1"",""4098""
","
","","","689.6999999992549","","","13","20582","7625","c","elianto","#3366ff99","-1"," ","0","0","[1539.9000000003725]","1","2","","","20582","90","4","2","win","no-go","0"
"pit-trial","209","1311025","0.0-95.0","battery-v0.2","","""event"",""trial"",""time""
""fullscreenenter"",""1"",""4098""
","
","
","""event"",""trial"",""time""
""fullscreenenter"",""1"",""4098""
","
","","","613.6000000014901","","","13","20582","7625","z","elianto","#3366ff99"," "," ","1","+10","[1463.699999999255]","1","2","","","20582","91","5","1","win","go","0"
"pit-trial","210","1315617","0.0-96.0","battery-v0.2","","""event"",""trial"",""time""
""fullscreenenter"",""1"",""4098""
","
","
","""event"",""trial"",""time""
""fullscreenenter"",""1"",""4098""
","
","","","1736.5999999996275","","","13","20582","7625","h","elianto","#f73b6a7A","-1"," ","0","0","[2586.7000000011176,4210.700000001118]","2","2","","","20582","92","6","4","lose","no-go","1"
"pit-trial","211","1319335","0.0-97.0","battery-v0.2","","""event"",""trial"",""time""
""fullscreenenter"",""1"",""4098""
","
","
","""event"",""trial"",""time""
""fullscreenenter"",""1"",""4098""
","
","","","863.3000000007451","","","13","20582","7625","z","elianto","#3366ff99"," "," ","1","+10","[1714.2000000011176]","1","2","","","20582","93","5","1","win","go","0"
"pit-trial","212","1323847","0.0-98.0","battery-v0.2","","""event"",""trial"",""time""
""fullscreenenter"",""1"",""4098""
","
","
","""event"",""trial"",""time""
""fullscreenenter"",""1"",""4098""
","
","","","1657.7999999988824","","","13","20582","7625","h","elianto","#f73b6a7A","-1"," ","0","-10","[2507.7999999988824]","1","2","","","20582","94","6","4","lose","no-go","0"
"pit-trial","213","1327879","0.0-99.0","battery-v0.2","","""event"",""trial"",""time""
""fullscreenenter"",""1"",""4098""
","
","
","""event"",""trial"",""time""
""fullscreenenter"",""1"",""4098""
","
","","","1178.6000000014901","","","13","20582","7625","y","elianto","#f73b6a7A"," "," ","1","0","[2028.9000000003725]","1","2","","","20582","95","7","3","lose","go","0"
"pit-trial","214","1331546","0.0-100.0","battery-v0.2","","""event"",""trial"",""time""
""fullscreenenter"",""1"",""4098""
","
","
","""event"",""trial"",""time""
""fullscreenenter"",""1"",""4098""
","
","","","812.3000000007451","","","13","20582","7625","r","elianto","#3366ff99","-1"," ","0","+10","[1662.3999999985099]","1","2","","","20582","96","8","2","win","no-go","1"
"pit-trial","215","1336401","0.0-101.0","battery-v0.2","","""event"",""trial"",""time""
""fullscreenenter"",""1"",""4098""
","
","
","""event"",""trial"",""time""
""fullscreenenter"",""1"",""4098""
","
","","","-1","","","13","20582","7625","h","elianto","#f73b6a7A","-1","-1","1","0","[2924]","1","2","","","20582","97","6","4","lose","no-go","0"
"pit-trial","216","1340094","0.0-102.0","battery-v0.2","","""event"",""trial"",""time""
""fullscreenenter"",""1"",""4098""
","
","
","""event"",""trial"",""time""
""fullscreenenter"",""1"",""4098""
","
","","","839.3000000007451","","","13","20582","7625","z","elianto","#3366ff99"," "," ","1","+10","[1689.3999999985099]","1","2","","","20582","98","5","1","win","go","0"
"pit-trial","217","1344293","0.0-103.0","battery-v0.2","","""event"",""trial"",""time""
""fullscreenenter"",""1"",""4098""
","
","
","""event"",""trial"",""time""
""fullscreenenter"",""1"",""4098""
","
","","","1344.0999999996275","","","13","20582","7625","y","elianto","#f73b6a7A"," "," ","1","0","[2194.199999999255]","1","2","","","20582","99","7","3","lose","go","0"
"pit-trial","218","1348280","0.0-104.0","battery-v0.2","","""event"",""trial"",""time""
""fullscreenenter"",""1"",""4098""
","
","
","""event"",""trial"",""time""
""fullscreenenter"",""1"",""4098""
","
","","","1132.300000000745","","","13","20582","7625","r","elianto","#3366ff99","-1"," ","0","+10","[1982.3999999985099]","1","2","","","20582","100","8","2","win","no-go","1"
"pit-trial","219","1352037","0.0-105.0","battery-v0.2","","""event"",""trial"",""time""
""fullscreenenter"",""1"",""4098""
","
","
","""event"",""trial"",""time""
""fullscreenenter"",""1"",""4098""
","
","","","901.6999999992549","","","13","20582","7625","r","elianto","#3366ff99","-1"," ","0","+10","[1751.7999999988824]","1","2","","","20582","101","8","2","win","no-go","1"
"pit-trial","220","1355903","0.0-106.0","battery-v0.2","","""event"",""trial"",""time""
""fullscreenenter"",""1"",""4098""
","
","
","""event"",""trial"",""time""
""fullscreenenter"",""1"",""4098""
","
","","","1011.0999999996275","","","13","20582","7625","z","elianto","#3366ff99"," "," ","1","0","[1861.4000000003725]","1","2","","","20582","102","5","1","win","go","1"
"pit-trial","221","1359550","0.0-107.0","battery-v0.2","","""event"",""trial"",""time""
""fullscreenenter"",""1"",""4098""
","
","
","""event"",""trial"",""time""
""fullscreenenter"",""1"",""4098""
","
","","","794.1999999992549","","","13","20582","7625","m","elianto","#3366ff99","-1"," ","0","0","[1644.199999999255]","1","2","","","20582","103","9","2","win","no-go","0"
"pit-trial","222","1363424","0.0-108.0","battery-v0.2","","""event"",""trial"",""time""
""fullscreenenter"",""1"",""4098""
","
","
","""event"",""trial"",""time""
""fullscreenenter"",""1"",""4098""
","
","","","1018.7000000011176","","","13","20582","7625","h","elianto","#f73b6a7A","-1"," ","0","-10","[1869.4000000003725]","1","2","","","20582","104","6","4","lose","no-go","0"
"pit-trial","223","1367750","0.0-109.0","battery-v0.2","","""event"",""trial"",""time""
""fullscreenenter"",""1"",""4098""
","
","
","""event"",""trial"",""time""
""fullscreenenter"",""1"",""4098""
","
","","","1472.6000000014901","","","13","20582","7625","m","elianto","#3366ff99","-1"," ","0","0","[2322.9000000003725]","1","2","","","20582","105","9","2","win","no-go","0"
"pit-trial","224","1372605","0.0-110.0","battery-v0.2","","""event"",""trial"",""time""
""fullscreenenter"",""1"",""4098""
","
","
","""event"",""trial"",""time""
""fullscreenenter"",""1"",""4098""
","
","","","-1","","","13","20582","7625","h","elianto","#f73b6a7A","-1","-1","1","-10","[]","0","2","","","20582","106","6","4","lose","no-go","1"
"pit-trial","225","1376516","0.0-111.0","battery-v0.2","","""event"",""trial"",""time""
""fullscreenenter"",""1"",""4098""
","
","
","""event"",""trial"",""time""
""fullscreenenter"",""1"",""4098""
","
","","","1055.5","","","13","20582","7625","z","elianto","#3366ff99"," "," ","1","0","[1905.5999999996275]","1","2","","","20582","107","5","1","win","go","1"
"pit-trial","226","1380382","0.0-112.0","battery-v0.2","","""event"",""trial"",""time""
""fullscreenenter"",""1"",""4098""
","
","
","""event"",""trial"",""time""
""fullscreenenter"",""1"",""4098""
","
","","","1012","","","13","20582","7625","r","elianto","#3366ff99","-1"," ","0","+10","[1861.800000000745]","1","2","","","20582","108","8","2","win","no-go","1"
"pit-trial","227","1385235","0.0-113.0","battery-v0.2","","""event"",""trial"",""time""
""fullscreenenter"",""1"",""4098""
","
","
","""event"",""trial"",""time""
""fullscreenenter"",""1"",""4098""
","
","","","-1","","","13","20582","7625","h","elianto","#f73b6a7A","-1","-1","1","0","[]","0","2","","","20582","109","6","4","lose","no-go","0"
"pit-trial","228","1388949","0.0-114.0","battery-v0.2","","""event"",""trial"",""time""
""fullscreenenter"",""1"",""4098""
","
","
","""event"",""trial"",""time""
""fullscreenenter"",""1"",""4098""
","
","","","859.3000000007451","","","13","20582","7625","m","elianto","#3366ff99","-1"," ","0","+10","[1709.4000000003725]","1","2","","","20582","110","9","2","win","no-go","1"
"pit-trial","229","1392775","0.0-115.0","battery-v0.2","","""event"",""trial"",""time""
""fullscreenenter"",""1"",""4098""
","
","
","""event"",""trial"",""time""
""fullscreenenter"",""1"",""4098""
","
","","","971","","","13","20582","7625","z","elianto","#3366ff99"," "," ","1","+10","[1821]","1","2","","","20582","111","5","1","win","go","0"
"pit-trial","230","1396517","0.0-116.0","battery-v0.2","","""event"",""trial"",""time""
""fullscreenenter"",""1"",""4098""
","
","
","""event"",""trial"",""time""
""fullscreenenter"",""1"",""4098""
","
","","","887.1999999992549","","","13","20582","7625","r","elianto","#3366ff99","-1"," ","0","0","[1737.300000000745]","1","2","","","20582","112","8","2","win","no-go","0"
"pit-trial","231","1400185","0.0-117.0","battery-v0.2","","""event"",""trial"",""time""
""fullscreenenter"",""1"",""4098""
","
","
","""event"",""trial"",""time""
""fullscreenenter"",""1"",""4098""
","
","","","812.2999999988824","","","13","20582","7625","r","elianto","#3366ff99","-1"," ","0","0","[1662.5]","1","2","","","20582","113","8","2","win","no-go","0"
"pit-trial","232","1405041","0.0-118.0","battery-v0.2","","""event"",""trial"",""time""
""fullscreenenter"",""1"",""4098""
","
","
","""event"",""trial"",""time""
""fullscreenenter"",""1"",""4098""
","
","","","-1","","","13","20582","7625","y","elianto","#f73b6a7A"," ","-1","0","0","[]","0","2","","","20582","114","7","3","lose","go","1"
"pit-trial","233","1408658","0.0-119.0","battery-v0.2","","""event"",""trial"",""time""
""fullscreenenter"",""1"",""4098""
","
","
","""event"",""trial"",""time""
""fullscreenenter"",""1"",""4098""
","
","","","763.1999999992549","","","13","20582","7625","m","elianto","#3366ff99","-1"," ","0","0","[1613.4000000003725,1980.800000000745]","2","2","","","20582","115","9","2","win","no-go","0"
"pit-trial","234","1412264","0.0-120.0","battery-v0.2","","""event"",""trial"",""time""
""fullscreenenter"",""1"",""4098""
","
","
","""event"",""trial"",""time""
""fullscreenenter"",""1"",""4098""
","
","","","751.5","","","13","20582","7625","z","elianto","#3366ff99"," "," ","1","+10","[1602]","1","2","","","20582","116","5","1","win","go","0"
"pit-trial","235","1416889","0.0-121.0","battery-v0.2","","""event"",""trial"",""time""
""fullscreenenter"",""1"",""4098""
","
","
","""event"",""trial"",""time""
""fullscreenenter"",""1"",""4098""
","
","","","1770.0999999996275","","","13","20582","7625","m","elianto","#3366ff99","-1"," ","0","0","[2619.9000000003725]","1","2","","","20582","117","9","2","win","no-go","0"
"pit-trial","236","1420891","0.0-122.0","battery-v0.2","","""event"",""trial"",""time""
""fullscreenenter"",""1"",""4098""
","
","
","""event"",""trial"",""time""
""fullscreenenter"",""1"",""4098""
","
","","","1146.9000000003725","","","13","20582","7625","h","elianto","#f73b6a7A","-1"," ","0","-10","[1996.800000000745]","1","2","","","20582","118","6","4","lose","no-go","0"
"pit-trial","237","1424767","0.0-123.0","battery-v0.2","","""event"",""trial"",""time""
""fullscreenenter"",""1"",""4098""
","
","
","""event"",""trial"",""time""
""fullscreenenter"",""1"",""4098""
","
","","","1021.5999999996275","","","13","20582","7625","z","elianto","#3366ff99"," "," ","1","+10","[1871.8999999985099]","1","2","","","20582","119","5","1","win","go","0"
"pit-trial","238","1429622","0.0-124.0","battery-v0.2","","""event"",""trial"",""time""
""fullscreenenter"",""1"",""4098""
","
","
","""event"",""trial"",""time""
""fullscreenenter"",""1"",""4098""
","
","","","-1","","","13","20582","7625","r","elianto","#3366ff99","-1","-1","1","0","[]","0","2","","","20582","120","8","2","win","no-go","1"
"pit-trial","239","1433555","0.0-125.0","battery-v0.2","","""event"",""trial"",""time""
""fullscreenenter"",""1"",""4098""
","
","
","""event"",""trial"",""time""
""fullscreenenter"",""1"",""4098""
","
","","","1080.2000000011176","","","13","20582","7625","r","elianto","#3366ff99","-1"," ","0","0","[1930.4000000003725]","1","2","","","20582","121","8","2","win","no-go","0"
"pit-trial","240","1437368","0.0-126.0","battery-v0.2","","""event"",""trial"",""time""
""fullscreenenter"",""1"",""4098""
","
","
","""event"",""trial"",""time""
""fullscreenenter"",""1"",""4098""
","
","","","958.2999999988824","","","13","20582","7625","m","elianto","#3366ff99","-1"," ","0","0","[1808.1000000014901]","1","2","","","20582","122","9","2","win","no-go","0"
"pit-trial","241","1441175","0.0-127.0","battery-v0.2","","""event"",""trial"",""time""
""fullscreenenter"",""1"",""4098""
","
","
","""event"",""trial"",""time""
""fullscreenenter"",""1"",""4098""
","
","","","951.6000000014901","","","13","20582","7625","y","elianto","#f73b6a7A"," "," ","1","0","[1801.699999999255]","1","2","","","20582","123","7","3","lose","go","0"
"pit-trial","242","1444822","0.0-128.0","battery-v0.2","","""event"",""trial"",""time""
""fullscreenenter"",""1"",""4098""
","
","
","""event"",""trial"",""time""
""fullscreenenter"",""1"",""4098""
","
","","","792.0999999996275","","","13","20582","7625","z","elianto","#3366ff99"," "," ","1","+10","[1642.5999999996275]","1","2","","","20582","124","5","1","win","go","0"
"pit-trial","243","1449678","0.0-129.0","battery-v0.2","","""event"",""trial"",""time""
""fullscreenenter"",""1"",""4098""
","
","
","""event"",""trial"",""time""
""fullscreenenter"",""1"",""4098""
","
","","","-1","","","13","20582","7625","h","elianto","#f73b6a7A","-1","-1","1","0","[]","0","2","","","20582","125","6","4","lose","no-go","0"
"pit-trial","244","1453932","0.0-130.0","battery-v0.2","","""event"",""trial"",""time""
""fullscreenenter"",""1"",""4098""
","
","
","""event"",""trial"",""time""
""fullscreenenter"",""1"",""4098""
","
","","","1399.7000000011176","","","13","20582","7625","y","elianto","#f73b6a7A"," "," ","1","-10","[2249.9000000003725]","1","2","","","20582","126","7","3","lose","go","1"
"pit-trial","245","1457603","0.0-131.0","battery-v0.2","","""event"",""trial"",""time""
""fullscreenenter"",""1"",""4098""
","
","
","""event"",""trial"",""time""
""fullscreenenter"",""1"",""4098""
","
","","","818.3000000007451","","","13","20582","7625","m","elianto","#3366ff99","-1"," ","0","0","[1668.5]","1","2","","","20582","127","9","2","win","no-go","0"
"pit-trial","246","1462457","0.0-132.0","battery-v0.2","","""event"",""trial"",""time""
""fullscreenenter"",""1"",""4098""
","
","
","""event"",""trial"",""time""
""fullscreenenter"",""1"",""4098""
","
","","","-1","","","13","20582","7625","r","elianto","#3366ff99","-1","-1","1","+10","[]","0","2","","","20582","128","8","2","win","no-go","0"
"pit-trial","247","1466270","0.0-133.0","battery-v0.2","","""event"",""trial"",""time""
""fullscreenenter"",""1"",""4098""
","
","
","""event"",""trial"",""time""
""fullscreenenter"",""1"",""4098""
","
","","","958.7999999988824","","","13","20582","7625","m","elianto","#3366ff99","-1"," ","0","0","[1809]","1","2","","","20582","129","9","2","win","no-go","0"
"pit-trial","248","1471125","0.0-134.0","battery-v0.2","","""event"",""trial"",""time""
""fullscreenenter"",""1"",""4098""
","
","
","""event"",""trial"",""time""
""fullscreenenter"",""1"",""4098""
","
","","","-1","","","13","20582","7625","r","elianto","#3366ff99","-1","-1","1","+10","[]","0","2","","","20582","130","8","2","win","no-go","0"
"pit-trial","249","1475980","0.0-135.0","battery-v0.2","","""event"",""trial"",""time""
""fullscreenenter"",""1"",""4098""
","
","
","""event"",""trial"",""time""
""fullscreenenter"",""1"",""4098""
","
","","","-1","","","13","20582","7625","h","elianto","#f73b6a7A","-1","-1","1","0","[]","0","2","","","20582","131","6","4","lose","no-go","0"
"pit-trial","250","1479559","0.0-136.0","battery-v0.2","","""event"",""trial"",""time""
""fullscreenenter"",""1"",""4098""
","
","
","""event"",""trial"",""time""
""fullscreenenter"",""1"",""4098""
","
","","","723.5","","","13","20582","7625","y","elianto","#f73b6a7A"," "," ","1","0","[1573.7999999988824]","1","2","","","20582","132","7","3","lose","go","0"
"pit-trial","251","1484413","0.0-137.0","battery-v0.2","","""event"",""trial"",""time""
""fullscreenenter"",""1"",""4098""
","
","
","""event"",""trial"",""time""
""fullscreenenter"",""1"",""4098""
","
","","","-1","","","13","20582","7625","r","elianto","#3366ff99","-1","-1","1","0","[]","0","2","","","20582","133","8","2","win","no-go","1"
"pit-trial","252","1489267","0.0-138.0","battery-v0.2","","""event"",""trial"",""time""
""fullscreenenter"",""1"",""4098""
","
","
","""event"",""trial"",""time""
""fullscreenenter"",""1"",""4098""
","
","","","-1","","","13","20582","7625","m","elianto","#3366ff99","-1","-1","1","+10","[]","0","2","","","20582","134","9","2","win","no-go","0"
"pit-trial","253","1494120","0.0-139.0","battery-v0.2","","""event"",""trial"",""time""
""fullscreenenter"",""1"",""4098""
","
","
","""event"",""trial"",""time""
""fullscreenenter"",""1"",""4098""
","
","","","-1","","","13","20582","7625","h","elianto","#f73b6a7A","-1","-1","1","0","[]","0","2","","","20582","135","6","4","lose","no-go","0"
"pit-trial","254","1497767","0.0-140.0","battery-v0.2","","""event"",""trial"",""time""
""fullscreenenter"",""1"",""4098""
","
","
","""event"",""trial"",""time""
""fullscreenenter"",""1"",""4098""
","
","","","791.9000000003725","","","13","20582","7625","y","elianto","#f73b6a7A"," "," ","1","-10","[1642.2000000011176]","1","2","","","20582","136","7","3","lose","go","1"
"pit-trial","255","1502623","0.0-141.0","battery-v0.2","","""event"",""trial"",""time""
""fullscreenenter"",""1"",""4098""
","
","
","""event"",""trial"",""time""
""fullscreenenter"",""1"",""4098""
","
","","","-1","","","13","20582","7625","r","elianto","#3366ff99","-1","-1","1","+10","[]","0","2","","","20582","137","8","2","win","no-go","0"
"pit-trial","256","1507476","0.0-142.0","battery-v0.2","","""event"",""trial"",""time""
""fullscreenenter"",""1"",""4098""
","
","
","""event"",""trial"",""time""
""fullscreenenter"",""1"",""4098""
","
","","","-1","","","13","20582","7625","m","elianto","#3366ff99","-1","-1","1","+10","[]","0","2","","","20582","138","9","2","win","no-go","0"
"pit-trial","257","1512331","0.0-143.0","battery-v0.2","","""event"",""trial"",""time""
""fullscreenenter"",""1"",""4098""
","
","
","""event"",""trial"",""time""
""fullscreenenter"",""1"",""4098""
","
","","","-1","","","13","20582","7625","h","elianto","#f73b6a7A","-1","-1","1","-10","[]","0","2","","","20582","139","6","4","lose","no-go","1"
"pit-trial","258","1516489","0.0-144.0","battery-v0.2","","""event"",""trial"",""time""
""fullscreenenter"",""1"",""4098""
","
","
","""event"",""trial"",""time""
""fullscreenenter"",""1"",""4098""
","
","","","1303.1000000014901","","","13","20582","7625","y","elianto","#f73b6a7A"," "," ","1","-10","[2153.300000000745]","1","2","","","20582","140","7","3","lose","go","1"
"pit-instructions","259","1545201","0.0-145.0","battery-v0.2","","""event"",""trial"",""time""
""fullscreenenter"",""1"",""4098""
","
","
","""event"",""trial"",""time""
""fullscreenenter"",""1"",""4098""
","
","","[{""page_index"":0,""viewing_time"":19944.400000000373},{""page_index"":1,""viewing_time"":8763.099999999627}]","28707.900000000373","","","","","","","","","","","","","","","","","","","","","","","",""
"pit-trial","260","1549252","0.0-146.0","battery-v0.2","","""event"",""trial"",""time""
""fullscreenenter"",""1"",""4098""
","
","
","""event"",""trial"",""time""
""fullscreenenter"",""1"",""4098""
","
","","","1194.7999999988824","","","13","20582","7625","u","elianto","#f73b6a7A"," "," ","1","0","[2045]","1","3","","","20582","141","0","3","lose","go","0"
"pit-trial","261","1553049","0.0-147.0","battery-v0.2","","""event"",""trial"",""time""
""fullscreenenter"",""1"",""4098""
","
","
","""event"",""trial"",""time""
""fullscreenenter"",""1"",""4098""
","
","","","944.5999999996275","","","13","20582","7625","l","elianto","#3366ff99","-1"," ","0","0","[1795.199999999255]","1","3","","","20582","142","1","2","win","no-go","0"
"pit-trial","262","1556683","0.0-148.0","battery-v0.2","","""event"",""trial"",""time""
""fullscreenenter"",""1"",""4098""
","
","
","""event"",""trial"",""time""
""fullscreenenter"",""1"",""4098""
","
","","","781.3000000007451","","","13","20582","7625","a","elianto","#f73b6a7A"," "," ","1","0","[1631.4000000003725]","1","3","","","20582","143","2","3","lose","go","0"
"pit-trial","263","1560356","0.0-149.0","battery-v0.2","","""event"",""trial"",""time""
""fullscreenenter"",""1"",""4098""
","
","
","""event"",""trial"",""time""
""fullscreenenter"",""1"",""4098""
","
","","","820.5","","","13","20582","7625","g","elianto","#f73b6a7A","-1"," ","0","0","[1670.5999999996275]","1","3","","","20582","144","3","4","lose","no-go","1"
