"trial_type","trial_index","time_elapsed","internal_node_id","task_version","subject_id","interactions","blur_events","focus_events","fullscreenenter_events","fullscreenexit_events","success","view_history","rt","responses","num_errors","age","subject","participantId","rune","rune_set","hex","correct","choice","accuracy","outcome","keys","total_keys","block","practice","value","sub","trial","stimulus","robot","valence","action","sham"
"pavlovia","0","55","0.0-0.0","battery-v0.2","","""event"",""trial"",""time""
""fullscreenenter"",""1"",""17091""
","
","
","""event"",""trial"",""time""
""fullscreenenter"",""1"",""17091""
","
","","","","","","","","","","","","","","","","","","","","","","","","","","",""
"fullscreen","1","18082","0.0-1.0","battery-v0.2","","""event"",""trial"",""time""
""fullscreenenter"",""1"",""17091""
","
","
","""event"",""trial"",""time""
""fullscreenenter"",""1"",""17091""
","
","true","","","","","","","","","","","","","","","","","","","","","","","","","",""
"pit-instructions","2","67653","0.0-2.0-0.0","battery-v0.2","","""event"",""trial"",""time""
""fullscreenenter"",""1"",""17091""
","
","
","""event"",""trial"",""time""
""fullscreenenter"",""1"",""17091""
","
","","[{""page_index"":0,""viewing_time"":49541.59999999963}]","49548.79999999888","","","","","","","","","","","","","","","","","","","","","","","",""
"pit-comprehension","3","71059","0.0-2.0-1.0-0.0","battery-v0.2","","""event"",""trial"",""time""
""fullscreenenter"",""1"",""17091""
","
","
","""event"",""trial"",""time""
""fullscreenenter"",""1"",""17091""
","
","","","3390.5","[""shark""]","0","15","4245","1457","","","","","","","","","","","","","","","","","","",""
"pit-instructions","4","72112","0.0-2.0-1.0-1.0","battery-v0.2","","""event"",""trial"",""time""
""fullscreenenter"",""1"",""17091""
","
","
","""event"",""trial"",""time""
""fullscreenenter"",""1"",""17091""
","
","","[{""page_index"":0,""viewing_time"":1001.5}]","1002.9000000003725","","","","","","","","","","","","","","","","","","","","","","","",""
"pit-comprehension","5","74481","0.0-2.0-2.0-0.0","battery-v0.2","","""event"",""trial"",""time""
""fullscreenenter"",""1"",""17091""
","
","
","""event"",""trial"",""time""
""fullscreenenter"",""1"",""17091""
","
","","","2348.5999999996275","[""tiger""]","0","15","4245","1457","","","","","","","","","","","","","","","","","","",""
"pit-instructions","6","75619","0.0-2.0-2.0-1.0","battery-v0.2","","""event"",""trial"",""time""
""fullscreenenter"",""1"",""17091""
","
","
","""event"",""trial"",""time""
""fullscreenenter"",""1"",""17091""
","
","","[{""page_index"":0,""viewing_time"":1125.4000000003725}]","1127","","","","","","","","","","","","","","","","","","","","","","","",""
"pit-instructions","7","237103","0.0-2.0-3.0","battery-v0.2","","""event"",""trial"",""time""
""fullscreenenter"",""1"",""17091""
","
","
","""event"",""trial"",""time""
""fullscreenenter"",""1"",""17091""
","
","","[{""page_index"":0,""viewing_time"":17733.299999998882},{""page_index"":1,""viewing_time"":9385.400000000373},{""page_index"":2,""viewing_time"":7678.300000000745},{""page_index"":3,""viewing_time"":8038.199999999255},{""page_index"":4,""viewing_time"":5710.0999999996275},{""page_index"":5,""viewing_time"":7390.60000000149},{""page_index"":6,""viewing_time"":12421.599999999627},{""page_index"":7,""viewing_time"":7861.4000000003725},{""page_index"":8,""viewing_time"":8665.89999999851},{""page_index"":9,""viewing_time"":5924.5},{""page_index"":10,""viewing_time"":17612.60000000149},{""page_index"":11,""viewing_time"":17639.199999999255},{""page_index"":12,""viewing_time"":13212.900000000373},{""page_index"":13,""viewing_time"":22195.799999998882}]","161472","","","","","","","","","","","","","","","","","","","","","","","",""
"pit-trial","8","241975","0.0-2.0-4.0-0.0","battery-v0.2","","""event"",""trial"",""time""
""fullscreenenter"",""1"",""17091""
","
","
","""event"",""trial"",""time""
""fullscreenenter"",""1"",""17091""
","
","","","-1","","","15","4245","1457","&#9784;","elianto","#FFFFF080"," ","-1","0","&#10060","[]","0","0","0","","","","","","","",""
"pit-trial","9","246842","0.0-2.0-4.1-0.1","battery-v0.2","","""event"",""trial"",""time""
""fullscreenenter"",""1"",""17091""
","
","
","""event"",""trial"",""time""
""fullscreenenter"",""1"",""17091""
","
","","","-1","","","15","4245","1457","&#9784;","elianto","#FFFFF080"," ","-1","0","&#10060","[]","0","0","0","","","","","","","",""
"pit-trial","10","251710","0.0-2.0-4.2-0.2","battery-v0.2","","""event"",""trial"",""time""
""fullscreenenter"",""1"",""17091""
","
","
","""event"",""trial"",""time""
""fullscreenenter"",""1"",""17091""
","
","","","-1","","","15","4245","1457","&#9784;","elianto","#FFFFF080"," ","-1","0","&#10060","[]","0","0","0","","","","","","","",""
"pit-trial","11","256579","0.0-2.0-4.3-0.3","battery-v0.2","","""event"",""trial"",""time""
""fullscreenenter"",""1"",""17091""
","
","
","""event"",""trial"",""time""
""fullscreenenter"",""1"",""17091""
","
","","","-1","","","15","4245","1457","&#9784;","elianto","#FFFFF080"," ","-1","0","&#10060","[]","0","0","0","","","","","","","",""
"pit-trial","12","261446","0.0-2.0-4.4-0.4","battery-v0.2","","""event"",""trial"",""time""
""fullscreenenter"",""1"",""17091""
","
","
","""event"",""trial"",""time""
""fullscreenenter"",""1"",""17091""
","
","","","-1","","","15","4245","1457","&#9784;","elianto","#FFFFF080"," ","-1","0","&#10060","[]","0","0","0","","","","","","","",""
"pit-trial","13","265305","0.0-2.0-4.5-0.5","battery-v0.2","","""event"",""trial"",""time""
""fullscreenenter"",""1"",""17091""
","
","
","""event"",""trial"",""time""
""fullscreenenter"",""1"",""17091""
","
","","","994.3999999985099","","","15","4245","1457","&#9784;","elianto","#FFFFF080"," "," ","1","&#10004","[809.5999999996275,1844.4000000003725]","2","0","0","","","","","","","",""
"pit-trial","14","268544","0.0-2.0-4.6-0.6","battery-v0.2","","""event"",""trial"",""time""
""fullscreenenter"",""1"",""17091""
","
","
","""event"",""trial"",""time""
""fullscreenenter"",""1"",""17091""
","
","","","371.5","","","15","4245","1457","&#9784;","elianto","#FFFFF080"," "," ","1","&#10004","[1221.2999999988824]","1","0","0","","","","","","","",""
"pit-instructions","15","283803","0.0-2.0-4.6-1.6-0.6","battery-v0.2","","""event"",""trial"",""time""
""fullscreenenter"",""1"",""17091""
","
","
","""event"",""trial"",""time""
""fullscreenenter"",""1"",""17091""
","
","","[{""page_index"":0,""viewing_time"":7154},{""page_index"":1,""viewing_time"":8091.5999999996275}]","15249.700000001118","","","","","","","","","","","","","","","","","","","","","","","",""
"pit-trial","16","287293","0.0-2.0-4.7-0.7","battery-v0.2","","""event"",""trial"",""time""
""fullscreenenter"",""1"",""17091""
","
","
","""event"",""trial"",""time""
""fullscreenenter"",""1"",""17091""
","
","","","623","","","15","4245","1457","&#9784;","elianto","#FFFFF080"," "," ","1","&#10004","[1475.7000000011176]","1","0","0","","","","","","","",""
"pit-instructions","17","319566","0.0-2.0-5.0","battery-v0.2","","""event"",""trial"",""time""
""fullscreenenter"",""1"",""17091""
","
","
","""event"",""trial"",""time""
""fullscreenenter"",""1"",""17091""
","
","","[{""page_index"":0,""viewing_time"":10843.599999999627},{""page_index"":1,""viewing_time"":7813.4000000003725},{""page_index"":2,""viewing_time"":5434.299999998882},{""page_index"":3,""viewing_time"":8160.5999999996275}]","32256.199999999255","","","","","","","","","","","","","","","","","","","","","","","",""
"pit-trial","18","324428","0.0-2.0-6.0-0.0","battery-v0.2","","""event"",""trial"",""time""
""fullscreenenter"",""1"",""17091""
","
","
","""event"",""trial"",""time""
""fullscreenenter"",""1"",""17091""
","
","","","-1","","","15","4245","1457","&#9854;","elianto","#FFFFF080","-1","-1","1","&#10004","[]","0","0","1","","","","","","","",""
"pit-trial","19","329293","0.0-2.0-6.1-0.1","battery-v0.2","","""event"",""trial"",""time""
""fullscreenenter"",""1"",""17091""
","
","
","""event"",""trial"",""time""
""fullscreenenter"",""1"",""17091""
","
","","","-1","","","15","4245","1457","&#9854;","elianto","#FFFFF080","-1","-1","1","&#10004","[]","0","0","1","","","","","","","",""
"pit-trial","20","334158","0.0-2.0-6.2-0.2","battery-v0.2","","""event"",""trial"",""time""
""fullscreenenter"",""1"",""17091""
","
","
","""event"",""trial"",""time""
""fullscreenenter"",""1"",""17091""
","
","","","-1","","","15","4245","1457","&#9854;","elianto","#FFFFF080","-1","-1","1","&#10004","[]","0","0","1","","","","","","","",""
"pit-trial","21","339025","0.0-2.0-6.3-0.3","battery-v0.2","","""event"",""trial"",""time""
""fullscreenenter"",""1"",""17091""
","
","
","""event"",""trial"",""time""
""fullscreenenter"",""1"",""17091""
","
","","","-1","","","15","4245","1457","&#9854;","elianto","#FFFFF080","-1","-1","1","&#10004","[]","0","0","1","","","","","","","",""
"pit-trial","22","343893","0.0-2.0-6.4-0.4","battery-v0.2","","""event"",""trial"",""time""
""fullscreenenter"",""1"",""17091""
","
","
","""event"",""trial"",""time""
""fullscreenenter"",""1"",""17091""
","
","","","-1","","","15","4245","1457","&#9854;","elianto","#FFFFF080","-1","-1","1","&#10004","[]","0","0","1","","","","","","","",""
"pit-instructions","23","550310","0.0-2.0-7.0","battery-v0.2","","""event"",""trial"",""time""
""fullscreenenter"",""1"",""17091""
","
","
","""event"",""trial"",""time""
""fullscreenenter"",""1"",""17091""
","
","","[{""page_index"":0,""viewing_time"":20396},{""page_index"":1,""viewing_time"":8167.800000000745},{""page_index"":2,""viewing_time"":8422.5},{""page_index"":3,""viewing_time"":17398.89999999851},{""page_index"":4,""viewing_time"":6304},{""page_index"":5,""viewing_time"":11172.900000000373},{""page_index"":6,""viewing_time"":12990.099999999627},{""page_index"":7,""viewing_time"":7934.9000000003725},{""page_index"":8,""viewing_time"":10531.599999999627},{""page_index"":9,""viewing_time"":7117.5},{""page_index"":10,""viewing_time"":12292.10000000149},{""page_index"":11,""viewing_time"":10036.299999998882},{""page_index"":12,""viewing_time"":20119.700000001118},{""page_index"":13,""viewing_time"":16627.699999999255},{""page_index"":14,""viewing_time"":11436.800000000745},{""page_index"":15,""viewing_time"":10717},{""page_index"":16,""viewing_time"":7017.5999999996275},{""page_index"":17,""viewing_time"":7720.699999999255}]","206407","","","","","","","","","","","","","","","","","","","","","","","",""
"pit-trial","24","553941","0.0-2.0-8.0-0.0","battery-v0.2","","""event"",""trial"",""time""
""fullscreenenter"",""1"",""17091""
","
","
","""event"",""trial"",""time""
""fullscreenenter"",""1"",""17091""
","
","","","766","","","15","4245","1457","&#9776;","elianto","#3366ff99"," "," ","1","+10","[1616.5]","1","0","1","","","","","","","",""
"pit-trial","25","557356","0.0-2.0-8.0-1.0","battery-v0.2","","""event"",""trial"",""time""
""fullscreenenter"",""1"",""17091""
","
","
","""event"",""trial"",""time""
""fullscreenenter"",""1"",""17091""
","
","","","550.5","","","15","4245","1457","&#9776;","elianto","#3366ff99"," "," ","1","+10","[1403.9000000003725]","1","0","1","","","","","","","",""
"pit-trial","26","560426","0.0-2.0-8.0-2.0","battery-v0.2","","""event"",""trial"",""time""
""fullscreenenter"",""1"",""17091""
","
","
","""event"",""trial"",""time""
""fullscreenenter"",""1"",""17091""
","
","","","203.2999999988824","","","15","4245","1457","&#9776;","elianto","#3366ff99"," "," ","1","+10","[1058,2268.199999999255]","2","0","1","","","","","","","",""
"pit-trial","27","563361","0.0-2.0-8.0-3.0","battery-v0.2","","""event"",""trial"",""time""
""fullscreenenter"",""1"",""17091""
","
","
","""event"",""trial"",""time""
""fullscreenenter"",""1"",""17091""
","
","","","72.40000000037253","","","15","4245","1457","&#9776;","elianto","#3366ff99"," "," ","1","0","[924.5]","1","0","1","","","","","","","",""
"pit-trial","28","566346","0.0-2.0-8.0-4.0","battery-v0.2","","""event"",""trial"",""time""
""fullscreenenter"",""1"",""17091""
","
","
","""event"",""trial"",""time""
""fullscreenenter"",""1"",""17091""
","
","","","125.60000000149012","","","15","4245","1457","&#9776;","elianto","#3366ff99"," "," ","1","+10","[976]","1","0","1","","","","","","","",""
"pit-trial","29","569505","0.0-2.0-8.1-0.1","battery-v0.2","","""event"",""trial"",""time""
""fullscreenenter"",""1"",""17091""
","
","
","""event"",""trial"",""time""
""fullscreenenter"",""1"",""17091""
","
","","","294.40000000037253","","","15","4245","1457","&#9776;","elianto","#3366ff99"," "," ","1","+10","[1144.300000000745]","1","0","1","","","","","","","",""
"pit-trial","30","572477","0.0-2.0-8.1-1.1","battery-v0.2","","""event"",""trial"",""time""
""fullscreenenter"",""1"",""17091""
","
","
","""event"",""trial"",""time""
""fullscreenenter"",""1"",""17091""
","
","","","111.5","","","15","4245","1457","&#9776;","elianto","#3366ff99"," "," ","1","+10","[961.5999999996275]","1","0","1","","","","","","","",""
"pit-trial","31","576139","0.0-2.0-8.1-2.1","battery-v0.2","","""event"",""trial"",""time""
""fullscreenenter"",""1"",""17091""
","
","
","""event"",""trial"",""time""
""fullscreenenter"",""1"",""17091""
","
","","","799.1000000014901","","","15","4245","1457","&#9776;","elianto","#3366ff99"," "," ","1","+10","[770.5,1651.0999999996275]","2","0","1","","","","","","","",""
"pit-trial","32","579163","0.0-2.0-8.1-3.1","battery-v0.2","","""event"",""trial"",""time""
""fullscreenenter"",""1"",""17091""
","
","
","""event"",""trial"",""time""
""fullscreenenter"",""1"",""17091""
","
","","","162.90000000037253","","","15","4245","1457","&#9776;","elianto","#3366ff99"," "," ","1","0","[1013.2000000011176]","1","0","1","","","","","","","",""
"pit-trial","33","582293","0.0-2.0-8.1-4.1","battery-v0.2","","""event"",""trial"",""time""
""fullscreenenter"",""1"",""17091""
","
","
","""event"",""trial"",""time""
""fullscreenenter"",""1"",""17091""
","
","","","266.80000000074506","","","15","4245","1457","&#9776;","elianto","#3366ff99"," "," ","1","+10","[1117]","1","0","1","","","","","","","",""
"pit-trial","34","585618","0.0-2.0-8.2-0.2","battery-v0.2","","""event"",""trial"",""time""
""fullscreenenter"",""1"",""17091""
","
","
","""event"",""trial"",""time""
""fullscreenenter"",""1"",""17091""
","
","","","461.5","","","15","4245","1457","&#9776;","elianto","#3366ff99"," "," ","1","+10","[1311.6000000014901]","1","0","1","","","","","","","",""
"pit-trial","35","588988","0.0-2.0-8.2-1.2","battery-v0.2","","""event"",""trial"",""time""
""fullscreenenter"",""1"",""17091""
","
","
","""event"",""trial"",""time""
""fullscreenenter"",""1"",""17091""
","
","","","506.5","","","15","4245","1457","&#9776;","elianto","#3366ff99"," "," ","1","+10","[1356.5]","1","0","1","","","","","","","",""
"pit-trial","36","592251","0.0-2.0-8.2-2.2","battery-v0.2","","""event"",""trial"",""time""
""fullscreenenter"",""1"",""17091""
","
","
","""event"",""trial"",""time""
""fullscreenenter"",""1"",""17091""
","
","","","394.59999999962747","","","15","4245","1457","&#9776;","elianto","#3366ff99"," "," ","1","+10","[1248.5]","1","0","1","","","","","","","",""
"pit-trial","37","597116","0.0-2.0-8.2-3.2","battery-v0.2","","""event"",""trial"",""time""
""fullscreenenter"",""1"",""17091""
","
","
","""event"",""trial"",""time""
""fullscreenenter"",""1"",""17091""
","
","","","-1","","","15","4245","1457","&#9776;","elianto","#3366ff99"," ","-1","0","+10","[4005.4000000003725]","1","0","1","","","","","","","",""
"pit-trial","38","600276","0.0-2.0-8.2-4.2","battery-v0.2","","""event"",""trial"",""time""
""fullscreenenter"",""1"",""17091""
","
","
","""event"",""trial"",""time""
""fullscreenenter"",""1"",""17091""
","
","","","298.69999999925494","","","15","4245","1457","&#9776;","elianto","#3366ff99"," "," ","1","+10","[1148.7000000011176]","1","0","1","","","","","","","",""
"call-function","39","600286","0.0-2.0-9.0","battery-v0.2","","""event"",""trial"",""time""
""fullscreenenter"",""1"",""17091""
","
","
","""event"",""trial"",""time""
""fullscreenenter"",""1"",""17091""
","
","","","","","","","","","","","","","","","","","","","","","","","","","","",""
"pit-instructions","40","660498","0.0-2.0-10.0","battery-v0.2","","""event"",""trial"",""time""
""fullscreenenter"",""1"",""17091""
","
","
","""event"",""trial"",""time""
""fullscreenenter"",""1"",""17091""
","
","","[{""page_index"":0,""viewing_time"":8838.400000000373},{""page_index"":1,""viewing_time"":12809.900000000373},{""page_index"":2,""viewing_time"":10627.900000000373},{""page_index"":3,""viewing_time"":12773},{""page_index"":4,""viewing_time"":15154}]","60209.5","","","","","","","","","","","","","","","","","","","","","","","",""
"pit-trial","41","665361","0.0-2.0-11.0-0.0","battery-v0.2","","""event"",""trial"",""time""
""fullscreenenter"",""1"",""17091""
","
","
","""event"",""trial"",""time""
""fullscreenenter"",""1"",""17091""
","
","","","-1","","","15","4245","1457","&#9761;","elianto","#3366ff99","-1","-1","1","+10","[]","0","0","2","","","","","","","",""
"pit-trial","42","670226","0.0-2.0-11.0-1.0","battery-v0.2","","""event"",""trial"",""time""
""fullscreenenter"",""1"",""17091""
","
","
","""event"",""trial"",""time""
""fullscreenenter"",""1"",""17091""
","
","","","-1","","","15","4245","1457","&#9761;","elianto","#3366ff99","-1","-1","1","+10","[]","0","0","2","","","","","","","",""
"pit-trial","43","675087","0.0-2.0-11.0-2.0","battery-v0.2","","""event"",""trial"",""time""
""fullscreenenter"",""1"",""17091""
","
","
","""event"",""trial"",""time""
""fullscreenenter"",""1"",""17091""
","
","","","-1","","","15","4245","1457","&#9761;","elianto","#3366ff99","-1","-1","1","+10","[]","0","0","2","","","","","","","",""
"pit-trial","44","679949","0.0-2.0-11.0-3.0","battery-v0.2","","""event"",""trial"",""time""
""fullscreenenter"",""1"",""17091""
","
","
","""event"",""trial"",""time""
""fullscreenenter"",""1"",""17091""
","
","","","-1","","","15","4245","1457","&#9761;","elianto","#3366ff99","-1","-1","1","0","[]","0","0","2","","","","","","","",""
"pit-trial","45","683192","0.0-2.0-11.0-4.0","battery-v0.2","","""event"",""trial"",""time""
""fullscreenenter"",""1"",""17091""
","
","
","""event"",""trial"",""time""
""fullscreenenter"",""1"",""17091""
","
","","","378.09999999962747","","","15","4245","1457","&#9761;","elianto","#3366ff99","-1"," ","0","0","[1228.300000000745]","1","0","2","","","","","","","",""
"pit-trial","46","686153","0.0-2.0-11.1-0.1","battery-v0.2","","""event"",""trial"",""time""
""fullscreenenter"",""1"",""17091""
","
","
","""event"",""trial"",""time""
""fullscreenenter"",""1"",""17091""
","
","","","95.29999999888241","","","15","4245","1457","&#9761;","elianto","#3366ff99","-1"," ","0","0","[945.3000000007451]","1","0","2","","","","","","","",""
"pit-trial","47","689933","0.0-2.0-11.1-1.1","battery-v0.2","","""event"",""trial"",""time""
""fullscreenenter"",""1"",""17091""
","
","
","""event"",""trial"",""time""
""fullscreenenter"",""1"",""17091""
","
","","","916.8999999985099","","","15","4245","1457","&#9761;","elianto","#3366ff99","-1"," ","0","0","[1769.5]","1","0","2","","","","","","","",""
"pit-trial","48","694794","0.0-2.0-11.1-2.1","battery-v0.2","","""event"",""trial"",""time""
""fullscreenenter"",""1"",""17091""
","
","
","""event"",""trial"",""time""
""fullscreenenter"",""1"",""17091""
","
","","","-1","","","15","4245","1457","&#9761;","elianto","#3366ff99","-1","-1","1","+10","[]","0","0","2","","","","","","","",""
"pit-trial","49","699655","0.0-2.0-11.1-3.1","battery-v0.2","","""event"",""trial"",""time""
""fullscreenenter"",""1"",""17091""
","
","
","""event"",""trial"",""time""
""fullscreenenter"",""1"",""17091""
","
","","","-1","","","15","4245","1457","&#9761;","elianto","#3366ff99","-1","-1","1","0","[]","0","0","2","","","","","","","",""
"pit-trial","50","704516","0.0-2.0-11.1-4.1","battery-v0.2","","""event"",""trial"",""time""
""fullscreenenter"",""1"",""17091""
","
","
","""event"",""trial"",""time""
""fullscreenenter"",""1"",""17091""
","
","","","-1","","","15","4245","1457","&#9761;","elianto","#3366ff99","-1","-1","1","+10","[4628.700000001118]","1","0","2","","","","","","","",""
"pit-trial","51","709381","0.0-2.0-11.2-0.2","battery-v0.2","","""event"",""trial"",""time""
""fullscreenenter"",""1"",""17091""
","
","
","""event"",""trial"",""time""
""fullscreenenter"",""1"",""17091""
","
","","","-1","","","15","4245","1457","&#9761;","elianto","#3366ff99","-1","-1","1","+10","[]","0","0","2","","","","","","","",""
"pit-trial","52","714244","0.0-2.0-11.2-1.2","battery-v0.2","","""event"",""trial"",""time""
""fullscreenenter"",""1"",""17091""
","
","
","""event"",""trial"",""time""
""fullscreenenter"",""1"",""17091""
","
","","","-1","","","15","4245","1457","&#9761;","elianto","#3366ff99","-1","-1","1","+10","[]","0","0","2","","","","","","","",""
"pit-trial","53","719109","0.0-2.0-11.2-2.2","battery-v0.2","","""event"",""trial"",""time""
""fullscreenenter"",""1"",""17091""
","
","
","""event"",""trial"",""time""
""fullscreenenter"",""1"",""17091""
","
","","","-1","","","15","4245","1457","&#9761;","elianto","#3366ff99","-1","-1","1","+10","[23.799999998882413]","1","0","2","","","","","","","",""
"pit-trial","54","723970","0.0-2.0-11.2-3.2","battery-v0.2","","""event"",""trial"",""time""
""fullscreenenter"",""1"",""17091""
","
","
","""event"",""trial"",""time""
""fullscreenenter"",""1"",""17091""
","
","","","-1","","","15","4245","1457","&#9761;","elianto","#3366ff99","-1","-1","1","0","[680]","1","0","2","","","","","","","",""
"pit-trial","55","728834","0.0-2.0-11.2-4.2","battery-v0.2","","""event"",""trial"",""time""
""fullscreenenter"",""1"",""17091""
","
","
","""event"",""trial"",""time""
""fullscreenenter"",""1"",""17091""
","
","","","-1","","","15","4245","1457","&#9761;","elianto","#3366ff99","-1","-1","1","+10","[]","0","0","2","","","","","","","",""
"pit-trial","56","733701","0.0-2.0-11.3-0.3","battery-v0.2","","""event"",""trial"",""time""
""fullscreenenter"",""1"",""17091""
","
","
","""event"",""trial"",""time""
""fullscreenenter"",""1"",""17091""
","
","","","-1","","","15","4245","1457","&#9761;","elianto","#3366ff99","-1","-1","1","+10","[3529.300000000745]","1","0","2","","","","","","","",""
"pit-trial","57","738566","0.0-2.0-11.3-1.3","battery-v0.2","","""event"",""trial"",""time""
""fullscreenenter"",""1"",""17091""
","
","
","""event"",""trial"",""time""
""fullscreenenter"",""1"",""17091""
","
","","","-1","","","15","4245","1457","&#9761;","elianto","#3366ff99","-1","-1","1","+10","[]","0","0","2","","","","","","","",""
"pit-trial","58","743428","0.0-2.0-11.3-2.3","battery-v0.2","","""event"",""trial"",""time""
""fullscreenenter"",""1"",""17091""
","
","
","""event"",""trial"",""time""
""fullscreenenter"",""1"",""17091""
","
","","","-1","","","15","4245","1457","&#9761;","elianto","#3366ff99","-1","-1","1","+10","[]","0","0","2","","","","","","","",""
"pit-trial","59","746990","0.0-2.0-11.3-3.3","battery-v0.2","","""event"",""trial"",""time""
""fullscreenenter"",""1"",""17091""
","
","
","""event"",""trial"",""time""
""fullscreenenter"",""1"",""17091""
","
","","","702.3000000007451","","","15","4245","1457","&#9761;","elianto","#3366ff99","-1"," ","0","+10","[1552.199999999255]","1","0","2","","","","","","","",""
"pit-trial","60","751854","0.0-2.0-11.3-4.3","battery-v0.2","","""event"",""trial"",""time""
""fullscreenenter"",""1"",""17091""
","
","
","""event"",""trial"",""time""
""fullscreenenter"",""1"",""17091""
","
","","","-1","","","15","4245","1457","&#9761;","elianto","#3366ff99","-1","-1","1","+10","[3165.0999999996275]","1","0","2","","","","","","","",""
"call-function","61","751863","0.0-2.0-12.0","battery-v0.2","","""event"",""trial"",""time""
""fullscreenenter"",""1"",""17091""
","
","
","""event"",""trial"",""time""
""fullscreenenter"",""1"",""17091""
","
","","","","","","","","","","","","","","","","","","","","","","","","","","",""
"pit-instructions","62","843084","0.0-2.0-13.0","battery-v0.2","","""event"",""trial"",""time""
""fullscreenenter"",""1"",""17091""
","
","
","""event"",""trial"",""time""
""fullscreenenter"",""1"",""17091""
","
","","[{""page_index"":0,""viewing_time"":27204.599999999627},{""page_index"":1,""viewing_time"":23375.5},{""page_index"":2,""viewing_time"":12357.10000000149},{""page_index"":3,""viewing_time"":13741.5},{""page_index"":4,""viewing_time"":14535}]","91219","","","","","","","","","","","","","","","","","","","","","","","",""
"pit-trial","63","847947","0.0-2.0-14.0-0.0","battery-v0.2","","""event"",""trial"",""time""
""fullscreenenter"",""1"",""17091""
","
","
","""event"",""trial"",""time""
""fullscreenenter"",""1"",""17091""
","
","","","-1","","","15","4245","1457","&#9826;","elianto","#f73b6a7A","-1","-1","1","0","[]","0","0","3","","","","","","","",""
"pit-trial","64","852812","0.0-2.0-14.0-1.0","battery-v0.2","","""event"",""trial"",""time""
""fullscreenenter"",""1"",""17091""
","
","
","""event"",""trial"",""time""
""fullscreenenter"",""1"",""17091""
","
","","","-1","","","15","4245","1457","&#9826;","elianto","#f73b6a7A","-1","-1","1","0","[]","0","0","3","","","","","","","",""
"pit-trial","65","856534","0.0-2.0-14.0-2.0","battery-v0.2","","""event"",""trial"",""time""
""fullscreenenter"",""1"",""17091""
","
","
","""event"",""trial"",""time""
""fullscreenenter"",""1"",""17091""
","
","","","855.1999999992549","","","15","4245","1457","&#9826;","elianto","#f73b6a7A","-1"," ","0","-10","[1705.0999999996275]","1","0","3","","","","","","","",""
"pit-trial","66","861398","0.0-2.0-14.0-3.0","battery-v0.2","","""event"",""trial"",""time""
""fullscreenenter"",""1"",""17091""
","
","
","""event"",""trial"",""time""
""fullscreenenter"",""1"",""17091""
","
","","","-1","","","15","4245","1457","&#9826;","elianto","#f73b6a7A","-1","-1","1","-10","[]","0","0","3","","","","","","","",""
"pit-trial","67","866265","0.0-2.0-14.0-4.0","battery-v0.2","","""event"",""trial"",""time""
""fullscreenenter"",""1"",""17091""
","
","
","""event"",""trial"",""time""
""fullscreenenter"",""1"",""17091""
","
","","","-1","","","15","4245","1457","&#9826;","elianto","#f73b6a7A","-1","-1","1","0","[]","0","0","3","","","","","","","",""
"pit-trial","68","871132","0.0-2.0-14.1-0.1","battery-v0.2","","""event"",""trial"",""time""
""fullscreenenter"",""1"",""17091""
","
","
","""event"",""trial"",""time""
""fullscreenenter"",""1"",""17091""
","
","","","-1","","","15","4245","1457","&#9826;","elianto","#f73b6a7A","-1","-1","1","0","[]","0","0","3","","","","","","","",""
"pit-trial","69","875994","0.0-2.0-14.1-1.1","battery-v0.2","","""event"",""trial"",""time""
""fullscreenenter"",""1"",""17091""
","
","
","""event"",""trial"",""time""
""fullscreenenter"",""1"",""17091""
","
","","","-1","","","15","4245","1457","&#9826;","elianto","#f73b6a7A","-1","-1","1","0","[]","0","0","3","","","","","","","",""
"pit-trial","70","880856","0.0-2.0-14.1-2.1","battery-v0.2","","""event"",""trial"",""time""
""fullscreenenter"",""1"",""17091""
","
","
","""event"",""trial"",""time""
""fullscreenenter"",""1"",""17091""
","
","","","-1","","","15","4245","1457","&#9826;","elianto","#f73b6a7A","-1","-1","1","0","[]","0","0","3","","","","","","","",""
"pit-trial","71","885720","0.0-2.0-14.1-3.1","battery-v0.2","","""event"",""trial"",""time""
""fullscreenenter"",""1"",""17091""
","
","
","""event"",""trial"",""time""
""fullscreenenter"",""1"",""17091""
","
","","","-1","","","15","4245","1457","&#9826;","elianto","#f73b6a7A","-1","-1","1","-10","[]","0","0","3","","","","","","","",""
"pit-trial","72","889744","0.0-2.0-14.1-4.1","battery-v0.2","","""event"",""trial"",""time""
""fullscreenenter"",""1"",""17091""
","
","
","""event"",""trial"",""time""
""fullscreenenter"",""1"",""17091""
","
","","","1159.9000000003725","","","15","4245","1457","&#9826;","elianto","#f73b6a7A","-1"," ","0","-10","[2009.9000000003725]","1","0","3","","","","","","","",""
"pit-trial","73","894611","0.0-2.0-14.2-0.2","battery-v0.2","","""event"",""trial"",""time""
""fullscreenenter"",""1"",""17091""
","
","
","""event"",""trial"",""time""
""fullscreenenter"",""1"",""17091""
","
","","","-1","","","15","4245","1457","&#9826;","elianto","#f73b6a7A","-1","-1","1","0","[]","0","0","3","","","","","","","",""
"pit-trial","74","899472","0.0-2.0-14.2-1.2","battery-v0.2","","""event"",""trial"",""time""
""fullscreenenter"",""1"",""17091""
","
","
","""event"",""trial"",""time""
""fullscreenenter"",""1"",""17091""
","
","","","-1","","","15","4245","1457","&#9826;","elianto","#f73b6a7A","-1","-1","1","0","[]","0","0","3","","","","","","","",""
"pit-trial","75","904336","0.0-2.0-14.2-2.2","battery-v0.2","","""event"",""trial"",""time""
""fullscreenenter"",""1"",""17091""
","
","
","""event"",""trial"",""time""
""fullscreenenter"",""1"",""17091""
","
","","","-1","","","15","4245","1457","&#9826;","elianto","#f73b6a7A","-1","-1","1","0","[]","0","0","3","","","","","","","",""
"pit-trial","76","909201","0.0-2.0-14.2-3.2","battery-v0.2","","""event"",""trial"",""time""
""fullscreenenter"",""1"",""17091""
","
","
","""event"",""trial"",""time""
""fullscreenenter"",""1"",""17091""
","
","","","-1","","","15","4245","1457","&#9826;","elianto","#f73b6a7A","-1","-1","1","-10","[]","0","0","3","","","","","","","",""
"pit-trial","77","914066","0.0-2.0-14.2-4.2","battery-v0.2","","""event"",""trial"",""time""
""fullscreenenter"",""1"",""17091""
","
","
","""event"",""trial"",""time""
""fullscreenenter"",""1"",""17091""
","
","","","-1","","","15","4245","1457","&#9826;","elianto","#f73b6a7A","-1","-1","1","0","[]","0","0","3","","","","","","","",""
"pit-trial","78","918932","0.0-2.0-14.3-0.3","battery-v0.2","","""event"",""trial"",""time""
""fullscreenenter"",""1"",""17091""
","
","
","""event"",""trial"",""time""
""fullscreenenter"",""1"",""17091""
","
","","","-1","","","15","4245","1457","&#9826;","elianto","#f73b6a7A","-1","-1","1","0","[]","0","0","3","","","","","","","",""
"pit-trial","79","923794","0.0-2.0-14.3-1.3","battery-v0.2","","""event"",""trial"",""time""
""fullscreenenter"",""1"",""17091""
","
","
","""event"",""trial"",""time""
""fullscreenenter"",""1"",""17091""
","
","","","-1","","","15","4245","1457","&#9826;","elianto","#f73b6a7A","-1","-1","1","0","[]","0","0","3","","","","","","","",""
"pit-trial","80","926990","0.0-2.0-14.3-2.3","battery-v0.2","","""event"",""trial"",""time""
""fullscreenenter"",""1"",""17091""
","
","
","""event"",""trial"",""time""
""fullscreenenter"",""1"",""17091""
","
","","","334.80000000074506","","","15","4245","1457","&#9826;","elianto","#f73b6a7A","-1"," ","0","-10","[1186.5]","1","0","3","","","","","","","",""
"pit-trial","81","931854","0.0-2.0-14.3-3.3","battery-v0.2","","""event"",""trial"",""time""
""fullscreenenter"",""1"",""17091""
","
","
","""event"",""trial"",""time""
""fullscreenenter"",""1"",""17091""
","
","","","-1","","","15","4245","1457","&#9826;","elianto","#f73b6a7A","-1","-1","1","-10","[]","0","0","3","","","","","","","",""
"pit-trial","82","936721","0.0-2.0-14.3-4.3","battery-v0.2","","""event"",""trial"",""time""
""fullscreenenter"",""1"",""17091""
","
","
","""event"",""trial"",""time""
""fullscreenenter"",""1"",""17091""
","
","","","-1","","","15","4245","1457","&#9826;","elianto","#f73b6a7A","-1","-1","1","0","[]","0","0","3","","","","","","","",""
"call-function","83","936736","0.0-2.0-15.0","battery-v0.2","","""event"",""trial"",""time""
""fullscreenenter"",""1"",""17091""
","
","
","""event"",""trial"",""time""
""fullscreenenter"",""1"",""17091""
","
","","","","","","","","","","","","","","","","","","","","","","","","","","",""
"pit-instructions","84","971503","0.0-2.0-16.0","battery-v0.2","","""event"",""trial"",""time""
""fullscreenenter"",""1"",""17091""
","
","
","""event"",""trial"",""time""
""fullscreenenter"",""1"",""17091""
","
","","[{""page_index"":0,""viewing_time"":8222.800000000745},{""page_index"":1,""viewing_time"":14123.5},{""page_index"":2,""viewing_time"":4506},{""page_index"":3,""viewing_time"":7907.799999998882}]","34764.199999999255","","","","","","","","","","","","","","","","","","","","","","","",""
"pit-trial","85","975488","0.0-2.0-17.0-0.0","battery-v0.2","","""event"",""trial"",""time""
""fullscreenenter"",""1"",""17091""
","
","
","""event"",""trial"",""time""
""fullscreenenter"",""1"",""17091""
","
","","","1124.0999999996275","","","15","4245","1457","&#9789;","elianto","#f73b6a7A"," "," ","1","0","[1974.1000000014901]","1","0","4","","","","","","","",""
"pit-trial","86","979363","0.0-2.0-17.0-1.0","battery-v0.2","","""event"",""trial"",""time""
""fullscreenenter"",""1"",""17091""
","
","
","""event"",""trial"",""time""
""fullscreenenter"",""1"",""17091""
","
","","","1006.7000000011176","","","15","4245","1457","&#9789;","elianto","#f73b6a7A"," "," ","1","0","[1860.8999999985099]","1","0","4","","","","","","","",""
"pit-trial","87","984228","0.0-2.0-17.0-2.0","battery-v0.2","","""event"",""trial"",""time""
""fullscreenenter"",""1"",""17091""
","
","
","""event"",""trial"",""time""
""fullscreenenter"",""1"",""17091""
","
","","","-1","","","15","4245","1457","&#9789;","elianto","#f73b6a7A"," ","-1","0","-10","[2998.7999999988824]","1","0","4","","","","","","","",""
"pit-trial","88","989092","0.0-2.0-17.0-3.0","battery-v0.2","","""event"",""trial"",""time""
""fullscreenenter"",""1"",""17091""
","
","
","""event"",""trial"",""time""
""fullscreenenter"",""1"",""17091""
","
","","","-1","","","15","4245","1457","&#9789;","elianto","#f73b6a7A"," ","-1","0","0","[]","0","0","4","","","","","","","",""
"pit-trial","89","993952","0.0-2.0-17.0-4.0","battery-v0.2","","""event"",""trial"",""time""
""fullscreenenter"",""1"",""17091""
","
","
","""event"",""trial"",""time""
""fullscreenenter"",""1"",""17091""
","
","","","-1","","","15","4245","1457","&#9789;","elianto","#f73b6a7A"," ","-1","0","-10","[]","0","0","4","","","","","","","",""
"pit-trial","90","998816","0.0-2.0-17.1-0.1","battery-v0.2","","""event"",""trial"",""time""
""fullscreenenter"",""1"",""17091""
","
","
","""event"",""trial"",""time""
""fullscreenenter"",""1"",""17091""
","
","","","-1","","","15","4245","1457","&#9789;","elianto","#f73b6a7A"," ","-1","0","-10","[]","0","0","4","","","","","","","",""
"pit-trial","91","1003679","0.0-2.0-17.1-1.1","battery-v0.2","","""event"",""trial"",""time""
""fullscreenenter"",""1"",""17091""
","
","
","""event"",""trial"",""time""
""fullscreenenter"",""1"",""17091""
","
","","","-1","","","15","4245","1457","&#9789;","elianto","#f73b6a7A"," ","-1","0","-10","[]","0","0","4","","","","","","","",""
"pit-trial","92","1008543","0.0-2.0-17.1-2.1","battery-v0.2","","""event"",""trial"",""time""
""fullscreenenter"",""1"",""17091""
","
","
","""event"",""trial"",""time""
""fullscreenenter"",""1"",""17091""
","
","","","-1","","","15","4245","1457","&#9789;","elianto","#f73b6a7A"," ","-1","0","-10","[]","0","0","4","","","","","","","",""
"pit-trial","93","1013406","0.0-2.0-17.1-3.1","battery-v0.2","","""event"",""trial"",""time""
""fullscreenenter"",""1"",""17091""
","
","
","""event"",""trial"",""time""
""fullscreenenter"",""1"",""17091""
","
","","","-1","","","15","4245","1457","&#9789;","elianto","#f73b6a7A"," ","-1","0","0","[]","0","0","4","","","","","","","",""
"pit-trial","94","1018269","0.0-2.0-17.1-4.1","battery-v0.2","","""event"",""trial"",""time""
""fullscreenenter"",""1"",""17091""
","
","
","""event"",""trial"",""time""
""fullscreenenter"",""1"",""17091""
","
","","","-1","","","15","4245","1457","&#9789;","elianto","#f73b6a7A"," ","-1","0","-10","[]","0","0","4","","","","","","","",""
"pit-trial","95","1023132","0.0-2.0-17.2-0.2","battery-v0.2","","""event"",""trial"",""time""
""fullscreenenter"",""1"",""17091""
","
","
","""event"",""trial"",""time""
""fullscreenenter"",""1"",""17091""
","
","","","-1","","","15","4245","1457","&#9789;","elianto","#f73b6a7A"," ","-1","0","-10","[]","0","0","4","","","","","","","",""
"pit-trial","96","1027994","0.0-2.0-17.2-1.2","battery-v0.2","","""event"",""trial"",""time""
""fullscreenenter"",""1"",""17091""
","
","
","""event"",""trial"",""time""
""fullscreenenter"",""1"",""17091""
","
","","","-1","","","15","4245","1457","&#9789;","elianto","#f73b6a7A"," ","-1","0","-10","[]","0","0","4","","","","","","","",""
"pit-trial","97","1032856","0.0-2.0-17.2-2.2","battery-v0.2","","""event"",""trial"",""time""
""fullscreenenter"",""1"",""17091""
","
","
","""event"",""trial"",""time""
""fullscreenenter"",""1"",""17091""
","
","","","-1","","","15","4245","1457","&#9789;","elianto","#f73b6a7A"," ","-1","0","-10","[]","0","0","4","","","","","","","",""
"pit-trial","98","1037722","0.0-2.0-17.2-3.2","battery-v0.2","","""event"",""trial"",""time""
""fullscreenenter"",""1"",""17091""
","
","
","""event"",""trial"",""time""
""fullscreenenter"",""1"",""17091""
","
","","","-1","","","15","4245","1457","&#9789;","elianto","#f73b6a7A"," ","-1","0","0","[]","0","0","4","","","","","","","",""
"pit-trial","99","1042585","0.0-2.0-17.2-4.2","battery-v0.2","","""event"",""trial"",""time""
""fullscreenenter"",""1"",""17091""
","
","
","""event"",""trial"",""time""
""fullscreenenter"",""1"",""17091""
","
","","","-1","","","15","4245","1457","&#9789;","elianto","#f73b6a7A"," ","-1","0","-10","[]","0","0","4","","","","","","","",""
"pit-trial","100","1047448","0.0-2.0-17.3-0.3","battery-v0.2","","""event"",""trial"",""time""
""fullscreenenter"",""1"",""17091""
","
","
","""event"",""trial"",""time""
""fullscreenenter"",""1"",""17091""
","
","","","-1","","","15","4245","1457","&#9789;","elianto","#f73b6a7A"," ","-1","0","-10","[]","0","0","4","","","","","","","",""
"pit-trial","101","1052313","0.0-2.0-17.3-1.3","battery-v0.2","","""event"",""trial"",""time""
""fullscreenenter"",""1"",""17091""
","
","
","""event"",""trial"",""time""
""fullscreenenter"",""1"",""17091""
","
","","","-1","","","15","4245","1457","&#9789;","elianto","#f73b6a7A"," ","-1","0","-10","[]","0","0","4","","","","","","","",""
"pit-trial","102","1057175","0.0-2.0-17.3-2.3","battery-v0.2","","""event"",""trial"",""time""
""fullscreenenter"",""1"",""17091""
","
","
","""event"",""trial"",""time""
""fullscreenenter"",""1"",""17091""
","
","","","-1","","","15","4245","1457","&#9789;","elianto","#f73b6a7A"," ","-1","0","-10","[]","0","0","4","","","","","","","",""
"pit-trial","103","1062040","0.0-2.0-17.3-3.3","battery-v0.2","","""event"",""trial"",""time""
""fullscreenenter"",""1"",""17091""
","
","
","""event"",""trial"",""time""
""fullscreenenter"",""1"",""17091""
","
","","","-1","","","15","4245","1457","&#9789;","elianto","#f73b6a7A"," ","-1","0","0","[]","0","0","4","","","","","","","",""
"pit-trial","104","1066899","0.0-2.0-17.3-4.3","battery-v0.2","","""event"",""trial"",""time""
""fullscreenenter"",""1"",""17091""
","
","
","""event"",""trial"",""time""
""fullscreenenter"",""1"",""17091""
","
","","","-1","","","15","4245","1457","&#9789;","elianto","#f73b6a7A"," ","-1","0","-10","[]","0","0","4","","","","","","","",""
"call-function","105","1066906","0.0-2.0-18.0","battery-v0.2","","""event"",""trial"",""time""
""fullscreenenter"",""1"",""17091""
","
","
","""event"",""trial"",""time""
""fullscreenenter"",""1"",""17091""
","
","","","","","","","","","","","","","","","","","","","","","","","","","","",""
"pit-instructions","106","1253679","0.0-2.0-19.0","battery-v0.2","","""event"",""trial"",""time""
""fullscreenenter"",""1"",""17091""
","
","
","""event"",""trial"",""time""
""fullscreenenter"",""1"",""17091""
","
","","[{""page_index"":0,""viewing_time"":45324.5},{""page_index"":1,""viewing_time"":23315.599999999627},{""page_index"":2,""viewing_time"":15309.700000001118},{""page_index"":3,""viewing_time"":33619.89999999851},{""page_index"":4,""viewing_time"":13698.900000000373},{""page_index"":5,""viewing_time"":20193.099999999627},{""page_index"":6,""viewing_time"":10160},{""page_index"":7,""viewing_time"":7509.5},{""page_index"":8,""viewing_time"":17633}]","186769.80000000075","","","","","","","","","","","","","","","","","","","","","","","",""
"pit-comprehension","107","1261193","0.0-2.0-20.0-0.0","battery-v0.2","","""event"",""trial"",""time""
""fullscreenenter"",""1"",""17091""
","
","
","""event"",""trial"",""time""
""fullscreenenter"",""1"",""17091""
","
","","","7497.9000000003725","[""SPACE""]","0","15","4245","1457","","","","","","","","","","","","","","","","","","",""
"pit-instructions","108","1265743","0.0-2.0-20.0-1.0","battery-v0.2","","""event"",""trial"",""time""
""fullscreenenter"",""1"",""17091""
","
","
","""event"",""trial"",""time""
""fullscreenenter"",""1"",""17091""
","
","","[{""page_index"":0,""viewing_time"":4419.300000000745}]","4422.700000001118","","","","","","","","","","","","","","","","","","","","","","","",""
"pit-comprehension","109","1273232","0.0-2.0-21.0-0.0","battery-v0.2","","""event"",""trial"",""time""
""fullscreenenter"",""1"",""17091""
","
","
","""event"",""trial"",""time""
""fullscreenenter"",""1"",""17091""
","
","","","7471.199999999255","[""10""]","0","15","4245","1457","","","","","","","","","","","","","","","","","","",""
"pit-instructions","110","1278802","0.0-2.0-21.0-1.0","battery-v0.2","","""event"",""trial"",""time""
""fullscreenenter"",""1"",""17091""
","
","
","""event"",""trial"",""time""
""fullscreenenter"",""1"",""17091""
","
","","[{""page_index"":0,""viewing_time"":5450.200000001118}]","5451.300000000745","","","","","","","","","","","","","","","","","","","","","","","",""
"pit-comprehension","111","1285366","0.0-2.0-22.0-0.0","battery-v0.2","","""event"",""trial"",""time""
""fullscreenenter"",""1"",""17091""
","
","
","""event"",""trial"",""time""
""fullscreenenter"",""1"",""17091""
","
","","","6550.5999999996275","[""-10""]","1","15","4245","1457","","","","","","","","","","","","","","","","","","",""
"pit-instructions","112","1289955","0.0-2.0-22.0-1.0","battery-v0.2","","""event"",""trial"",""time""
""fullscreenenter"",""1"",""17091""
","
","
","""event"",""trial"",""time""
""fullscreenenter"",""1"",""17091""
","
","","[{""page_index"":0,""viewing_time"":4464.0999999996275}]","4467.299999998882","","","","","","","","","","","","","","","","","","","","","","","",""
"pit-instructions","113","1292264","0.0-2.0-22.0-2.0-0.0","battery-v0.2","","""event"",""trial"",""time""
""fullscreenenter"",""1"",""17091""
","
","
","""event"",""trial"",""time""
""fullscreenenter"",""1"",""17091""
","
","","[{""page_index"":0,""viewing_time"":2297.89999999851}]","2302","","","","","","","","","","","","","","","","","","","","","","","",""
"pit-comprehension","114","1301296","0.0-2.0-22.1-0.1","battery-v0.2","","""event"",""trial"",""time""
""fullscreenenter"",""1"",""17091""
","
","
","""event"",""trial"",""time""
""fullscreenenter"",""1"",""17091""
","
","","","9019.299999998882","[""0""]","0","15","4245","1457","","","","","","","","","","","","","","","","","","",""
"pit-instructions","115","1304690","0.0-2.0-22.1-1.1","battery-v0.2","","""event"",""trial"",""time""
""fullscreenenter"",""1"",""17091""
","
","
","""event"",""trial"",""time""
""fullscreenenter"",""1"",""17091""
","
","","[{""page_index"":0,""viewing_time"":3252.2000000011176}]","3254.7000000011176","","","","","","","","","","","","","","","","","","","","","","","",""
"pit-comprehension","116","1322348","0.0-2.0-23.0-0.0","battery-v0.2","","""event"",""trial"",""time""
""fullscreenenter"",""1"",""17091""
","
","
","""event"",""trial"",""time""
""fullscreenenter"",""1"",""17091""
","
","","","17641.5","[""True""]","0","15","4245","1457","","","","","","","","","","","","","","","","","","",""
"pit-instructions","117","1323787","0.0-2.0-23.0-1.0","battery-v0.2","","""event"",""trial"",""time""
""fullscreenenter"",""1"",""17091""
","
","
","""event"",""trial"",""time""
""fullscreenenter"",""1"",""17091""
","
","","[{""page_index"":0,""viewing_time"":1313}]","1315.7999999988824","","","","","","","","","","","","","","","","","","","","","","","",""
"pit-comprehension","118","1335278","0.0-2.0-24.0-0.0","battery-v0.2","","""event"",""trial"",""time""
""fullscreenenter"",""1"",""17091""
","
","
","""event"",""trial"",""time""
""fullscreenenter"",""1"",""17091""
","
","","","11476.299999998882","[""True""]","0","15","4245","1457","","","","","","","","","","","","","","","","","","",""
"pit-instructions","119","1338696","0.0-2.0-24.0-1.0","battery-v0.2","","""event"",""trial"",""time""
""fullscreenenter"",""1"",""17091""
","
","
","""event"",""trial"",""time""
""fullscreenenter"",""1"",""17091""
","
","","[{""page_index"":0,""viewing_time"":3288.5}]","3290.4000000003725","","","","","","","","","","","","","","","","","","","","","","","",""
"pit-comprehension","120","1355030","0.0-2.0-25.0-0.0","battery-v0.2","","""event"",""trial"",""time""
""fullscreenenter"",""1"",""17091""
","
","
","""event"",""trial"",""time""
""fullscreenenter"",""1"",""17091""
","
","","","16317.700000001118","[""True""]","0","15","4245","1457","","","","","","","","","","","","","","","","","","",""
"pit-instructions","121","1357200","0.0-2.0-25.0-1.0","battery-v0.2","","""event"",""trial"",""time""
""fullscreenenter"",""1"",""17091""
","
","
","""event"",""trial"",""time""
""fullscreenenter"",""1"",""17091""
","
","","[{""page_index"":0,""viewing_time"":2030.9000000003725}]","2033.1000000014901","","","","","","","","","","","","","","","","","","","","","","","",""
"pit-comprehension","122","1365563","0.0-2.0-26.0-0.0","battery-v0.2","","""event"",""trial"",""time""
""fullscreenenter"",""1"",""17091""
","
","
","""event"",""trial"",""time""
""fullscreenenter"",""1"",""17091""
","
","","","8345.60000000149","[""True""]","1","15","4245","1457","","","","","","","","","","","","","","","","","","",""
"pit-instructions","123","1376460","0.0-2.0-26.0-1.0","battery-v0.2","","""event"",""trial"",""time""
""fullscreenenter"",""1"",""17091""
","
","
","""event"",""trial"",""time""
""fullscreenenter"",""1"",""17091""
","
","","[{""page_index"":0,""viewing_time"":10771}]","10772.89999999851","","","","","","","","","","","","","","","","","","","","","","","",""
"pit-instructions","124","1378068","0.0-2.0-26.0-2.0-0.0","battery-v0.2","","""event"",""trial"",""time""
""fullscreenenter"",""1"",""17091""
","
","
","""event"",""trial"",""time""
""fullscreenenter"",""1"",""17091""
","
","","[{""page_index"":0,""viewing_time"":1597}]","1599.699999999255","","","","","","","","","","","","","","","","","","","","","","","",""
"pit-comprehension","125","1383311","0.0-2.0-26.1-0.1","battery-v0.2","","""event"",""trial"",""time""
""fullscreenenter"",""1"",""17091""
","
","
","""event"",""trial"",""time""
""fullscreenenter"",""1"",""17091""
","
","","","5229.39999999851","[""False""]","0","15","4245","1457","","","","","","","","","","","","","","","","","","",""
"pit-instructions","126","1406326","0.0-2.0-26.1-1.1","battery-v0.2","","""event"",""trial"",""time""
""fullscreenenter"",""1"",""17091""
","
","
","""event"",""trial"",""time""
""fullscreenenter"",""1"",""17091""
","
","","[{""page_index"":0,""viewing_time"":22873.900000000373}]","22878.200000001118","","","","","","","","","","","","","","","","","","","","","","","",""
"pit-instructions","127","1454727","0.0-3.0","battery-v0.2","","""event"",""trial"",""time""
""fullscreenenter"",""1"",""17091""
","
","
","""event"",""trial"",""time""
""fullscreenenter"",""1"",""17091""
","
","","[{""page_index"":0,""viewing_time"":12727.599999999627},{""page_index"":1,""viewing_time"":29482},{""page_index"":2,""viewing_time"":6179.699999999255}]","48392.5","","","","","","","","","","","","","","","","","","","","","","","",""
"pit-trial","128","1458836","0.0-4.0","battery-v0.2","","""event"",""trial"",""time""
""fullscreenenter"",""1"",""17091""
","
","
","""event"",""trial"",""time""
""fullscreenenter"",""1"",""17091""
","
","","","1234.4000000003725","","","15","4245","1457","&#9752;","elianto","#f73b6a7A"," "," ","1","0","[2084.5999999996275]","1","1","","","4245","1","3","3","lose","go","0"
"pit-trial","129","1462471","0.0-5.0","battery-v0.2","","""event"",""trial"",""time""
""fullscreenenter"",""1"",""17091""
","
","
","""event"",""trial"",""time""
""fullscreenenter"",""1"",""17091""
","
","","","772.6999999992549","","","15","4245","1457","&#9733;","elianto","#3366ff99","-1"," ","0","0","[1622.9000000003725]","1","1","","","4245","2","2","2","win","no-go","0"
"pit-trial","130","1467335","0.0-6.0","battery-v0.2","","""event"",""trial"",""time""
""fullscreenenter"",""1"",""17091""
","
","
","""event"",""trial"",""time""
""fullscreenenter"",""1"",""17091""
","
","","","-1","","","15","4245","1457","&#9728;","elianto","#f73b6a7A","-1","-1","1","0","[]","0","1","","","4245","3","0","4","lose","no-go","0"
"pit-trial","131","1470764","0.0-7.0","battery-v0.2","","""event"",""trial"",""time""
""fullscreenenter"",""1"",""17091""
","
","
","""event"",""trial"",""time""
""fullscreenenter"",""1"",""17091""
","
","","","566.1999999992549","","","15","4245","1457","&#9730;","elianto","#3366ff99"," "," ","1","+10","[1416.2000000011176]","1","1","","","4245","4","1","1","win","go","0"
"pit-trial","132","1474898","0.0-8.0","battery-v0.2","","""event"",""trial"",""time""
""fullscreenenter"",""1"",""17091""
","
","
","""event"",""trial"",""time""
""fullscreenenter"",""1"",""17091""
","
","","","1269.7000000011176","","","15","4245","1457","&#9733;","elianto","#3366ff99","-1"," ","0","0","[2124.7000000011176]","1","1","","","4245","5","2","2","win","no-go","0"
"pit-trial","133","1479756","0.0-9.0","battery-v0.2","","""event"",""trial"",""time""
""fullscreenenter"",""1"",""17091""
","
","
","""event"",""trial"",""time""
""fullscreenenter"",""1"",""17091""
","
","","","-1","","","15","4245","1457","&#9752;","elianto","#f73b6a7A"," ","-1","0","-10","[]","0","1","","","4245","6","3","3","lose","go","0"
"pit-trial","134","1483186","0.0-10.0","battery-v0.2","","""event"",""trial"",""time""
""fullscreenenter"",""1"",""17091""
","
","
","""event"",""trial"",""time""
""fullscreenenter"",""1"",""17091""
","
","","","566.5999999996275","","","15","4245","1457","&#9730;","elianto","#3366ff99"," "," ","1","+10","[1416.7000000011176]","1","1","","","4245","7","1","1","win","go","0"
"pit-trial","135","1488049","0.0-11.0","battery-v0.2","","""event"",""trial"",""time""
""fullscreenenter"",""1"",""17091""
","
","
","""event"",""trial"",""time""
""fullscreenenter"",""1"",""17091""
","
","","","-1","","","15","4245","1457","&#9728;","elianto","#f73b6a7A","-1","-1","1","-10","[]","0","1","","","4245","8","0","4","lose","no-go","1"
"pit-trial","136","1491848","0.0-12.0","battery-v0.2","","""event"",""trial"",""time""
""fullscreenenter"",""1"",""17091""
","
","
","""event"",""trial"",""time""
""fullscreenenter"",""1"",""17091""
","
","","","936.7999999988824","","","15","4245","1457","&#9730;","elianto","#3366ff99"," "," ","1","+10","[1786.300000000745]","1","1","","","4245","9","1","1","win","go","0"
"pit-trial","137","1496714","0.0-13.0","battery-v0.2","","""event"",""trial"",""time""
""fullscreenenter"",""1"",""17091""
","
","
","""event"",""trial"",""time""
""fullscreenenter"",""1"",""17091""
","
","","","-1","","","15","4245","1457","&#9728;","elianto","#f73b6a7A","-1","-1","1","0","[]","0","1","","","4245","10","0","4","lose","no-go","0"
"pit-trial","138","1501578","0.0-14.0","battery-v0.2","","""event"",""trial"",""time""
""fullscreenenter"",""1"",""17091""
","
","
","""event"",""trial"",""time""
""fullscreenenter"",""1"",""17091""
","
","","","-1","","","15","4245","1457","&#9733;","elianto","#3366ff99","-1","-1","1","0","[]","0","1","","","4245","11","2","2","win","no-go","1"
"pit-trial","139","1506443","0.0-15.0","battery-v0.2","","""event"",""trial"",""time""
""fullscreenenter"",""1"",""17091""
","
","
","""event"",""trial"",""time""
""fullscreenenter"",""1"",""17091""
","
","","","-1","","","15","4245","1457","&#9752;","elianto","#f73b6a7A"," ","-1","0","-10","[]","0","1","","","4245","12","3","3","lose","go","0"
"pit-trial","140","1511311","0.0-16.0","battery-v0.2","","""event"",""trial"",""time""
""fullscreenenter"",""1"",""17091""
","
","
","""event"",""trial"",""time""
""fullscreenenter"",""1"",""17091""
","
","","","-1","","","15","4245","1457","&#9752;","elianto","#f73b6a7A"," ","-1","0","-10","[]","0","1","","","4245","13","3","3","lose","go","0"
"pit-trial","141","1514748","0.0-17.0","battery-v0.2","","""event"",""trial"",""time""
""fullscreenenter"",""1"",""17091""
","
","
","""event"",""trial"",""time""
""fullscreenenter"",""1"",""17091""
","
","","","565.9000000003725","","","15","4245","1457","&#9730;","elianto","#3366ff99"," "," ","1","+10","[1419.800000000745]","1","1","","","4245","14","1","1","win","go","0"
"pit-trial","142","1519614","0.0-18.0","battery-v0.2","","""event"",""trial"",""time""
""fullscreenenter"",""1"",""17091""
","
","
","""event"",""trial"",""time""
""fullscreenenter"",""1"",""17091""
","
","","","-1","","","15","4245","1457","&#9728;","elianto","#f73b6a7A","-1","-1","1","0","[]","0","1","","","4245","15","0","4","lose","no-go","0"
"pit-trial","143","1523027","0.0-19.0","battery-v0.2","","""event"",""trial"",""time""
""fullscreenenter"",""1"",""17091""
","
","
","""event"",""trial"",""time""
""fullscreenenter"",""1"",""17091""
","
","","","546.0999999996275","","","15","4245","1457","&#9733;","elianto","#3366ff99","-1"," ","0","0","[1400.1000000014901]","1","1","","","4245","16","2","2","win","no-go","0"
"pit-trial","144","1527889","0.0-20.0","battery-v0.2","","""event"",""trial"",""time""
""fullscreenenter"",""1"",""17091""
","
","
","""event"",""trial"",""time""
""fullscreenenter"",""1"",""17091""
","
","","","-1","","","15","4245","1457","&#9752;","elianto","#f73b6a7A"," ","-1","0","-10","[]","0","1","","","4245","17","3","3","lose","go","0"
"pit-trial","145","1532750","0.0-21.0","battery-v0.2","","""event"",""trial"",""time""
""fullscreenenter"",""1"",""17091""
","
","
","""event"",""trial"",""time""
""fullscreenenter"",""1"",""17091""
","
","","","-1","","","15","4245","1457","&#9728;","elianto","#f73b6a7A","-1","-1","1","-10","[]","0","1","","","4245","18","0","4","lose","no-go","1"
"pit-trial","146","1536103","0.0-22.0","battery-v0.2","","""event"",""trial"",""time""
""fullscreenenter"",""1"",""17091""
","
","
","""event"",""trial"",""time""
""fullscreenenter"",""1"",""17091""
","
","","","488.09999999962747","","","15","4245","1457","&#9733;","elianto","#3366ff99","-1"," ","0","+10","[1338.199999999255]","1","1","","","4245","19","2","2","win","no-go","1"
"pit-trial","147","1539613","0.0-23.0","battery-v0.2","","""event"",""trial"",""time""
""fullscreenenter"",""1"",""17091""
","
","
","""event"",""trial"",""time""
""fullscreenenter"",""1"",""17091""
","
","","","647.8000000007451","","","15","4245","1457","&#9730;","elianto","#3366ff99"," "," ","1","+10","[1497.8999999985099]","1","1","","","4245","20","1","1","win","go","0"
"pit-instructions","148","1584648","0.0-24.0","battery-v0.2","","""event"",""trial"",""time""
""fullscreenenter"",""1"",""17091""
","
","
","""event"",""trial"",""time""
""fullscreenenter"",""1"",""17091""
","
","","[{""page_index"":0,""viewing_time"":9849.299999998882},{""page_index"":1,""viewing_time"":35173.90000000037}]","45026.29999999888","","","","","","","","","","","","","","","","","","","","","","","",""
"pit-trial","149","1589517","0.0-25.0","battery-v0.2","","""event"",""trial"",""time""
""fullscreenenter"",""1"",""17091""
","
","
","""event"",""trial"",""time""
""fullscreenenter"",""1"",""17091""
","
","","","-1","","","15","4245","1457","g","elianto","#f73b6a7A"," ","-1","0","-10","[]","0","2","","","4245","21","3","3","lose","go","0"
"pit-trial","150","1592937","0.0-26.0","battery-v0.2","","""event"",""trial"",""time""
""fullscreenenter"",""1"",""17091""
","
","
","""event"",""trial"",""time""
""fullscreenenter"",""1"",""17091""
","
","","","557.0999999996275","","","15","4245","1457","l","elianto","#3366ff99"," "," ","1","+10","[1407.2999999988824]","1","2","","","4245","22","1","1","win","go","0"
"pit-trial","151","1597800","0.0-27.0","battery-v0.2","","""event"",""trial"",""time""
""fullscreenenter"",""1"",""17091""
","
","
","""event"",""trial"",""time""
""fullscreenenter"",""1"",""17091""
","
","","","-1","","","15","4245","1457","u","elianto","#f73b6a7A","-1","-1","1","0","[]","0","2","","","4245","23","0","4","lose","no-go","0"
"pit-trial","152","1602664","0.0-28.0","battery-v0.2","","""event"",""trial"",""time""
""fullscreenenter"",""1"",""17091""
","
","
","""event"",""trial"",""time""
""fullscreenenter"",""1"",""17091""
","
","","","-1","","","15","4245","1457","a","elianto","#f73b6a7A","-1","-1","1","0","[]","0","2","","","4245","24","2","4","lose","no-go","0"
"pit-trial","153","1606128","0.0-29.0","battery-v0.2","","""event"",""trial"",""time""
""fullscreenenter"",""1"",""17091""
","
","
","""event"",""trial"",""time""
""fullscreenenter"",""1"",""17091""
","
","","","601.3000000007451","","","15","4245","1457","a","elianto","#f73b6a7A","-1"," ","0","-10","[1451.4000000003725]","1","2","","","4245","25","2","4","lose","no-go","0"
"pit-trial","154","1610838","0.0-30.0","battery-v0.2","","""event"",""trial"",""time""
""fullscreenenter"",""1"",""17091""
","
","
","""event"",""trial"",""time""
""fullscreenenter"",""1"",""17091""
","
","","","1846.199999999255","","","15","4245","1457","l","elianto","#3366ff99"," "," ","1","0","[2696.10000000149]","1","2","","","4245","26","1","1","win","go","1"
"pit-trial","155","1615702","0.0-31.0","battery-v0.2","","""event"",""trial"",""time""
""fullscreenenter"",""1"",""17091""
","
","
","""event"",""trial"",""time""
""fullscreenenter"",""1"",""17091""
","
","","","-1","","","15","4245","1457","u","elianto","#f73b6a7A","-1","-1","1","0","[]","0","2","","","4245","27","0","4","lose","no-go","0"
"pit-trial","156","1620565","0.0-32.0","battery-v0.2","","""event"",""trial"",""time""
""fullscreenenter"",""1"",""17091""
","
","
","""event"",""trial"",""time""
""fullscreenenter"",""1"",""17091""
","
","","","-1","","","15","4245","1457","g","elianto","#f73b6a7A"," ","-1","0","-10","[]","0","2","","","4245","28","3","3","lose","go","0"
"pit-trial","157","1624026","0.0-33.0","battery-v0.2","","""event"",""trial"",""time""
""fullscreenenter"",""1"",""17091""
","
","
","""event"",""trial"",""time""
""fullscreenenter"",""1"",""17091""
","
","","","597.0999999996275","","","15","4245","1457","l","elianto","#3366ff99"," "," ","1","+10","[1447.0999999996275]","1","2","","","4245","29","1","1","win","go","0"
"pit-trial","158","1628891","0.0-34.0","battery-v0.2","","""event"",""trial"",""time""
""fullscreenenter"",""1"",""17091""
","
","
","""event"",""trial"",""time""
""fullscreenenter"",""1"",""17091""
","
","","","-1","","","15","4245","1457","g","elianto","#f73b6a7A"," ","-1","0","0","[]","0","2","","","4245","30","3","3","lose","go","1"
"pit-trial","159","1633753","0.0-35.0","battery-v0.2","","""event"",""trial"",""time""
""fullscreenenter"",""1"",""17091""
","
","
","""event"",""trial"",""time""
""fullscreenenter"",""1"",""17091""
","
","","","-1","","","15","4245","1457","a","elianto","#f73b6a7A","-1","-1","1","0","[3357]","1","2","","","4245","31","2","4","lose","no-go","0"
"pit-trial","160","1638619","0.0-36.0","battery-v0.2","","""event"",""trial"",""time""
""fullscreenenter"",""1"",""17091""
","
","
","""event"",""trial"",""time""
""fullscreenenter"",""1"",""17091""
","
","","","-1","","","15","4245","1457","u","elianto","#f73b6a7A","-1","-1","1","0","[]","0","2","","","4245","32","0","4","lose","no-go","0"
"pit-trial","161","1643482","0.0-37.0","battery-v0.2","","""event"",""trial"",""time""
""fullscreenenter"",""1"",""17091""
","
","
","""event"",""trial"",""time""
""fullscreenenter"",""1"",""17091""
","
","","","-1","","","15","4245","1457","g","elianto","#f73b6a7A"," ","-1","0","-10","[]","0","2","","","4245","33","3","3","lose","go","0"
"pit-trial","162","1648348","0.0-38.0","battery-v0.2","","""event"",""trial"",""time""
""fullscreenenter"",""1"",""17091""
","
","
","""event"",""trial"",""time""
""fullscreenenter"",""1"",""17091""
","
","","","-1","","","15","4245","1457","a","elianto","#f73b6a7A","-1","-1","1","-10","[]","0","2","","","4245","34","2","4","lose","no-go","1"
"pit-trial","163","1652365","0.0-39.0","battery-v0.2","","""event"",""trial"",""time""
""fullscreenenter"",""1"",""17091""
","
","
","""event"",""trial"",""time""
""fullscreenenter"",""1"",""17091""
","
","","","1152.4000000003725","","","15","4245","1457","l","elianto","#3366ff99"," "," ","1","0","[2002.3999999985099]","1","2","","","4245","35","1","1","win","go","1"
"pit-trial","164","1657228","0.0-40.0","battery-v0.2","","""event"",""trial"",""time""
""fullscreenenter"",""1"",""17091""
","
","
","""event"",""trial"",""time""
""fullscreenenter"",""1"",""17091""
","
","","","-1","","","15","4245","1457","u","elianto","#f73b6a7A","-1","-1","1","-10","[]","0","2","","","4245","36","0","4","lose","no-go","1"
"pit-trial","165","1662093","0.0-41.0","battery-v0.2","","""event"",""trial"",""time""
""fullscreenenter"",""1"",""17091""
","
","
","""event"",""trial"",""time""
""fullscreenenter"",""1"",""17091""
","
","","","-1","","","15","4245","1457","u","elianto","#f73b6a7A","-1","-1","1","0","[]","0","2","","","4245","37","0","4","lose","no-go","0"
"pit-trial","166","1666958","0.0-42.0","battery-v0.2","","""event"",""trial"",""time""
""fullscreenenter"",""1"",""17091""
","
","
","""event"",""trial"",""time""
""fullscreenenter"",""1"",""17091""
","
","","","-1","","","15","4245","1457","a","elianto","#f73b6a7A","-1","-1","1","0","[]","0","2","","","4245","38","2","4","lose","no-go","0"
"pit-trial","167","1671820","0.0-43.0","battery-v0.2","","""event"",""trial"",""time""
""fullscreenenter"",""1"",""17091""
","
","
","""event"",""trial"",""time""
""fullscreenenter"",""1"",""17091""
","
","","","-1","","","15","4245","1457","l","elianto","#3366ff99"," ","-1","0","0","[2993.10000000149]","1","2","","","4245","39","1","1","win","go","0"
"pit-trial","168","1676684","0.0-44.0","battery-v0.2","","""event"",""trial"",""time""
""fullscreenenter"",""1"",""17091""
","
","
","""event"",""trial"",""time""
""fullscreenenter"",""1"",""17091""
","
","","","-1","","","15","4245","1457","g","elianto","#f73b6a7A"," ","-1","0","-10","[]","0","2","","","4245","40","3","3","lose","go","0"
"pit-trial","169","1681552","0.0-45.0","battery-v0.2","","""event"",""trial"",""time""
""fullscreenenter"",""1"",""17091""
","
","
","""event"",""trial"",""time""
""fullscreenenter"",""1"",""17091""
","
","","","-1","","","15","4245","1457","g","elianto","#f73b6a7A"," ","-1","0","-10","[]","0","2","","","4245","41","3","3","lose","go","0"
"pit-trial","170","1686415","0.0-46.0","battery-v0.2","","""event"",""trial"",""time""
""fullscreenenter"",""1"",""17091""
","
","
","""event"",""trial"",""time""
""fullscreenenter"",""1"",""17091""
","
","","","-1","","","15","4245","1457","u","elianto","#f73b6a7A","-1","-1","1","-10","[]","0","2","","","4245","42","0","4","lose","no-go","1"
"pit-trial","171","1689902","0.0-47.0","battery-v0.2","","""event"",""trial"",""time""
""fullscreenenter"",""1"",""17091""
","
","
","""event"",""trial"",""time""
""fullscreenenter"",""1"",""17091""
","
","","","624.7999999988824","","","15","4245","1457","l","elianto","#3366ff99"," "," ","1","+10","[1474.9000000003725]","1","2","","","4245","43","1","1","win","go","0"
"pit-trial","172","1694764","0.0-48.0","battery-v0.2","","""event"",""trial"",""time""
""fullscreenenter"",""1"",""17091""
","
","
","""event"",""trial"",""time""
""fullscreenenter"",""1"",""17091""
","
","","","-1","","","15","4245","1457","a","elianto","#f73b6a7A","-1","-1","1","-10","[]","0","2","","","4245","44","2","4","lose","no-go","1"
"pit-trial","173","1698499","0.0-49.0","battery-v0.2","","""event"",""trial"",""time""
""fullscreenenter"",""1"",""17091""
","
","
","""event"",""trial"",""time""
""fullscreenenter"",""1"",""17091""
","
","","","872.5","","","15","4245","1457","p","elianto","#3366ff99","-1"," ","0","0","[1722.4000000003725]","1","2","","","4245","45","4","2","win","no-go","0"
"pit-trial","174","1703361","0.0-50.0","battery-v0.2","","""event"",""trial"",""time""
""fullscreenenter"",""1"",""17091""
","
","
","""event"",""trial"",""time""
""fullscreenenter"",""1"",""17091""
","
","","","-1","","","15","4245","1457","g","elianto","#f73b6a7A"," ","-1","0","-10","[]","0","2","","","4245","46","3","3","lose","go","0"
"pit-trial","175","1708227","0.0-51.0","battery-v0.2","","""event"",""trial"",""time""
""fullscreenenter"",""1"",""17091""
","
","
","""event"",""trial"",""time""
""fullscreenenter"",""1"",""17091""
","
","","","-1","","","15","4245","1457","u","elianto","#f73b6a7A","-1","-1","1","0","[]","0","2","","","4245","47","0","4","lose","no-go","0"
"pit-trial","176","1713087","0.0-52.0","battery-v0.2","","""event"",""trial"",""time""
""fullscreenenter"",""1"",""17091""
","
","
","""event"",""trial"",""time""
""fullscreenenter"",""1"",""17091""
","
","","","-1","","","15","4245","1457","a","elianto","#f73b6a7A","-1","-1","1","0","[]","0","2","","","4245","48","2","4","lose","no-go","0"
"pit-trial","177","1717948","0.0-53.0","battery-v0.2","","""event"",""trial"",""time""
""fullscreenenter"",""1"",""17091""
","
","
","""event"",""trial"",""time""
""fullscreenenter"",""1"",""17091""
","
","","","-1","","","15","4245","1457","g","elianto","#f73b6a7A"," ","-1","0","-10","[]","0","2","","","4245","49","3","3","lose","go","0"
"pit-trial","178","1721454","0.0-54.0","battery-v0.2","","""event"",""trial"",""time""
""fullscreenenter"",""1"",""17091""
","
","
","""event"",""trial"",""time""
""fullscreenenter"",""1"",""17091""
","
","","","644.3000000007451","","","15","4245","1457","p","elianto","#3366ff99","-1"," ","0","0","[1494.2999999988824]","1","2","","","4245","50","4","2","win","no-go","0"
"pit-trial","179","1726318","0.0-55.0","battery-v0.2","","""event"",""trial"",""time""
""fullscreenenter"",""1"",""17091""
","
","
","""event"",""trial"",""time""
""fullscreenenter"",""1"",""17091""
","
","","","-1","","","15","4245","1457","l","elianto","#3366ff99"," ","-1","0","0","[]","0","2","","","4245","51","1","1","win","go","0"
"pit-trial","180","1731178","0.0-56.0","battery-v0.2","","""event"",""trial"",""time""
""fullscreenenter"",""1"",""17091""
","
","
","""event"",""trial"",""time""
""fullscreenenter"",""1"",""17091""
","
","","","-1","","","15","4245","1457","u","elianto","#f73b6a7A","-1","-1","1","0","[]","0","2","","","4245","52","0","4","lose","no-go","0"
"pit-trial","181","1736038","0.0-57.0","battery-v0.2","","""event"",""trial"",""time""
""fullscreenenter"",""1"",""17091""
","
","
","""event"",""trial"",""time""
""fullscreenenter"",""1"",""17091""
","
","","","-1","","","15","4245","1457","l","elianto","#3366ff99"," ","-1","0","0","[]","0","2","","","4245","53","1","1","win","go","0"
"pit-trial","182","1739511","0.0-58.0","battery-v0.2","","""event"",""trial"",""time""
""fullscreenenter"",""1"",""17091""
","
","
","""event"",""trial"",""time""
""fullscreenenter"",""1"",""17091""
","
","","","608.5999999996275","","","15","4245","1457","p","elianto","#3366ff99","-1"," ","0","+10","[1458.699999999255]","1","2","","","4245","54","4","2","win","no-go","1"
"pit-trial","183","1744376","0.0-59.0","battery-v0.2","","""event"",""trial"",""time""
""fullscreenenter"",""1"",""17091""
","
","
","""event"",""trial"",""time""
""fullscreenenter"",""1"",""17091""
","
","","","-1","","","15","4245","1457","a","elianto","#f73b6a7A","-1","-1","1","-10","[]","0","2","","","4245","55","2","4","lose","no-go","1"
"pit-trial","184","1749242","0.0-60.0","battery-v0.2","","""event"",""trial"",""time""
""fullscreenenter"",""1"",""17091""
","
","
","""event"",""trial"",""time""
""fullscreenenter"",""1"",""17091""
","
","","","-1","","","15","4245","1457","u","elianto","#f73b6a7A","-1","-1","1","0","[]","0","2","","","4245","56","0","4","lose","no-go","0"
"pit-trial","185","1754106","0.0-61.0","battery-v0.2","","""event"",""trial"",""time""
""fullscreenenter"",""1"",""17091""
","
","
","""event"",""trial"",""time""
""fullscreenenter"",""1"",""17091""
","
","","","-1","","","15","4245","1457","u","elianto","#f73b6a7A","-1","-1","1","0","[]","0","2","","","4245","57","0","4","lose","no-go","0"
"pit-trial","186","1757532","0.0-62.0","battery-v0.2","","""event"",""trial"",""time""
""fullscreenenter"",""1"",""17091""
","
","
","""event"",""trial"",""time""
""fullscreenenter"",""1"",""17091""
","
","","","562.2000000011176","","","15","4245","1457","l","elianto","#3366ff99"," "," ","1","+10","[1412.5]","1","2","","","4245","58","1","1","win","go","0"
"pit-trial","187","1761323","0.0-63.0","battery-v0.2","","""event"",""trial"",""time""
""fullscreenenter"",""1"",""17091""
","
","
","""event"",""trial"",""time""
""fullscreenenter"",""1"",""17091""
","
","","","926.4000000003725","","","15","4245","1457","p","elianto","#3366ff99","-1"," ","0","0","[1776.3999999985099]","1","2","","","4245","59","4","2","win","no-go","0"
"pit-trial","188","1766188","0.0-64.0","battery-v0.2","","""event"",""trial"",""time""
""fullscreenenter"",""1"",""17091""
","
","
","""event"",""trial"",""time""
""fullscreenenter"",""1"",""17091""
","
","","","-1","","","15","4245","1457","g","elianto","#f73b6a7A"," ","-1","0","-10","[]","0","2","","","4245","60","3","3","lose","go","0"
"pit-trial","189","1771052","0.0-65.0","battery-v0.2","","""event"",""trial"",""time""
""fullscreenenter"",""1"",""17091""
","
","
","""event"",""trial"",""time""
""fullscreenenter"",""1"",""17091""
","
","","","-1","","","15","4245","1457","g","elianto","#f73b6a7A"," ","-1","0","-10","[]","0","2","","","4245","61","3","3","lose","go","0"
"pit-trial","190","1775343","0.0-66.0","battery-v0.2","","""event"",""trial"",""time""
""fullscreenenter"",""1"",""17091""
","
","
","""event"",""trial"",""time""
""fullscreenenter"",""1"",""17091""
","
","","","1422.800000000745","","","15","4245","1457","l","elianto","#3366ff99"," "," ","1","+10","[2273]","1","2","","","4245","62","1","1","win","go","0"
"pit-trial","191","1780209","0.0-67.0","battery-v0.2","","""event"",""trial"",""time""
""fullscreenenter"",""1"",""17091""
","
","
","""event"",""trial"",""time""
""fullscreenenter"",""1"",""17091""
","
","","","-1","","","15","4245","1457","a","elianto","#f73b6a7A","-1","-1","1","0","[]","0","2","","","4245","63","2","4","lose","no-go","0"
"pit-trial","192","1783668","0.0-68.0","battery-v0.2","","""event"",""trial"",""time""
""fullscreenenter"",""1"",""17091""
","
","
","""event"",""trial"",""time""
""fullscreenenter"",""1"",""17091""
","
","","","591.8000000007451","","","15","4245","1457","p","elianto","#3366ff99","-1"," ","0","+10","[1441.7999999988824]","1","2","","","4245","64","4","2","win","no-go","1"
"pit-trial","193","1788530","0.0-69.0","battery-v0.2","","""event"",""trial"",""time""
""fullscreenenter"",""1"",""17091""
","
","
","""event"",""trial"",""time""
""fullscreenenter"",""1"",""17091""
","
","","","-1","","","15","4245","1457","a","elianto","#f73b6a7A","-1","-1","1","0","[]","0","2","","","4245","65","2","4","lose","no-go","0"
"pit-trial","194","1791999","0.0-70.0","battery-v0.2","","""event"",""trial"",""time""
""fullscreenenter"",""1"",""17091""
","
","
","""event"",""trial"",""time""
""fullscreenenter"",""1"",""17091""
","
","","","599.2000000011176","","","15","4245","1457","p","elianto","#3366ff99","-1"," ","0","0","[1452.699999999255]","1","2","","","4245","66","4","2","win","no-go","0"
"pit-trial","195","1796708","0.0-71.0","battery-v0.2","","""event"",""trial"",""time""
""fullscreenenter"",""1"",""17091""
","
","
","""event"",""trial"",""time""
""fullscreenenter"",""1"",""17091""
","
","","","1843.5","","","15","4245","1457","l","elianto","#3366ff99"," "," ","1","+10","[2695.2999999988824]","1","2","","","4245","67","1","1","win","go","0"
"pit-trial","196","1801571","0.0-72.0","battery-v0.2","","""event"",""trial"",""time""
""fullscreenenter"",""1"",""17091""
","
","
","""event"",""trial"",""time""
""fullscreenenter"",""1"",""17091""
","
","","","-1","","","15","4245","1457","g","elianto","#f73b6a7A"," ","-1","0","0","[]","0","2","","","4245","68","3","3","lose","go","1"
"pit-trial","197","1804989","0.0-73.0","battery-v0.2","","""event"",""trial"",""time""
""fullscreenenter"",""1"",""17091""
","
","
","""event"",""trial"",""time""
""fullscreenenter"",""1"",""17091""
","
","","","552.7000000011176","","","15","4245","1457","s","elianto","#3366ff99"," "," ","1","+10","[1402.9000000003725]","1","2","","","4245","69","5","1","win","go","0"
"pit-trial","198","1809853","0.0-74.0","battery-v0.2","","""event"",""trial"",""time""
""fullscreenenter"",""1"",""17091""
","
","
","""event"",""trial"",""time""
""fullscreenenter"",""1"",""17091""
","
","","","-1","","","15","4245","1457","p","elianto","#3366ff99","-1","-1","1","0","[]","0","2","","","4245","70","4","2","win","no-go","1"
"pit-trial","199","1814715","0.0-75.0","battery-v0.2","","""event"",""trial"",""time""
""fullscreenenter"",""1"",""17091""
","
","
","""event"",""trial"",""time""
""fullscreenenter"",""1"",""17091""
","
","","","-1","","","15","4245","1457","l","elianto","#3366ff99"," ","-1","0","0","[]","0","2","","","4245","71","1","1","win","go","0"
"pit-trial","200","1819580","0.0-76.0","battery-v0.2","","""event"",""trial"",""time""
""fullscreenenter"",""1"",""17091""
","
","
","""event"",""trial"",""time""
""fullscreenenter"",""1"",""17091""
","
","","","-1","","","15","4245","1457","g","elianto","#f73b6a7A"," ","-1","0","-10","[]","0","2","","","4245","72","3","3","lose","go","0"
"pit-trial","201","1824445","0.0-77.0","battery-v0.2","","""event"",""trial"",""time""
""fullscreenenter"",""1"",""17091""
","
","
","""event"",""trial"",""time""
""fullscreenenter"",""1"",""17091""
","
","","","-1","","","15","4245","1457","l","elianto","#3366ff99"," ","-1","0","0","[]","0","2","","","4245","73","1","1","win","go","0"
"pit-trial","202","1828671","0.0-78.0","battery-v0.2","","""event"",""trial"",""time""
""fullscreenenter"",""1"",""17091""
","
","
","""event"",""trial"",""time""
""fullscreenenter"",""1"",""17091""
","
","","","1357.0999999996275","","","15","4245","1457","s","elianto","#3366ff99"," "," ","1","0","[2211.4000000003725]","1","2","","","4245","74","5","1","win","go","1"
"pit-trial","203","1833535","0.0-79.0","battery-v0.2","","""event"",""trial"",""time""
""fullscreenenter"",""1"",""17091""
","
","
","""event"",""trial"",""time""
""fullscreenenter"",""1"",""17091""
","
","","","-1","","","15","4245","1457","g","elianto","#f73b6a7A"," ","-1","0","-10","[]","0","2","","","4245","75","3","3","lose","go","0"
"pit-trial","204","1838384","0.0-80.0","battery-v0.2","","""event"",""trial"",""time""
""fullscreenenter"",""1"",""17091""
","
","
","""event"",""trial"",""time""
""fullscreenenter"",""1"",""17091""
","
","","","1983.300000000745","","","15","4245","1457","p","elianto","#3366ff99","-1"," ","0","0","[2833.4000000003725]","1","2","","","4245","76","4","2","win","no-go","0"
"pit-trial","205","1843249","0.0-81.0","battery-v0.2","","""event"",""trial"",""time""
""fullscreenenter"",""1"",""17091""
","
","
","""event"",""trial"",""time""
""fullscreenenter"",""1"",""17091""
","
","","","-1","","","15","4245","1457","g","elianto","#f73b6a7A"," ","-1","0","-10","[]","0","2","","","4245","77","3","3","lose","go","0"
"pit-trial","206","1846643","0.0-82.0","battery-v0.2","","""event"",""trial"",""time""
""fullscreenenter"",""1"",""17091""
","
","
","""event"",""trial"",""time""
""fullscreenenter"",""1"",""17091""
","
","","","527.8999999985099","","","15","4245","1457","p","elianto","#3366ff99","-1"," ","0","+10","[1378.199999999255]","1","2","","","4245","78","4","2","win","no-go","1"
"pit-trial","207","1850771","0.0-83.0","battery-v0.2","","""event"",""trial"",""time""
""fullscreenenter"",""1"",""17091""
","
","
","""event"",""trial"",""time""
""fullscreenenter"",""1"",""17091""
","
","","","1263.2000000011176","","","15","4245","1457","s","elianto","#3366ff99"," "," ","1","+10","[2113.199999999255]","1","2","","","4245","79","5","1","win","go","0"
"pit-trial","208","1855633","0.0-84.0","battery-v0.2","","""event"",""trial"",""time""
""fullscreenenter"",""1"",""17091""
","
","
","""event"",""trial"",""time""
""fullscreenenter"",""1"",""17091""
","
","","","-1","","","15","4245","1457","w","elianto","#f73b6a7A","-1","-1","1","0","[]","0","2","","","4245","80","6","4","lose","no-go","0"
"pit-trial","209","1859310","0.0-85.0","battery-v0.2","","""event"",""trial"",""time""
""fullscreenenter"",""1"",""17091""
","
","
","""event"",""trial"",""time""
""fullscreenenter"",""1"",""17091""
","
","","","812.4000000003725","","","15","4245","1457","p","elianto","#3366ff99","-1"," ","0","0","[1664.300000000745]","1","2","","","4245","81","4","2","win","no-go","0"
"pit-trial","210","1864175","0.0-86.0","battery-v0.2","","""event"",""trial"",""time""
""fullscreenenter"",""1"",""17091""
","
","
","""event"",""trial"",""time""
""fullscreenenter"",""1"",""17091""
","
","","","-1","","","15","4245","1457","w","elianto","#f73b6a7A","-1","-1","1","-10","[]","0","2","","","4245","82","6","4","lose","no-go","1"
"pit-trial","211","1869022","0.0-87.0","battery-v0.2","","""event"",""trial"",""time""
""fullscreenenter"",""1"",""17091""
","
","
","""event"",""trial"",""time""
""fullscreenenter"",""1"",""17091""
","
","","","1984.7000000011176","","","15","4245","1457","s","elianto","#3366ff99"," "," ","1","+10","[2834.800000000745]","1","2","","","4245","83","5","1","win","go","0"
"pit-trial","212","1873888","0.0-88.0","battery-v0.2","","""event"",""trial"",""time""
""fullscreenenter"",""1"",""17091""
","
","
","""event"",""trial"",""time""
""fullscreenenter"",""1"",""17091""
","
","","","-1","","","15","4245","1457","e","elianto","#f73b6a7A"," ","-1","0","-10","[]","0","2","","","4245","84","7","3","lose","go","0"
"pit-trial","213","1878751","0.0-89.0","battery-v0.2","","""event"",""trial"",""time""
""fullscreenenter"",""1"",""17091""
","
","
","""event"",""trial"",""time""
""fullscreenenter"",""1"",""17091""
","
","","","-1","","","15","4245","1457","w","elianto","#f73b6a7A","-1","-1","1","0","[]","0","2","","","4245","85","6","4","lose","no-go","0"
"pit-trial","214","1882400","0.0-90.0","battery-v0.2","","""event"",""trial"",""time""
""fullscreenenter"",""1"",""17091""
","
","
","""event"",""trial"",""time""
""fullscreenenter"",""1"",""17091""
","
","","","779.8000000007451","","","15","4245","1457","p","elianto","#3366ff99","-1"," ","0","0","[1629.7999999988824]","1","2","","","4245","86","4","2","win","no-go","0"
"pit-trial","215","1887264","0.0-91.0","battery-v0.2","","""event"",""trial"",""time""
""fullscreenenter"",""1"",""17091""
","
","
","""event"",""trial"",""time""
""fullscreenenter"",""1"",""17091""
","
","","","-1","","","15","4245","1457","s","elianto","#3366ff99"," ","-1","0","0","[]","0","2","","","4245","87","5","1","win","go","0"
"pit-trial","216","1892128","0.0-92.0","battery-v0.2","","""event"",""trial"",""time""
""fullscreenenter"",""1"",""17091""
","
","
","""event"",""trial"",""time""
""fullscreenenter"",""1"",""17091""
","
","","","-1","","","15","4245","1457","e","elianto","#f73b6a7A"," ","-1","0","-10","[]","0","2","","","4245","88","7","3","lose","go","0"
"pit-trial","217","1896996","0.0-93.0","battery-v0.2","","""event"",""trial"",""time""
""fullscreenenter"",""1"",""17091""
","
","
","""event"",""trial"",""time""
""fullscreenenter"",""1"",""17091""
","
","","","-1","","","15","4245","1457","w","elianto","#f73b6a7A","-1","-1","1","0","[]","0","2","","","4245","89","6","4","lose","no-go","0"
"pit-trial","218","1900365","0.0-94.0","battery-v0.2","","""event"",""trial"",""time""
""fullscreenenter"",""1"",""17091""
","
","
","""event"",""trial"",""time""
""fullscreenenter"",""1"",""17091""
","
","","","504.59999999962747","","","15","4245","1457","s","elianto","#3366ff99"," "," ","1","+10","[1354.5999999996275]","1","2","","","4245","90","5","1","win","go","0"
"pit-trial","219","1905231","0.0-95.0","battery-v0.2","","""event"",""trial"",""time""
""fullscreenenter"",""1"",""17091""
","
","
","""event"",""trial"",""time""
""fullscreenenter"",""1"",""17091""
","
","","","-1","","","15","4245","1457","e","elianto","#f73b6a7A"," ","-1","0","0","[]","0","2","","","4245","91","7","3","lose","go","1"
"pit-trial","220","1910096","0.0-96.0","battery-v0.2","","""event"",""trial"",""time""
""fullscreenenter"",""1"",""17091""
","
","
","""event"",""trial"",""time""
""fullscreenenter"",""1"",""17091""
","
","","","-1","","","15","4245","1457","p","elianto","#3366ff99","-1","-1","1","+10","[]","0","2","","","4245","92","4","2","win","no-go","0"
"pit-trial","221","1914960","0.0-97.0","battery-v0.2","","""event"",""trial"",""time""
""fullscreenenter"",""1"",""17091""
","
","
","""event"",""trial"",""time""
""fullscreenenter"",""1"",""17091""
","
","","","-1","","","15","4245","1457","s","elianto","#3366ff99"," ","-1","0","0","[]","0","2","","","4245","93","5","1","win","go","0"
"pit-trial","222","1919824","0.0-98.0","battery-v0.2","","""event"",""trial"",""time""
""fullscreenenter"",""1"",""17091""
","
","
","""event"",""trial"",""time""
""fullscreenenter"",""1"",""17091""
","
","","","-1","","","15","4245","1457","w","elianto","#f73b6a7A","-1","-1","1","0","[]","0","2","","","4245","94","6","4","lose","no-go","0"
"pit-trial","223","1923618","0.0-99.0","battery-v0.2","","""event"",""trial"",""time""
""fullscreenenter"",""1"",""17091""
","
","
","""event"",""trial"",""time""
""fullscreenenter"",""1"",""17091""
","
","","","932.7999999988824","","","15","4245","1457","d","elianto","#3366ff99","-1"," ","0","0","[1782.199999999255]","1","2","","","4245","95","8","2","win","no-go","0"
"pit-trial","224","1928482","0.0-100.0","battery-v0.2","","""event"",""trial"",""time""
""fullscreenenter"",""1"",""17091""
","
","
","""event"",""trial"",""time""
""fullscreenenter"",""1"",""17091""
","
","","","-1","","","15","4245","1457","e","elianto","#f73b6a7A"," ","-1","0","-10","[]","0","2","","","4245","96","7","3","lose","go","0"
"pit-trial","225","1933298","0.0-101.0","battery-v0.2","","""event"",""trial"",""time""
""fullscreenenter"",""1"",""17091""
","
","
","""event"",""trial"",""time""
""fullscreenenter"",""1"",""17091""
","
","","","1952.5","","","15","4245","1457","s","elianto","#3366ff99"," "," ","1","+10","[2802.5999999996275]","1","2","","","4245","97","5","1","win","go","0"
"pit-trial","226","1938163","0.0-102.0","battery-v0.2","","""event"",""trial"",""time""
""fullscreenenter"",""1"",""17091""
","
","
","""event"",""trial"",""time""
""fullscreenenter"",""1"",""17091""
","
","","","-1","","","15","4245","1457","w","elianto","#f73b6a7A","-1","-1","1","0","[]","0","2","","","4245","98","6","4","lose","no-go","0"
"pit-trial","227","1943027","0.0-103.0","battery-v0.2","","""event"",""trial"",""time""
""fullscreenenter"",""1"",""17091""
","
","
","""event"",""trial"",""time""
""fullscreenenter"",""1"",""17091""
","
","","","-1","","","15","4245","1457","d","elianto","#3366ff99","-1","-1","1","+10","[]","0","2","","","4245","99","8","2","win","no-go","0"
"pit-trial","228","1947892","0.0-104.0","battery-v0.2","","""event"",""trial"",""time""
""fullscreenenter"",""1"",""17091""
","
","
","""event"",""trial"",""time""
""fullscreenenter"",""1"",""17091""
","
","","","-1","","","15","4245","1457","e","elianto","#f73b6a7A"," ","-1","0","-10","[]","0","2","","","4245","100","7","3","lose","go","0"
"pit-trial","229","1952759","0.0-105.0","battery-v0.2","","""event"",""trial"",""time""
""fullscreenenter"",""1"",""17091""
","
","
","""event"",""trial"",""time""
""fullscreenenter"",""1"",""17091""
","
","","","-1","","","15","4245","1457","w","elianto","#f73b6a7A","-1","-1","1","-10","[]","0","2","","","4245","101","6","4","lose","no-go","1"
"pit-trial","230","1956495","0.0-106.0","battery-v0.2","","""event"",""trial"",""time""
""fullscreenenter"",""1"",""17091""
","
","
","""event"",""trial"",""time""
""fullscreenenter"",""1"",""17091""
","
","","","871.8999999985099","","","15","4245","1457","j","elianto","#3366ff99","-1"," ","0","0","[1724.0999999996275]","1","2","","","4245","102","9","2","win","no-go","0"
"pit-trial","231","1961360","0.0-107.0","battery-v0.2","","""event"",""trial"",""time""
""fullscreenenter"",""1"",""17091""
","
","
","""event"",""trial"",""time""
""fullscreenenter"",""1"",""17091""
","
","","","-1","","","15","4245","1457","s","elianto","#3366ff99"," ","-1","0","0","[]","0","2","","","4245","103","5","1","win","go","0"
"pit-trial","232","1964917","0.0-108.0","battery-v0.2","","""event"",""trial"",""time""
""fullscreenenter"",""1"",""17091""
","
","
","""event"",""trial"",""time""
""fullscreenenter"",""1"",""17091""
","
","","","693.6999999992549","","","15","4245","1457","d","elianto","#3366ff99","-1"," ","0","0","[1545]","1","2","","","4245","104","8","2","win","no-go","0"
"pit-trial","233","1968412","0.0-109.0","battery-v0.2","","""event"",""trial"",""time""
""fullscreenenter"",""1"",""17091""
","
","
","""event"",""trial"",""time""
""fullscreenenter"",""1"",""17091""
","
","","","629.5999999996275","","","15","4245","1457","d","elianto","#3366ff99","-1"," ","0","+10","[1479.5]","1","2","","","4245","105","8","2","win","no-go","1"
"pit-trial","234","1972410","0.0-110.0","battery-v0.2","","""event"",""trial"",""time""
""fullscreenenter"",""1"",""17091""
","
","
","""event"",""trial"",""time""
""fullscreenenter"",""1"",""17091""
","
","","","1132.5","","","15","4245","1457","s","elianto","#3366ff99"," "," ","1","0","[1982.5999999996275]","1","2","","","4245","106","5","1","win","go","1"
"pit-trial","235","1977275","0.0-111.0","battery-v0.2","","""event"",""trial"",""time""
""fullscreenenter"",""1"",""17091""
","
","
","""event"",""trial"",""time""
""fullscreenenter"",""1"",""17091""
","
","","","-1","","","15","4245","1457","w","elianto","#f73b6a7A","-1","-1","1","0","[]","0","2","","","4245","107","6","4","lose","no-go","0"
"pit-trial","236","1980838","0.0-112.0","battery-v0.2","","""event"",""trial"",""time""
""fullscreenenter"",""1"",""17091""
","
","
","""event"",""trial"",""time""
""fullscreenenter"",""1"",""17091""
","
","","","696.2999999988824","","","15","4245","1457","j","elianto","#3366ff99","-1"," ","0","0","[1548.9000000003725]","1","2","","","4245","108","9","2","win","no-go","0"
"pit-trial","237","1984166","0.0-113.0","battery-v0.2","","""event"",""trial"",""time""
""fullscreenenter"",""1"",""17091""
","
","
","""event"",""trial"",""time""
""fullscreenenter"",""1"",""17091""
","
","","","459.80000000074506","","","15","4245","1457","j","elianto","#3366ff99","-1"," ","0","0","[1314.699999999255]","1","2","","","4245","109","9","2","win","no-go","0"
"pit-trial","238","1987269","0.0-114.0","battery-v0.2","","""event"",""trial"",""time""
""fullscreenenter"",""1"",""17091""
","
","
","""event"",""trial"",""time""
""fullscreenenter"",""1"",""17091""
","
","","","240.2000000011176","","","15","4245","1457","w","elianto","#f73b6a7A","-1"," ","0","-10","[1090.2999999988824]","1","2","","","4245","110","6","4","lose","no-go","0"
"pit-trial","239","1990735","0.0-115.0","battery-v0.2","","""event"",""trial"",""time""
""fullscreenenter"",""1"",""17091""
","
","
","""event"",""trial"",""time""
""fullscreenenter"",""1"",""17091""
","
","","","601.2999999988824","","","15","4245","1457","d","elianto","#3366ff99","-1"," ","0","0","[1451.2000000011176]","1","2","","","4245","111","8","2","win","no-go","0"
"pit-trial","240","1994217","0.0-116.0","battery-v0.2","","""event"",""trial"",""time""
""fullscreenenter"",""1"",""17091""
","
","
","""event"",""trial"",""time""
""fullscreenenter"",""1"",""17091""
","
","","","618.5","","","15","4245","1457","s","elianto","#3366ff99"," "," ","1","+10","[1468.5999999996275]","1","2","","","4245","112","5","1","win","go","0"
"pit-trial","241","1997648","0.0-117.0","battery-v0.2","","""event"",""trial"",""time""
""fullscreenenter"",""1"",""17091""
","
","
","""event"",""trial"",""time""
""fullscreenenter"",""1"",""17091""
","
","","","568.5","","","15","4245","1457","s","elianto","#3366ff99"," "," ","1","+10","[1418.5999999996275]","1","2","","","4245","113","5","1","win","go","0"
"pit-trial","242","2002511","0.0-118.0","battery-v0.2","","""event"",""trial"",""time""
""fullscreenenter"",""1"",""17091""
","
","
","""event"",""trial"",""time""
""fullscreenenter"",""1"",""17091""
","
","","","-1","","","15","4245","1457","e","elianto","#f73b6a7A"," ","-1","0","-10","[]","0","2","","","4245","114","7","3","lose","go","0"
"pit-trial","243","2005950","0.0-119.0","battery-v0.2","","""event"",""trial"",""time""
""fullscreenenter"",""1"",""17091""
","
","
","""event"",""trial"",""time""
""fullscreenenter"",""1"",""17091""
","
","","","574.9000000022352","","","15","4245","1457","j","elianto","#3366ff99","-1"," ","0","+10","[1425]","1","2","","","4245","115","9","2","win","no-go","1"
"pit-trial","244","2009458","0.0-120.0","battery-v0.2","","""event"",""trial"",""time""
""fullscreenenter"",""1"",""17091""
","
","
","""event"",""trial"",""time""
""fullscreenenter"",""1"",""17091""
","
","","","646.2999999970198","","","15","4245","1457","d","elianto","#3366ff99","-1"," ","0","0","[1496.4000000022352]","1","2","","","4245","116","8","2","win","no-go","0"
"pit-trial","245","2013000","0.0-121.0","battery-v0.2","","""event"",""trial"",""time""
""fullscreenenter"",""1"",""17091""
","
","
","""event"",""trial"",""time""
""fullscreenenter"",""1"",""17091""
","
","","","674.6999999992549","","","15","4245","1457","j","elianto","#3366ff99","-1"," ","0","0","[1527.5]","1","2","","","4245","117","9","2","win","no-go","0"
"pit-trial","246","2016338","0.0-122.0","battery-v0.2","","""event"",""trial"",""time""
""fullscreenenter"",""1"",""17091""
","
","
","""event"",""trial"",""time""
""fullscreenenter"",""1"",""17091""
","
","","","473.19999999925494","","","15","4245","1457","d","elianto","#3366ff99","-1"," ","0","0","[1323.4000000022352,2559.900000002235,2723.400000002235]","3","2","","","4245","118","8","2","win","no-go","0"
"pit-trial","247","2019745","0.0-123.0","battery-v0.2","","""event"",""trial"",""time""
""fullscreenenter"",""1"",""17091""
","
","
","""event"",""trial"",""time""
""fullscreenenter"",""1"",""17091""
","
","","","545.5999999977648","","","15","4245","1457","s","elianto","#3366ff99"," "," ","1","+10","[1395.800000000745,1586.699999999255,1769.3999999985099,1958.5,2355.199999999255,2542.5,3125.800000000745]","7","2","","","4245","119","5","1","win","go","0"
"pit-trial","248","2024222","0.0-124.0","battery-v0.2","","""event"",""trial"",""time""
""fullscreenenter"",""1"",""17091""
","
","
","""event"",""trial"",""time""
""fullscreenenter"",""1"",""17091""
","
","","","1614.0999999977648","","","15","4245","1457","w","elianto","#f73b6a7A","-1"," ","0","-10","[2464.199999999255]","1","2","","","4245","120","6","4","lose","no-go","0"
"pit-trial","249","2027780","0.0-125.0","battery-v0.2","","""event"",""trial"",""time""
""fullscreenenter"",""1"",""17091""
","
","
","""event"",""trial"",""time""
""fullscreenenter"",""1"",""17091""
","
","","","690.6000000014901","","","15","4245","1457","s","elianto","#3366ff99"," "," ","1","+10","[1542.300000000745]","1","2","","","4245","121","5","1","win","go","0"
"pit-trial","250","2031275","0.0-126.0","battery-v0.2","","""event"",""trial"",""time""
""fullscreenenter"",""1"",""17091""
","
","
","""event"",""trial"",""time""
""fullscreenenter"",""1"",""17091""
","
","","","630.0999999977648","","","15","4245","1457","d","elianto","#3366ff99","-1"," ","0","0","[1480.1000000014901]","1","2","","","4245","122","8","2","win","no-go","0"
"pit-trial","251","2034667","0.0-127.0","battery-v0.2","","""event"",""trial"",""time""
""fullscreenenter"",""1"",""17091""
","
","
","""event"",""trial"",""time""
""fullscreenenter"",""1"",""17091""
","
","","","526.1000000014901","","","15","4245","1457","e","elianto","#f73b6a7A"," "," ","1","-10","[1376.1000000014901]","1","2","","","4245","123","7","3","lose","go","1"
"pit-trial","252","2038105","0.0-128.0","battery-v0.2","","""event"",""trial"",""time""
""fullscreenenter"",""1"",""17091""
","
","
","""event"",""trial"",""time""
""fullscreenenter"",""1"",""17091""
","
","","","575.4000000022352","","","15","4245","1457","j","elianto","#3366ff99","-1"," ","0","0","[1425.3999999985099]","1","2","","","4245","124","9","2","win","no-go","0"
"pit-trial","253","2042967","0.0-129.0","battery-v0.2","","""event"",""trial"",""time""
""fullscreenenter"",""1"",""17091""
","
","
","""event"",""trial"",""time""
""fullscreenenter"",""1"",""17091""
","
","","","-1","","","15","4245","1457","w","elianto","#f73b6a7A","-1","-1","1","0","[]","0","2","","","4245","125","6","4","lose","no-go","0"
"pit-trial","254","2047830","0.0-130.0","battery-v0.2","","""event"",""trial"",""time""
""fullscreenenter"",""1"",""17091""
","
","
","""event"",""trial"",""time""
""fullscreenenter"",""1"",""17091""
","
","","","-1","","","15","4245","1457","e","elianto","#f73b6a7A"," ","-1","0","-10","[]","0","2","","","4245","126","7","3","lose","go","0"
"pit-trial","255","2051263","0.0-131.0","battery-v0.2","","""event"",""trial"",""time""
""fullscreenenter"",""1"",""17091""
","
","
","""event"",""trial"",""time""
""fullscreenenter"",""1"",""17091""
","
","","","566.6999999992549","","","15","4245","1457","d","elianto","#3366ff99","-1"," ","0","0","[1416.800000000745]","1","2","","","4245","127","8","2","win","no-go","0"
"pit-trial","256","2054672","0.0-132.0","battery-v0.2","","""event"",""trial"",""time""
""fullscreenenter"",""1"",""17091""
","
","
","""event"",""trial"",""time""
""fullscreenenter"",""1"",""17091""
","
","","","545","","","15","4245","1457","j","elianto","#3366ff99","-1"," ","0","0","[1394.300000000745,1648.6000000014901,2053.400000002235]","3","2","","","4245","128","9","2","win","no-go","0"
"pit-trial","257","2059537","0.0-133.0","battery-v0.2","","""event"",""trial"",""time""
""fullscreenenter"",""1"",""17091""
","
","
","""event"",""trial"",""time""
""fullscreenenter"",""1"",""17091""
","
","","","-1","","","15","4245","1457","w","elianto","#f73b6a7A","-1","-1","1","0","[]","0","2","","","4245","129","6","4","lose","no-go","0"
"pit-trial","258","2062945","0.0-134.0","battery-v0.2","","""event"",""trial"",""time""
""fullscreenenter"",""1"",""17091""
","
","
","""event"",""trial"",""time""
""fullscreenenter"",""1"",""17091""
","
","","","548.0999999977648","","","15","4245","1457","d","elianto","#3366ff99","-1"," ","0","0","[1398.0999999977648,1664.3999999985099,1885.5,2074.199999999255,2289.39999999851,2514.39999999851,3133.5,3356.39999999851]","8","2","","","4245","130","8","2","win","no-go","0"
"pit-trial","259","2065960","0.0-135.0","battery-v0.2","","""event"",""trial"",""time""
""fullscreenenter"",""1"",""17091""
","
","
","""event"",""trial"",""time""
""fullscreenenter"",""1"",""17091""
","
","","","151.20000000298023","","","15","4245","1457","e","elianto","#f73b6a7A"," "," ","1","-10","[158.90000000223517,402.5,603.8000000007451,842,1001.3000000007451]","5","2","","","4245","131","7","3","lose","go","1"
"pit-trial","260","2070082","0.0-136.0","battery-v0.2","","""event"",""trial"",""time""
""fullscreenenter"",""1"",""17091""
","
","
","""event"",""trial"",""time""
""fullscreenenter"",""1"",""17091""
","
","","","1260","","","15","4245","1457","j","elianto","#3366ff99","-1"," ","0","0","[2110]","1","2","","","4245","132","9","2","win","no-go","0"
"pit-trial","261","2074947","0.0-137.0","battery-v0.2","","""event"",""trial"",""time""
""fullscreenenter"",""1"",""17091""
","
","
","""event"",""trial"",""time""
""fullscreenenter"",""1"",""17091""
","
","","","-1","","","15","4245","1457","j","elianto","#3366ff99","-1","-1","1","+10","[]","0","2","","","4245","133","9","2","win","no-go","0"
"pit-trial","262","2079811","0.0-138.0","battery-v0.2","","""event"",""trial"",""time""
""fullscreenenter"",""1"",""17091""
","
","
","""event"",""trial"",""time""
""fullscreenenter"",""1"",""17091""
","
","","","-1","","","15","4245","1457","e","elianto","#f73b6a7A"," ","-1","0","-10","[]","0","2","","","4245","134","7","3","lose","go","0"
"pit-trial","263","2084675","0.0-139.0","battery-v0.2","","""event"",""trial"",""time""
""fullscreenenter"",""1"",""17091""
","
","
","""event"",""trial"",""time""
""fullscreenenter"",""1"",""17091""
","
","","","-1","","","15","4245","1457","w","elianto","#f73b6a7A","-1","-1","1","0","[]","0","2","","","4245","135","6","4","lose","no-go","0"
"pit-trial","264","2088792","0.0-140.0","battery-v0.2","","""event"",""trial"",""time""
""fullscreenenter"",""1"",""17091""
","
","
","""event"",""trial"",""time""
""fullscreenenter"",""1"",""17091""
","
","","","1250.5","","","15","4245","1457","d","elianto","#3366ff99","-1"," ","0","0","[2100.60000000149]","1","2","","","4245","136","8","2","win","no-go","0"
"pit-trial","265","2093494","0.0-141.0","battery-v0.2","","""event"",""trial"",""time""
""fullscreenenter"",""1"",""17091""
","
","
","""event"",""trial"",""time""
""fullscreenenter"",""1"",""17091""
","
","","","1839.3999999985099","","","15","4245","1457","j","elianto","#3366ff99","-1"," ","0","0","[2689.5]","1","2","","","4245","137","9","2","win","no-go","0"
"pit-trial","266","2098358","0.0-142.0","battery-v0.2","","""event"",""trial"",""time""
""fullscreenenter"",""1"",""17091""
","
","
","""event"",""trial"",""time""
""fullscreenenter"",""1"",""17091""
","
","","","-1","","","15","4245","1457","w","elianto","#f73b6a7A","-1","-1","1","0","[]","0","2","","","4245","138","6","4","lose","no-go","0"
"pit-trial","267","2103223","0.0-143.0","battery-v0.2","","""event"",""trial"",""time""
""fullscreenenter"",""1"",""17091""
","
","
","""event"",""trial"",""time""
""fullscreenenter"",""1"",""17091""
","
