"trial_type","trial_index","time_elapsed","internal_node_id","task_version","subject_id","interactions","blur_events","focus_events","fullscreenenter_events","fullscreenexit_events","success","view_history","rt","responses","num_errors","age","subject","participantId","rune","rune_set","hex","correct","choice","accuracy","outcome","keys","total_keys","block","practice","value","sub","trial","stimulus","robot","valence","action","sham"
"pavlovia","0","8","0.0-0.0","battery-v0.2","","""event"",""trial"",""time""
""fullscreenenter"",""1"",""1891""
","
","
","""event"",""trial"",""time""
""fullscreenenter"",""1"",""1891""
","
","","","","","","","","","","","","","","","","","","","","","","","","","","",""
"fullscreen","1","2867","0.0-1.0","battery-v0.2","","""event"",""trial"",""time""
""fullscreenenter"",""1"",""1891""
","
","
","""event"",""trial"",""time""
""fullscreenenter"",""1"",""1891""
","
","true","","","","","","","","","","","","","","","","","","","","","","","","","",""
"pit-instructions","2","7764","0.0-2.0-0.0","battery-v0.2","","""event"",""trial"",""time""
""fullscreenenter"",""1"",""1891""
","
","
","""event"",""trial"",""time""
""fullscreenenter"",""1"",""1891""
","
","","[{""page_index"":0,""viewing_time"":4894.399999999907}]","4894.5","","","","","","","","","","","","","","","","","","","","","","","",""
"pit-comprehension","3","10529","0.0-2.0-1.0-0.0","battery-v0.2","","""event"",""trial"",""time""
""fullscreenenter"",""1"",""1891""
","
","
","""event"",""trial"",""time""
""fullscreenenter"",""1"",""1891""
","
","","","2762.5999999996275","[""shark""]","0","18","7706","3945","","","","","","","","","","","","","","","","","","",""
"pit-instructions","4","11753","0.0-2.0-1.0-1.0","battery-v0.2","","""event"",""trial"",""time""
""fullscreenenter"",""1"",""1891""
","
","
","""event"",""trial"",""time""
""fullscreenenter"",""1"",""1891""
","
","","[{""page_index"":0,""viewing_time"":1205.6000000000931}]","1206","","","","","","","","","","","","","","","","","","","","","","","",""
"pit-comprehension","5","13963","0.0-2.0-2.0-0.0","battery-v0.2","","""event"",""trial"",""time""
""fullscreenenter"",""1"",""1891""
","
","
","""event"",""trial"",""time""
""fullscreenenter"",""1"",""1891""
","
","","","2208.2000000001863","[""tiger""]","0","18","7706","3945","","","","","","","","","","","","","","","","","","",""
"pit-instructions","6","14719","0.0-2.0-2.0-1.0","battery-v0.2","","""event"",""trial"",""time""
""fullscreenenter"",""1"",""1891""
","
","
","""event"",""trial"",""time""
""fullscreenenter"",""1"",""1891""
","
","","[{""page_index"":0,""viewing_time"":753}]","753.3999999999069","","","","","","","","","","","","","","","","","","","","","","","",""
"pit-instructions","7","109698","0.0-2.0-3.0","battery-v0.2","","""event"",""trial"",""time""
""fullscreenenter"",""1"",""1891""
","
","
","""event"",""trial"",""time""
""fullscreenenter"",""1"",""1891""
","
","","[{""page_index"":0,""viewing_time"":7997.5},{""page_index"":1,""viewing_time"":5568.200000000186},{""page_index"":2,""viewing_time"":6405.899999999907},{""page_index"":3,""viewing_time"":6273.699999999721},{""page_index"":4,""viewing_time"":6382.200000000186},{""page_index"":5,""viewing_time"":6042.200000000186},{""page_index"":6,""viewing_time"":7383.899999999907},{""page_index"":7,""viewing_time"":7049.799999999814},{""page_index"":8,""viewing_time"":6588.300000000279},{""page_index"":9,""viewing_time"":8216.099999999627},{""page_index"":10,""viewing_time"":7844.200000000186},{""page_index"":11,""viewing_time"":7715.799999999814},{""page_index"":12,""viewing_time"":6037.300000000279},{""page_index"":13,""viewing_time"":5472.199999999721}]","94977.6000000001","","","","","","","","","","","","","","","","","","","","","","","",""
"pit-trial","8","113437","0.0-2.0-4.0-0.0","battery-v0.2","","""event"",""trial"",""time""
""fullscreenenter"",""1"",""1891""
","
","
","""event"",""trial"",""time""
""fullscreenenter"",""1"",""1891""
","
","","","880.3999999999069","","","18","7706","3945","&#9784;","elianto","#FFFFF080"," "," ","1","&#10004","[1730.8000000002794]","1","0","0","","","","","","","",""
"pit-trial","9","117042","0.0-2.0-4.1-0.1","battery-v0.2","","""event"",""trial"",""time""
""fullscreenenter"",""1"",""1891""
","
","
","""event"",""trial"",""time""
""fullscreenenter"",""1"",""1891""
","
","","","743.5","","","18","7706","3945","&#9784;","elianto","#FFFFF080"," "," ","1","&#10004","[1599.5]","1","0","0","","","","","","","",""
"pit-trial","10","120427","0.0-2.0-4.2-0.2","battery-v0.2","","""event"",""trial"",""time""
""fullscreenenter"",""1"",""1891""
","
","
","""event"",""trial"",""time""
""fullscreenenter"",""1"",""1891""
","
","","","517.8999999999069","","","18","7706","3945","&#9784;","elianto","#FFFFF080"," "," ","1","&#10004","[1370.6000000000931]","1","0","0","","","","","","","",""
"pit-trial","11","123942","0.0-2.0-4.3-0.3","battery-v0.2","","""event"",""trial"",""time""
""fullscreenenter"",""1"",""1891""
","
","
","""event"",""trial"",""time""
""fullscreenenter"",""1"",""1891""
","
","","","642.6000000000931","","","18","7706","3945","&#9784;","elianto","#FFFFF080"," "," ","1","&#10004","[1498]","1","0","0","","","","","","","",""
"pit-trial","12","127238","0.0-2.0-4.4-0.4","battery-v0.2","","""event"",""trial"",""time""
""fullscreenenter"",""1"",""1891""
","
","
","""event"",""trial"",""time""
""fullscreenenter"",""1"",""1891""
","
","","","425","","","18","7706","3945","&#9784;","elianto","#FFFFF080"," "," ","1","&#10004","[1278.6000000000931]","1","0","0","","","","","","","",""
"pit-instructions","13","148009","0.0-2.0-5.0","battery-v0.2","","""event"",""trial"",""time""
""fullscreenenter"",""1"",""1891""
","
","
","""event"",""trial"",""time""
""fullscreenenter"",""1"",""1891""
","
","","[{""page_index"":0,""viewing_time"":4840},{""page_index"":1,""viewing_time"":5346.199999999721},{""page_index"":2,""viewing_time"":5059.899999999907},{""page_index"":3,""viewing_time"":5522.600000000093}]","20768.799999999814","","","","","","","","","","","","","","","","","","","","","","","",""
"pit-trial","14","152872","0.0-2.0-6.0-0.0","battery-v0.2","","""event"",""trial"",""time""
""fullscreenenter"",""1"",""1891""
","
","
","""event"",""trial"",""time""
""fullscreenenter"",""1"",""1891""
","
","","","-1","","","18","7706","3945","&#9854;","elianto","#FFFFF080","-1","-1","1","&#10004","[]","0","0","1","","","","","","","",""
"pit-trial","15","157731","0.0-2.0-6.1-0.1","battery-v0.2","","""event"",""trial"",""time""
""fullscreenenter"",""1"",""1891""
","
","
","""event"",""trial"",""time""
""fullscreenenter"",""1"",""1891""
","
","","","-1","","","18","7706","3945","&#9854;","elianto","#FFFFF080","-1","-1","1","&#10004","[]","0","0","1","","","","","","","",""
"pit-trial","16","162607","0.0-2.0-6.2-0.2","battery-v0.2","","""event"",""trial"",""time""
""fullscreenenter"",""1"",""1891""
","
","
","""event"",""trial"",""time""
""fullscreenenter"",""1"",""1891""
","
","","","-1","","","18","7706","3945","&#9854;","elianto","#FFFFF080","-1","-1","1","&#10004","[]","0","0","1","","","","","","","",""
"pit-trial","17","167461","0.0-2.0-6.3-0.3","battery-v0.2","","""event"",""trial"",""time""
""fullscreenenter"",""1"",""1891""
","
","
","""event"",""trial"",""time""
""fullscreenenter"",""1"",""1891""
","
","","","-1","","","18","7706","3945","&#9854;","elianto","#FFFFF080","-1","-1","1","&#10004","[]","0","0","1","","","","","","","",""
"pit-trial","18","172320","0.0-2.0-6.4-0.4","battery-v0.2","","""event"",""trial"",""time""
""fullscreenenter"",""1"",""1891""
","
","
","""event"",""trial"",""time""
""fullscreenenter"",""1"",""1891""
","
","","","-1","","","18","7706","3945","&#9854;","elianto","#FFFFF080","-1","-1","1","&#10004","[]","0","0","1","","","","","","","",""
"pit-instructions","19","289642","0.0-2.0-7.0","battery-v0.2","","""event"",""trial"",""time""
""fullscreenenter"",""1"",""1891""
","
","
","""event"",""trial"",""time""
""fullscreenenter"",""1"",""1891""
","
","","[{""page_index"":0,""viewing_time"":5673.399999999907},{""page_index"":1,""viewing_time"":6910},{""page_index"":2,""viewing_time"":5856.5},{""page_index"":3,""viewing_time"":6411.300000000279},{""page_index"":4,""viewing_time"":6022},{""page_index"":5,""viewing_time"":5644.5},{""page_index"":6,""viewing_time"":5133.699999999721},{""page_index"":7,""viewing_time"":7479.700000000186},{""page_index"":8,""viewing_time"":7152.200000000186},{""page_index"":9,""viewing_time"":6094.299999999814},{""page_index"":10,""viewing_time"":6721.899999999907},{""page_index"":11,""viewing_time"":4735.800000000279},{""page_index"":12,""viewing_time"":7174.699999999721},{""page_index"":13,""viewing_time"":7709.800000000279},{""page_index"":14,""viewing_time"":7469.399999999907},{""page_index"":15,""viewing_time"":6720.299999999814},{""page_index"":16,""viewing_time"":6728.200000000186},{""page_index"":17,""viewing_time"":7681.799999999814}]","117319.70000000019","","","","","","","","","","","","","","","","","","","","","","","",""
"pit-trial","20","293680","0.0-2.0-8.0-0.0","battery-v0.2","","""event"",""trial"",""time""
""fullscreenenter"",""1"",""1891""
","
","
","""event"",""trial"",""time""
""fullscreenenter"",""1"",""1891""
","
","","","1177.0999999996275","","","18","7706","3945","&#9776;","elianto","#3366ff99"," "," ","1","+10","[2035.7000000001863]","1","0","1","","","","","","","",""
"pit-trial","21","297207","0.0-2.0-8.0-1.0","battery-v0.2","","""event"",""trial"",""time""
""fullscreenenter"",""1"",""1891""
","
","
","""event"",""trial"",""time""
""fullscreenenter"",""1"",""1891""
","
","","","667.2999999998137","","","18","7706","3945","&#9776;","elianto","#3366ff99"," "," ","1","+10","[1525.2000000001863]","1","0","1","","","","","","","",""
"pit-trial","22","300620","0.0-2.0-8.0-2.0","battery-v0.2","","""event"",""trial"",""time""
""fullscreenenter"",""1"",""1891""
","
","
","""event"",""trial"",""time""
""fullscreenenter"",""1"",""1891""
","
","","","544.2000000001863","","","18","7706","3945","&#9776;","elianto","#3366ff99"," "," ","1","+10","[1397.7000000001863]","1","0","1","","","","","","","",""
"pit-trial","23","303980","0.0-2.0-8.0-3.0","battery-v0.2","","""event"",""trial"",""time""
""fullscreenenter"",""1"",""1891""
","
","
","""event"",""trial"",""time""
""fullscreenenter"",""1"",""1891""
","
","","","489","","","18","7706","3945","&#9776;","elianto","#3366ff99"," "," ","1","0","[1345.2000000001863]","1","0","1","","","","","","","",""
"pit-trial","24","307274","0.0-2.0-8.0-4.0","battery-v0.2","","""event"",""trial"",""time""
""fullscreenenter"",""1"",""1891""
","
","
","""event"",""trial"",""time""
""fullscreenenter"",""1"",""1891""
","
","","","426.39999999990687","","","18","7706","3945","&#9776;","elianto","#3366ff99"," "," ","1","+10","[1280.6000000000931]","1","0","1","","","","","","","",""
"pit-trial","25","310597","0.0-2.0-8.1-0.1","battery-v0.2","","""event"",""trial"",""time""
""fullscreenenter"",""1"",""1891""
","
","
","""event"",""trial"",""time""
""fullscreenenter"",""1"",""1891""
","
","","","449.20000000018626","","","18","7706","3945","&#9776;","elianto","#3366ff99"," "," ","1","+10","[1306.7000000001863]","1","0","1","","","","","","","",""
"pit-trial","26","313972","0.0-2.0-8.1-1.1","battery-v0.2","","""event"",""trial"",""time""
""fullscreenenter"",""1"",""1891""
","
","
","""event"",""trial"",""time""
""fullscreenenter"",""1"",""1891""
","
","","","507.39999999990687","","","18","7706","3945","&#9776;","elianto","#3366ff99"," "," ","1","+10","[1367.6999999997206]","1","0","1","","","","","","","",""
"pit-trial","27","317336","0.0-2.0-8.1-2.1","battery-v0.2","","""event"",""trial"",""time""
""fullscreenenter"",""1"",""1891""
","
","
","""event"",""trial"",""time""
""fullscreenenter"",""1"",""1891""
","
","","","510.5","","","18","7706","3945","&#9776;","elianto","#3366ff99"," "," ","1","+10","[1360.6000000000931]","1","0","1","","","","","","","",""
"pit-trial","28","322189","0.0-2.0-8.1-3.1","battery-v0.2","","""event"",""trial"",""time""
""fullscreenenter"",""1"",""1891""
","
","
","""event"",""trial"",""time""
""fullscreenenter"",""1"",""1891""
","
","","","-1","","","18","7706","3945","&#9776;","elianto","#3366ff99"," ","-1","0","+10","[]","0","0","1","","","","","","","",""
"pit-trial","29","325782","0.0-2.0-8.1-4.1","battery-v0.2","","""event"",""trial"",""time""
""fullscreenenter"",""1"",""1891""
","
","
","""event"",""trial"",""time""
""fullscreenenter"",""1"",""1891""
","
","","","740.1000000000931","","","18","7706","3945","&#9776;","elianto","#3366ff99"," "," ","1","+10","[1590.3999999999069]","1","0","1","","","","","","","",""
"pit-trial","30","329265","0.0-2.0-8.2-0.2","battery-v0.2","","""event"",""trial"",""time""
""fullscreenenter"",""1"",""1891""
","
","
","""event"",""trial"",""time""
""fullscreenenter"",""1"",""1891""
","
","","","626.8999999999069","","","18","7706","3945","&#9776;","elianto","#3366ff99"," "," ","1","+10","[1477.8999999999069]","1","0","1","","","","","","","",""
"pit-trial","31","332601","0.0-2.0-8.2-1.2","battery-v0.2","","""event"",""trial"",""time""
""fullscreenenter"",""1"",""1891""
","
","
","""event"",""trial"",""time""
""fullscreenenter"",""1"",""1891""
","
","","","480.5","","","18","7706","3945","&#9776;","elianto","#3366ff99"," "," ","1","+10","[1331.2000000001863]","1","0","1","","","","","","","",""
"pit-trial","32","335905","0.0-2.0-8.2-2.2","battery-v0.2","","""event"",""trial"",""time""
""fullscreenenter"",""1"",""1891""
","
","
","""event"",""trial"",""time""
""fullscreenenter"",""1"",""1891""
","
","","","449.89999999990687","","","18","7706","3945","&#9776;","elianto","#3366ff99"," "," ","1","+10","[1300.5]","1","0","1","","","","","","","",""
"pit-trial","33","340760","0.0-2.0-8.2-3.2","battery-v0.2","","""event"",""trial"",""time""
""fullscreenenter"",""1"",""1891""
","
","
","""event"",""trial"",""time""
""fullscreenenter"",""1"",""1891""
","
","","","-1","","","18","7706","3945","&#9776;","elianto","#3366ff99"," ","-1","0","+10","[]","0","0","1","","","","","","","",""
"pit-trial","34","344201","0.0-2.0-8.2-4.2","battery-v0.2","","""event"",""trial"",""time""
""fullscreenenter"",""1"",""1891""
","
","
","""event"",""trial"",""time""
""fullscreenenter"",""1"",""1891""
","
","","","587.3999999999069","","","18","7706","3945","&#9776;","elianto","#3366ff99"," "," ","1","+10","[1437.6999999997206]","1","0","1","","","","","","","",""
"call-function","35","344204","0.0-2.0-9.0","battery-v0.2","","""event"",""trial"",""time""
""fullscreenenter"",""1"",""1891""
","
","
","""event"",""trial"",""time""
""fullscreenenter"",""1"",""1891""
","
","","","","","","","","","","","","","","","","","","","","","","","","","","",""
"pit-instructions","36","383038","0.0-2.0-10.0","battery-v0.2","","""event"",""trial"",""time""
""fullscreenenter"",""1"",""1891""
","
","
","""event"",""trial"",""time""
""fullscreenenter"",""1"",""1891""
","
","","[{""page_index"":0,""viewing_time"":5856.600000000093},{""page_index"":1,""viewing_time"":7427.600000000093},{""page_index"":2,""viewing_time"":9579.899999999907},{""page_index"":3,""viewing_time"":8574.5},{""page_index"":4,""viewing_time"":7393.700000000186}]","38832.5","","","","","","","","","","","","","","","","","","","","","","","",""
"pit-trial","37","387906","0.0-2.0-11.0-0.0","battery-v0.2","","""event"",""trial"",""time""
""fullscreenenter"",""1"",""1891""
","
","
","""event"",""trial"",""time""
""fullscreenenter"",""1"",""1891""
","
","","","-1","","","18","7706","3945","&#9761;","elianto","#3366ff99","-1","-1","1","+10","[]","0","0","2","","","","","","","",""
"pit-trial","38","392765","0.0-2.0-11.0-1.0","battery-v0.2","","""event"",""trial"",""time""
""fullscreenenter"",""1"",""1891""
","
","
","""event"",""trial"",""time""
""fullscreenenter"",""1"",""1891""
","
","","","-1","","","18","7706","3945","&#9761;","elianto","#3366ff99","-1","-1","1","+10","[]","0","0","2","","","","","","","",""
"pit-trial","39","397633","0.0-2.0-11.0-2.0","battery-v0.2","","""event"",""trial"",""time""
""fullscreenenter"",""1"",""1891""
","
","
","""event"",""trial"",""time""
""fullscreenenter"",""1"",""1891""
","
","","","-1","","","18","7706","3945","&#9761;","elianto","#3366ff99","-1","-1","1","+10","[]","0","0","2","","","","","","","",""
"pit-trial","40","401233","0.0-2.0-11.0-3.0","battery-v0.2","","""event"",""trial"",""time""
""fullscreenenter"",""1"",""1891""
","
","
","""event"",""trial"",""time""
""fullscreenenter"",""1"",""1891""
","
","","","733.7000000001863","","","18","7706","3945","&#9761;","elianto","#3366ff99","-1"," ","0","+10","[1587.8000000002794]","1","0","2","","","","","","","",""
"pit-trial","41","406104","0.0-2.0-11.0-4.0","battery-v0.2","","""event"",""trial"",""time""
""fullscreenenter"",""1"",""1891""
","
","
","""event"",""trial"",""time""
""fullscreenenter"",""1"",""1891""
","
","","","-1","","","18","7706","3945","&#9761;","elianto","#3366ff99","-1","-1","1","+10","[]","0","0","2","","","","","","","",""
"pit-trial","42","410970","0.0-2.0-11.1-0.1","battery-v0.2","","""event"",""trial"",""time""
""fullscreenenter"",""1"",""1891""
","
","
","""event"",""trial"",""time""
""fullscreenenter"",""1"",""1891""
","
","","","-1","","","18","7706","3945","&#9761;","elianto","#3366ff99","-1","-1","1","+10","[]","0","0","2","","","","","","","",""
"pit-trial","43","415830","0.0-2.0-11.1-1.1","battery-v0.2","","""event"",""trial"",""time""
""fullscreenenter"",""1"",""1891""
","
","
","""event"",""trial"",""time""
""fullscreenenter"",""1"",""1891""
","
","","","-1","","","18","7706","3945","&#9761;","elianto","#3366ff99","-1","-1","1","+10","[]","0","0","2","","","","","","","",""
"pit-trial","44","420685","0.0-2.0-11.1-2.1","battery-v0.2","","""event"",""trial"",""time""
""fullscreenenter"",""1"",""1891""
","
","
","""event"",""trial"",""time""
""fullscreenenter"",""1"",""1891""
","
","","","-1","","","18","7706","3945","&#9761;","elianto","#3366ff99","-1","-1","1","+10","[]","0","0","2","","","","","","","",""
"pit-trial","45","424170","0.0-2.0-11.1-3.1","battery-v0.2","","""event"",""trial"",""time""
""fullscreenenter"",""1"",""1891""
","
","
","""event"",""trial"",""time""
""fullscreenenter"",""1"",""1891""
","
","","","629.6999999997206","","","18","7706","3945","&#9761;","elianto","#3366ff99","-1"," ","0","+10","[1480.9000000003725]","1","0","2","","","","","","","",""
"pit-trial","46","429025","0.0-2.0-11.1-4.1","battery-v0.2","","""event"",""trial"",""time""
""fullscreenenter"",""1"",""1891""
","
","
","""event"",""trial"",""time""
""fullscreenenter"",""1"",""1891""
","
","","","-1","","","18","7706","3945","&#9761;","elianto","#3366ff99","-1","-1","1","+10","[]","0","0","2","","","","","","","",""
"pit-trial","47","433880","0.0-2.0-11.2-0.2","battery-v0.2","","""event"",""trial"",""time""
""fullscreenenter"",""1"",""1891""
","
","
","""event"",""trial"",""time""
""fullscreenenter"",""1"",""1891""
","
","","","-1","","","18","7706","3945","&#9761;","elianto","#3366ff99","-1","-1","1","+10","[]","0","0","2","","","","","","","",""
"pit-trial","48","438735","0.0-2.0-11.2-1.2","battery-v0.2","","""event"",""trial"",""time""
""fullscreenenter"",""1"",""1891""
","
","
","""event"",""trial"",""time""
""fullscreenenter"",""1"",""1891""
","
","","","-1","","","18","7706","3945","&#9761;","elianto","#3366ff99","-1","-1","1","+10","[]","0","0","2","","","","","","","",""
"pit-trial","49","443590","0.0-2.0-11.2-2.2","battery-v0.2","","""event"",""trial"",""time""
""fullscreenenter"",""1"",""1891""
","
","
","""event"",""trial"",""time""
""fullscreenenter"",""1"",""1891""
","
","","","-1","","","18","7706","3945","&#9761;","elianto","#3366ff99","-1","-1","1","+10","[]","0","0","2","","","","","","","",""
"pit-trial","50","447039","0.0-2.0-11.2-3.2","battery-v0.2","","""event"",""trial"",""time""
""fullscreenenter"",""1"",""1891""
","
","
","""event"",""trial"",""time""
""fullscreenenter"",""1"",""1891""
","
","","","593.6999999997206","","","18","7706","3945","&#9761;","elianto","#3366ff99","-1"," ","0","+10","[1445.2999999998137]","1","0","2","","","","","","","",""
"pit-trial","51","451892","0.0-2.0-11.2-4.2","battery-v0.2","","""event"",""trial"",""time""
""fullscreenenter"",""1"",""1891""
","
","
","""event"",""trial"",""time""
""fullscreenenter"",""1"",""1891""
","
","","","-1","","","18","7706","3945","&#9761;","elianto","#3366ff99","-1","-1","1","+10","[]","0","0","2","","","","","","","",""
"pit-trial","52","456748","0.0-2.0-11.3-0.3","battery-v0.2","","""event"",""trial"",""time""
""fullscreenenter"",""1"",""1891""
","
","
","""event"",""trial"",""time""
""fullscreenenter"",""1"",""1891""
","
","","","-1","","","18","7706","3945","&#9761;","elianto","#3366ff99","-1","-1","1","+10","[]","0","0","2","","","","","","","",""
"pit-trial","53","461603","0.0-2.0-11.3-1.3","battery-v0.2","","""event"",""trial"",""time""
""fullscreenenter"",""1"",""1891""
","
","
","""event"",""trial"",""time""
""fullscreenenter"",""1"",""1891""
","
","","","-1","","","18","7706","3945","&#9761;","elianto","#3366ff99","-1","-1","1","+10","[]","0","0","2","","","","","","","",""
"pit-trial","54","466458","0.0-2.0-11.3-2.3","battery-v0.2","","""event"",""trial"",""time""
""fullscreenenter"",""1"",""1891""
","
","
","""event"",""trial"",""time""
""fullscreenenter"",""1"",""1891""
","
","","","-1","","","18","7706","3945","&#9761;","elianto","#3366ff99","-1","-1","1","+10","[]","0","0","2","","","","","","","",""
"pit-trial","55","469898","0.0-2.0-11.3-3.3","battery-v0.2","","""event"",""trial"",""time""
""fullscreenenter"",""1"",""1891""
","
","
","""event"",""trial"",""time""
""fullscreenenter"",""1"",""1891""
","
","","","585.1000000000931","","","18","7706","3945","&#9761;","elianto","#3366ff99","-1"," ","0","+10","[1435.5]","1","0","2","","","","","","","",""
"pit-trial","56","474753","0.0-2.0-11.3-4.3","battery-v0.2","","""event"",""trial"",""time""
""fullscreenenter"",""1"",""1891""
","
","
","""event"",""trial"",""time""
""fullscreenenter"",""1"",""1891""
","
","","","-1","","","18","7706","3945","&#9761;","elianto","#3366ff99","-1","-1","1","+10","[]","0","0","2","","","","","","","",""
"call-function","57","474756","0.0-2.0-12.0","battery-v0.2","","""event"",""trial"",""time""
""fullscreenenter"",""1"",""1891""
","
","
","""event"",""trial"",""time""
""fullscreenenter"",""1"",""1891""
","
","","","","","","","","","","","","","","","","","","","","","","","","","","",""
"pit-instructions","58","506754","0.0-2.0-13.0","battery-v0.2","","""event"",""trial"",""time""
""fullscreenenter"",""1"",""1891""
","
","
","""event"",""trial"",""time""
""fullscreenenter"",""1"",""1891""
","
","","[{""page_index"":0,""viewing_time"":4991.200000000186},{""page_index"":1,""viewing_time"":6774.200000000186},{""page_index"":2,""viewing_time"":3413.5},{""page_index"":3,""viewing_time"":11026.299999999814},{""page_index"":4,""viewing_time"":5791.799999999814}]","31997.200000000186","","","","","","","","","","","","","","","","","","","","","","","",""
"pit-trial","59","510444","0.0-2.0-14.0-0.0","battery-v0.2","","""event"",""trial"",""time""
""fullscreenenter"",""1"",""1891""
","
","
","""event"",""trial"",""time""
""fullscreenenter"",""1"",""1891""
","
","","","832.7999999998137","","","18","7706","3945","&#9826;","elianto","#f73b6a7A","-1"," ","0","-10","[1683.8999999999069]","1","0","3","","","","","","","",""
"pit-trial","60","515310","0.0-2.0-14.0-1.0","battery-v0.2","","""event"",""trial"",""time""
""fullscreenenter"",""1"",""1891""
","
","
","""event"",""trial"",""time""
""fullscreenenter"",""1"",""1891""
","
","","","-1","","","18","7706","3945","&#9826;","elianto","#f73b6a7A","-1","-1","1","0","[]","0","0","3","","","","","","","",""
"pit-trial","61","520182","0.0-2.0-14.0-2.0","battery-v0.2","","""event"",""trial"",""time""
""fullscreenenter"",""1"",""1891""
","
","
","""event"",""trial"",""time""
""fullscreenenter"",""1"",""1891""
","
","","","-1","","","18","7706","3945","&#9826;","elianto","#f73b6a7A","-1","-1","1","0","[]","0","0","3","","","","","","","",""
"pit-trial","62","525053","0.0-2.0-14.0-3.0","battery-v0.2","","""event"",""trial"",""time""
""fullscreenenter"",""1"",""1891""
","
","
","""event"",""trial"",""time""
""fullscreenenter"",""1"",""1891""
","
","","","-1","","","18","7706","3945","&#9826;","elianto","#f73b6a7A","-1","-1","1","-10","[]","0","0","3","","","","","","","",""
"pit-trial","63","529921","0.0-2.0-14.0-4.0","battery-v0.2","","""event"",""trial"",""time""
""fullscreenenter"",""1"",""1891""
","
","
","""event"",""trial"",""time""
""fullscreenenter"",""1"",""1891""
","
","","","-1","","","18","7706","3945","&#9826;","elianto","#f73b6a7A","-1","-1","1","0","[]","0","0","3","","","","","","","",""
"pit-trial","64","534799","0.0-2.0-14.1-0.1","battery-v0.2","","""event"",""trial"",""time""
""fullscreenenter"",""1"",""1891""
","
","
","""event"",""trial"",""time""
""fullscreenenter"",""1"",""1891""
","
","","","-1","","","18","7706","3945","&#9826;","elianto","#f73b6a7A","-1","-1","1","0","[]","0","0","3","","","","","","","",""
"pit-trial","65","539653","0.0-2.0-14.1-1.1","battery-v0.2","","""event"",""trial"",""time""
""fullscreenenter"",""1"",""1891""
","
","
","""event"",""trial"",""time""
""fullscreenenter"",""1"",""1891""
","
","","","-1","","","18","7706","3945","&#9826;","elianto","#f73b6a7A","-1","-1","1","0","[]","0","0","3","","","","","","","",""
"pit-trial","66","544508","0.0-2.0-14.1-2.1","battery-v0.2","","""event"",""trial"",""time""
""fullscreenenter"",""1"",""1891""
","
","
","""event"",""trial"",""time""
""fullscreenenter"",""1"",""1891""
","
","","","-1","","","18","7706","3945","&#9826;","elianto","#f73b6a7A","-1","-1","1","0","[]","0","0","3","","","","","","","",""
"pit-trial","67","548330","0.0-2.0-14.1-3.1","battery-v0.2","","""event"",""trial"",""time""
""fullscreenenter"",""1"",""1891""
","
","
","""event"",""trial"",""time""
""fullscreenenter"",""1"",""1891""
","
","","","967","","","18","7706","3945","&#9826;","elianto","#f73b6a7A","-1"," ","0","0","[1819.2000000001863]","1","0","3","","","","","","","",""
"pit-trial","68","553184","0.0-2.0-14.1-4.1","battery-v0.2","","""event"",""trial"",""time""
""fullscreenenter"",""1"",""1891""
","
","
","""event"",""trial"",""time""
""fullscreenenter"",""1"",""1891""
","
","","","-1","","","18","7706","3945","&#9826;","elianto","#f73b6a7A","-1","-1","1","0","[]","0","0","3","","","","","","","",""
"pit-trial","69","558039","0.0-2.0-14.2-0.2","battery-v0.2","","""event"",""trial"",""time""
""fullscreenenter"",""1"",""1891""
","
","
","""event"",""trial"",""time""
""fullscreenenter"",""1"",""1891""
","
","","","-1","","","18","7706","3945","&#9826;","elianto","#f73b6a7A","-1","-1","1","0","[]","0","0","3","","","","","","","",""
"pit-trial","70","562894","0.0-2.0-14.2-1.2","battery-v0.2","","""event"",""trial"",""time""
""fullscreenenter"",""1"",""1891""
","
","
","""event"",""trial"",""time""
""fullscreenenter"",""1"",""1891""
","
","","","-1","","","18","7706","3945","&#9826;","elianto","#f73b6a7A","-1","-1","1","0","[]","0","0","3","","","","","","","",""
"pit-trial","71","567748","0.0-2.0-14.2-2.2","battery-v0.2","","""event"",""trial"",""time""
""fullscreenenter"",""1"",""1891""
","
","
","""event"",""trial"",""time""
""fullscreenenter"",""1"",""1891""
","
","","","-1","","","18","7706","3945","&#9826;","elianto","#f73b6a7A","-1","-1","1","0","[]","0","0","3","","","","","","","",""
"pit-trial","72","571239","0.0-2.0-14.2-3.2","battery-v0.2","","""event"",""trial"",""time""
""fullscreenenter"",""1"",""1891""
","
","
","""event"",""trial"",""time""
""fullscreenenter"",""1"",""1891""
","
","","","635.5","","","18","7706","3945","&#9826;","elianto","#f73b6a7A","-1"," ","0","0","[1487.2999999998137]","1","0","3","","","","","","","",""
"pit-trial","73","576092","0.0-2.0-14.2-4.2","battery-v0.2","","""event"",""trial"",""time""
""fullscreenenter"",""1"",""1891""
","
","
","""event"",""trial"",""time""
""fullscreenenter"",""1"",""1891""
","
","","","-1","","","18","7706","3945","&#9826;","elianto","#f73b6a7A","-1","-1","1","0","[]","0","0","3","","","","","","","",""
"pit-trial","74","580947","0.0-2.0-14.3-0.3","battery-v0.2","","""event"",""trial"",""time""
""fullscreenenter"",""1"",""1891""
","
","
","""event"",""trial"",""time""
""fullscreenenter"",""1"",""1891""
","
","","","-1","","","18","7706","3945","&#9826;","elianto","#f73b6a7A","-1","-1","1","0","[]","0","0","3","","","","","","","",""
"pit-trial","75","585802","0.0-2.0-14.3-1.3","battery-v0.2","","""event"",""trial"",""time""
""fullscreenenter"",""1"",""1891""
","
","
","""event"",""trial"",""time""
""fullscreenenter"",""1"",""1891""
","
","","","-1","","","18","7706","3945","&#9826;","elianto","#f73b6a7A","-1","-1","1","0","[]","0","0","3","","","","","","","",""
"pit-trial","76","590657","0.0-2.0-14.3-2.3","battery-v0.2","","""event"",""trial"",""time""
""fullscreenenter"",""1"",""1891""
","
","
","""event"",""trial"",""time""
""fullscreenenter"",""1"",""1891""
","
","","","-1","","","18","7706","3945","&#9826;","elianto","#f73b6a7A","-1","-1","1","0","[]","0","0","3","","","","","","","",""
"pit-trial","77","594130","0.0-2.0-14.3-3.3","battery-v0.2","","""event"",""trial"",""time""
""fullscreenenter"",""1"",""1891""
","
","
","""event"",""trial"",""time""
""fullscreenenter"",""1"",""1891""
","
","","","618.2000000001863","","","18","7706","3945","&#9826;","elianto","#f73b6a7A","-1"," ","0","0","[1468.3999999994412]","1","0","3","","","","","","","",""
"pit-trial","78","598984","0.0-2.0-14.3-4.3","battery-v0.2","","""event"",""trial"",""time""
""fullscreenenter"",""1"",""1891""
","
","
","""event"",""trial"",""time""
""fullscreenenter"",""1"",""1891""
","
","","","-1","","","18","7706","3945","&#9826;","elianto","#f73b6a7A","-1","-1","1","0","[]","0","0","3","","","","","","","",""
"call-function","79","598987","0.0-2.0-15.0","battery-v0.2","","""event"",""trial"",""time""
""fullscreenenter"",""1"",""1891""
","
","
","""event"",""trial"",""time""
""fullscreenenter"",""1"",""1891""
","
","","","","","","","","","","","","","","","","","","","","","","","","","","",""
"pit-instructions","80","622856","0.0-2.0-16.0","battery-v0.2","","""event"",""trial"",""time""
""fullscreenenter"",""1"",""1891""
","
","
","""event"",""trial"",""time""
""fullscreenenter"",""1"",""1891""
","
","","[{""page_index"":0,""viewing_time"":6441.200000000186},{""page_index"":1,""viewing_time"":8236.200000000186},{""page_index"":2,""viewing_time"":4363.799999999814},{""page_index"":3,""viewing_time"":4826.700000000186}]","23868.10000000056","","","","","","","","","","","","","","","","","","","","","","","",""
"pit-trial","81","626232","0.0-2.0-17.0-0.0","battery-v0.2","","""event"",""trial"",""time""
""fullscreenenter"",""1"",""1891""
","
","
","""event"",""trial"",""time""
""fullscreenenter"",""1"",""1891""
","
","","","514.5999999996275","","","18","7706","3945","&#9789;","elianto","#f73b6a7A"," "," ","1","0","[1372.9000000003725]","1","0","4","","","","","","","",""
"pit-trial","82","629327","0.0-2.0-17.0-1.0","battery-v0.2","","""event"",""trial"",""time""
""fullscreenenter"",""1"",""1891""
","
","
","""event"",""trial"",""time""
""fullscreenenter"",""1"",""1891""
","
","","","235.69999999925494","","","18","7706","3945","&#9789;","elianto","#f73b6a7A"," "," ","1","0","[1092.199999999255]","1","0","4","","","","","","","",""
"pit-trial","83","634199","0.0-2.0-17.0-2.0","battery-v0.2","","""event"",""trial"",""time""
""fullscreenenter"",""1"",""1891""
","
","
","""event"",""trial"",""time""
""fullscreenenter"",""1"",""1891""
","
","","","-1","","","18","7706","3945","&#9789;","elianto","#f73b6a7A"," ","-1","0","-10","[]","0","0","4","","","","","","","",""
"pit-trial","84","639063","0.0-2.0-17.0-3.0","battery-v0.2","","""event"",""trial"",""time""
""fullscreenenter"",""1"",""1891""
","
","
","""event"",""trial"",""time""
""fullscreenenter"",""1"",""1891""
","
","","","-1","","","18","7706","3945","&#9789;","elianto","#f73b6a7A"," ","-1","0","0","[]","0","0","4","","","","","","","",""
"pit-trial","85","642267","0.0-2.0-17.0-4.0","battery-v0.2","","""event"",""trial"",""time""
""fullscreenenter"",""1"",""1891""
","
","
","""event"",""trial"",""time""
""fullscreenenter"",""1"",""1891""
","
","","","334.19999999925494","","","18","7706","3945","&#9789;","elianto","#f73b6a7A"," "," ","1","0","[1189.0999999996275]","1","0","4","","","","","","","",""
"pit-trial","86","645416","0.0-2.0-17.1-0.1","battery-v0.2","","""event"",""trial"",""time""
""fullscreenenter"",""1"",""1891""
","
","
","""event"",""trial"",""time""
""fullscreenenter"",""1"",""1891""
","
","","","290.90000000037253","","","18","7706","3945","&#9789;","elianto","#f73b6a7A"," "," ","1","0","[1144.5]","1","0","4","","","","","","","",""
"pit-trial","87","648441","0.0-2.0-17.1-1.1","battery-v0.2","","""event"",""trial"",""time""
""fullscreenenter"",""1"",""1891""
","
","
","""event"",""trial"",""time""
""fullscreenenter"",""1"",""1891""
","
","","","156.79999999981374","","","18","7706","3945","&#9789;","elianto","#f73b6a7A"," "," ","1","0","[1012.9000000003725]","1","0","4","","","","","","","",""
"pit-trial","88","651571","0.0-2.0-17.1-2.1","battery-v0.2","","""event"",""trial"",""time""
""fullscreenenter"",""1"",""1891""
","
","
","""event"",""trial"",""time""
""fullscreenenter"",""1"",""1891""
","
","","","262.40000000037253","","","18","7706","3945","&#9789;","elianto","#f73b6a7A"," "," ","1","0","[1116.4000000003725]","1","0","4","","","","","","","",""
"pit-trial","89","656423","0.0-2.0-17.1-3.1","battery-v0.2","","""event"",""trial"",""time""
""fullscreenenter"",""1"",""1891""
","
","
","""event"",""trial"",""time""
""fullscreenenter"",""1"",""1891""
","
","","","-1","","","18","7706","3945","&#9789;","elianto","#f73b6a7A"," ","-1","0","0","[]","0","0","4","","","","","","","",""
"pit-trial","90","659473","0.0-2.0-17.1-4.1","battery-v0.2","","""event"",""trial"",""time""
""fullscreenenter"",""1"",""1891""
","
","
","""event"",""trial"",""time""
""fullscreenenter"",""1"",""1891""
","
","","","196.09999999962747","","","18","7706","3945","&#9789;","elianto","#f73b6a7A"," "," ","1","0","[1046.5]","1","0","4","","","","","","","",""
"pit-trial","91","662592","0.0-2.0-17.2-0.2","battery-v0.2","","""event"",""trial"",""time""
""fullscreenenter"",""1"",""1891""
","
","
","""event"",""trial"",""time""
""fullscreenenter"",""1"",""1891""
","
","","","263.29999999981374","","","18","7706","3945","&#9789;","elianto","#f73b6a7A"," "," ","1","0","[1114.6000000005588]","1","0","4","","","","","","","",""
"pit-trial","92","665696","0.0-2.0-17.2-1.2","battery-v0.2","","""event"",""trial"",""time""
""fullscreenenter"",""1"",""1891""
","
","
","""event"",""trial"",""time""
""fullscreenenter"",""1"",""1891""
","
","","","247.79999999981374","","","18","7706","3945","&#9789;","elianto","#f73b6a7A"," "," ","1","0","[1099.7000000001863]","1","0","4","","","","","","","",""
"pit-trial","93","668840","0.0-2.0-17.2-2.2","battery-v0.2","","""event"",""trial"",""time""
""fullscreenenter"",""1"",""1891""
","
","
","""event"",""trial"",""time""
""fullscreenenter"",""1"",""1891""
","
","","","288.20000000018626","","","18","7706","3945","&#9789;","elianto","#f73b6a7A"," "," ","1","0","[1140.8999999994412]","1","0","4","","","","","","","",""
"pit-trial","94","673694","0.0-2.0-17.2-3.2","battery-v0.2","","""event"",""trial"",""time""
""fullscreenenter"",""1"",""1891""
","
","
","""event"",""trial"",""time""
""fullscreenenter"",""1"",""1891""
","
","","","-1","","","18","7706","3945","&#9789;","elianto","#f73b6a7A"," ","-1","0","0","[]","0","0","4","","","","","","","",""
"pit-trial","95","677225","0.0-2.0-17.2-4.2","battery-v0.2","","""event"",""trial"",""time""
""fullscreenenter"",""1"",""1891""
","
","
","""event"",""trial"",""time""
""fullscreenenter"",""1"",""1891""
","
","","","675.7999999998137","","","18","7706","3945","&#9789;","elianto","#f73b6a7A"," "," ","1","0","[1527]","1","0","4","","","","","","","",""
"pit-trial","96","680392","0.0-2.0-17.3-0.3","battery-v0.2","","""event"",""trial"",""time""
""fullscreenenter"",""1"",""1891""
","
","
","""event"",""trial"",""time""
""fullscreenenter"",""1"",""1891""
","
","","","311.29999999981374","","","18","7706","3945","&#9789;","elianto","#f73b6a7A"," "," ","1","0","[1161.9000000003725]","1","0","4","","","","","","","",""
"pit-trial","97","683577","0.0-2.0-17.3-1.3","battery-v0.2","","""event"",""trial"",""time""
""fullscreenenter"",""1"",""1891""
","
","
","""event"",""trial"",""time""
""fullscreenenter"",""1"",""1891""
","
","","","331","","","18","7706","3945","&#9789;","elianto","#f73b6a7A"," "," ","1","0","[1181.1000000005588]","1","0","4","","","","","","","",""
"pit-trial","98","686848","0.0-2.0-17.3-2.3","battery-v0.2","","""event"",""trial"",""time""
""fullscreenenter"",""1"",""1891""
","
","
","""event"",""trial"",""time""
""fullscreenenter"",""1"",""1891""
","
","","","416.5","","","18","7706","3945","&#9789;","elianto","#f73b6a7A"," "," ","1","0","[1267]","1","0","4","","","","","","","",""
"pit-trial","99","691702","0.0-2.0-17.3-3.3","battery-v0.2","","""event"",""trial"",""time""
""fullscreenenter"",""1"",""1891""
","
","
","""event"",""trial"",""time""
""fullscreenenter"",""1"",""1891""
","
","","","-1","","","18","7706","3945","&#9789;","elianto","#f73b6a7A"," ","-1","0","0","[]","0","0","4","","","","","","","",""
"pit-trial","100","695009","0.0-2.0-17.3-4.3","battery-v0.2","","""event"",""trial"",""time""
""fullscreenenter"",""1"",""1891""
","
","
","""event"",""trial"",""time""
""fullscreenenter"",""1"",""1891""
","
","","","453","","","18","7706","3945","&#9789;","elianto","#f73b6a7A"," "," ","1","0","[1303.4000000003725]","1","0","4","","","","","","","",""
"call-function","101","695012","0.0-2.0-18.0","battery-v0.2","","""event"",""trial"",""time""
""fullscreenenter"",""1"",""1891""
","
","
","""event"",""trial"",""time""
""fullscreenenter"",""1"",""1891""
","
","","","","","","","","","","","","","","","","","","","","","","","","","","",""
"pit-instructions","102","760196","0.0-2.0-19.0","battery-v0.2","","""event"",""trial"",""time""
""fullscreenenter"",""1"",""1891""
","
","
","""event"",""trial"",""time""
""fullscreenenter"",""1"",""1891""
","
","","[{""page_index"":0,""viewing_time"":6446.5},{""page_index"":1,""viewing_time"":6465.5},{""page_index"":2,""viewing_time"":8392.199999999255},{""page_index"":3,""viewing_time"":7671.700000000186},{""page_index"":4,""viewing_time"":6770.299999999814},{""page_index"":5,""viewing_time"":10338},{""page_index"":6,""viewing_time"":8762},{""page_index"":7,""viewing_time"":6268.100000000559},{""page_index"":8,""viewing_time"":4067.7000000001863}]","65182.299999999814","","","","","","","","","","","","","","","","","","","","","","","",""
"pit-comprehension","103","764634","0.0-2.0-20.0-0.0","battery-v0.2","","""event"",""trial"",""time""
""fullscreenenter"",""1"",""1891""
","
","
","""event"",""trial"",""time""
""fullscreenenter"",""1"",""1891""
","
","","","4435.799999999814","[""SPACE""]","0","18","7706","3945","","","","","","","","","","","","","","","","","","",""
"pit-instructions","104","767126","0.0-2.0-20.0-1.0","battery-v0.2","","""event"",""trial"",""time""
""fullscreenenter"",""1"",""1891""
","
","
","""event"",""trial"",""time""
""fullscreenenter"",""1"",""1891""
","
","","[{""page_index"":0,""viewing_time"":2448.4000000003725}]","2448.7000000001863","","","","","","","","","","","","","","","","","","","","","","","",""
"pit-comprehension","105","771679","0.0-2.0-21.0-0.0","battery-v0.2","","""event"",""trial"",""time""
""fullscreenenter"",""1"",""1891""
","
","
","""event"",""trial"",""time""
""fullscreenenter"",""1"",""1891""
","
","","","4551","[""10""]","0","18","7706","3945","","","","","","","","","","","","","","","","","","",""
"pit-instructions","106","774028","0.0-2.0-21.0-1.0","battery-v0.2","","""event"",""trial"",""time""
""fullscreenenter"",""1"",""1891""
","
","
","""event"",""trial"",""time""
""fullscreenenter"",""1"",""1891""
","
","","[{""page_index"":0,""viewing_time"":2307}]","2307.2000000001863","","","","","","","","","","","","","","","","","","","","","","","",""
"pit-comprehension","107","780409","0.0-2.0-22.0-0.0","battery-v0.2","","""event"",""trial"",""time""
""fullscreenenter"",""1"",""1891""
","
","
","""event"",""trial"",""time""
""fullscreenenter"",""1"",""1891""
","
","","","6378.799999999814","[""0""]","0","18","7706","3945","","","","","","","","","","","","","","","","","","",""
"pit-instructions","108","782224","0.0-2.0-22.0-1.0","battery-v0.2","","""event"",""trial"",""time""
""fullscreenenter"",""1"",""1891""
","
","
","""event"",""trial"",""time""
""fullscreenenter"",""1"",""1891""
","
","","[{""page_index"":0,""viewing_time"":1776}]","1776.2000000001863","","","","","","","","","","","","","","","","","","","","","","","",""
"pit-comprehension","109","790547","0.0-2.0-23.0-0.0","battery-v0.2","","""event"",""trial"",""time""
""fullscreenenter"",""1"",""1891""
","
","
","""event"",""trial"",""time""
""fullscreenenter"",""1"",""1891""
","
","","","8321.200000000186","[""True""]","0","18","7706","3945","","","","","","","","","","","","","","","","","","",""
"pit-instructions","110","792252","0.0-2.0-23.0-1.0","battery-v0.2","","""event"",""trial"",""time""
""fullscreenenter"",""1"",""1891""
","
","
","""event"",""trial"",""time""
""fullscreenenter"",""1"",""1891""
","
","","[{""page_index"":0,""viewing_time"":1662}]","1662.2000000001863","","","","","","","","","","","","","","","","","","","","","","","",""
"pit-comprehension","111","799550","0.0-2.0-24.0-0.0","battery-v0.2","","""event"",""trial"",""time""
""fullscreenenter"",""1"",""1891""
","
","
","""event"",""trial"",""time""
""fullscreenenter"",""1"",""1891""
","
","","","7296.399999999441","[""True""]","0","18","7706","3945","","","","","","","","","","","","","","","","","","",""
"pit-instructions","112","800958","0.0-2.0-24.0-1.0","battery-v0.2","","""event"",""trial"",""time""
""fullscreenenter"",""1"",""1891""
","
","
","""event"",""trial"",""time""
""fullscreenenter"",""1"",""1891""
","
","","[{""page_index"":0,""viewing_time"":1371.0999999996275}]","1371.2999999998137","","","","","","","","","","","","","","","","","","","","","","","",""
"pit-comprehension","113","807328","0.0-2.0-25.0-0.0","battery-v0.2","","""event"",""trial"",""time""
""fullscreenenter"",""1"",""1891""
","
","
","""event"",""trial"",""time""
""fullscreenenter"",""1"",""1891""
","
","","","6368.9000000003725","[""True""]","0","18","7706","3945","","","","","","","","","","","","","","","","","","",""
"pit-instructions","114","808670","0.0-2.0-25.0-1.0","battery-v0.2","","""event"",""trial"",""time""
""fullscreenenter"",""1"",""1891""
","
","
","""event"",""trial"",""time""
""fullscreenenter"",""1"",""1891""
","
","","[{""page_index"":0,""viewing_time"":1304.5}]","1304.7000000001863","","","","","","","","","","","","","","","","","","","","","","","",""
"pit-comprehension","115","813623","0.0-2.0-26.0-0.0","battery-v0.2","","""event"",""trial"",""time""
""fullscreenenter"",""1"",""1891""
","
","
","""event"",""trial"",""time""
""fullscreenenter"",""1"",""1891""
","
","","","4950.700000000186","[""False""]","0","18","7706","3945","","","","","","","","","","","","","","","","","","",""
"pit-instructions","116","815044","0.0-2.0-26.0-1.0","battery-v0.2","","""event"",""trial"",""time""
""fullscreenenter"",""1"",""1891""
","
","
","""event"",""trial"",""time""
""fullscreenenter"",""1"",""1891""
","
","","[{""page_index"":0,""viewing_time"":1375.7000000001863}]","1375.9000000003725","","","","","","","","","","","","","","","","","","","","","","","",""
"pit-instructions","117","831653","0.0-3.0","battery-v0.2","","""event"",""trial"",""time""
""fullscreenenter"",""1"",""1891""
","
","
","""event"",""trial"",""time""
""fullscreenenter"",""1"",""1891""
","
","","[{""page_index"":0,""viewing_time"":3862.5},{""page_index"":1,""viewing_time"":5175.600000000559},{""page_index"":2,""viewing_time"":7570}]","16608.299999999814","","","","","","","","","","","","","","","","","","","","","","","",""
"pit-trial","118","835601","0.0-4.0","battery-v0.2","","""event"",""trial"",""time""
""fullscreenenter"",""1"",""1891""
","
","
","""event"",""trial"",""time""
""fullscreenenter"",""1"",""1891""
","
","","","1084.5","","","18","7706","3945","&#9752;","elianto","#f73b6a7A"," "," ","1","0","[1941.3999999994412]","1","1","","","7706","1","3","3","lose","go","0"
"pit-trial","119","839511","0.0-5.0","battery-v0.2","","""event"",""trial"",""time""
""fullscreenenter"",""1"",""1891""
","
","
","""event"",""trial"",""time""
""fullscreenenter"",""1"",""1891""
","
","","","1051.199999999255","","","18","7706","3945","&#9733;","elianto","#3366ff99","-1"," ","0","0","[1907.5]","1","1","","","7706","2","2","2","win","no-go","0"
"pit-trial","120","843398","0.0-6.0","battery-v0.2","","""event"",""trial"",""time""
""fullscreenenter"",""1"",""1891""
","
","
","""event"",""trial"",""time""
""fullscreenenter"",""1"",""1891""
","
","","","1027.9000000003725","","","18","7706","3945","&#9730;","elianto","#3366ff99"," "," ","1","+10","[1885.2000000001863]","1","1","","","7706","3","1","1","win","go","0"
"pit-trial","121","847479","0.0-7.0","battery-v0.2","","""event"",""trial"",""time""
""fullscreenenter"",""1"",""1891""
","
","
","""event"",""trial"",""time""
""fullscreenenter"",""1"",""1891""
","
","","","1212.5","","","18","7706","3945","&#9728;","elianto","#f73b6a7A","-1"," ","0","-10","[2069.600000000559]","1","1","","","7706","4","0","4","lose","no-go","0"
"pit-trial","122","851609","0.0-8.0","battery-v0.2","","""event"",""trial"",""time""
""fullscreenenter"",""1"",""1891""
","
","
","""event"",""trial"",""time""
""fullscreenenter"",""1"",""1891""
","
","","","1262.9000000003725","","","18","7706","3945","&#9752;","elianto","#f73b6a7A"," "," ","1","0","[2118.0999999996275]","1","1","","","7706","5","3","3","lose","go","0"
"pit-trial","123","855730","0.0-9.0","battery-v0.2","","""event"",""trial"",""time""
""fullscreenenter"",""1"",""1891""
","
","
","""event"",""trial"",""time""
""fullscreenenter"",""1"",""1891""
","
","","","1265.0999999996275","","","18","7706","3945","&#9733;","elianto","#3366ff99","-1"," ","0","0","[2115.5999999996275]","1","1","","","7706","6","2","2","win","no-go","0"
"pit-trial","124","859478","0.0-10.0","battery-v0.2","","""event"",""trial"",""time""
""fullscreenenter"",""1"",""1891""
","
","
","""event"",""trial"",""time""
""fullscreenenter"",""1"",""1891""
","
","","","883.7000000001863","","","18","7706","3945","&#9728;","elianto","#f73b6a7A","-1"," ","0","0","[1737.7000000001863]","1","1","","","7706","7","0","4","lose","no-go","1"
"pit-trial","125","863159","0.0-11.0","battery-v0.2","","""event"",""trial"",""time""
""fullscreenenter"",""1"",""1891""
","
","
","""event"",""trial"",""time""
""fullscreenenter"",""1"",""1891""
","
","","","821.5","","","18","7706","3945","&#9730;","elianto","#3366ff99"," "," ","1","0","[1677.2000000001863]","1","1","","","7706","8","1","1","win","go","1"
"pit-trial","126","867304","0.0-12.0","battery-v0.2","","""event"",""trial"",""time""
""fullscreenenter"",""1"",""1891""
","
","
","""event"",""trial"",""time""
""fullscreenenter"",""1"",""1891""
","
","","","1288.7000000001863","","","18","7706","3945","&#9733;","elianto","#3366ff99","-1"," ","0","0","[2141.0999999996275]","1","1","","","7706","9","2","2","win","no-go","0"
"pit-trial","127","871089","0.0-13.0","battery-v0.2","","""event"",""trial"",""time""
""fullscreenenter"",""1"",""1891""
","
","
","""event"",""trial"",""time""
""fullscreenenter"",""1"",""1891""
","
","","","929.0999999996275","","","18","7706","3945","&#9752;","elianto","#f73b6a7A"," "," ","1","-10","[1779.5999999996275]","1","1","","","7706","10","3","3","lose","go","1"
"pit-trial","128","875944","0.0-14.0","battery-v0.2","","""event"",""trial"",""time""
""fullscreenenter"",""1"",""1891""
","
","
","""event"",""trial"",""time""
""fullscreenenter"",""1"",""1891""
","
","","","-1","","","18","7706","3945","&#9728;","elianto","#f73b6a7A","-1","-1","1","0","[]","0","1","","","7706","11","0","4","lose","no-go","0"
"pit-trial","129","880640","0.0-15.0","battery-v0.2","","""event"",""trial"",""time""
""fullscreenenter"",""1"",""1891""
","
","
","""event"",""trial"",""time""
""fullscreenenter"",""1"",""1891""
","
","","","1842","","","18","7706","3945","&#9730;","elianto","#3366ff99"," "," ","1","+10","[2692.800000000745]","1","1","","","7706","12","1","1","win","go","0"
"pit-trial","130","885495","0.0-16.0","battery-v0.2","","""event"",""trial"",""time""
""fullscreenenter"",""1"",""1891""
","
","
","""event"",""trial"",""time""
""fullscreenenter"",""1"",""1891""
","
","","","-1","","","18","7706","3945","&#9728;","elianto","#f73b6a7A","-1","-1","1","-10","[]","0","1","","","7706","13","0","4","lose","no-go","1"
"pit-trial","131","890349","0.0-17.0","battery-v0.2","","""event"",""trial"",""time""
""fullscreenenter"",""1"",""1891""
","
","
","""event"",""trial"",""time""
""fullscreenenter"",""1"",""1891""
","
","","","-1","","","18","7706","3945","&#9733;","elianto","#3366ff99","-1","-1","1","+10","[]","0","1","","","7706","14","2","2","win","no-go","0"
"pit-trial","132","895204","0.0-18.0","battery-v0.2","","""event"",""trial"",""time""
""fullscreenenter"",""1"",""1891""
","
","
","""event"",""trial"",""time""
""fullscreenenter"",""1"",""1891""
","
","","","-1","","","18","7706","3945","&#9730;","elianto","#3366ff99"," ","-1","0","0","[]","0","1","","","7706","15","1","1","win","go","0"
"pit-trial","133","900059","0.0-19.0","battery-v0.2","","""event"",""trial"",""time""
""fullscreenenter"",""1"",""1891""
","
","
","""event"",""trial"",""time""
""fullscreenenter"",""1"",""1891""
","
","","","-1","","","18","7706","3945","&#9752;","elianto","#f73b6a7A"," ","-1","0","-10","[]","0","1","","","7706","16","3","3","lose","go","0"
"pit-trial","134","903681","0.0-20.0","battery-v0.2","","""event"",""trial"",""time""
""fullscreenenter"",""1"",""1891""
","
","
","""event"",""trial"",""time""
""fullscreenenter"",""1"",""1891""
","
","","","767.0999999996275","","","18","7706","3945","&#9733;","elianto","#3366ff99","-1"," ","0","0","[1617.9000000003725]","1","1","","","7706","17","2","2","win","no-go","0"
"pit-trial","135","907535","0.0-21.0","battery-v0.2","","""event"",""trial"",""time""
""fullscreenenter"",""1"",""1891""
","
","
","""event"",""trial"",""time""
""fullscreenenter"",""1"",""1891""
","
","","","1000.7999999998137","","","18","7706","3945","&#9752;","elianto","#f73b6a7A"," "," ","1","0","[1851]","1","1","","","7706","18","3","3","lose","go","0"
"pit-trial","136","912387","0.0-22.0","battery-v0.2","","""event"",""trial"",""time""
""fullscreenenter"",""1"",""1891""
","
","
","""event"",""trial"",""time""
""fullscreenenter"",""1"",""1891""
","
","","","-1","","","18","7706","3945","&#9728;","elianto","#f73b6a7A","-1","-1","1","0","[]","0","1","","","7706","19","0","4","lose","no-go","0"
"pit-trial","137","915881","0.0-23.0","battery-v0.2","","""event"",""trial"",""time""
""fullscreenenter"",""1"",""1891""
","
","
","""event"",""trial"",""time""
""fullscreenenter"",""1"",""1891""
","
","","","638.3999999994412","","","18","7706","3945","&#9730;","elianto","#3366ff99"," "," ","1","0","[1489.2000000001863]","1","1","","","7706","20","1","1","win","go","1"
"pit-instructions","138","932831","0.0-24.0","battery-v0.2","","""event"",""trial"",""time""
""fullscreenenter"",""1"",""1891""
","
","
","""event"",""trial"",""time""
""fullscreenenter"",""1"",""1891""
","
","","[{""page_index"":0,""viewing_time"":6034.200000000186},{""page_index"":1,""viewing_time"":10913.900000000373}]","16948.400000000373","","","","","","","","","","","","","","","","","","","","","","","",""
"pit-trial","139","937697","0.0-25.0","battery-v0.2","","""event"",""trial"",""time""
""fullscreenenter"",""1"",""1891""
","
","
","""event"",""trial"",""time""
""fullscreenenter"",""1"",""1891""
","
","","","-1","","","18","7706","3945","e","elianto","#f73b6a7A"," ","-1","0","-10","[]","0","2","","","7706","21","2","3","lose","go","0"
"pit-trial","140","942177","0.0-26.0","battery-v0.2","","""event"",""trial"",""time""
""fullscreenenter"",""1"",""1891""
","
","
","""event"",""trial"",""time""
""fullscreenenter"",""1"",""1891""
","
","","","1622.5","","","18","7706","3945","j","elianto","#f73b6a7A"," "," ","1","-10","[2474.4000000003725]","1","2","","","7706","22","0","3","lose","go","1"
"pit-trial","141","946645","0.0-27.0","battery-v0.2","","""event"",""trial"",""time""
""fullscreenenter"",""1"",""1891""
","
","
","""event"",""trial"",""time""
""fullscreenenter"",""1"",""1891""
","
","","","1599.8999999994412","","","18","7706","3945","w","elianto","#f73b6a7A","-1"," ","0","-10","[2450.899999999441]","1","2","","","7706","23","3","4","lose","no-go","0"
"pit-trial","142","950966","0.0-28.0","battery-v0.2","","""event"",""trial"",""time""
""fullscreenenter"",""1"",""1891""
","
","
","""event"",""trial"",""time""
""fullscreenenter"",""1"",""1891""
","
","","","1458.699999999255","","","18","7706","3945","d","elianto","#3366ff99","-1"," ","0","0","[2310.699999999255]","1","2","","","7706","24","1","2","win","no-go","0"
"pit-trial","143","954599","0.0-29.0","battery-v0.2","","""event"",""trial"",""time""
""fullscreenenter"",""1"",""1891""
","
","
","""event"",""trial"",""time""
""fullscreenenter"",""1"",""1891""
","
","","","768.4000000003725","","","18","7706","3945","d","elianto","#3366ff99","-1"," ","0","0","[1621.7000000001863]","1","2","","","7706","25","1","2","win","no-go","0"
"pit-trial","144","959457","0.0-30.0","battery-v0.2","","""event"",""trial"",""time""
""fullscreenenter"",""1"",""1891""
","
","
","""event"",""trial"",""time""
""fullscreenenter"",""1"",""1891""
","
","","","-1","","","18","7706","3945","j","elianto","#f73b6a7A"," ","-1","0","-10","[]","0","2","","","7706","26","0","3","lose","go","0"
"pit-trial","145","964048","0.0-31.0","battery-v0.2","","""event"",""trial"",""time""
""fullscreenenter"",""1"",""1891""
","
","
","""event"",""trial"",""time""
""fullscreenenter"",""1"",""1891""
","
","","","1737","","","18","7706","3945","w","elianto","#f73b6a7A","-1"," ","0","-10","[2587.399999999441]","1","2","","","7706","27","3","4","lose","no-go","0"
"pit-trial","146","968903","0.0-32.0","battery-v0.2","","""event"",""trial"",""time""
""fullscreenenter"",""1"",""1891""
","
","
","""event"",""trial"",""time""
""fullscreenenter"",""1"",""1891""
","
","","","-1","","","18","7706","3945","e","elianto","#f73b6a7A"," ","-1","0","-10","[]","0","2","","","7706","28","2","3","lose","go","0"
"pit-trial","147","973758","0.0-33.0","battery-v0.2","","""event"",""trial"",""time""
""fullscreenenter"",""1"",""1891""
","
","
","""event"",""trial"",""time""
""fullscreenenter"",""1"",""1891""
","
","","","-1","","","18","7706","3945","e","elianto","#f73b6a7A"," ","-1","0","-10","[]","0","2","","","7706","29","2","3","lose","go","0"
"pit-trial","148","977441","0.0-34.0","battery-v0.2","","""event"",""trial"",""time""
""fullscreenenter"",""1"",""1891""
","
","
","""event"",""trial"",""time""
""fullscreenenter"",""1"",""1891""
","
","","","827.5","","","18","7706","3945","j","elianto","#f73b6a7A"," "," ","1","0","[1677.7999999998137]","1","2","","","7706","30","0","3","lose","go","0"
"pit-trial","149","981087","0.0-35.0","battery-v0.2","","""event"",""trial"",""time""
""fullscreenenter"",""1"",""1891""
","
","
","""event"",""trial"",""time""
""fullscreenenter"",""1"",""1891""
","
","","","792.8000000007451","","","18","7706","3945","d","elianto","#3366ff99","-1"," ","0","0","[1643]","1","2","","","7706","31","1","2","win","no-go","0"
"pit-trial","150","985941","0.0-36.0","battery-v0.2","","""event"",""trial"",""time""
""fullscreenenter"",""1"",""1891""
","
","
","""event"",""trial"",""time""
""fullscreenenter"",""1"",""1891""
","
","","","-1","","","18","7706","3945","w","elianto","#f73b6a7A","-1","-1","1","0","[]","0","2","","","7706","32","3","4","lose","no-go","0"
"pit-trial","151","990584","0.0-37.0","battery-v0.2","","""event"",""trial"",""time""
""fullscreenenter"",""1"",""1891""
","
","
","""event"",""trial"",""time""
""fullscreenenter"",""1"",""1891""
","
","","","1788.5","","","18","7706","3945","j","elianto","#f73b6a7A"," "," ","1","0","[2639.0999999996275]","1","2","","","7706","33","0","3","lose","go","0"
"pit-trial","152","995439","0.0-38.0","battery-v0.2","","""event"",""trial"",""time""
""fullscreenenter"",""1"",""1891""
","
","
","""event"",""trial"",""time""
""fullscreenenter"",""1"",""1891""
","
","","","-1","","","18","7706","3945","e","elianto","#f73b6a7A"," ","-1","0","-10","[]","0","2","","","7706","34","2","3","lose","go","0"
"pit-trial","153","1000294","0.0-39.0","battery-v0.2","","""event"",""trial"",""time""
""fullscreenenter"",""1"",""1891""
","
","
","""event"",""trial"",""time""
""fullscreenenter"",""1"",""1891""
","
","","","-1","","","18","7706","3945","w","elianto","#f73b6a7A","-1","-1","1","0","[]","0","2","","","7706","35","3","4","lose","no-go","0"
"pit-trial","154","1003816","0.0-40.0","battery-v0.2","","""event"",""trial"",""time""
""fullscreenenter"",""1"",""1891""
","
","
","""event"",""trial"",""time""
""fullscreenenter"",""1"",""1891""
","
","","","668.5","","","18","7706","3945","d","elianto","#3366ff99","-1"," ","0","+10","[1518.699999999255]","1","2","","","7706","36","1","2","win","no-go","1"
"pit-trial","155","1008671","0.0-41.0","battery-v0.2","","""event"",""trial"",""time""
""fullscreenenter"",""1"",""1891""
","
","
","""event"",""trial"",""time""
""fullscreenenter"",""1"",""1891""
","
","","","-1","","","18","7706","3945","d","elianto","#3366ff99","-1","-1","1","+10","[]","0","2","","","7706","37","1","2","win","no-go","0"
"pit-trial","156","1013527","0.0-42.0","battery-v0.2","","""event"",""trial"",""time""
""fullscreenenter"",""1"",""1891""
","
","
","""event"",""trial"",""time""
""fullscreenenter"",""1"",""1891""
","
","","","-1","","","18","7706","3945","w","elianto","#f73b6a7A","-1","-1","1","0","[]","0","2","","","7706","38","3","4","lose","no-go","0"
"pit-trial","157","1017744","0.0-43.0","battery-v0.2","","""event"",""trial"",""time""
""fullscreenenter"",""1"",""1891""
","
","
","""event"",""trial"",""time""
""fullscreenenter"",""1"",""1891""
","
","","","1363.0999999996275","","","18","7706","3945","e","elianto","#f73b6a7A"," "," ","1","-10","[2213]","1","2","","","7706","39","2","3","lose","go","1"
"pit-trial","158","1022479","0.0-44.0","battery-v0.2","","""event"",""trial"",""time""
""fullscreenenter"",""1"",""1891""
","
","
","""event"",""trial"",""time""
""fullscreenenter"",""1"",""1891""
","
","","","1881.4000000003725","","","18","7706","3945","j","elianto","#f73b6a7A"," "," ","1","0","[2732.2999999998137]","1","2","","","7706","40","0","3","lose","go","0"
"pit-trial","159","1027333","0.0-45.0","battery-v0.2","","""event"",""trial"",""time""
""fullscreenenter"",""1"",""1891""
","
","
","""event"",""trial"",""time""
""fullscreenenter"",""1"",""1891""
","
","","","-1","","","18","7706","3945","w","elianto","#f73b6a7A","-1","-1","1","0","[]","0","2","","","7706","41","3","4","lose","no-go","0"
"pit-trial","160","1032188","0.0-46.0","battery-v0.2","","""event"",""trial"",""time""
""fullscreenenter"",""1"",""1891""
","
","
","""event"",""trial"",""time""
""fullscreenenter"",""1"",""1891""
","
","","","-1","","","18","7706","3945","e","elianto","#f73b6a7A"," ","-1","0","0","[]","0","2","","","7706","42","2","3","lose","go","1"
"pit-trial","161","1037042","0.0-47.0","battery-v0.2","","""event"",""trial"",""time""
""fullscreenenter"",""1"",""1891""
","
","
","""event"",""trial"",""time""
""fullscreenenter"",""1"",""1891""
","
","","","-1","","","18","7706","3945","d","elianto","#3366ff99","-1","-1","1","+10","[]","0","2","","","7706","43","1","2","win","no-go","0"
"pit-trial","162","1041344","0.0-48.0","battery-v0.2","","""event"",""trial"",""time""
""fullscreenenter"",""1"",""1891""
","
","
","""event"",""trial"",""time""
""fullscreenenter"",""1"",""1891""
","
","","","1448.9000000003725","","","18","7706","3945","j","elianto","#f73b6a7A"," "," ","1","0","[2299]","1","2","","","7706","44","0","3","lose","go","0"
"pit-trial","163","1045303","0.0-49.0","battery-v0.2","","""event"",""trial"",""time""
""fullscreenenter"",""1"",""1891""
","
","
","""event"",""trial"",""time""
""fullscreenenter"",""1"",""1891""
","
","","","1104.5","","","18","7706","3945","j","elianto","#f73b6a7A"," "," ","1","0","[1955.6000000005588]","1","2","","","7706","45","0","3","lose","go","0"
"pit-trial","164","1050157","0.0-50.0","battery-v0.2","","""event"",""trial"",""time""
""fullscreenenter"",""1"",""1891""
","
","
","""event"",""trial"",""time""
""fullscreenenter"",""1"",""1891""
","
","","","-1","","","18","7706","3945","w","elianto","#f73b6a7A","-1","-1","1","0","[]","0","2","","","7706","46","3","4","lose","no-go","0"
"pit-trial","165","1055013","0.0-51.0","battery-v0.2","","""event"",""trial"",""time""
""fullscreenenter"",""1"",""1891""
","
","
","""event"",""trial"",""time""
""fullscreenenter"",""1"",""1891""
","
","","","-1","","","18","7706","3945","d","elianto","#3366ff99","-1","-1","1","0","[]","0","2","","","7706","47","1","2","win","no-go","1"
"pit-trial","166","1059867","0.0-52.0","battery-v0.2","","""event"",""trial"",""time""
""fullscreenenter"",""1"",""1891""
","
","
","""event"",""trial"",""time""
""fullscreenenter"",""1"",""1891""
","
","","","-1","","","18","7706","3945","e","elianto","#f73b6a7A"," ","-1","0","0","[2991.2999999998137]","1","2","","","7706","48","2","3","lose","go","1"
"pit-trial","167","1064722","0.0-53.0","battery-v0.2","","""event"",""trial"",""time""
""fullscreenenter"",""1"",""1891""
","
","
","""event"",""trial"",""time""
""fullscreenenter"",""1"",""1891""
","
","","","-1","","","18","7706","3945","w","elianto","#f73b6a7A","-1","-1","1","0","[]","0","2","","","7706","49","3","4","lose","no-go","0"
"pit-trial","168","1069576","0.0-54.0","battery-v0.2","","""event"",""trial"",""time""
""fullscreenenter"",""1"",""1891""
","
","
","""event"",""trial"",""time""
""fullscreenenter"",""1"",""1891""
","
","","","-1","","","18","7706","3945","e","elianto","#f73b6a7A"," ","-1","0","-10","[]","0","2","","","7706","50","2","3","lose","go","0"
"pit-trial","169","1074432","0.0-55.0","battery-v0.2","","""event"",""trial"",""time""
""fullscreenenter"",""1"",""1891""
","
","
","""event"",""trial"",""time""
""fullscreenenter"",""1"",""1891""
","
","","","-1","","","18","7706","3945","d","elianto","#3366ff99","-1","-1","1","+10","[]","0","2","","","7706","51","1","2","win","no-go","0"
"pit-trial","170","1078089","0.0-56.0","battery-v0.2","","""event"",""trial"",""time""
""fullscreenenter"",""1"",""1891""
","
","
","""event"",""trial"",""time""
""fullscreenenter"",""1"",""1891""
","
","","","802.9000000003725","","","18","7706","3945","j","elianto","#f73b6a7A"," "," ","1","-10","[1653.6000000005588]","1","2","","","7706","52","0","3","lose","go","1"
"pit-trial","171","1082943","0.0-57.0","battery-v0.2","","""event"",""trial"",""time""
""fullscreenenter"",""1"",""1891""
","
","
","""event"",""trial"",""time""
""fullscreenenter"",""1"",""1891""
","
","","","-1","","","18","7706","3945","w","elianto","#f73b6a7A","-1","-1","1","0","[]","0","2","","","7706","53","3","4","lose","no-go","0"
"pit-trial","172","1087798","0.0-58.0","battery-v0.2","","""event"",""trial"",""time""
""fullscreenenter"",""1"",""1891""
","
","
","""event"",""trial"",""time""
""fullscreenenter"",""1"",""1891""
","
","","","-1","","","18","7706","3945","d","elianto","#3366ff99","-1","-1","1","+10","[]","0","2","","","7706","54","1","2","win","no-go","0"
"pit-trial","173","1092653","0.0-59.0","battery-v0.2","","""event"",""trial"",""time""
""fullscreenenter"",""1"",""1891""
","
","
","""event"",""trial"",""time""
""fullscreenenter"",""1"",""1891""
","
","","","-1","","","18","7706","3945","e","elianto","#f73b6a7A"," ","-1","0","-10","[]","0","2","","","7706","55","2","3","lose","go","0"
"pit-trial","174","1096096","0.0-60.0","battery-v0.2","","""event"",""trial"",""time""
""fullscreenenter"",""1"",""1891""
","
","
","""event"",""trial"",""time""
""fullscreenenter"",""1"",""1891""
","
","","","586","","","18","7706","3945","j","elianto","#f73b6a7A"," "," ","1","0","[1439.0999999996275]","1","2","","","7706","56","0","3","lose","go","0"
"pit-trial","175","1099695","0.0-61.0","battery-v0.2","","""event"",""trial"",""time""
""fullscreenenter"",""1"",""1891""
","
","
","""event"",""trial"",""time""
""fullscreenenter"",""1"",""1891""
","
","","","743.2999999998137","","","18","7706","3945","j","elianto","#f73b6a7A"," "," ","1","0","[1595.4000000003725]","1","2","","","7706","57","0","3","lose","go","0"
"pit-trial","176","1103807","0.0-62.0","battery-v0.2","","""event"",""trial"",""time""
""fullscreenenter"",""1"",""1891""
","
","
","""event"",""trial"",""time""
""fullscreenenter"",""1"",""1891""
","
","","","1256","","","18","7706","3945","w","elianto","#f73b6a7A","-1"," ","0","-10","[2108.7999999998137]","1","2","","","7706","58","3","4","lose","no-go","0"
"pit-trial","177","1108661","0.0-63.0","battery-v0.2","","""event"",""trial"",""time""
""fullscreenenter"",""1"",""1891""
","
","
","""event"",""trial"",""time""
""fullscreenenter"",""1"",""1891""
","
","","","-1","","","18","7706","3945","e","elianto","#f73b6a7A"," ","-1","0","-10","[]","0","2","","","7706","59","2","3","lose","go","0"
"pit-trial","178","1113516","0.0-64.0","battery-v0.2","","""event"",""trial"",""time""
""fullscreenenter"",""1"",""1891""
","
","
","""event"",""trial"",""time""
""fullscreenenter"",""1"",""1891""
","
","","","-1","","","18","7706","3945","s","elianto","#3366ff99"," ","-1","0","0","[3046.899999999441]","1","2","","","7706","60","4","1","win","go","0"
"pit-trial","179","1118150","0.0-65.0","battery-v0.2","","""event"",""trial"",""time""
""fullscreenenter"",""1"",""1891""
","
","
","""event"",""trial"",""time""
""fullscreenenter"",""1"",""1891""
","
","","","1780.0999999996275","","","18","7706","3945","w","elianto","#f73b6a7A","-1"," ","0","0","[2631.0999999996275]","1","2","","","7706","61","3","4","lose","no-go","1"
"pit-trial","180","1122816","0.0-66.0","battery-v0.2","","""event"",""trial"",""time""
""fullscreenenter"",""1"",""1891""
","
","
","""event"",""trial"",""time""
""fullscreenenter"",""1"",""1891""
","
","","","1810.4000000003725","","","18","7706","3945","s","elianto","#3366ff99"," "," ","1","+10","[2661.4000000003725]","1","2","","","7706","62","4","1","win","go","0"
"pit-trial","181","1127568","0.0-67.0","battery-v0.2","","""event"",""trial"",""time""
""fullscreenenter"",""1"",""1891""
","
","
","""event"",""trial"",""time""
""fullscreenenter"",""1"",""1891""
","
","","","1898","","","18","7706","3945","d","elianto","#3366ff99","-1"," ","0","0","[2748.399999999441]","1","2","","","7706","63","1","2","win","no-go","0"
"pit-trial","182","1132199","0.0-68.0","battery-v0.2","","""event"",""trial"",""time""
""fullscreenenter"",""1"",""1891""
","
","
","""event"",""trial"",""time""
""fullscreenenter"",""1"",""1891""
","
","","","1777.2000000001863","","","18","7706","3945","e","elianto","#f73b6a7A"," "," ","1","0","[2627.4000000003725]","1","2","","","7706","64","2","3","lose","go","0"
"pit-trial","183","1135911","0.0-69.0","battery-v0.2","","""event"",""trial"",""time""
""fullscreenenter"",""1"",""1891""
","
","
","""event"",""trial"",""time""
""fullscreenenter"",""1"",""1891""
","
","","","858.0999999996275","","","18","7706","3945","d","elianto","#3366ff99","-1"," ","0","0","[1708.2000000001863]","1","2","","","7706","65","1","2","win","no-go","0"
"pit-trial","184","1140765","0.0-70.0","battery-v0.2","","""event"",""trial"",""time""
""fullscreenenter"",""1"",""1891""
","
","
","""event"",""trial"",""time""
""fullscreenenter"",""1"",""1891""
","
","","","-1","","","18","7706","3945","p","elianto","#3366ff99","-1","-1","1","+10","[]","0","2","","","7706","66","5","2","win","no-go","0"
"pit-trial","185","1145620","0.0-71.0","battery-v0.2","","""event"",""trial"",""time""
""fullscreenenter"",""1"",""1891""
","
","
","""event"",""trial"",""time""
""fullscreenenter"",""1"",""1891""
","
","","","-1","","","18","7706","3945","w","elianto","#f73b6a7A","-1","-1","1","-10","[]","0","2","","","7706","67","3","4","lose","no-go","1"
"pit-trial","186","1149680","0.0-72.0","battery-v0.2","","""event"",""trial"",""time""
""fullscreenenter"",""1"",""1891""
","
","
","""event"",""trial"",""time""
""fullscreenenter"",""1"",""1891""
","
","","","1206","","","18","7706","3945","s","elianto","#3366ff99"," "," ","1","+10","[2056.5999999996275]","1","2","","","7706","68","4","1","win","go","0"
"pit-trial","187","1153775","0.0-73.0","battery-v0.2","","""event"",""trial"",""time""
""fullscreenenter"",""1"",""1891""
","
","
","""event"",""trial"",""time""
""fullscreenenter"",""1"",""1891""
","
","","","1240.7000000001863","","","18","7706","3945","p","elianto","#3366ff99","-1"," ","0","0","[2091.199999999255]","1","2","","","7706","69","5","2","win","no-go","0"
"pit-trial","188","1157928","0.0-74.0","battery-v0.2","","""event"",""trial"",""time""
""fullscreenenter"",""1"",""1891""
","
","
","""event"",""trial"",""time""
""fullscreenenter"",""1"",""1891""
","
","","","1298","","","18","7706","3945","e","elianto","#f73b6a7A"," "," ","1","0","[2149]","1","2","","","7706","70","2","3","lose","go","0"
"pit-trial","189","1162783","0.0-75.0","battery-v0.2","","""event"",""trial"",""time""
""fullscreenenter"",""1"",""1891""
","
","
","""event"",""trial"",""time""
""fullscreenenter"",""1"",""1891""
","
","","","-1","","","18","7706","3945","d","elianto","#3366ff99","-1","-1","1","0","[]","0","2","","","7706","71","1","2","win","no-go","1"
"pit-trial","190","1166392","0.0-76.0","battery-v0.2","","""event"",""trial"",""time""
""fullscreenenter"",""1"",""1891""
","
","
","""event"",""trial"",""time""
""fullscreenenter"",""1"",""1891""
","
","","","753.6000000005588","","","18","7706","3945","s","elianto","#3366ff99"," "," ","1","+10","[1604.6000000005588]","1","2","","","7706","72","4","1","win","go","0"
"pit-trial","191","1171247","0.0-77.0","battery-v0.2","","""event"",""trial"",""time""
""fullscreenenter"",""1"",""1891""
","
","
","""event"",""trial"",""time""
""fullscreenenter"",""1"",""1891""
","
","","","-1","","","18","7706","3945","d","elianto","#3366ff99","-1","-1","1","+10","[]","0","2","","","7706","73","1","2","win","no-go","0"
"pit-trial","192","1176101","0.0-78.0","battery-v0.2","","""event"",""trial"",""time""
""fullscreenenter"",""1"",""1891""
","
","
","""event"",""trial"",""time""
""fullscreenenter"",""1"",""1891""
","
","","","-1","","","18","7706","3945","w","elianto","#f73b6a7A","-1","-1","1","-10","[]","0","2","","","7706","74","3","4","lose","no-go","1"
"pit-trial","193","1179647","0.0-79.0","battery-v0.2","","""event"",""trial"",""time""
""fullscreenenter"",""1"",""1891""
","
","
","""event"",""trial"",""time""
""fullscreenenter"",""1"",""1891""
","
","","","692.4000000003725","","","18","7706","3945","s","elianto","#3366ff99"," "," ","1","+10","[1543.5]","1","2","","","7706","75","4","1","win","go","0"
"pit-trial","194","1184525","0.0-80.0","battery-v0.2","","""event"",""trial"",""time""
""fullscreenenter"",""1"",""1891""
","
","
","""event"",""trial"",""time""
""fullscreenenter"",""1"",""1891""
","
","","","-1","","","18","7706","3945","p","elianto","#3366ff99","-1","-1","1","+10","[]","0","2","","","7706","76","5","2","win","no-go","0"
"pit-trial","195","1188352","0.0-81.0","battery-v0.2","","""event"",""trial"",""time""
""fullscreenenter"",""1"",""1891""
","
","
","""event"",""trial"",""time""
""fullscreenenter"",""1"",""1891""
","
","","","972.9000000003725","","","18","7706","3945","s","elianto","#3366ff99"," "," ","1","+10","[1822.8999999994412]","1","2","","","7706","77","4","1","win","go","0"
"pit-trial","196","1191776","0.0-82.0","battery-v0.2","","""event"",""trial"",""time""
""fullscreenenter"",""1"",""1891""
","
","
","""event"",""trial"",""time""
""fullscreenenter"",""1"",""1891""
","
","","","569.9000000003725","","","18","7706","3945","s","elianto","#3366ff99"," "," ","1","+10","[1420.5]","1","2","","","7706","78","4","1","win","go","0"
"pit-trial","197","1196630","0.0-83.0","battery-v0.2","","""event"",""trial"",""time""
""fullscreenenter"",""1"",""1891""
","
","
","""event"",""trial"",""time""
""fullscreenenter"",""1"",""1891""
","
","","","-1","","","18","7706","3945","w","elianto","#f73b6a7A","-1","-1","1","0","[]","0","2","","","7706","79","3","4","lose","no-go","0"
"pit-trial","198","1200214","0.0-84.0","battery-v0.2","","""event"",""trial"",""time""
""fullscreenenter"",""1"",""1891""
","
","
","""event"",""trial"",""time""
""fullscreenenter"",""1"",""1891""
","
","","","714.7000000001863","","","18","7706","3945","p","elianto","#3366ff99","-1"," ","0","0","[1565.9000000003725]","1","2","","","7706","80","5","2","win","no-go","0"
"pit-trial","199","1203600","0.0-85.0","battery-v0.2","","""event"",""trial"",""time""
""fullscreenenter"",""1"",""1891""
","
","
","""event"",""trial"",""time""
""fullscreenenter"",""1"",""1891""
","
","","","532.7999999998137","","","18","7706","3945","s","elianto","#3366ff99"," "," ","1","+10","[1382.8999999994412]","1","2","","","7706","81","4","1","win","go","0"
"pit-trial","200","1206935","0.0-86.0","battery-v0.2","","""event"",""trial"",""time""
""fullscreenenter"",""1"",""1891""
","
","
","""event"",""trial"",""time""
""fullscreenenter"",""1"",""1891""
","
","","","480.80000000074506","","","18","7706","3945","a","elianto","#f73b6a7A","-1"," ","0","-10","[1332.5]","1","2","","","7706","82","7","4","lose","no-go","0"
"pit-trial","201","1211790","0.0-87.0","battery-v0.2","","""event"",""trial"",""time""
""fullscreenenter"",""1"",""1891""
","
","
","""event"",""trial"",""time""
""fullscreenenter"",""1"",""1891""
","
","","","-1","","","18","7706","3945","w","elianto","#f73b6a7A","-1","-1","1","0","[]","0","2","","","7706","83","3","4","lose","no-go","0"
"pit-trial","202","1216280","0.0-88.0","battery-v0.2","","""event"",""trial"",""time""
""fullscreenenter"",""1"",""1891""
","
","
","""event"",""trial"",""time""
""fullscreenenter"",""1"",""1891""
","
","","","1635.3999999994412","","","18","7706","3945","p","elianto","#3366ff99","-1"," ","0","0","[2486.5]","1","2","","","7706","84","5","2","win","no-go","0"
"pit-trial","203","1221134","0.0-89.0","battery-v0.2","","""event"",""trial"",""time""
""fullscreenenter"",""1"",""1891""
","
","
","""event"",""trial"",""time""
""fullscreenenter"",""1"",""1891""
","
","","","-1","","","18","7706","3945","g","elianto","#f73b6a7A"," ","-1","0","-10","[]","0","2","","","7706","85","6","3","lose","go","0"
"pit-trial","204","1225989","0.0-90.0","battery-v0.2","","""event"",""trial"",""time""
""fullscreenenter"",""1"",""1891""
","
","
","""event"",""trial"",""time""
""fullscreenenter"",""1"",""1891""
","
","","","-1","","","18","7706","3945","p","elianto","#3366ff99","-1","-1","1","+10","[]","0","2","","","7706","86","5","2","win","no-go","0"
"pit-trial","205","1230847","0.0-91.0","battery-v0.2","","""event"",""trial"",""time""
""fullscreenenter"",""1"",""1891""
","
","
","""event"",""trial"",""time""
""fullscreenenter"",""1"",""1891""
","
","","","-1","","","18","7706","3945","a","elianto","#f73b6a7A","-1","-1","1","0","[]","0","2","","","7706","87","7","4","lose","no-go","0"
"pit-trial","206","1234657","0.0-92.0","battery-v0.2","","""event"",""trial"",""time""
""fullscreenenter"",""1"",""1891""
","
","
","""event"",""trial"",""time""
""fullscreenenter"",""1"",""1891""
","
","","","954.8999999994412","","","18","7706","3945","s","elianto","#3366ff99"," "," ","1","+10","[1805.5]","1","2","","","7706","88","4","1","win","go","0"
"pit-trial","207","1238120","0.0-93.0","battery-v0.2","","""event"",""trial"",""time""
""fullscreenenter"",""1"",""1891""
","
","
","""event"",""trial"",""time""
""fullscreenenter"",""1"",""1891""
","
","","","609.7999999998137","","","18","7706","3945","s","elianto","#3366ff99"," "," ","1","+10","[1461]","1","2","","","7706","89","4","1","win","go","0"
"pit-trial","208","1242303","0.0-94.0","battery-v0.2","","""event"",""trial"",""time""
""fullscreenenter"",""1"",""1891""
","
","
","""event"",""trial"",""time""
""fullscreenenter"",""1"",""1891""
","
","","","1329.2999999998137","","","18","7706","3945","g","elianto","#f73b6a7A"," "," ","1","0","[2179.7000000001863]","1","2","","","7706","90","6","3","lose","go","0"
"pit-trial","209","1247170","0.0-95.0","battery-v0.2","","""event"",""trial"",""time""
""fullscreenenter"",""1"",""1891""
","
","
","""event"",""trial"",""time""
""fullscreenenter"",""1"",""1891""
","
","","","-1","","","18","7706","3945","p","elianto","#3366ff99","-1","-1","1","+10","[]","0","2","","","7706","91","5","2","win","no-go","0"
"pit-trial","210","1252025","0.0-96.0","battery-v0.2","","""event"",""trial"",""time""
""fullscreenenter"",""1"",""1891""
","
","
","""event"",""trial"",""time""
""fullscreenenter"",""1"",""1891""
","
","","","-1","","","18","7706","3945","a","elianto","#f73b6a7A","-1","-1","1","0","[]","0","2","","","7706","92","7","4","lose","no-go","0"
"pit-trial","211","1256329","0.0-97.0","battery-v0.2","","""event"",""trial"",""time""
""fullscreenenter"",""1"",""1891""
","
","
","""event"",""trial"",""time""
""fullscreenenter"",""1"",""1891""
","
","","","1445.9000000003725","","","18","7706","3945","g","elianto","#f73b6a7A"," "," ","1","0","[2300]","1","2","","","7706","93","6","3","lose","go","0"
"pit-trial","212","1260568","0.0-98.0","battery-v0.2","","""event"",""trial"",""time""
""fullscreenenter"",""1"",""1891""
","
","
","""event"",""trial"",""time""
""fullscreenenter"",""1"",""1891""
","
","","","1384.699999999255","","","18","7706","3945","a","elianto","#f73b6a7A","-1"," ","0","-10","[2235.7000000001863]","1","2","","","7706","94","7","4","lose","no-go","0"
"pit-trial","213","1264799","0.0-99.0","battery-v0.2","","""event"",""trial"",""time""
""fullscreenenter"",""1"",""1891""
","
","
","""event"",""trial"",""time""
""fullscreenenter"",""1"",""1891""
","
","","","1377.2999999998137","","","18","7706","3945","l","elianto","#3366ff99"," "," ","1","+10","[2227.699999999255]","1","2","","","7706","95","8","1","win","go","0"
"pit-trial","214","1269653","0.0-100.0","battery-v0.2","","""event"",""trial"",""time""
""fullscreenenter"",""1"",""1891""
","
","
","""event"",""trial"",""time""
""fullscreenenter"",""1"",""1891""
","
","","","-1","","","18","7706","3945","p","elianto","#3366ff99","-1","-1","1","+10","[]","0","2","","","7706","96","5","2","win","no-go","0"
"pit-trial","215","1274507","0.0-101.0","battery-v0.2","","""event"",""trial"",""time""
""fullscreenenter"",""1"",""1891""
","
","
","""event"",""trial"",""time""
""fullscreenenter"",""1"",""1891""
","
","","","-1","","","18","7706","3945","l","elianto","#3366ff99"," ","-1","0","0","[]","0","2","","","7706","97","8","1","win","go","0"
"pit-trial","216","1278384","0.0-102.0","battery-v0.2","","""event"",""trial"",""time""
""fullscreenenter"",""1"",""1891""
","
","
","""event"",""trial"",""time""
""fullscreenenter"",""1"",""1891""
","
","","","1022.2000000001863","","","18","7706","3945","g","elianto","#f73b6a7A"," "," ","1","0","[1872.9000000003725]","1","2","","","7706","98","6","3","lose","go","0"
"pit-trial","217","1283239","0.0-103.0","battery-v0.2","","""event"",""trial"",""time""
""fullscreenenter"",""1"",""1891""
","
","
","""event"",""trial"",""time""
""fullscreenenter"",""1"",""1891""
","
","","","-1","","","18","7706","3945","a","elianto","#f73b6a7A","-1","-1","1","-10","[]","0","2","","","7706","99","7","4","lose","no-go","1"
"pit-trial","218","1286911","0.0-104.0","battery-v0.2","","""event"",""trial"",""time""
""fullscreenenter"",""1"",""1891""
","
","
","""event"",""trial"",""time""
""fullscreenenter"",""1"",""1891""
","
","","","817.2999999998137","","","18","7706","3945","p","elianto","#3366ff99","-1"," ","0","0","[1668.0999999996275]","1","2","","","7706","100","5","2","win","no-go","0"
"pit-trial","219","1291765","0.0-105.0","battery-v0.2","","""event"",""trial"",""time""
""fullscreenenter"",""1"",""1891""
","
","
","""event"",""trial"",""time""
""fullscreenenter"",""1"",""1891""
","
","","","-1","","","18","7706","3945","a","elianto","#f73b6a7A","-1","-1","1","0","[]","0","2","","","7706","101","7","4","lose","no-go","0"
"pit-trial","220","1295816","0.0-106.0","battery-v0.2","","""event"",""trial"",""time""
""fullscreenenter"",""1"",""1891""
","
","
","""event"",""trial"",""time""
""fullscreenenter"",""1"",""1891""
","
","","","1197.300000000745","","","18","7706","3945","l","elianto","#3366ff99"," "," ","1","0","[2047.2999999998137]","1","2","","","7706","102","8","1","win","go","1"
"pit-trial","221","1299224","0.0-107.0","battery-v0.2","","""event"",""trial"",""time""
""fullscreenenter"",""1"",""1891""
","
","
","""event"",""trial"",""time""
""fullscreenenter"",""1"",""1891""
","
","","","552.7000000001863","","","18","7706","3945","p","elianto","#3366ff99","-1"," ","0","0","[1403.4000000003725]","1","2","","","7706","103","5","2","win","no-go","0"
"pit-trial","222","1303055","0.0-108.0","battery-v0.2","","""event"",""trial"",""time""
""fullscreenenter"",""1"",""1891""
","
","
","""event"",""trial"",""time""
""fullscreenenter"",""1"",""1891""
","
","","","977","","","18","7706","3945","u","elianto","#3366ff99"," "," ","1","+10","[1827.3999999994412]","1","2","","","7706","104","9","1","win","go","0"
"pit-trial","223","1306808","0.0-109.0","battery-v0.2","","""event"",""trial"",""time""
""fullscreenenter"",""1"",""1891""
","
","
","""event"",""trial"",""time""
""fullscreenenter"",""1"",""1891""
","
","","","897.9000000003725","","","18","7706","3945","g","elianto","#f73b6a7A"," "," ","1","-10","[1748.4000000003725]","1","2","","","7706","105","6","3","lose","go","1"
"pit-trial","224","1311663","0.0-110.0","battery-v0.2","","""event"",""trial"",""time""
""fullscreenenter"",""1"",""1891""
","
","
","""event"",""trial"",""time""
""fullscreenenter"",""1"",""1891""
","
","","","-1","","","18","7706","3945","l","elianto","#3366ff99"," ","-1","0","0","[]","0","2","","","7706","106","8","1","win","go","0"
"pit-trial","225","1315247","0.0-111.0","battery-v0.2","","""event"",""trial"",""time""
""fullscreenenter"",""1"",""1891""
","
","
","""event"",""trial"",""time""
""fullscreenenter"",""1"",""1891""
","
","","","729","","","18","7706","3945","s","elianto","#3366ff99"," "," ","1","+10","[1580.5]","1","2","","","7706","107","4","1","win","go","0"
"pit-trial","226","1320103","0.0-112.0","battery-v0.2","","""event"",""trial"",""time""
""fullscreenenter"",""1"",""1891""
","
","
","""event"",""trial"",""time""
""fullscreenenter"",""1"",""1891""
","
","","","-1","","","18","7706","3945","u","elianto","#3366ff99"," ","-1","0","0","[]","0","2","","","7706","108","9","1","win","go","0"
"pit-trial","227","1324957","0.0-113.0","battery-v0.2","","""event"",""trial"",""time""
""fullscreenenter"",""1"",""1891""
","
","
","""event"",""trial"",""time""
""fullscreenenter"",""1"",""1891""
","
","","","-1","","","18","7706","3945","g","elianto","#f73b6a7A"," ","-1","0","-10","[]","0","2","","","7706","109","6","3","lose","go","0"
"pit-trial","228","1329617","0.0-114.0","battery-v0.2","","""event"",""trial"",""time""
""fullscreenenter"",""1"",""1891""
","
","
","""event"",""trial"",""time""
""fullscreenenter"",""1"",""1891""
","
","","","1804.2999999998137","","","18","7706","3945","u","elianto","#3366ff99"," "," ","1","+10","[2655.4000000003725]","1","2","","","7706","110","9","1","win","go","0"
"pit-trial","229","1334472","0.0-115.0","battery-v0.2","","""event"",""trial"",""time""
""fullscreenenter"",""1"",""1891""
","
","
","""event"",""trial"",""time""
""fullscreenenter"",""1"",""1891""
","
","","","-1","","","18","7706","3945","l","elianto","#3366ff99"," ","-1","0","0","[]","0","2","","","7706","111","8","1","win","go","0"
"pit-trial","230","1338576","0.0-116.0","battery-v0.2","","""event"",""trial"",""time""
""fullscreenenter"",""1"",""1891""
","
","
","""event"",""trial"",""time""
""fullscreenenter"",""1"",""1891""
","
","","","1250.1000000005588","","","18","7706","3945","p","elianto","#3366ff99","-1"," ","0","0","[2100.300000000745]","1","2","","","7706","112","5","2","win","no-go","0"
"pit-trial","231","1342360","0.0-117.0","battery-v0.2","","""event"",""trial"",""time""
""fullscreenenter"",""1"",""1891""
","
","
","""event"",""trial"",""time""
""fullscreenenter"",""1"",""1891""
","
","","","930.7000000001863","","","18","7706","3945","g","elianto","#f73b6a7A"," "," ","1","0","[1781.2999999998137]","1","2","","","7706","113","6","3","lose","go","0"
"pit-trial","232","1346846","0.0-118.0","battery-v0.2","","""event"",""trial"",""time""
""fullscreenenter"",""1"",""1891""
","
","
","""event"",""trial"",""time""
""fullscreenenter"",""1"",""1891""
","
","","","1631.9000000003725","","","18","7706","3945","u","elianto","#3366ff99"," "," ","1","+10","[2482.5]","1","2","","","7706","114","9","1","win","go","0"
"pit-trial","233","1351701","0.0-119.0","battery-v0.2","","""event"",""trial"",""time""
""fullscreenenter"",""1"",""1891""
","
","
","""event"",""trial"",""time""
""fullscreenenter"",""1"",""1891""
","
","","","-1","","","18","7706","3945","p","elianto","#3366ff99","-1","-1","1","0","[]","0","2","","","7706","115","5","2","win","no-go","1"
"pit-trial","234","1355424","0.0-120.0","battery-v0.2","","""event"",""trial"",""time""
""fullscreenenter"",""1"",""1891""
","
","
","""event"",""trial"",""time""
""fullscreenenter"",""1"",""1891""
","
","","","868","","","18","7706","3945","l","elianto","#3366ff99"," "," ","1","+10","[1719.2999999998137]","1","2","","","7706","116","8","1","win","go","0"
"pit-trial","235","1359129","0.0-121.0","battery-v0.2","","""event"",""trial"",""time""
""fullscreenenter"",""1"",""1891""
","
","
","""event"",""trial"",""time""
""fullscreenenter"",""1"",""1891""
","
","","","849.7000000001863","","","18","7706","3945","u","elianto","#3366ff99"," "," ","1","+10","[1700.0999999996275]","1","2","","","7706","117","9","1","win","go","0"
"pit-trial","236","1362760","0.0-122.0","battery-v0.2","","""event"",""trial"",""time""
""fullscreenenter"",""1"",""1891""
","
","
","""event"",""trial"",""time""
""fullscreenenter"",""1"",""1891""
","
","","","776.8999999994412","","","18","7706","3945","g","elianto","#f73b6a7A"," "," ","1","0","[1627.2000000001863]","1","2","","","7706","118","6","3","lose","go","0"
"pit-trial","237","1366873","0.0-123.0","battery-v0.2","","""event"",""trial"",""time""
""fullscreenenter"",""1"",""1891""
","
","
","""event"",""trial"",""time""
""fullscreenenter"",""1"",""1891""
","
","","","1257.800000000745","","","18","7706","3945","l","elianto","#3366ff99"," "," ","1","0","[2108.300000000745]","1","2","","","7706","119","8","1","win","go","1"
"pit-trial","238","1371728","0.0-124.0","battery-v0.2","","""event"",""trial"",""time""
""fullscreenenter"",""1"",""1891""
","
","
","""event"",""trial"",""time""
""fullscreenenter"",""1"",""1891""
","
","","","-1","","","18","7706","3945","p","elianto","#3366ff99","-1","-1","1","+10","[]","0","2","","","7706","120","5","2","win","no-go","0"
"pit-trial","239","1375440","0.0-125.0","battery-v0.2","","""event"",""trial"",""time""
""fullscreenenter"",""1"",""1891""
","
","
","""event"",""trial"",""time""
""fullscreenenter"",""1"",""1891""
","
","","","857","","","18","7706","3945","u","elianto","#3366ff99"," "," ","1","+10","[1707.2999999998137]","1","2","","","7706","121","9","1","win","go","0"
"pit-trial","240","1380295","0.0-126.0","battery-v0.2","","""event"",""trial"",""time""
""fullscreenenter"",""1"",""1891""
","
","
","""event"",""trial"",""time""
""fullscreenenter"",""1"",""1891""
","
","","","-1","","","18","7706","3945","a","elianto","#f73b6a7A","-1","-1","1","0","[]","0","2","","","7706","122","7","4","lose","no-go","0"
"pit-trial","241","1384193","0.0-127.0","battery-v0.2","","""event"",""trial"",""time""
""fullscreenenter"",""1"",""1891""
","
","
","""event"",""trial"",""time""
""fullscreenenter"",""1"",""1891""
","
","","","1043.0999999996275","","","18","7706","3945","l","elianto","#3366ff99"," "," ","1","0","[1893.6000000005588]","1","2","","","7706","123","8","1","win","go","1"
"pit-trial","242","1388072","0.0-128.0","battery-v0.2","","""event"",""trial"",""time""
""fullscreenenter"",""1"",""1891""
","
","
","""event"",""trial"",""time""
""fullscreenenter"",""1"",""1891""
","
","","","1024.0999999996275","","","18","7706","3945","g","elianto","#f73b6a7A"," "," ","1","0","[1874.7000000001863]","1","2","","","7706","124","6","3","lose","go","0"
"pit-trial","243","1391824","0.0-129.0","battery-v0.2","","""event"",""trial"",""time""
""fullscreenenter"",""1"",""1891""
","
","
","""event"",""trial"",""time""
""fullscreenenter"",""1"",""1891""
","
","","","897.2000000001863","","","18","7706","3945","l","elianto","#3366ff99"," "," ","1","+10","[1748.300000000745]","1","2","","","7706","125","8","1","win","go","0"
"pit-trial","244","1396679","0.0-130.0","battery-v0.2","","""event"",""trial"",""time""
""fullscreenenter"",""1"",""1891""
","
","
","""event"",""trial"",""time""
""fullscreenenter"",""1"",""1891""
","
","","","-1","","","18","7706","3945","a","elianto","#f73b6a7A","-1","-1","1","0","[]","0","2","","","7706","126","7","4","lose","no-go","0"
"pit-trial","245","1400392","0.0-131.0","battery-v0.2","","""event"",""trial"",""time""
""fullscreenenter"",""1"",""1891""
","
","
","""event"",""trial"",""time""
""fullscreenenter"",""1"",""1891""
","
","","","859.5999999996275","","","18","7706","3945","g","elianto","#f73b6a7A"," "," ","1","0","[1709.7000000001863]","1","2","","","7706","127","6","3","lose","go","0"
"pit-trial","246","1404057","0.0-132.0","battery-v0.2","","""event"",""trial"",""time""
""fullscreenenter"",""1"",""1891""
","
","
","""event"",""trial"",""time""
""fullscreenenter"",""1"",""1891""
","
","","","809.4000000003725","","","18","7706","3945","u","elianto","#3366ff99"," "," ","1","+10","[1660]","1","2","","","7706","128","9","1","win","go","0"
"pit-trial","247","1408912","0.0-133.0","battery-v0.2","","""event"",""trial"",""time""
""fullscreenenter"",""1"",""1891""
","
","
","""event"",""trial"",""time""
""fullscreenenter"",""1"",""1891""
","
","","","-1","","","18","7706","3945","a","elianto","#f73b6a7A","-1","-1","1","0","[]","0","2","","","7706","129","7","4","lose","no-go","0"
"pit-trial","248","1412513","0.0-134.0","battery-v0.2","","""event"",""trial"",""time""
""fullscreenenter"",""1"",""1891""
","
","
","""event"",""trial"",""time""
""fullscreenenter"",""1"",""1891""
","
","","","746","","","18","7706","3945","l","elianto","#3366ff99"," "," ","1","+10","[1596.9000000003725]","1","2","","","7706","130","8","1","win","go","0"
"pit-trial","249","1416527","0.0-135.0","battery-v0.2","","""event"",""trial"",""time""
""fullscreenenter"",""1"",""1891""
","
","
","""event"",""trial"",""time""
""fullscreenenter"",""1"",""1891""
","
","","","1160","","","18","7706","3945","g","elianto","#f73b6a7A"," "," ","1","0","[2010.7000000001863]","1","2","","","7706","131","6","3","lose","go","0"
"pit-trial","250","1420136","0.0-136.0","battery-v0.2","","""event"",""trial"",""time""
""fullscreenenter"",""1"",""1891""
","
","
","""event"",""trial"",""time""
""fullscreenenter"",""1"",""1891""
","
","","","755.7000000001863","","","18","7706","3945","u","elianto","#3366ff99"," "," ","1","+10","[1605.7000000001863]","1","2","","","7706","132","9","1","win","go","0"
"pit-trial","251","1423784","0.0-137.0","battery-v0.2","","""event"",""trial"",""time""
""fullscreenenter"",""1"",""1891""
","
","
","""event"",""trial"",""time""
""fullscreenenter"",""1"",""1891""
","
","","","793.6999999992549","","","18","7706","3945","g","elianto","#f73b6a7A"," "," ","1","0","[1644.0999999996275]","1","2","","","7706","133","6","3","lose","go","0"
"pit-trial","252","1427271","0.0-138.0","battery-v0.2","","""event"",""trial"",""time""
""fullscreenenter"",""1"",""1891""
","
","
","""event"",""trial"",""time""
""fullscreenenter"",""1"",""1891""
","
","","","629.0999999996275","","","18","7706","3945","l","elianto","#3366ff99"," "," ","1","+10","[1483.2999999998137]","1","2","","","7706","134","8","1","win","go","0"
"pit-trial","253","1432126","0.0-139.0","battery-v0.2","","""event"",""trial"",""time""
""fullscreenenter"",""1"",""1891""
","
","
","""event"",""trial"",""time""
""fullscreenenter"",""1"",""1891""
","
","","","-1","","","18","7706","3945","a","elianto","#f73b6a7A","-1","-1","1","0","[]","0","2","","","7706","135","7","4","lose","no-go","0"
"pit-trial","254","1435736","0.0-140.0","battery-v0.2","","""event"",""trial"",""time""
""fullscreenenter"",""1"",""1891""
","
","
","""event"",""trial"",""time""
""fullscreenenter"",""1"",""1891""
","
","","","754","","","18","7706","3945","u","elianto","#3366ff99"," "," ","1","+10","[1606]","1","2","","","7706","136","9","1","win","go","0"
"pit-trial","255","1439127","0.0-141.0","battery-v0.2","","""event"",""trial"",""time""
""fullscreenenter"",""1"",""1891""
","
","
","""event"",""trial"",""time""
""fullscreenenter"",""1"",""1891""
","
","","","537.2999999998137","","","18","7706","3945","l","elianto","#3366ff99"," "," ","1","+10","[1387.5]","1","2","","","7706","137","8","1","win","go","0"
"pit-trial","256","1442983","0.0-142.0","battery-v0.2","","""event"",""trial"",""time""
""fullscreenenter"",""1"",""1891""
","
","
","""event"",""trial"",""time""
""fullscreenenter"",""1"",""1891""
","
","","","1001.9000000003725","","","18","7706","3945","g","elianto","#f73b6a7A"," "," ","1","0","[1852.3999999994412]","1","2","","","7706","138","6","3","lose","go","0"
"pit-trial","257","1447837","0.0-143.0","battery-v0.2","","""event"",""trial"",""time""
""fullscreenenter"",""1"",""1891""
","
","
","""event"",""trial"",""time""
""fullscreenenter"",""1"",""1891""
","
","","","-1","","","18","7706","3945","a","elianto","#f73b6a7A","-1","-1","1","0","[]","0","2","","","7706","139","7","4","lose","no-go","0"
"pit-trial","258","1451360","0.0-144.0","battery-v0.2","","""event"",""trial"",""time""
""fullscreenenter"",""1"",""1891""
","
","
","""event"",""trial"",""time""
""fullscreenenter"",""1"",""1891""
","
","","","668.2999999998137","","","18","7706","3945","u","elianto","#3366ff99"," "," ","1","+10","[1518.5]","1","2","","","7706","140","9","1","win","go","0"
"pit-instructions","259","1465287","0.0-145.0","battery-v0.2","","""event"",""trial"",""time""
""fullscreenenter"",""1"",""1891""
","
","
","""event"",""trial"",""time""
""fullscreenenter"",""1"",""1891""
","
","","[{""page_index"":0,""viewing_time"":5761.5},{""page_index"":1,""viewing_time"":8161.9000000003725}]","13923.700000000186","","","","","","","","","","","","","","","","","","","","","","","",""
"pit-trial","260","1470152","0.0-146.0","battery-v0.2","","""event"",""trial"",""time""
""fullscreenenter"",""1"",""1891""
","
","
","""event"",""trial"",""time""
""fullscreenenter"",""1"",""1891""
","
","","","-1","","","18","7706","3945","m","elianto","#f73b6a7A","-1","-1","1","0","[]","0","3","","","7706","141","0","4","lose","no-go","0"
"pit-trial","261","1474003","0.0-147.0","battery-v0.2","","""event"",""trial"",""time""
""fullscreenenter"",""1"",""1891""
","
","
","""event"",""trial"",""time""
""fullscreenenter"",""1"",""1891""
","
","","","977.0999999996275","","","18","7706","3945","r","elianto","#3366ff99"," "," ","1","0","[1835.199999999255]","1","3","","","7706","142","1","1","win","go","1"
"pit-trial","262","1478865","0.0-148.0","battery-v0.2","","""event"",""trial"",""time""
""fullscreenenter"",""1"",""1891""
","
","
","""event"",""trial"",""time""
""fullscreenenter"",""1"",""1891""
","
","","","-1","","","18","7706","3945","y","elianto","#f73b6a7A","-1","-1","1","0","[2864.100000000559]","1","3","","","7706","143","2","4","lose","no-go","0"
"pit-trial","263","1483174","0.0-149.0","battery-v0.2","","""event"",""trial"",""time""
""fullscreenenter"",""1"",""1891""
","
","
","""event"",""trial"",""time""
""fullscreenenter"",""1"",""1891""
","
","","","1454.5","","","18","7706","3945","h","elianto","#f73b6a7A"," "," ","1","0","[2306.5]","1","3","","","7706","144","3","3","lose","go","0"
"pit-trial","264","1486796","0.0-150.0","battery-v0.2","","""event"",""trial"",""time""
""fullscreenenter"",""1"",""1891""
","
","
","""event"",""trial"",""time""
""fullscreenenter"",""1"",""1891""
","
","","","752.0999999996275","","","18","7706","3945","h","elianto","#f73b6a7A"," "," ","1","0","[1605.5999999996275]","1","3","","","7706","145","3","3","lose","go","0"
"pit-trial","265","1490361","0.0-151.0","battery-v0.2","","""event"",""trial"",""time""
""fullscreenenter"",""1"",""1891""
","
","
","""event"",""trial"",""time""
""fullscreenenter"",""1"",""1891""
","
","","","708.5999999996275","","","18","7706","3945","r","elianto","#3366ff99"," "," ","1","+10","[1559.2000000001863]","1","3","","","7706","146","1","1","win","go","0"
"pit-trial","266","1495228","0.0-152.0","battery-v0.2","","""event"",""trial"",""time""
""fullscreenenter"",""1"",""1891""
","
","
","""event"",""trial"",""time""
""fullscreenenter"",""1"",""1891""
","
","","","-1","","","18","7706","3945","y","elianto","#f73b6a7A","-1","-1","1","0","[]","0","3","","","7706","147","2","4","lose","no-go","0"
"pit-trial","267","1499752","0.0-153.0","battery-v0.2","","""event"",""trial"",""time""
""fullscreenenter"",""1"",""1891""
","
","
","""event"",""trial"",""time""
""fullscreenenter"",""1"",""1891""
","
","","","1670","","","18","7706","3945","m","elianto","#f73b6a7A","-1"," ","0","-10","[2521.2999999998137]","1","3","","","7706","148","0","4","lose","no-go","0"
"pit-trial","268","1504606","0.0-154.0","battery-v0.2","","""event"",""trial"",""time""
""fullscreenenter"",""1"",""1891""
","
","
