"trial_type","trial_index","time_elapsed","internal_node_id","task_version","subject_id","interactions","blur_events","focus_events","fullscreenenter_events","fullscreenexit_events","success","view_history","rt","responses","num_errors","age","subject","participantId","rune","rune_set","hex","correct","choice","accuracy","outcome","keys","total_keys","block","practice","value","sub","trial","stimulus","robot","valence","action","sham"
"pavlovia","0","4","0.0-0.0","battery-v0.2","","""event"",""trial"",""time""
""fullscreenenter"",""1"",""2634""
","
","
","""event"",""trial"",""time""
""fullscreenenter"",""1"",""2634""
","
","","","","","","","","","","","","","","","","","","","","","","","","","","",""
"fullscreen","1","3600","0.0-1.0","battery-v0.2","","""event"",""trial"",""time""
""fullscreenenter"",""1"",""2634""
","
","
","""event"",""trial"",""time""
""fullscreenenter"",""1"",""2634""
","
","true","","","","","","","","","","","","","","","","","","","","","","","","","",""
"pit-instructions","2","8631","0.0-2.0-0.0","battery-v0.2","","""event"",""trial"",""time""
""fullscreenenter"",""1"",""2634""
","
","
","""event"",""trial"",""time""
""fullscreenenter"",""1"",""2634""
","
","","[{""page_index"":0,""viewing_time"":5024}]","5025","","","","","","","","","","","","","","","","","","","","","","","",""
"pit-comprehension","3","12515","0.0-2.0-1.0-0.0","battery-v0.2","","""event"",""trial"",""time""
""fullscreenenter"",""1"",""2634""
","
","
","""event"",""trial"",""time""
""fullscreenenter"",""1"",""2634""
","
","","","3844.000000000002","[""shark""]","0","13","3177","1850","","","","","","","","","","","","","","","","","","",""
"pit-instructions","4","14536","0.0-2.0-1.0-1.0","battery-v0.2","","""event"",""trial"",""time""
""fullscreenenter"",""1"",""2634""
","
","
","""event"",""trial"",""time""
""fullscreenenter"",""1"",""2634""
","
","","[{""page_index"":0,""viewing_time"":2013}]","2014.0000000000018","","","","","","","","","","","","","","","","","","","","","","","",""
"pit-comprehension","5","18120","0.0-2.0-2.0-0.0","battery-v0.2","","""event"",""trial"",""time""
""fullscreenenter"",""1"",""2634""
","
","
","""event"",""trial"",""time""
""fullscreenenter"",""1"",""2634""
","
","","","3578","[""tiger""]","0","13","3177","1850","","","","","","","","","","","","","","","","","","",""
"pit-instructions","6","21158","0.0-2.0-2.0-1.0","battery-v0.2","","""event"",""trial"",""time""
""fullscreenenter"",""1"",""2634""
","
","
","""event"",""trial"",""time""
""fullscreenenter"",""1"",""2634""
","
","","[{""page_index"":0,""viewing_time"":3032}]","3032","","","","","","","","","","","","","","","","","","","","","","","",""
"pit-instructions","7","163331","0.0-2.0-3.0","battery-v0.2","","""event"",""trial"",""time""
""fullscreenenter"",""1"",""2634""
","
","
","""event"",""trial"",""time""
""fullscreenenter"",""1"",""2634""
","
","","[{""page_index"":0,""viewing_time"":8069.000000000004},{""page_index"":1,""viewing_time"":8930.999999999996},{""page_index"":2,""viewing_time"":8357},{""page_index"":3,""viewing_time"":5649},{""page_index"":4,""viewing_time"":6519},{""page_index"":5,""viewing_time"":6645.999999999993},{""page_index"":6,""viewing_time"":7732.000000000007},{""page_index"":7,""viewing_time"":6981},{""page_index"":8,""viewing_time"":7546},{""page_index"":9,""viewing_time"":10800},{""page_index"":10,""viewing_time"":11149.000000000015},{""page_index"":11,""viewing_time"":10238.999999999985},{""page_index"":12,""viewing_time"":20811},{""page_index"":13,""viewing_time"":22744}]","142174","","","","","","","","","","","","","","","","","","","","","","","",""
"pit-trial","8","168191","0.0-2.0-4.0-0.0","battery-v0.2","","""event"",""trial"",""time""
""fullscreenenter"",""1"",""2634""
","
","
","""event"",""trial"",""time""
""fullscreenenter"",""1"",""2634""
","
","","","-1","","","13","3177","1850","&#9784;","elianto","#FFFFF080"," ","-1","0","&#10060","[]","0","0","0","","","","","","","",""
"pit-trial","9","173050","0.0-2.0-4.1-0.1","battery-v0.2","","""event"",""trial"",""time""
""fullscreenenter"",""1"",""2634""
","
","
","""event"",""trial"",""time""
""fullscreenenter"",""1"",""2634""
","
","","","-1","","","13","3177","1850","&#9784;","elianto","#FFFFF080"," ","-1","0","&#10060","[]","0","0","0","","","","","","","",""
"pit-trial","10","176186","0.0-2.0-4.2-0.2","battery-v0.2","","""event"",""trial"",""time""
""fullscreenenter"",""1"",""2634""
","
","
","""event"",""trial"",""time""
""fullscreenenter"",""1"",""2634""
","
","","","279","","","13","3177","1850","&#9784;","elianto","#FFFFF080"," "," ","1","&#10004","[1129]","1","0","0","","","","","","","",""
"pit-trial","11","179855","0.0-2.0-4.3-0.3","battery-v0.2","","""event"",""trial"",""time""
""fullscreenenter"",""1"",""2634""
","
","
","""event"",""trial"",""time""
""fullscreenenter"",""1"",""2634""
","
","","","812.0000000000291","","","13","3177","1850","&#9784;","elianto","#FFFFF080"," "," ","1","&#10004","[1663.000000000029]","1","0","0","","","","","","","",""
"pit-trial","12","182956","0.0-2.0-4.4-0.4","battery-v0.2","","""event"",""trial"",""time""
""fullscreenenter"",""1"",""2634""
","
","
","""event"",""trial"",""time""
""fullscreenenter"",""1"",""2634""
","
","","","245","","","13","3177","1850","&#9784;","elianto","#FFFFF080"," "," ","1","&#10004","[1096]","1","0","0","","","","","","","",""
"pit-instructions","13","208946","0.0-2.0-5.0","battery-v0.2","","""event"",""trial"",""time""
""fullscreenenter"",""1"",""2634""
","
","
","""event"",""trial"",""time""
""fullscreenenter"",""1"",""2634""
","
","","[{""page_index"":0,""viewing_time"":4921},{""page_index"":1,""viewing_time"":7822},{""page_index"":2,""viewing_time"":7731.000000000029},{""page_index"":3,""viewing_time"":5508.999999999971}]","25984","","","","","","","","","","","","","","","","","","","","","","","",""
"pit-trial","14","213804","0.0-2.0-6.0-0.0","battery-v0.2","","""event"",""trial"",""time""
""fullscreenenter"",""1"",""2634""
","
","
","""event"",""trial"",""time""
""fullscreenenter"",""1"",""2634""
","
","","","-1","","","13","3177","1850","&#9854;","elianto","#FFFFF080","-1","-1","1","&#10004","[]","0","0","1","","","","","","","",""
"pit-trial","15","218663","0.0-2.0-6.1-0.1","battery-v0.2","","""event"",""trial"",""time""
""fullscreenenter"",""1"",""2634""
","
","
","""event"",""trial"",""time""
""fullscreenenter"",""1"",""2634""
","
","","","-1","","","13","3177","1850","&#9854;","elianto","#FFFFF080","-1","-1","1","&#10004","[]","0","0","1","","","","","","","",""
"pit-trial","16","223521","0.0-2.0-6.2-0.2","battery-v0.2","","""event"",""trial"",""time""
""fullscreenenter"",""1"",""2634""
","
","
","""event"",""trial"",""time""
""fullscreenenter"",""1"",""2634""
","
","","","-1","","","13","3177","1850","&#9854;","elianto","#FFFFF080","-1","-1","1","&#10004","[]","0","0","1","","","","","","","",""
"pit-trial","17","228379","0.0-2.0-6.3-0.3","battery-v0.2","","""event"",""trial"",""time""
""fullscreenenter"",""1"",""2634""
","
","
","""event"",""trial"",""time""
""fullscreenenter"",""1"",""2634""
","
","","","-1","","","13","3177","1850","&#9854;","elianto","#FFFFF080","-1","-1","1","&#10004","[]","0","0","1","","","","","","","",""
"pit-trial","18","233235","0.0-2.0-6.4-0.4","battery-v0.2","","""event"",""trial"",""time""
""fullscreenenter"",""1"",""2634""
","
","
","""event"",""trial"",""time""
""fullscreenenter"",""1"",""2634""
","
","","","-1","","","13","3177","1850","&#9854;","elianto","#FFFFF080","-1","-1","1","&#10004","[]","0","0","1","","","","","","","",""
"pit-instructions","19","493277","0.0-2.0-7.0","battery-v0.2","","""event"",""trial"",""time""
""fullscreenenter"",""1"",""2634""
","
","
","""event"",""trial"",""time""
""fullscreenenter"",""1"",""2634""
","
","","[{""page_index"":0,""viewing_time"":6869},{""page_index"":1,""viewing_time"":8755},{""page_index"":2,""viewing_time"":9364.99999999997},{""page_index"":3,""viewing_time"":87317.00000000003},{""page_index"":4,""viewing_time"":6700.000000000058},{""page_index"":5,""viewing_time"":46948.99999999994},{""page_index"":6,""viewing_time"":7012},{""page_index"":7,""viewing_time"":9317},{""page_index"":8,""viewing_time"":10839},{""page_index"":9,""viewing_time"":5913},{""page_index"":10,""viewing_time"":6684.000000000058},{""page_index"":11,""viewing_time"":6392.999999999942},{""page_index"":12,""viewing_time"":7344},{""page_index"":13,""viewing_time"":8647},{""page_index"":14,""viewing_time"":7269},{""page_index"":15,""viewing_time"":7274},{""page_index"":16,""viewing_time"":7363},{""page_index"":17,""viewing_time"":10036}]","260046","","","","","","","","","","","","","","","","","","","","","","","",""
"pit-trial","20","497239","0.0-2.0-8.0-0.0","battery-v0.2","","""event"",""trial"",""time""
""fullscreenenter"",""1"",""2634""
","
","
","""event"",""trial"",""time""
""fullscreenenter"",""1"",""2634""
","
","","","1105.0000000000582","","","13","3177","1850","&#9776;","elianto","#3366ff99"," "," ","1","+10","[1956.0000000000582]","1","0","1","","","","","","","",""
"pit-trial","21","500300","0.0-2.0-8.0-1.0","battery-v0.2","","""event"",""trial"",""time""
""fullscreenenter"",""1"",""2634""
","
","
","""event"",""trial"",""time""
""fullscreenenter"",""1"",""2634""
","
","","","204","","","13","3177","1850","&#9776;","elianto","#3366ff99"," "," ","1","+10","[1055]","1","0","1","","","","","","","",""
"pit-trial","22","503326","0.0-2.0-8.0-2.0","battery-v0.2","","""event"",""trial"",""time""
""fullscreenenter"",""1"",""2634""
","
","
","""event"",""trial"",""time""
""fullscreenenter"",""1"",""2634""
","
","","","170","","","13","3177","1850","&#9776;","elianto","#3366ff99"," "," ","1","+10","[1021]","1","0","1","","","","","","","",""
"pit-trial","23","506781","0.0-2.0-8.0-3.0","battery-v0.2","","""event"",""trial"",""time""
""fullscreenenter"",""1"",""2634""
","
","
","""event"",""trial"",""time""
""fullscreenenter"",""1"",""2634""
","
","","","597","","","13","3177","1850","&#9776;","elianto","#3366ff99"," "," ","1","0","[1449]","1","0","1","","","","","","","",""
"pit-trial","24","510342","0.0-2.0-8.0-4.0","battery-v0.2","","""event"",""trial"",""time""
""fullscreenenter"",""1"",""2634""
","
","
","""event"",""trial"",""time""
""fullscreenenter"",""1"",""2634""
","
","","","703","","","13","3177","1850","&#9776;","elianto","#3366ff99"," "," ","1","+10","[1554.9999999999418]","1","0","1","","","","","","","",""
"call-function","25","510348","0.0-2.0-9.0","battery-v0.2","","""event"",""trial"",""time""
""fullscreenenter"",""1"",""2634""
","
","
","""event"",""trial"",""time""
""fullscreenenter"",""1"",""2634""
","
","","","","","","","","","","","","","","","","","","","","","","","","","","",""
"pit-instructions","26","551228","0.0-2.0-10.0","battery-v0.2","","""event"",""trial"",""time""
""fullscreenenter"",""1"",""2634""
","
","
","""event"",""trial"",""time""
""fullscreenenter"",""1"",""2634""
","
","","[{""page_index"":0,""viewing_time"":5687},{""page_index"":1,""viewing_time"":7515.999999999942},{""page_index"":2,""viewing_time"":9228},{""page_index"":3,""viewing_time"":9306},{""page_index"":4,""viewing_time"":9142}]","40879.99999999994","","","","","","","","","","","","","","","","","","","","","","","",""
"pit-trial","27","554458","0.0-2.0-11.0-0.0","battery-v0.2","","""event"",""trial"",""time""
""fullscreenenter"",""1"",""2634""
","
","
","""event"",""trial"",""time""
""fullscreenenter"",""1"",""2634""
","
","","","374","","","13","3177","1850","&#9761;","elianto","#3366ff99","-1"," ","0","0","[1225]","1","0","2","","","","","","","",""
"pit-trial","28","557559","0.0-2.0-11.0-1.0","battery-v0.2","","""event"",""trial"",""time""
""fullscreenenter"",""1"",""2634""
","
","
","""event"",""trial"",""time""
""fullscreenenter"",""1"",""2634""
","
","","","245","","","13","3177","1850","&#9761;","elianto","#3366ff99","-1"," ","0","0","[1094.9999999998836]","1","0","2","","","","","","","",""
"pit-trial","29","562416","0.0-2.0-11.0-2.0","battery-v0.2","","""event"",""trial"",""time""
""fullscreenenter"",""1"",""2634""
","
","
","""event"",""trial"",""time""
""fullscreenenter"",""1"",""2634""
","
","","","-1","","","13","3177","1850","&#9761;","elianto","#3366ff99","-1","-1","1","+10","[]","0","0","2","","","","","","","",""
"pit-trial","30","566272","0.0-2.0-11.0-3.0","battery-v0.2","","""event"",""trial"",""time""
""fullscreenenter"",""1"",""2634""
","
","
","""event"",""trial"",""time""
""fullscreenenter"",""1"",""2634""
","
","","","1000","","","13","3177","1850","&#9761;","elianto","#3366ff99","-1"," ","0","+10","[1850]","1","0","2","","","","","","","",""
"pit-trial","31","571130","0.0-2.0-11.0-4.0","battery-v0.2","","""event"",""trial"",""time""
""fullscreenenter"",""1"",""2634""
","
","
","""event"",""trial"",""time""
""fullscreenenter"",""1"",""2634""
","
","","","-1","","","13","3177","1850","&#9761;","elianto","#3366ff99","-1","-1","1","+10","[]","0","0","2","","","","","","","",""
"pit-trial","32","575987","0.0-2.0-11.1-0.1","battery-v0.2","","""event"",""trial"",""time""
""fullscreenenter"",""1"",""2634""
","
","
","""event"",""trial"",""time""
""fullscreenenter"",""1"",""2634""
","
","","","-1","","","13","3177","1850","&#9761;","elianto","#3366ff99","-1","-1","1","+10","[]","0","0","2","","","","","","","",""
"pit-trial","33","580844","0.0-2.0-11.1-1.1","battery-v0.2","","""event"",""trial"",""time""
""fullscreenenter"",""1"",""2634""
","
","
","""event"",""trial"",""time""
""fullscreenenter"",""1"",""2634""
","
","","","-1","","","13","3177","1850","&#9761;","elianto","#3366ff99","-1","-1","1","+10","[]","0","0","2","","","","","","","",""
"pit-trial","34","585701","0.0-2.0-11.1-2.1","battery-v0.2","","""event"",""trial"",""time""
""fullscreenenter"",""1"",""2634""
","
","
","""event"",""trial"",""time""
""fullscreenenter"",""1"",""2634""
","
","","","-1","","","13","3177","1850","&#9761;","elianto","#3366ff99","-1","-1","1","+10","[]","0","0","2","","","","","","","",""
"pit-trial","35","590558","0.0-2.0-11.1-3.1","battery-v0.2","","""event"",""trial"",""time""
""fullscreenenter"",""1"",""2634""
","
","
","""event"",""trial"",""time""
""fullscreenenter"",""1"",""2634""
","
","","","-1","","","13","3177","1850","&#9761;","elianto","#3366ff99","-1","-1","1","0","[]","0","0","2","","","","","","","",""
"pit-trial","36","595414","0.0-2.0-11.1-4.1","battery-v0.2","","""event"",""trial"",""time""
""fullscreenenter"",""1"",""2634""
","
","
","""event"",""trial"",""time""
""fullscreenenter"",""1"",""2634""
","
","","","-1","","","13","3177","1850","&#9761;","elianto","#3366ff99","-1","-1","1","+10","[]","0","0","2","","","","","","","",""
"call-function","37","595417","0.0-2.0-12.0","battery-v0.2","","""event"",""trial"",""time""
""fullscreenenter"",""1"",""2634""
","
","
","""event"",""trial"",""time""
""fullscreenenter"",""1"",""2634""
","
","","","","","","","","","","","","","","","","","","","","","","","","","","",""
"pit-instructions","38","635604","0.0-2.0-13.0","battery-v0.2","","""event"",""trial"",""time""
""fullscreenenter"",""1"",""2634""
","
","
","""event"",""trial"",""time""
""fullscreenenter"",""1"",""2634""
","
","","[{""page_index"":0,""viewing_time"":6664},{""page_index"":1,""viewing_time"":9260},{""page_index"":2,""viewing_time"":7206},{""page_index"":3,""viewing_time"":11585},{""page_index"":4,""viewing_time"":5471}]","40187","","","","","","","","","","","","","","","","","","","","","","","",""
"pit-trial","39","638665","0.0-2.0-14.0-0.0","battery-v0.2","","""event"",""trial"",""time""
""fullscreenenter"",""1"",""2634""
","
","
","""event"",""trial"",""time""
""fullscreenenter"",""1"",""2634""
","
","","","207","","","13","3177","1850","&#9826;","elianto","#f73b6a7A","-1"," ","0","-10","[1058]","1","0","3","","","","","","","",""
"pit-trial","40","643522","0.0-2.0-14.0-1.0","battery-v0.2","","""event"",""trial"",""time""
""fullscreenenter"",""1"",""2634""
","
","
","""event"",""trial"",""time""
""fullscreenenter"",""1"",""2634""
","
","","","-1","","","13","3177","1850","&#9826;","elianto","#f73b6a7A","-1","-1","1","0","[]","0","0","3","","","","","","","",""
"pit-trial","41","648378","0.0-2.0-14.0-2.0","battery-v0.2","","""event"",""trial"",""time""
""fullscreenenter"",""1"",""2634""
","
","
","""event"",""trial"",""time""
""fullscreenenter"",""1"",""2634""
","
","","","-1","","","13","3177","1850","&#9826;","elianto","#f73b6a7A","-1","-1","1","0","[]","0","0","3","","","","","","","",""
"pit-trial","42","653236","0.0-2.0-14.0-3.0","battery-v0.2","","""event"",""trial"",""time""
""fullscreenenter"",""1"",""2634""
","
","
","""event"",""trial"",""time""
""fullscreenenter"",""1"",""2634""
","
","","","-1","","","13","3177","1850","&#9826;","elianto","#f73b6a7A","-1","-1","1","-10","[]","0","0","3","","","","","","","",""
"pit-trial","43","658093","0.0-2.0-14.0-4.0","battery-v0.2","","""event"",""trial"",""time""
""fullscreenenter"",""1"",""2634""
","
","
","""event"",""trial"",""time""
""fullscreenenter"",""1"",""2634""
","
","","","-1","","","13","3177","1850","&#9826;","elianto","#f73b6a7A","-1","-1","1","0","[]","0","0","3","","","","","","","",""
"call-function","44","658097","0.0-2.0-15.0","battery-v0.2","","""event"",""trial"",""time""
""fullscreenenter"",""1"",""2634""
","
","
","""event"",""trial"",""time""
""fullscreenenter"",""1"",""2634""
","
","","","","","","","","","","","","","","","","","","","","","","","","","","",""
"pit-instructions","45","696879","0.0-2.0-16.0","battery-v0.2","","""event"",""trial"",""time""
""fullscreenenter"",""1"",""2634""
","
","
","""event"",""trial"",""time""
""fullscreenenter"",""1"",""2634""
","
","","[{""page_index"":0,""viewing_time"":17066.000000000116},{""page_index"":1,""viewing_time"":10828.999999999884},{""page_index"":2,""viewing_time"":5864},{""page_index"":3,""viewing_time"":5022}]","38782.00000000012","","","","","","","","","","","","","","","","","","","","","","","",""
"pit-trial","46","700480","0.0-2.0-17.0-0.0","battery-v0.2","","""event"",""trial"",""time""
""fullscreenenter"",""1"",""2634""
","
","
","""event"",""trial"",""time""
""fullscreenenter"",""1"",""2634""
","
","","","742","","","13","3177","1850","&#9789;","elianto","#f73b6a7A"," "," ","1","0","[1595]","1","0","4","","","","","","","",""
"pit-trial","47","705336","0.0-2.0-17.0-1.0","battery-v0.2","","""event"",""trial"",""time""
""fullscreenenter"",""1"",""2634""
","
","
","""event"",""trial"",""time""
""fullscreenenter"",""1"",""2634""
","
","","","-1","","","13","3177","1850","&#9789;","elianto","#f73b6a7A"," ","-1","0","-10","[]","0","0","4","","","","","","","",""
"pit-trial","48","710192","0.0-2.0-17.0-2.0","battery-v0.2","","""event"",""trial"",""time""
""fullscreenenter"",""1"",""2634""
","
","
","""event"",""trial"",""time""
""fullscreenenter"",""1"",""2634""
","
","","","-1","","","13","3177","1850","&#9789;","elianto","#f73b6a7A"," ","-1","0","-10","[3188.0000000001164]","1","0","4","","","","","","","",""
"pit-trial","49","713370","0.0-2.0-17.0-3.0","battery-v0.2","","""event"",""trial"",""time""
""fullscreenenter"",""1"",""2634""
","
","
","""event"",""trial"",""time""
""fullscreenenter"",""1"",""2634""
","
","","","321","","","13","3177","1850","&#9789;","elianto","#f73b6a7A"," "," ","1","-10","[1172]","1","0","4","","","","","","","",""
"pit-trial","50","716273","0.0-2.0-17.0-4.0","battery-v0.2","","""event"",""trial"",""time""
""fullscreenenter"",""1"",""2634""
","
","
","""event"",""trial"",""time""
""fullscreenenter"",""1"",""2634""
","
","","","46","","","13","3177","1850","&#9789;","elianto","#f73b6a7A"," "," ","1","0","[897]","1","0","4","","","","","","","",""
"pit-trial","51","719486","0.0-2.0-17.1-0.1","battery-v0.2","","""event"",""trial"",""time""
""fullscreenenter"",""1"",""2634""
","
","
","""event"",""trial"",""time""
""fullscreenenter"",""1"",""2634""
","
","","","356","","","13","3177","1850","&#9789;","elianto","#f73b6a7A"," "," ","1","0","[1207]","1","0","4","","","","","","","",""
"pit-trial","52","722600","0.0-2.0-17.1-1.1","battery-v0.2","","""event"",""trial"",""time""
""fullscreenenter"",""1"",""2634""
","
","
","""event"",""trial"",""time""
""fullscreenenter"",""1"",""2634""
","
","","","258","","","13","3177","1850","&#9789;","elianto","#f73b6a7A"," "," ","1","0","[1108.9999999998836]","1","0","4","","","","","","","",""
"pit-trial","53","725593","0.0-2.0-17.1-2.1","battery-v0.2","","""event"",""trial"",""time""
""fullscreenenter"",""1"",""2634""
","
","
","""event"",""trial"",""time""
""fullscreenenter"",""1"",""2634""
","
","","","138","","","13","3177","1850","&#9789;","elianto","#f73b6a7A"," "," ","1","0","[989]","1","0","4","","","","","","","",""
"pit-trial","54","728707","0.0-2.0-17.1-3.1","battery-v0.2","","""event"",""trial"",""time""
""fullscreenenter"",""1"",""2634""
","
","
","""event"",""trial"",""time""
""fullscreenenter"",""1"",""2634""
","
","","","261","","","13","3177","1850","&#9789;","elianto","#f73b6a7A"," "," ","1","-10","[1111]","1","0","4","","","","","","","",""
"pit-trial","55","731903","0.0-2.0-17.1-4.1","battery-v0.2","","""event"",""trial"",""time""
""fullscreenenter"",""1"",""2634""
","
","
","""event"",""trial"",""time""
""fullscreenenter"",""1"",""2634""
","
","","","342.9999999998836","","","13","3177","1850","&#9789;","elianto","#f73b6a7A"," "," ","1","0","[1193.9999999998836]","1","0","4","","","","","","","",""
"call-function","56","731905","0.0-2.0-18.0","battery-v0.2","","""event"",""trial"",""time""
""fullscreenenter"",""1"",""2634""
","
","
","""event"",""trial"",""time""
""fullscreenenter"",""1"",""2634""
","
","","","","","","","","","","","","","","","","","","","","","","","","","","",""
"pit-instructions","57","833413","0.0-2.0-19.0","battery-v0.2","","""event"",""trial"",""time""
""fullscreenenter"",""1"",""2634""
","
","
","""event"",""trial"",""time""
""fullscreenenter"",""1"",""2634""
","
","","[{""page_index"":0,""viewing_time"":15410},{""page_index"":1,""viewing_time"":20055},{""page_index"":2,""viewing_time"":14915},{""page_index"":3,""viewing_time"":12307},{""page_index"":4,""viewing_time"":9016.000000000116},{""page_index"":5,""viewing_time"":10311.999999999884},{""page_index"":6,""viewing_time"":8751},{""page_index"":7,""viewing_time"":6205},{""page_index"":8,""viewing_time"":4540}]","101512","","","","","","","","","","","","","","","","","","","","","","","",""
"pit-comprehension","58","839229","0.0-2.0-20.0-0.0","battery-v0.2","","""event"",""trial"",""time""
""fullscreenenter"",""1"",""2634""
","
","
","""event"",""trial"",""time""
""fullscreenenter"",""1"",""2634""
","
","","","5811.000000000116","[""SPACE""]","0","13","3177","1850","","","","","","","","","","","","","","","","","","",""
"pit-instructions","59","844608","0.0-2.0-20.0-1.0","battery-v0.2","","""event"",""trial"",""time""
""fullscreenenter"",""1"",""2634""
","
","
","""event"",""trial"",""time""
""fullscreenenter"",""1"",""2634""
","
","","[{""page_index"":0,""viewing_time"":5364}]","5365.000000000116","","","","","","","","","","","","","","","","","","","","","","","",""
"pit-comprehension","60","852432","0.0-2.0-21.0-0.0","battery-v0.2","","""event"",""trial"",""time""
""fullscreenenter"",""1"",""2634""
","
","
","""event"",""trial"",""time""
""fullscreenenter"",""1"",""2634""
","
","","","7816.000000000116","[""10""]","0","13","3177","1850","","","","","","","","","","","","","","","","","","",""
"pit-instructions","61","854642","0.0-2.0-21.0-1.0","battery-v0.2","","""event"",""trial"",""time""
""fullscreenenter"",""1"",""2634""
","
","
","""event"",""trial"",""time""
""fullscreenenter"",""1"",""2634""
","
","","[{""page_index"":0,""viewing_time"":2191.0000000001164}]","2191.0000000001164","","","","","","","","","","","","","","","","","","","","","","","",""
"pit-comprehension","62","861281","0.0-2.0-22.0-0.0","battery-v0.2","","""event"",""trial"",""time""
""fullscreenenter"",""1"",""2634""
","
","
","""event"",""trial"",""time""
""fullscreenenter"",""1"",""2634""
","
","","","6632","[""0""]","0","13","3177","1850","","","","","","","","","","","","","","","","","","",""
"pit-instructions","63","863116","0.0-2.0-22.0-1.0","battery-v0.2","","""event"",""trial"",""time""
""fullscreenenter"",""1"",""2634""
","
","
","""event"",""trial"",""time""
""fullscreenenter"",""1"",""2634""
","
","","[{""page_index"":0,""viewing_time"":1815}]","1816.0000000001164","","","","","","","","","","","","","","","","","","","","","","","",""
"pit-comprehension","64","873232","0.0-2.0-23.0-0.0","battery-v0.2","","""event"",""trial"",""time""
""fullscreenenter"",""1"",""2634""
","
","
","""event"",""trial"",""time""
""fullscreenenter"",""1"",""2634""
","
","","","10109.999999999884","[""True""]","0","13","3177","1850","","","","","","","","","","","","","","","","","","",""
"pit-instructions","65","874926","0.0-2.0-23.0-1.0","battery-v0.2","","""event"",""trial"",""time""
""fullscreenenter"",""1"",""2634""
","
","
","""event"",""trial"",""time""
""fullscreenenter"",""1"",""2634""
","
","","[{""page_index"":0,""viewing_time"":1675}]","1676","","","","","","","","","","","","","","","","","","","","","","","",""
"pit-comprehension","66","882469","0.0-2.0-24.0-0.0","battery-v0.2","","""event"",""trial"",""time""
""fullscreenenter"",""1"",""2634""
","
","
","""event"",""trial"",""time""
""fullscreenenter"",""1"",""2634""
","
","","","7536","[""True""]","0","13","3177","1850","","","","","","","","","","","","","","","","","","",""
"pit-instructions","67","885310","0.0-2.0-24.0-1.0","battery-v0.2","","""event"",""trial"",""time""
""fullscreenenter"",""1"",""2634""
","
","
","""event"",""trial"",""time""
""fullscreenenter"",""1"",""2634""
","
","","[{""page_index"":0,""viewing_time"":2821}]","2822","","","","","","","","","","","","","","","","","","","","","","","",""
"pit-comprehension","68","892530","0.0-2.0-25.0-0.0","battery-v0.2","","""event"",""trial"",""time""
""fullscreenenter"",""1"",""2634""
","
","
","""event"",""trial"",""time""
""fullscreenenter"",""1"",""2634""
","
","","","7214.000000000116","[""True""]","0","13","3177","1850","","","","","","","","","","","","","","","","","","",""
"pit-instructions","69","911240","0.0-2.0-25.0-1.0","battery-v0.2","","""event"",""trial"",""time""
""fullscreenenter"",""1"",""2634""
","
","
","""event"",""trial"",""time""
""fullscreenenter"",""1"",""2634""
","
","","[{""page_index"":0,""viewing_time"":18691.000000000116}]","18692","","","","","","","","","","","","","","","","","","","","","","","",""
"pit-comprehension","70","917345","0.0-2.0-26.0-0.0","battery-v0.2","","""event"",""trial"",""time""
""fullscreenenter"",""1"",""2634""
","
","
","""event"",""trial"",""time""
""fullscreenenter"",""1"",""2634""
","
","","","6097","[""False""]","0","13","3177","1850","","","","","","","","","","","","","","","","","","",""
"pit-instructions","71","918984","0.0-2.0-26.0-1.0","battery-v0.2","","""event"",""trial"",""time""
""fullscreenenter"",""1"",""2634""
","
","
","""event"",""trial"",""time""
""fullscreenenter"",""1"",""2634""
","
","","[{""page_index"":0,""viewing_time"":1618.9999999998836}]","1618.9999999998836","","","","","","","","","","","","","","","","","","","","","","","",""
"pit-instructions","72","952026","0.0-3.0","battery-v0.2","","""event"",""trial"",""time""
""fullscreenenter"",""1"",""2634""
","
","
","""event"",""trial"",""time""
""fullscreenenter"",""1"",""2634""
","
","","[{""page_index"":0,""viewing_time"":5748.999999999884},{""page_index"":1,""viewing_time"":5023},{""page_index"":2,""viewing_time"":22265}]","33037.99999999988","","","","","","","","","","","","","","","","","","","","","","","",""
"pit-trial","73","955094","0.0-4.0","battery-v0.2","","""event"",""trial"",""time""
""fullscreenenter"",""1"",""2634""
","
","
","""event"",""trial"",""time""
""fullscreenenter"",""1"",""2634""
","
","","","209","","","13","3177","1850","&#9752;","elianto","#f73b6a7A"," "," ","1","0","[1060]","1","1","","","3177","1","3","3","lose","go","0"
"pit-trial","74","958283","0.0-5.0","battery-v0.2","","""event"",""trial"",""time""
""fullscreenenter"",""1"",""2634""
","
","
","""event"",""trial"",""time""
""fullscreenenter"",""1"",""2634""
","
","","","330","","","13","3177","1850","&#9728;","elianto","#f73b6a7A","-1"," ","0","-10","[1181]","1","1","","","3177","2","0","4","lose","no-go","0"
"pit-trial","75","962200","0.0-6.0","battery-v0.2","","""event"",""trial"",""time""
""fullscreenenter"",""1"",""2634""
","
","
","""event"",""trial"",""time""
""fullscreenenter"",""1"",""2634""
","
","","","1059","","","13","3177","1850","&#9733;","elianto","#3366ff99","-1"," ","0","0","[1909]","1","1","","","3177","3","2","2","win","no-go","0"
"pit-trial","76","966033","0.0-7.0","battery-v0.2","","""event"",""trial"",""time""
""fullscreenenter"",""1"",""2634""
","
","
","""event"",""trial"",""time""
""fullscreenenter"",""1"",""2634""
","
","","","974","","","13","3177","1850","&#9730;","elianto","#3366ff99"," "," ","1","0","[1825]","1","1","","","3177","4","1","1","win","go","1"
"pit-trial","77","969168","0.0-8.0","battery-v0.2","","""event"",""trial"",""time""
""fullscreenenter"",""1"",""2634""
","
","
","""event"",""trial"",""time""
""fullscreenenter"",""1"",""2634""
","
","","","277","","","13","3177","1850","&#9728;","elianto","#f73b6a7A","-1"," ","0","0","[1128]","1","1","","","3177","5","0","4","lose","no-go","1"
"pit-trial","78","972873","0.0-9.0","battery-v0.2","","""event"",""trial"",""time""
""fullscreenenter"",""1"",""2634""
","
","
","""event"",""trial"",""time""
""fullscreenenter"",""1"",""2634""
","
","","","846","","","13","3177","1850","&#9752;","elianto","#f73b6a7A"," "," ","1","0","[1697]","1","1","","","3177","6","3","3","lose","go","0"
"pit-trial","79","975983","0.0-10.0","battery-v0.2","","""event"",""trial"",""time""
""fullscreenenter"",""1"",""2634""
","
","
","""event"",""trial"",""time""
""fullscreenenter"",""1"",""2634""
","
","","","249","","","13","3177","1850","&#9733;","elianto","#3366ff99","-1"," ","0","0","[1101]","1","1","","","3177","7","2","2","win","no-go","0"
"pit-trial","80","979030","0.0-11.0","battery-v0.2","","""event"",""trial"",""time""
""fullscreenenter"",""1"",""2634""
","
","
","""event"",""trial"",""time""
""fullscreenenter"",""1"",""2634""
","
","","","189","","","13","3177","1850","&#9730;","elianto","#3366ff99"," "," ","1","+10","[1040]","1","1","","","3177","8","1","1","win","go","0"
"pit-trial","81","982125","0.0-12.0","battery-v0.2","","""event"",""trial"",""time""
""fullscreenenter"",""1"",""2634""
","
","
","""event"",""trial"",""time""
""fullscreenenter"",""1"",""2634""
","
","","","236","","","13","3177","1850","&#9730;","elianto","#3366ff99"," "," ","1","+10","[1087]","1","1","","","3177","9","1","1","win","go","0"
"pit-trial","82","985443","0.0-13.0","battery-v0.2","","""event"",""trial"",""time""
""fullscreenenter"",""1"",""2634""
","
","
","""event"",""trial"",""time""
""fullscreenenter"",""1"",""2634""
","
","","","459","","","13","3177","1850","&#9752;","elianto","#f73b6a7A"," "," ","1","0","[146.00000000011642,1311]","2","1","","","3177","10","3","3","lose","go","0"
"pit-trial","83","988921","0.0-14.0","battery-v0.2","","""event"",""trial"",""time""
""fullscreenenter"",""1"",""2634""
","
","
","""event"",""trial"",""time""
""fullscreenenter"",""1"",""2634""
","
","","","618.9999999998836","","","13","3177","1850","&#9733;","elianto","#3366ff99","-1"," ","0","0","[1469.9999999998836]","1","1","","","3177","11","2","2","win","no-go","0"
"pit-trial","84","992030","0.0-15.0","battery-v0.2","","""event"",""trial"",""time""
""fullscreenenter"",""1"",""2634""
","
","
","""event"",""trial"",""time""
""fullscreenenter"",""1"",""2634""
","
","","","251","","","13","3177","1850","&#9728;","elianto","#f73b6a7A","-1"," ","0","-10","[1102]","1","1","","","3177","12","0","4","lose","no-go","0"
"pit-trial","85","995055","0.0-16.0","battery-v0.2","","""event"",""trial"",""time""
""fullscreenenter"",""1"",""2634""
","
","
","""event"",""trial"",""time""
""fullscreenenter"",""1"",""2634""
","
","","","167","","","13","3177","1850","&#9733;","elianto","#3366ff99","-1"," ","0","0","[1018]","1","1","","","3177","13","2","2","win","no-go","0"
"pit-trial","86","998275","0.0-17.0","battery-v0.2","","""event"",""trial"",""time""
""fullscreenenter"",""1"",""2634""
","
","
","""event"",""trial"",""time""
""fullscreenenter"",""1"",""2634""
","
","","","358","","","13","3177","1850","&#9730;","elianto","#3366ff99"," "," ","1","0","[1208]","1","1","","","3177","14","1","1","win","go","1"
"pit-trial","87","1001388","0.0-18.0","battery-v0.2","","""event"",""trial"",""time""
""fullscreenenter"",""1"",""2634""
","
","
","""event"",""trial"",""time""
""fullscreenenter"",""1"",""2634""
","
","","","254","","","13","3177","1850","&#9728;","elianto","#f73b6a7A","-1"," ","0","-10","[1103.0000000001164]","1","1","","","3177","15","0","4","lose","no-go","0"
"pit-trial","88","1004454","0.0-19.0","battery-v0.2","","""event"",""trial"",""time""
""fullscreenenter"",""1"",""2634""
","
","
","""event"",""trial"",""time""
""fullscreenenter"",""1"",""2634""
","
","","","207","","","13","3177","1850","&#9752;","elianto","#f73b6a7A"," "," ","1","0","[1058]","1","1","","","3177","16","3","3","lose","go","0"
"pit-trial","89","1007714","0.0-20.0","battery-v0.2","","""event"",""trial"",""time""
""fullscreenenter"",""1"",""2634""
","
","
","""event"",""trial"",""time""
""fullscreenenter"",""1"",""2634""
","
","","","401.0000000001164","","","13","3177","1850","&#9728;","elianto","#f73b6a7A","-1"," ","0","-10","[1251]","1","1","","","3177","17","0","4","lose","no-go","0"
"pit-trial","90","1010666","0.0-21.0","battery-v0.2","","""event"",""trial"",""time""
""fullscreenenter"",""1"",""2634""
","
","
","""event"",""trial"",""time""
""fullscreenenter"",""1"",""2634""
","
","","","93","","","13","3177","1850","&#9730;","elianto","#3366ff99"," "," ","1","+10","[943]","1","1","","","3177","18","1","1","win","go","0"
"pit-trial","91","1014132","0.0-22.0","battery-v0.2","","""event"",""trial"",""time""
""fullscreenenter"",""1"",""2634""
","
","
","""event"",""trial"",""time""
""fullscreenenter"",""1"",""2634""
","
","","","608","","","13","3177","1850","&#9733;","elianto","#3366ff99","-1"," ","0","0","[1458]","1","1","","","3177","19","2","2","win","no-go","0"
"pit-trial","92","1017554","0.0-23.0","battery-v0.2","","""event"",""trial"",""time""
""fullscreenenter"",""1"",""2634""
","
","
","""event"",""trial"",""time""
""fullscreenenter"",""1"",""2634""
","
","","","565","","","13","3177","1850","&#9752;","elianto","#f73b6a7A"," "," ","1","0","[1416]","1","1","","","3177","20","3","3","lose","go","0"
"pit-instructions","93","1090353","0.0-24.0","battery-v0.2","","""event"",""trial"",""time""
""fullscreenenter"",""1"",""2634""
","
","
","""event"",""trial"",""time""
""fullscreenenter"",""1"",""2634""
","
","","[{""page_index"":0,""viewing_time"":23538},{""page_index"":1,""viewing_time"":49257}]","72796","","","","","","","","","","","","","","","","","","","","","","","",""
"pit-trial","94","1093621","0.0-25.0","battery-v0.2","","""event"",""trial"",""time""
""fullscreenenter"",""1"",""2634""
","
","
","""event"",""trial"",""time""
""fullscreenenter"",""1"",""2634""
","
","","","409.00000000023283","","","13","3177","1850","m","elianto","#f73b6a7A","-1"," ","0","-10","[1261.0000000002328]","1","2","","","3177","21","0","4","lose","no-go","0"
"pit-trial","95","1096858","0.0-26.0","battery-v0.2","","""event"",""trial"",""time""
""fullscreenenter"",""1"",""2634""
","
","
","""event"",""trial"",""time""
""fullscreenenter"",""1"",""2634""
","
","","","378","","","13","3177","1850","r","elianto","#3366ff99"," "," ","1","+10","[1228]","1","2","","","3177","22","1","1","win","go","0"
"pit-trial","96","1099937","0.0-27.0","battery-v0.2","","""event"",""trial"",""time""
""fullscreenenter"",""1"",""2634""
","
","
","""event"",""trial"",""time""
""fullscreenenter"",""1"",""2634""
","
","","","221","","","13","3177","1850","y","elianto","#f73b6a7A","-1"," ","0","-10","[1071]","1","2","","","3177","23","2","4","lose","no-go","0"
"pit-trial","97","1103624","0.0-28.0","battery-v0.2","","""event"",""trial"",""time""
""fullscreenenter"",""1"",""2634""
","
","
","""event"",""trial"",""time""
""fullscreenenter"",""1"",""2634""
","
","","","828","","","13","3177","1850","h","elianto","#f73b6a7A"," "," ","1","0","[1679]","1","2","","","3177","24","3","3","lose","go","0"
"pit-trial","98","1106984","0.0-29.0","battery-v0.2","","""event"",""trial"",""time""
""fullscreenenter"",""1"",""2634""
","
","
","""event"",""trial"",""time""
""fullscreenenter"",""1"",""2634""
","
","","","501","","","13","3177","1850","r","elianto","#3366ff99"," "," ","1","+10","[1350]","1","2","","","3177","25","1","1","win","go","0"
"pit-trial","99","1110093","0.0-30.0","battery-v0.2","","""event"",""trial"",""time""
""fullscreenenter"",""1"",""2634""
","
","
","""event"",""trial"",""time""
""fullscreenenter"",""1"",""2634""
","
","","","251.99999999976717","","","13","3177","1850","y","elianto","#f73b6a7A","-1"," ","0","-10","[1103]","1","2","","","3177","26","2","4","lose","no-go","0"
"pit-trial","100","1113620","0.0-31.0","battery-v0.2","","""event"",""trial"",""time""
""fullscreenenter"",""1"",""2634""
","
","
","""event"",""trial"",""time""
""fullscreenenter"",""1"",""2634""
","
","","","669.0000000002328","","","13","3177","1850","h","elianto","#f73b6a7A"," "," ","1","0","[1519]","1","2","","","3177","27","3","3","lose","go","0"
"pit-trial","101","1116927","0.0-32.0","battery-v0.2","","""event"",""trial"",""time""
""fullscreenenter"",""1"",""2634""
","
","
","""event"",""trial"",""time""
""fullscreenenter"",""1"",""2634""
","
","","","449","","","13","3177","1850","m","elianto","#f73b6a7A","-1"," ","0","-10","[1299]","1","2","","","3177","28","0","4","lose","no-go","0"
"pit-trial","102","1121786","0.0-33.0","battery-v0.2","","""event"",""trial"",""time""
""fullscreenenter"",""1"",""2634""
","
","
","""event"",""trial"",""time""
""fullscreenenter"",""1"",""2634""
","
","","","-1","","","13","3177","1850","y","elianto","#f73b6a7A","-1","-1","1","-10","[]","0","2","","","3177","29","2","4","lose","no-go","1"
"pit-trial","103","1124822","0.0-34.0","battery-v0.2","","""event"",""trial"",""time""
""fullscreenenter"",""1"",""2634""
","
","
","""event"",""trial"",""time""
""fullscreenenter"",""1"",""2634""
","
","","","176","","","13","3177","1850","r","elianto","#3366ff99"," "," ","1","+10","[1027]","1","2","","","3177","30","1","1","win","go","0"
"pit-trial","104","1128106","0.0-35.0","battery-v0.2","","""event"",""trial"",""time""
""fullscreenenter"",""1"",""2634""
","
","
","""event"",""trial"",""time""
""fullscreenenter"",""1"",""2634""
","
","","","427","","","13","3177","1850","m","elianto","#f73b6a7A","-1"," ","0","-10","[1278]","1","2","","","3177","31","0","4","lose","no-go","0"
"pit-trial","105","1131991","0.0-36.0","battery-v0.2","","""event"",""trial"",""time""
""fullscreenenter"",""1"",""2634""
","
","
","""event"",""trial"",""time""
""fullscreenenter"",""1"",""2634""
","
","","","1025.9999999997672","","","13","3177","1850","h","elianto","#f73b6a7A"," "," ","1","0","[1877]","1","2","","","3177","32","3","3","lose","go","0"
"pit-trial","106","1135261","0.0-37.0","battery-v0.2","","""event"",""trial"",""time""
""fullscreenenter"",""1"",""2634""
","
","
","""event"",""trial"",""time""
""fullscreenenter"",""1"",""2634""
","
","","","413","","","13","3177","1850","r","elianto","#3366ff99"," "," ","1","+10","[1262]","1","2","","","3177","33","1","1","win","go","0"
"pit-trial","107","1138703","0.0-38.0","battery-v0.2","","""event"",""trial"",""time""
""fullscreenenter"",""1"",""2634""
","
","
","""event"",""trial"",""time""
""fullscreenenter"",""1"",""2634""
","
","","","584","","","13","3177","1850","h","elianto","#f73b6a7A"," "," ","1","0","[1435]","1","2","","","3177","34","3","3","lose","go","0"
"pit-trial","108","1142391","0.0-39.0","battery-v0.2","","""event"",""trial"",""time""
""fullscreenenter"",""1"",""2634""
","
","
","""event"",""trial"",""time""
""fullscreenenter"",""1"",""2634""
","
","","","830","","","13","3177","1850","y","elianto","#f73b6a7A","-1"," ","0","0","[1681]","1","2","","","3177","35","2","4","lose","no-go","1"
"pit-trial","109","1147251","0.0-40.0","battery-v0.2","","""event"",""trial"",""time""
""fullscreenenter"",""1"",""2634""
","
","
","""event"",""trial"",""time""
""fullscreenenter"",""1"",""2634""
","
","","","-1","","","13","3177","1850","m","elianto","#f73b6a7A","-1","-1","1","0","[]","0","2","","","3177","36","0","4","lose","no-go","0"
"pit-trial","110","1152110","0.0-41.0","battery-v0.2","","""event"",""trial"",""time""
""fullscreenenter"",""1"",""2634""
","
","
","""event"",""trial"",""time""
""fullscreenenter"",""1"",""2634""
","
","","","-1","","","13","3177","1850","m","elianto","#f73b6a7A","-1","-1","1","0","[]","0","2","","","3177","37","0","4","lose","no-go","0"
"pit-trial","111","1155535","0.0-42.0","battery-v0.2","","""event"",""trial"",""time""
""fullscreenenter"",""1"",""2634""
","
","
","""event"",""trial"",""time""
""fullscreenenter"",""1"",""2634""
","
","","","565","","","13","3177","1850","r","elianto","#3366ff99"," "," ","1","+10","[1415]","1","2","","","3177","38","1","1","win","go","0"
"pit-trial","112","1158756","0.0-43.0","battery-v0.2","","""event"",""trial"",""time""
""fullscreenenter"",""1"",""2634""
","
","
","""event"",""trial"",""time""
""fullscreenenter"",""1"",""2634""
","
","","","361","","","13","3177","1850","y","elianto","#f73b6a7A","-1"," ","0","-10","[1212]","1","2","","","3177","39","2","4","lose","no-go","0"
"pit-trial","113","1162419","0.0-44.0","battery-v0.2","","""event"",""trial"",""time""
""fullscreenenter"",""1"",""2634""
","
","
","""event"",""trial"",""time""
""fullscreenenter"",""1"",""2634""
","
","","","802","","","13","3177","1850","h","elianto","#f73b6a7A"," "," ","1","-10","[1654]","1","2","","","3177","40","3","3","lose","go","1"
"pit-trial","114","1167277","0.0-45.0","battery-v0.2","","""event"",""trial"",""time""
""fullscreenenter"",""1"",""2634""
","
","
","""event"",""trial"",""time""
""fullscreenenter"",""1"",""2634""
","
","","","-1","","","13","3177","1850","h","elianto","#f73b6a7A"," ","-1","0","-10","[]","0","2","","","3177","41","3","3","lose","go","0"
"pit-trial","115","1170603","0.0-46.0","battery-v0.2","","""event"",""trial"",""time""
""fullscreenenter"",""1"",""2634""
","
","
","""event"",""trial"",""time""
""fullscreenenter"",""1"",""2634""
","
","","","466","","","13","3177","1850","y","elianto","#f73b6a7A","-1"," ","0","-10","[1317]","1","2","","","3177","42","2","4","lose","no-go","0"
"pit-trial","116","1173887","0.0-47.0","battery-v0.2","","""event"",""trial"",""time""
""fullscreenenter"",""1"",""2634""
","
","
","""event"",""trial"",""time""
""fullscreenenter"",""1"",""2634""
","
","","","425","","","13","3177","1850","m","elianto","#f73b6a7A","-1"," ","0","-10","[1276]","1","2","","","3177","43","0","4","lose","no-go","0"
"pit-trial","117","1177361","0.0-48.0","battery-v0.2","","""event"",""trial"",""time""
""fullscreenenter"",""1"",""2634""
","
","
","""event"",""trial"",""time""
""fullscreenenter"",""1"",""2634""
","
","","","615","","","13","3177","1850","r","elianto","#3366ff99"," "," ","1","+10","[1466]","1","2","","","3177","44","1","1","win","go","0"
"pit-trial","118","1181689","0.0-49.0","battery-v0.2","","""event"",""trial"",""time""
""fullscreenenter"",""1"",""2634""
","
","
","""event"",""trial"",""time""
""fullscreenenter"",""1"",""2634""
","
","","","1470","","","13","3177","1850","y","elianto","#f73b6a7A","-1"," ","0","-10","[2320]","1","2","","","3177","45","2","4","lose","no-go","0"
"pit-trial","119","1185352","0.0-50.0","battery-v0.2","","""event"",""trial"",""time""
""fullscreenenter"",""1"",""2634""
","
","
","""event"",""trial"",""time""
""fullscreenenter"",""1"",""2634""
","
","","","804","","","13","3177","1850","z","elianto","#3366ff99","-1"," ","0","0","[1657]","1","2","","","3177","46","4","2","win","no-go","0"
"pit-trial","120","1189053","0.0-51.0","battery-v0.2","","""event"",""trial"",""time""
""fullscreenenter"",""1"",""2634""
","
","
","""event"",""trial"",""time""
""fullscreenenter"",""1"",""2634""
","
","","","841","","","13","3177","1850","h","elianto","#f73b6a7A"," "," ","1","-10","[1692]","1","2","","","3177","47","3","3","lose","go","1"
"pit-trial","121","1193912","0.0-52.0","battery-v0.2","","""event"",""trial"",""time""
""fullscreenenter"",""1"",""2634""
","
","
","""event"",""trial"",""time""
""fullscreenenter"",""1"",""2634""
","
","","","-1","","","13","3177","1850","m","elianto","#f73b6a7A","-1","-1","1","0","[]","0","2","","","3177","48","0","4","lose","no-go","0"
"pit-trial","122","1198771","0.0-53.0","battery-v0.2","","""event"",""trial"",""time""
""fullscreenenter"",""1"",""2634""
","
","
","""event"",""trial"",""time""
""fullscreenenter"",""1"",""2634""
","
","","","-1","","","13","3177","1850","m","elianto","#f73b6a7A","-1","-1","1","0","[]","0","2","","","3177","49","0","4","lose","no-go","0"
"pit-trial","123","1202795","0.0-54.0","battery-v0.2","","""event"",""trial"",""time""
""fullscreenenter"",""1"",""2634""
","
","
","""event"",""trial"",""time""
""fullscreenenter"",""1"",""2634""
","
","","","1167","","","13","3177","1850","h","elianto","#f73b6a7A"," "," ","1","0","[2017]","1","2","","","3177","50","3","3","lose","go","0"
"pit-trial","124","1206346","0.0-55.0","battery-v0.2","","""event"",""trial"",""time""
""fullscreenenter"",""1"",""2634""
","
","
","""event"",""trial"",""time""
""fullscreenenter"",""1"",""2634""
","
","","","692","","","13","3177","1850","z","elianto","#3366ff99","-1"," ","0","0","[1542]","1","2","","","3177","51","4","2","win","no-go","0"
"pit-trial","125","1210070","0.0-56.0","battery-v0.2","","""event"",""trial"",""time""
""fullscreenenter"",""1"",""2634""
","
","
","""event"",""trial"",""time""
""fullscreenenter"",""1"",""2634""
","
","","","865","","","13","3177","1850","r","elianto","#3366ff99"," "," ","1","+10","[1715]","1","2","","","3177","52","1","1","win","go","0"
"pit-trial","126","1213440","0.0-57.0","battery-v0.2","","""event"",""trial"",""time""
""fullscreenenter"",""1"",""2634""
","
","
","""event"",""trial"",""time""
""fullscreenenter"",""1"",""2634""
","
","","","514","","","13","3177","1850","r","elianto","#3366ff99"," "," ","1","+10","[211,1365]","2","2","","","3177","53","1","1","win","go","0"
"pit-trial","127","1216663","0.0-58.0","battery-v0.2","","""event"",""trial"",""time""
""fullscreenenter"",""1"",""2634""
","
","
","""event"",""trial"",""time""
""fullscreenenter"",""1"",""2634""
","
","","","363.99999999976717","","","13","3177","1850","y","elianto","#f73b6a7A","-1"," ","0","-10","[1214]","1","2","","","3177","54","2","4","lose","no-go","0"
"pit-trial","128","1220025","0.0-59.0","battery-v0.2","","""event"",""trial"",""time""
""fullscreenenter"",""1"",""2634""
","
","
","""event"",""trial"",""time""
""fullscreenenter"",""1"",""2634""
","
","","","503","","","13","3177","1850","z","elianto","#3366ff99","-1"," ","0","0","[1354]","1","2","","","3177","55","4","2","win","no-go","0"
"pit-trial","129","1223960","0.0-60.0","battery-v0.2","","""event"",""trial"",""time""
""fullscreenenter"",""1"",""2634""
","
","
","""event"",""trial"",""time""
""fullscreenenter"",""1"",""2634""
","
","","","1077","","","13","3177","1850","m","elianto","#f73b6a7A","-1"," ","0","0","[1927]","1","2","","","3177","56","0","4","lose","no-go","1"
"pit-trial","130","1228055","0.0-61.0","battery-v0.2","","""event"",""trial"",""time""
""fullscreenenter"",""1"",""2634""
","
","
","""event"",""trial"",""time""
""fullscreenenter"",""1"",""2634""
","
","","","1238","","","13","3177","1850","m","elianto","#f73b6a7A","-1"," ","0","-10","[2088]","1","2","","","3177","57","0","4","lose","no-go","0"
"pit-trial","131","1231952","0.0-62.0","battery-v0.2","","""event"",""trial"",""time""
""fullscreenenter"",""1"",""2634""
","
","
","""event"",""trial"",""time""
""fullscreenenter"",""1"",""2634""
","
","","","1040.0000000002328","","","13","3177","1850","h","elianto","#f73b6a7A"," "," ","1","0","[1890.0000000002328]","1","2","","","3177","58","3","3","lose","go","0"
"pit-trial","132","1235693","0.0-63.0","battery-v0.2","","""event"",""trial"",""time""
""fullscreenenter"",""1"",""2634""
","
","
","""event"",""trial"",""time""
""fullscreenenter"",""1"",""2634""
","
","","","883","","","13","3177","1850","z","elianto","#3366ff99","-1"," ","0","0","[1734]","1","2","","","3177","59","4","2","win","no-go","0"
"pit-trial","133","1239082","0.0-64.0","battery-v0.2","","""event"",""trial"",""time""
""fullscreenenter"",""1"",""2634""
","
","
","""event"",""trial"",""time""
""fullscreenenter"",""1"",""2634""
","
","","","532","","","13","3177","1850","r","elianto","#3366ff99"," "," ","1","+10","[1382]","1","2","","","3177","60","1","1","win","go","0"
"pit-trial","134","1243205","0.0-65.0","battery-v0.2","","""event"",""trial"",""time""
""fullscreenenter"",""1"",""2634""
","
","
","""event"",""trial"",""time""
""fullscreenenter"",""1"",""2634""
","
","","","1264","","","13","3177","1850","y","elianto","#f73b6a7A","-1"," ","0","0","[2115]","1","2","","","3177","61","2","4","lose","no-go","1"
"pit-trial","135","1246891","0.0-66.0","battery-v0.2","","""event"",""trial"",""time""
""fullscreenenter"",""1"",""2634""
","
","
","""event"",""trial"",""time""
""fullscreenenter"",""1"",""2634""
","
","","","826","","","13","3177","1850","z","elianto","#3366ff99","-1"," ","0","0","[1678]","1","2","","","3177","62","4","2","win","no-go","0"
"pit-trial","136","1250905","0.0-67.0","battery-v0.2","","""event"",""trial"",""time""
""fullscreenenter"",""1"",""2634""
","
","
","""event"",""trial"",""time""
""fullscreenenter"",""1"",""2634""
","
","","","1157","","","13","3177","1850","r","elianto","#3366ff99"," "," ","1","+10","[2007]","1","2","","","3177","63","1","1","win","go","0"
"pit-trial","137","1254859","0.0-68.0","battery-v0.2","","""event"",""trial"",""time""
""fullscreenenter"",""1"",""2634""
","
","
","""event"",""trial"",""time""
""fullscreenenter"",""1"",""2634""
","
","","","1098","","","13","3177","1850","h","elianto","#f73b6a7A"," "," ","1","-10","[1949]","1","2","","","3177","64","3","3","lose","go","1"
"pit-trial","138","1259718","0.0-69.0","battery-v0.2","","""event"",""trial"",""time""
""fullscreenenter"",""1"",""2634""
","
","
","""event"",""trial"",""time""
""fullscreenenter"",""1"",""2634""
","
","","","-1","","","13","3177","1850","h","elianto","#f73b6a7A"," ","-1","0","-10","[]","0","2","","","3177","65","3","3","lose","go","0"
"pit-trial","139","1262938","0.0-70.0","battery-v0.2","","""event"",""trial"",""time""
""fullscreenenter"",""1"",""2634""
","
","
","""event"",""trial"",""time""
""fullscreenenter"",""1"",""2634""
","
","","","361.99999999976717","","","13","3177","1850","z","elianto","#3366ff99","-1"," ","0","0","[1213]","1","2","","","3177","66","4","2","win","no-go","0"
"pit-trial","140","1267201","0.0-71.0","battery-v0.2","","""event"",""trial"",""time""
""fullscreenenter"",""1"",""2634""
","
","
","""event"",""trial"",""time""
""fullscreenenter"",""1"",""2634""
","
","","","1403.0000000002328","","","13","3177","1850","y","elianto","#f73b6a7A","-1"," ","0","0","[2255.000000000233]","1","2","","","3177","67","2","4","lose","no-go","1"
"pit-trial","141","1270980","0.0-72.0","battery-v0.2","","""event"",""trial"",""time""
""fullscreenenter"",""1"",""2634""
","
","
","""event"",""trial"",""time""
""fullscreenenter"",""1"",""2634""
","
","","","921","","","13","3177","1850","r","elianto","#3366ff99"," "," ","1","+10","[1772]","1","2","","","3177","68","1","1","win","go","0"
"pit-trial","142","1274354","0.0-73.0","battery-v0.2","","""event"",""trial"",""time""
""fullscreenenter"",""1"",""2634""
","
","
","""event"",""trial"",""time""
""fullscreenenter"",""1"",""2634""
","
","","","516","","","13","3177","1850","r","elianto","#3366ff99"," "," ","1","+10","[1366.0000000002328]","1","2","","","3177","69","1","1","win","go","0"
"pit-trial","143","1277454","0.0-74.0","battery-v0.2","","""event"",""trial"",""time""
""fullscreenenter"",""1"",""2634""
","
","
","""event"",""trial"",""time""
""fullscreenenter"",""1"",""2634""
","
","","","241","","","13","3177","1850","c","elianto","#3366ff99"," "," ","1","+10","[1092]","1","2","","","3177","70","5","1","win","go","0"
"pit-trial","144","1280526","0.0-75.0","battery-v0.2","","""event"",""trial"",""time""
""fullscreenenter"",""1"",""2634""
","
","
","""event"",""trial"",""time""
""fullscreenenter"",""1"",""2634""
","
","","","213","","","13","3177","1850","z","elianto","#3366ff99","-1"," ","0","0","[1064]","1","2","","","3177","71","4","2","win","no-go","0"
"pit-trial","145","1284003","0.0-76.0","battery-v0.2","","""event"",""trial"",""time""
""fullscreenenter"",""1"",""2634""
","
","
","""event"",""trial"",""time""
""fullscreenenter"",""1"",""2634""
","
","","","621","","","13","3177","1850","h","elianto","#f73b6a7A"," "," ","1","0","[1471]","1","2","","","3177","72","3","3","lose","go","0"
"pit-trial","146","1287476","0.0-77.0","battery-v0.2","","""event"",""trial"",""time""
""fullscreenenter"",""1"",""2634""
","
","
","""event"",""trial"",""time""
""fullscreenenter"",""1"",""2634""
","
","","","614","","","13","3177","1850","r","elianto","#3366ff99"," "," ","1","+10","[1465]","1","2","","","3177","73","1","1","win","go","0"
"pit-trial","147","1292335","0.0-78.0","battery-v0.2","","""event"",""trial"",""time""
""fullscreenenter"",""1"",""2634""
","
","
","""event"",""trial"",""time""
""fullscreenenter"",""1"",""2634""
","
","","","-1","","","13","3177","1850","c","elianto","#3366ff99"," ","-1","0","0","[]","0","2","","","3177","74","5","1","win","go","0"
"pit-trial","148","1295677","0.0-79.0","battery-v0.2","","""event"",""trial"",""time""
""fullscreenenter"",""1"",""2634""
","
","
","""event"",""trial"",""time""
""fullscreenenter"",""1"",""2634""
","
","","","483","","","13","3177","1850","z","elianto","#3366ff99","-1"," ","0","0","[1334]","1","2","","","3177","75","4","2","win","no-go","0"
"pit-trial","149","1300535","0.0-80.0","battery-v0.2","","""event"",""trial"",""time""
""fullscreenenter"",""1"",""2634""
","
","
","""event"",""trial"",""time""
""fullscreenenter"",""1"",""2634""
","
","","","-1","","","13","3177","1850","h","elianto","#f73b6a7A"," ","-1","0","-10","[2911]","1","2","","","3177","76","3","3","lose","go","0"
"pit-trial","150","1304753","0.0-81.0","battery-v0.2","","""event"",""trial"",""time""
""fullscreenenter"",""1"",""2634""
","
","
","""event"",""trial"",""time""
""fullscreenenter"",""1"",""2634""
","
","","","1360","","","13","3177","1850","c","elianto","#3366ff99"," "," ","1","+10","[2211]","1","2","","","3177","77","5","1","win","go","0"
"pit-trial","151","1309049","0.0-82.0","battery-v0.2","","""event"",""trial"",""time""
""fullscreenenter"",""1"",""2634""
","
","
","""event"",""trial"",""time""
""fullscreenenter"",""1"",""2634""
","
","","","1433","","","13","3177","1850","b","elianto","#f73b6a7A","-1"," ","0","-10","[2286]","1","2","","","3177","78","6","4","lose","no-go","0"
"pit-trial","152","1313908","0.0-83.0","battery-v0.2","","""event"",""trial"",""time""
""fullscreenenter"",""1"",""2634""
","
","
","""event"",""trial"",""time""
""fullscreenenter"",""1"",""2634""
","
","","","-1","","","13","3177","1850","z","elianto","#3366ff99","-1","-1","1","+10","[]","0","2","","","3177","79","4","2","win","no-go","0"
"pit-trial","153","1318092","0.0-84.0","battery-v0.2","","""event"",""trial"",""time""
""fullscreenenter"",""1"",""2634""
","
","
","""event"",""trial"",""time""
""fullscreenenter"",""1"",""2634""
","
","","","1324.9999999997672","","","13","3177","1850","h","elianto","#f73b6a7A"," "," ","1","0","[2175]","1","2","","","3177","80","3","3","lose","go","0"
"pit-trial","154","1322590","0.0-85.0","battery-v0.2","","""event"",""trial"",""time""
""fullscreenenter"",""1"",""2634""
","
","
","""event"",""trial"",""time""
""fullscreenenter"",""1"",""2634""
","
","","","1639","","","13","3177","1850","c","elianto","#3366ff99"," "," ","1","+10","[2490]","1","2","","","3177","81","5","1","win","go","0"
"pit-trial","155","1327449","0.0-86.0","battery-v0.2","","""event"",""trial"",""time""
""fullscreenenter"",""1"",""2634""
","
","
","""event"",""trial"",""time""
""fullscreenenter"",""1"",""2634""
","
","","","-1","","","13","3177","1850","z","elianto","#3366ff99","-1","-1","1","+10","[]","0","2","","","3177","82","4","2","win","no-go","0"
"pit-trial","156","1330913","0.0-87.0","battery-v0.2","","""event"",""trial"",""time""
""fullscreenenter"",""1"",""2634""
","
","
","""event"",""trial"",""time""
""fullscreenenter"",""1"",""2634""
","
","","","605","","","13","3177","1850","t","elianto","#f73b6a7A"," "," ","1","-10","[1456]","1","2","","","3177","83","7","3","lose","go","1"
"pit-trial","157","1334854","0.0-88.0","battery-v0.2","","""event"",""trial"",""time""
""fullscreenenter"",""1"",""2634""
","
","
","""event"",""trial"",""time""
""fullscreenenter"",""1"",""2634""
","
","","","1083","","","13","3177","1850","b","elianto","#f73b6a7A","-1"," ","0","-10","[1933]","1","2","","","3177","84","6","4","lose","no-go","0"
"pit-trial","158","1338967","0.0-89.0","battery-v0.2","","""event"",""trial"",""time""
""fullscreenenter"",""1"",""2634""
","
","
","""event"",""trial"",""time""
""fullscreenenter"",""1"",""2634""
","
","","","1255.0000000002328","","","13","3177","1850","z","elianto","#3366ff99","-1"," ","0","0","[2106]","1","2","","","3177","85","4","2","win","no-go","0"
"pit-trial","159","1343826","0.0-90.0","battery-v0.2","","""event"",""trial"",""time""
""fullscreenenter"",""1"",""2634""
","
","
","""event"",""trial"",""time""
""fullscreenenter"",""1"",""2634""
","
","","","-1","","","13","3177","1850","c","elianto","#3366ff99"," ","-1","0","0","[2970]","1","2","","","3177","86","5","1","win","go","0"
"pit-trial","160","1348684","0.0-91.0","battery-v0.2","","""event"",""trial"",""time""
""fullscreenenter"",""1"",""2634""
","
","
","""event"",""trial"",""time""
""fullscreenenter"",""1"",""2634""
","
","","","-1","","","13","3177","1850","b","elianto","#f73b6a7A","-1","-1","1","0","[]","0","2","","","3177","87","6","4","lose","no-go","0"
"pit-trial","161","1353543","0.0-92.0","battery-v0.2","","""event"",""trial"",""time""
""fullscreenenter"",""1"",""2634""
","
","
","""event"",""trial"",""time""
""fullscreenenter"",""1"",""2634""
","
","","","-1","","","13","3177","1850","t","elianto","#f73b6a7A"," ","-1","0","-10","[]","0","2","","","3177","88","7","3","lose","go","0"
"pit-trial","162","1358154","0.0-93.0","battery-v0.2","","""event"",""trial"",""time""
""fullscreenenter"",""1"",""2634""
","
","
","""event"",""trial"",""time""
""fullscreenenter"",""1"",""2634""
","
","","","1754","","","13","3177","1850","b","elianto","#f73b6a7A","-1"," ","0","-10","[2604]","1","2","","","3177","89","6","4","lose","no-go","0"
"pit-trial","163","1362199","0.0-94.0","battery-v0.2","","""event"",""trial"",""time""
""fullscreenenter"",""1"",""2634""
","
","
","""event"",""trial"",""time""
""fullscreenenter"",""1"",""2634""
","
","","","1187","","","13","3177","1850","c","elianto","#3366ff99"," "," ","1","+10","[2038]","1","2","","","3177","90","5","1","win","go","0"
"pit-trial","164","1366054","0.0-95.0","battery-v0.2","","""event"",""trial"",""time""
""fullscreenenter"",""1"",""2634""
","
","
","""event"",""trial"",""time""
""fullscreenenter"",""1"",""2634""
","
","","","997","","","13","3177","1850","z","elianto","#3366ff99","-1"," ","0","0","[1848]","1","2","","","3177","91","4","2","win","no-go","0"
"pit-trial","165","1370618","0.0-96.0","battery-v0.2","","""event"",""trial"",""time""
""fullscreenenter"",""1"",""2634""
","
","
","""event"",""trial"",""time""
""fullscreenenter"",""1"",""2634""
","
","","","1706","","","13","3177","1850","t","elianto","#f73b6a7A"," "," ","1","-10","[2557]","1","2","","","3177","92","7","3","lose","go","1"
"pit-trial","166","1374670","0.0-97.0","battery-v0.2","","""event"",""trial"",""time""
""fullscreenenter"",""1"",""2634""
","
","
","""event"",""trial"",""time""
""fullscreenenter"",""1"",""2634""
","
","","","1193","","","13","3177","1850","c","elianto","#3366ff99"," "," ","1","+10","[2044]","1","2","","","3177","93","5","1","win","go","0"
"pit-trial","167","1379011","0.0-98.0","battery-v0.2","","""event"",""trial"",""time""
""fullscreenenter"",""1"",""2634""
","
","
","""event"",""trial"",""time""
""fullscreenenter"",""1"",""2634""
","
","","","1483","","","13","3177","1850","f","elianto","#3366ff99","-1"," ","0","0","[2333.999999999767]","1","2","","","3177","94","8","2","win","no-go","0"
"pit-trial","168","1383529","0.0-99.0","battery-v0.2","","""event"",""trial"",""time""
""fullscreenenter"",""1"",""2634""
","
","
","""event"",""trial"",""time""
""fullscreenenter"",""1"",""2634""
","
","","","1660","","","13","3177","1850","t","elianto","#f73b6a7A"," "," ","1","-10","[2510]","1","2","","","3177","95","7","3","lose","go","1"
"pit-trial","169","1388388","0.0-100.0","battery-v0.2","","""event"",""trial"",""time""
""fullscreenenter"",""1"",""2634""
","
","
","""event"",""trial"",""time""
""fullscreenenter"",""1"",""2634""
","
","","","-1","","","13","3177","1850","b","elianto","#f73b6a7A","-1","-1","1","0","[]","0","2","","","3177","96","6","4","lose","no-go","0"
"pit-trial","170","1393247","0.0-101.0","battery-v0.2","","""event"",""trial"",""time""
""fullscreenenter"",""1"",""2634""
","
","
","""event"",""trial"",""time""
""fullscreenenter"",""1"",""2634""
","
","","","-1","","","13","3177","1850","b","elianto","#f73b6a7A","-1","-1","1","0","[]","0","2","","","3177","97","6","4","lose","no-go","0"
"pit-trial","171","1398106","0.0-102.0","battery-v0.2","","""event"",""trial"",""time""
""fullscreenenter"",""1"",""2634""
","
","
","""event"",""trial"",""time""
""fullscreenenter"",""1"",""2634""
","
","","","-1","","","13","3177","1850","t","elianto","#f73b6a7A"," ","-1","0","-10","[4310]","1","2","","","3177","98","7","3","lose","go","0"
"pit-trial","172","1402474","0.0-103.0","battery-v0.2","","""event"",""trial"",""time""
""fullscreenenter"",""1"",""2634""
","
","
","""event"",""trial"",""time""
""fullscreenenter"",""1"",""2634""
","
","","","1509","","","13","3177","1850","f","elianto","#3366ff99","-1"," ","0","0","[2360.000000000233]","1","2","","","3177","99","8","2","win","no-go","0"
"pit-trial","173","1406820","0.0-104.0","battery-v0.2","","""event"",""trial"",""time""
""fullscreenenter"",""1"",""2634""
","
","
","""event"",""trial"",""time""
""fullscreenenter"",""1"",""2634""
","
","","","1490.0000000002328","","","13","3177","1850","c","elianto","#3366ff99"," "," ","1","0","[2340.000000000233]","1","2","","","3177","100","5","1","win","go","1"
"pit-trial","174","1410892","0.0-105.0","battery-v0.2","","""event"",""trial"",""time""
""fullscreenenter"",""1"",""2634""
","
","
","""event"",""trial"",""time""
""fullscreenenter"",""1"",""2634""
","
","","","1214","","","13","3177","1850","c","elianto","#3366ff99"," "," ","1","0","[2064]","1","2","","","3177","101","5","1","win","go","1"
"pit-trial","175","1415536","0.0-106.0","battery-v0.2","","""event"",""trial"",""time""
""fullscreenenter"",""1"",""2634""
","
","
","""event"",""trial"",""time""
""fullscreenenter"",""1"",""2634""
","
","","","1786","","","13","3177","1850","f","elianto","#3366ff99","-1"," ","0","0","[2637]","1","2","","","3177","102","8","2","win","no-go","0"
"pit-trial","176","1420394","0.0-107.0","battery-v0.2","","""event"",""trial"",""time""
""fullscreenenter"",""1"",""2634""
","
","
","""event"",""trial"",""time""
""fullscreenenter"",""1"",""2634""
","
","","","-1","","","13","3177","1850","n","elianto","#3366ff99","-1","-1","1","0","[]","0","2","","","3177","103","9","2","win","no-go","1"
"pit-trial","177","1424751","0.0-108.0","battery-v0.2","","""event"",""trial"",""time""
""fullscreenenter"",""1"",""2634""
","
","
","""event"",""trial"",""time""
""fullscreenenter"",""1"",""2634""
","
","","","1500","","","13","3177","1850","b","elianto","#f73b6a7A","-1"," ","0","-10","[2350.000000000233]","1","2","","","3177","104","6","4","lose","no-go","0"
"pit-trial","178","1428838","0.0-109.0","battery-v0.2","","""event"",""trial"",""time""
""fullscreenenter"",""1"",""2634""
","
","
","""event"",""trial"",""time""
""fullscreenenter"",""1"",""2634""
","
","","","1228.0000000002328","","","13","3177","1850","c","elianto","#3366ff99"," "," ","1","+10","[2080.000000000233]","1","2","","","3177","105","5","1","win","go","0"
"pit-trial","179","1433106","0.0-110.0","battery-v0.2","","""event"",""trial"",""time""
""fullscreenenter"",""1"",""2634""
","
","
","""event"",""trial"",""time""
""fullscreenenter"",""1"",""2634""
","
","","","1409","","","13","3177","1850","f","elianto","#3366ff99","-1"," ","0","0","[2261]","1","2","","","3177","106","8","2","win","no-go","0"
"pit-trial","180","1437965","0.0-111.0","battery-v0.2","","""event"",""trial"",""time""
""fullscreenenter"",""1"",""2634""
","
","
","""event"",""trial"",""time""
""fullscreenenter"",""1"",""2634""
","
","","","-1","","","13","3177","1850","b","elianto","#f73b6a7A","-1","-1","1","-10","[]","0","2","","","3177","107","6","4","lose","no-go","1"
"pit-trial","181","1442249","0.0-112.0","battery-v0.2","","""event"",""trial"",""time""
""fullscreenenter"",""1"",""2634""
","
","
","""event"",""trial"",""time""
""fullscreenenter"",""1"",""2634""
","
","","","1425","","","13","3177","1850","n","elianto","#3366ff99","-1"," ","0","0","[2276]","1","2","","","3177","108","9","2","win","no-go","0"
"pit-trial","182","1447107","0.0-113.0","battery-v0.2","","""event"",""trial"",""time""
""fullscreenenter"",""1"",""2634""
","
","
","""event"",""trial"",""time""
""fullscreenenter"",""1"",""2634""
","
","","","-1","","","13","3177","1850","f","elianto","#3366ff99","-1","-1","1","+10","[]","0","2","","","3177","109","8","2","win","no-go","0"
"pit-trial","183","1451967","0.0-114.0","battery-v0.2","","""event"",""trial"",""time""
""fullscreenenter"",""1"",""2634""
","
","
","""event"",""trial"",""time""
""fullscreenenter"",""1"",""2634""
","
","","","-1","","","13","3177","1850","c","elianto","#3366ff99"," ","-1","0","0","[3872]","1","2","","","3177","110","5","1","win","go","0"
"pit-trial","184","1456239","0.0-115.0","battery-v0.2","","""event"",""trial"",""time""
""fullscreenenter"",""1"",""2634""
","
","
","""event"",""trial"",""time""
""fullscreenenter"",""1"",""2634""
","
","","","1414","","","13","3177","1850","n","elianto","#3366ff99","-1"," ","0","0","[2265]","1","2","","","3177","111","9","2","win","no-go","0"
"pit-trial","185","1460705","0.0-116.0","battery-v0.2","","""event"",""trial"",""time""
""fullscreenenter"",""1"",""2634""
","
","
","""event"",""trial"",""time""
""fullscreenenter"",""1"",""2634""
","
","","","1608","","","13","3177","1850","b","elianto","#f73b6a7A","-1"," ","0","-10","[2459]","1","2","","","3177","112","6","4","lose","no-go","0"
"pit-trial","186","1464537","0.0-117.0","battery-v0.2","","""event"",""trial"",""time""
""fullscreenenter"",""1"",""2634""
","
","
","""event"",""trial"",""time""
""fullscreenenter"",""1"",""2634""
","
","","","973","","","13","3177","1850","t","elianto","#f73b6a7A"," "," ","1","0","[1824]","1","2","","","3177","113","7","3","lose","go","0"
"pit-trial","187","1468763","0.0-118.0","battery-v0.2","","""event"",""trial"",""time""
""fullscreenenter"",""1"",""2634""
","
","
","""event"",""trial"",""time""
""fullscreenenter"",""1"",""2634""
","
","","","1367","","","13","3177","1850","n","elianto","#3366ff99","-1"," ","0","0","[2218]","1","2","","","3177","114","9","2","win","no-go","0"
"pit-trial","188","1472809","0.0-119.0","battery-v0.2","","""event"",""trial"",""time""
""fullscreenenter"",""1"",""2634""
","
","
","""event"",""trial"",""time""
""fullscreenenter"",""1"",""2634""
","
","","","1188","","","13","3177","1850","c","elianto","#3366ff99"," "," ","1","+10","[2039]","1","2","","","3177","115","5","1","win","go","0"
"pit-trial","189","1477668","0.0-120.0","battery-v0.2","","""event"",""trial"",""time""
""fullscreenenter"",""1"",""2634""
","
","
","""event"",""trial"",""time""
""fullscreenenter"",""1"",""2634""
","
","","","-1","","","13","3177","1850","f","elianto","#3366ff99","-1","-1","1","+10","[]","0","2","","","3177","116","8","2","win","no-go","0"
"pit-trial","190","1482527","0.0-121.0","battery-v0.2","","""event"",""trial"",""time""
""fullscreenenter"",""1"",""2634""
","
","
","""event"",""trial"",""time""
""fullscreenenter"",""1"",""2634""
","
","","","-1","","","13","3177","1850","b","elianto","#f73b6a7A","-1","-1","1","0","[3087]","1","2","","","3177","117","6","4","lose","no-go","0"
"pit-trial","191","1487037","0.0-122.0","battery-v0.2","","""event"",""trial"",""time""
""fullscreenenter"",""1"",""2634""
","
","
","""event"",""trial"",""time""
""fullscreenenter"",""1"",""2634""
","
","","","1653.0000000002328","","","13","3177","1850","n","elianto","#3366ff99","-1"," ","0","0","[2503]","1","2","","","3177","118","9","2","win","no-go","0"
"pit-trial","192","1491433","0.0-123.0","battery-v0.2","","""event"",""trial"",""time""
""fullscreenenter"",""1"",""2634""
","
","
","""event"",""trial"",""time""
""fullscreenenter"",""1"",""2634""
","
","","","1535","","","13","3177","1850","c","elianto","#3366ff99"," "," ","1","+10","[2385.999999999767]","1","2","","","3177","119","5","1","win","go","0"
"pit-trial","193","1495657","0.0-124.0","battery-v0.2","","""event"",""trial"",""time""
""fullscreenenter"",""1"",""2634""
","
","
","""event"",""trial"",""time""
""fullscreenenter"",""1"",""2634""
","
","","","1364","","","13","3177","1850","f","elianto","#3366ff99","-1"," ","0","0","[2214.999999999767]","1","2","","","3177","120","8","2","win","no-go","0"
"pit-trial","194","1499596","0.0-125.0","battery-v0.2","","""event"",""trial"",""time""
""fullscreenenter"",""1"",""2634""
","
","
","""event"",""trial"",""time""
""fullscreenenter"",""1"",""2634""
","
","","","1081","","","13","3177","1850","n","elianto","#3366ff99","-1"," ","0","+10","[1931]","1","2","","","3177","121","9","2","win","no-go","1"
"pit-trial","195","1503863","0.0-126.0","battery-v0.2","","""event"",""trial"",""time""
""fullscreenenter"",""1"",""2634""
","
","
","""event"",""trial"",""time""
""fullscreenenter"",""1"",""2634""
","
","","","1408","","","13","3177","1850","c","elianto","#3366ff99"," "," ","1","+10","[2258.999999999767]","1","2","","","3177","122","5","1","win","go","0"
"pit-trial","196","1508587","0.0-127.0","battery-v0.2","","""event"",""trial"",""time""
""fullscreenenter"",""1"",""2634""
","
","
","""event"",""trial"",""time""
""fullscreenenter"",""1"",""2634""
","
","","","1866","","","13","3177","1850","t","elianto","#f73b6a7A"," "," ","1","0","[2717]","1","2","","","3177","123","7","3","lose","go","0"
"pit-trial","197","1513294","0.0-128.0","battery-v0.2","","""event"",""trial"",""time""
""fullscreenenter"",""1"",""2634""
","
","
","""event"",""trial"",""time""
""fullscreenenter"",""1"",""2634""
","
","","","1847","","","13","3177","1850","f","elianto","#3366ff99","-1"," ","0","0","[2699]","1","2","","","3177","124","8","2","win","no-go","0"
"pit-trial","198","1517744","0.0-129.0","battery-v0.2","","""event"",""trial"",""time""
""fullscreenenter"",""1"",""2634""
","
","
","""event"",""trial"",""time""
""fullscreenenter"",""1"",""2634""
","
","","","1591","","","13","3177","1850","t","elianto","#f73b6a7A"," "," ","1","0","[2442]","1","2","","","3177","125","7","3","lose","go","0"
"pit-trial","199","1521208","0.0-130.0","battery-v0.2","","""event"",""trial"",""time""
""fullscreenenter"",""1"",""2634""
","
","
","""event"",""trial"",""time""
""fullscreenenter"",""1"",""2634""
","
","","","606","","","13","3177","1850","f","elianto","#3366ff99","-1"," ","0","+10","[1456]","1","2","","","3177","126","8","2","win","no-go","1"
"pit-trial","200","1526067","0.0-131.0","battery-v0.2","","""event"",""trial"",""time""
""fullscreenenter"",""1"",""2634""
","
","
","""event"",""trial"",""time""
""fullscreenenter"",""1"",""2634""
","
","","","-1","","","13","3177","1850","n","elianto","#3366ff99","-1","-1","1","+10","[]","0","2","","","3177","127","9","2","win","no-go","0"
"pit-trial","201","1530926","0.0-132.0","battery-v0.2","","""event"",""trial"",""time""
""fullscreenenter"",""1"",""2634""
","
","
","""event"",""trial"",""time""
""fullscreenenter"",""1"",""2634""
","
","","","-1","","","13","3177","1850","b","elianto","#f73b6a7A","-1","-1","1","0","[]","0","2","","","3177","128","6","4","lose","no-go","0"
"pit-trial","202","1535786","0.0-133.0","battery-v0.2","","""event"",""trial"",""time""
""fullscreenenter"",""1"",""2634""
","
","
","""event"",""trial"",""time""
""fullscreenenter"",""1"",""2634""
","
","","","-1","","","13","3177","1850","b","elianto","#f73b6a7A","-1","-1","1","0","[]","0","2","","","3177","129","6","4","lose","no-go","0"
"pit-trial","203","1540190","0.0-134.0","battery-v0.2","","""event"",""trial"",""time""
""fullscreenenter"",""1"",""2634""
","
","
","""event"",""trial"",""time""
""fullscreenenter"",""1"",""2634""
","
","","","1542.0000000002328","","","13","3177","1850","t","elianto","#f73b6a7A"," "," ","1","0","[2395]","1","2","","","3177","130","7","3","lose","go","0"
"pit-trial","204","1545049","0.0-135.0","battery-v0.2","","""event"",""trial"",""time""
""fullscreenenter"",""1"",""2634""
","
","
","""event"",""trial"",""time""
""fullscreenenter"",""1"",""2634""
","
","","","-1","","","13","3177","1850","n","elianto","#3366ff99","-1","-1","1","0","[]","0","2","","","3177","131","9","2","win","no-go","1"
"pit-trial","205","1549909","0.0-136.0","battery-v0.2","","""event"",""trial"",""time""
""fullscreenenter"",""1"",""2634""
","
","
","""event"",""trial"",""time""
""fullscreenenter"",""1"",""2634""
","
","","","-1","","","13","3177","1850","f","elianto","#3366ff99","-1","-1","1","+10","[]","0","2","","","3177","132","8","2","win","no-go","0"
"pit-trial","206","1554572","0.0-137.0","battery-v0.2","","""event"",""trial"",""time""
""fullscreenenter"",""1"",""2634""
","
","
","""event"",""trial"",""time""
""fullscreenenter"",""1"",""2634""
","
","","","1804","","","13","3177","1850","n","elianto","#3366ff99","-1"," ","0","0","[2654]","1","2","","","3177","133","9","2","win","no-go","0"
"pit-trial","207","1558222","0.0-138.0","battery-v0.2","","""event"",""trial"",""time""
""fullscreenenter"",""1"",""2634""
","
","
","""event"",""trial"",""time""
""fullscreenenter"",""1"",""2634""
","
","","","792","","","13","3177","1850","t","elianto","#f73b6a7A"," "," ","1","0","[1643]","1","2","","","3177","134","7","3","lose","go","0"
"pit-trial","208","1561819","0.0-139.0","battery-v0.2","","""event"",""trial"",""time""
""fullscreenenter"",""1"",""2634""
","
","
","""event"",""trial"",""time""
""fullscreenenter"",""1"",""2634""
","
","","","739","","","13","3177","1850","b","elianto","#f73b6a7A","-1"," ","0","-10","[1590]","1","2","","","3177","135","6","4","lose","no-go","0"
"pit-trial","209","1566365","0.0-140.0","battery-v0.2","","""event"",""trial"",""time""
""fullscreenenter"",""1"",""2634""
","
","
","""event"",""trial"",""time""
""fullscreenenter"",""1"",""2634""
","
","","","1687","","","13","3177","1850","f","elianto","#3366ff99","-1"," ","0","+10","[2538]","1","2","","","3177","136","8","2","win","no-go","1"
"pit-trial","210","1571223","0.0-141.0","battery-v0.2","","""event"",""trial"",""time""
""fullscreenenter"",""1"",""2634""
","
","
","""event"",""trial"",""time""
""fullscreenenter"",""1"",""2634""
","
","","","-1","","","13","3177","1850","n","elianto","#3366ff99","-1","-1","1","+10","[]","0","2","","","3177","137","9","2","win","no-go","0"
"pit-trial","211","1574751","0.0-142.0","battery-v0.2","","""event"",""trial"",""time""
""fullscreenenter"",""1"",""2634""
","
","
","""event"",""trial"",""time""
""fullscreenenter"",""1"",""2634""
","
","","","669","","","13","3177","1850","t","elianto","#f73b6a7A"," "," ","1","0","[1519]","1","2","","","3177","138","7","3","lose","go","0"
"pit-trial","212","1579609","0.0-143.0","battery-v0.2","","""event"",""trial"",""time""
""fullscreenenter"",""1"",""2634""
","
","
","""event"",""trial"",""time""
""fullscreenenter"",""1"",""2634""
","
","","","-1","","","13","3177","1850","f","elianto","#3366ff99","-1","-1","1","+10","[]","0","2","","","3177","139","8","2","win","no-go","0"
"pit-trial","213","1584467","0.0-144.0","battery-v0.2","","""event"",""trial"",""time""
""fullscreenenter"",""1"",""2634""
","
","
","""event"",""trial"",""time""
""fullscreenenter"",""1"",""2634""
","
","","","-1","","","13","3177","1850","b","elianto","#f73b6a7A","-1","-1","1","0","[]","0","2","","","3177","140","6","4","lose","no-go","0"
"pit-instructions","214","1647813","0.0-145.0","battery-v0.2","","""event"",""trial"",""time""
""fullscreenenter"",""1"",""2634""
","
","
","""event"",""trial"",""time""
""fullscreenenter"",""1"",""2634""
","
","","[{""page_index"":0,""viewing_time"":49716},{""page_index"":1,""viewing_time"":13628}]","63345","","","","","","","","","","","","","","","","","","","","","","","",""
"pit-trial","215","1652370","0.0-146.0","battery-v0.2","","""event"",""trial"",""time""
""fullscreenenter"",""1"",""2634""
","
","
","""event"",""trial"",""time""
""fullscreenenter"",""1"",""2634""
","
","","","1698","","","13","3177","1850","w","elianto","#f73b6a7A","-1"," ","0","-10","[2549]","1","3","","","3177","141","3","4","lose","no-go","0"
"pit-trial","216","1655683","0.0-147.0","battery-v0.2","","""event"",""trial"",""time""
""fullscreenenter"",""1"",""2634""
","
","
","""event"",""trial"",""time""
""fullscreenenter"",""1"",""2634""
","
","","","455.00000000023283","","","13","3177","1850","e","elianto","#f73b6a7A"," "," ","1","0","[1305.0000000002328]","1","3","","","3177","142","2","3","lose","go","0"
"pit-trial","217","1659143","0.0-148.0","battery-v0.2","","""event"",""trial"",""time""
""fullscreenenter"",""1"",""2634""
","
","
","""event"",""trial"",""time""
""fullscreenenter"",""1"",""2634""
","
","","","602","","","13","3177","1850","j","elianto","#f73b6a7A"," "," ","1","0","[1453]","1","3","","","3177","143","0","3","lose","go","0"
"pit-trial","218","1662519","0.0-149.0","battery-v0.2","","""event"",""trial"",""time""
""fullscreenenter"",""1"",""2634""
","
","
","""event"",""trial"",""time""
""fullscreenenter"",""1"",""2634""
","
","","","518.0000000002328","","","13","3177","1850","d","elianto","#3366ff99","-1"," ","0","0","[1369.0000000002328]","1","3","","","3177","144","1","2","win","no-go","0"
"pit-trial","219","1666567","0.0-150.0","battery-v0.2","","""event"",""trial"",""time""
""fullscreenenter"",""1"",""2634""
","
","
","""event"",""trial"",""time""
""fullscreenenter"",""1"",""2634""
","
","","","1188.0000000002328","","","13","3177","1850","j","elianto","#f73b6a7A"," "," ","1","0","[2038]","1","3","","","3177","145","0","3","lose","go","0"
"pit-trial","220","1670278","0.0-151.0","battery-v0.2","","""event"",""trial"",""time""
""fullscreenenter"",""1"",""2634""
","
","
","""event"",""trial"",""time""
""fullscreenenter"",""1"",""2634""
","
","","","854.0000000002328","","","13","3177","1850","d","elianto","#3366ff99","-1"," ","0","+10","[1704.0000000002328,3533]","2","3","","","3177","146","1","2","win","no-go","1"
"pit-trial","221","1674267","0.0-152.0","battery-v0.2","","""event"",""trial"",""time""
""fullscreenenter"",""1"",""2634""
","
","
","""event"",""trial"",""time""
""fullscreenenter"",""1"",""2634""
","
","","","1131","","","13","3177","1850","w","elianto","#f73b6a7A","-1"," ","0","-10","[1981]","1","3","","","3177","147","3","4","lose","no-go","0"
"pit-trial","222","1679127","0.0-153.0","battery-v0.2","","""event"",""trial"",""time""
""fullscreenenter"",""1"",""2634""
","
","
","""event"",""trial"",""time""
""fullscreenenter"",""1"",""2634""
","
","","","-1","","","13","3177","1850","e","elianto","#f73b6a7A"," ","-1","0","0","[]","0","3","","","3177","148","2","3","lose","go","1"
"pit-trial","223","1683986","0.0-154.0","battery-v0.2","","""event"",""trial"",""time""
""fullscreenenter"",""1"",""2634""
","
","
","""event"",""trial"",""time""
""fullscreenenter"",""1"",""2634""
","
","","","-1","","","13","3177","1850","w","elianto","#f73b6a7A","-1","-1","1","0","[]","0","3","","","3177","149","3","4","lose","no-go","0"
"pit-trial","224","1688089","0.0-155.0","battery-v0.2","","""event"",""trial"",""time""
""fullscreenenter"",""1"",""2634""
","
","
","""event"",""trial"",""time""
""fullscreenenter"",""1"",""2634""
","
","","","1243.9999999997672","","","13","3177","1850","d","elianto","#3366ff99","-1"," ","0","0","[2094]","1","3","","","3177","150","1","2","win","no-go","0"
"pit-trial","225","1692948","0.0-156.0","battery-v0.2","","""event"",""trial"",""time""
""fullscreenenter"",""1"",""2634""
","
","
","""event"",""trial"",""time""
""fullscreenenter"",""1"",""2634""
","
","","","-1","","","13","3177","1850","e","elianto","#f73b6a7A"," ","-1","0","-10","[]","0","3","","","3177","151","2","3","lose","go","0"
"pit-trial","226","1697356","0.0-157.0","battery-v0.2","","""event"",""trial"",""time""
""fullscreenenter"",""1"",""2634""
","
","
","""event"",""trial"",""time""
""fullscreenenter"",""1"",""2634""
","
","","","1549","","","13","3177","1850","j","elianto","#f73b6a7A"," "," ","1","0","[2400]","1","3","","","3177","152","0","3","lose","go","0"
"pit-trial","227","1701704","0.0-158.0","battery-v0.2","","""event"",""trial"",""time""
""fullscreenenter"",""1"",""2634""
","
","
","""event"",""trial"",""time""
""fullscreenenter"",""1"",""2634""
","
","","","1490","","","13","3177","1850","e","elianto","#f73b6a7A"," "," ","1","0","[2340.999999999767]","1","3","","","3177","153","2","3","lose","go","0"
"pit-trial","228","1705851","0.0-159.0","battery-v0.2","","""event"",""trial"",""time""
""fullscreenenter"",""1"",""2634""
","
","
","""event"",""trial"",""time""
""fullscreenenter"",""1"",""2634""
","
","","","1290.0000000002328","","","13","3177","1850","d","elianto","#3366ff99","-1"," ","0","0","[2141.000000000233]","1","3","","","3177","154","1","2","win","no-go","0"
"pit-trial","229","1709755","0.0-160.0","battery-v0.2","","""event"",""trial"",""time""
""fullscreenenter"",""1"",""2634""
","
","
","""event"",""trial"",""time""
""fullscreenenter"",""1"",""2634""
","
","","","1044","","","13","3177","1850","w","elianto","#f73b6a7A","-1"," ","0","0","[1896]","1","3","","","3177","155","3","4","lose","no-go","1"
"pit-trial","230","1713589","0.0-161.0","battery-v0.2","","""event"",""trial"",""time""
""fullscreenenter"",""1"",""2634""
","
","
","""event"",""trial"",""time""
""fullscreenenter"",""1"",""2634""
","
","","","976","","","13","3177","1850","j","elianto","#f73b6a7A"," "," ","1","0","[1826]","1","3","","","3177","156","0","3","lose","go","0"
"pit-trial","231","1717283","0.0-162.0","battery-v0.2","","""event"",""trial"",""time""
""fullscreenenter"",""1"",""2634""
","
","
","""event"",""trial"",""time""
""fullscreenenter"",""1"",""2634""
","
","","","836","","","13","3177","1850","e","elianto","#f73b6a7A"," "," ","1","0","[1687]","1","3","","","3177","157","2","3","lose","go","0"
"pit-trial","232","1721578","0.0-163.0","battery-v0.2","","""event"",""trial"",""time""
""fullscreenenter"",""1"",""2634""
","
","
","""event"",""trial"",""time""
""fullscreenenter"",""1"",""2634""
","
","","","1435.9999999997672","","","13","3177","1850","d","elianto","#3366ff99","-1"," ","0","0","[2286]","1","3","","","3177","158","1","2","win","no-go","0"
"pit-trial","233","1725711","0.0-164.0","battery-v0.2","","""event"",""trial"",""time""
""fullscreenenter"",""1"",""2634""
","
","
","""event"",""trial"",""time""
""fullscreenenter"",""1"",""2634""
","
","","","1276","","","13","3177","1850","w","elianto","#f73b6a7A","-1"," ","0","0","[2126]","1","3","","","3177","159","3","4","lose","no-go","1"
"pit-trial","234","1730571","0.0-165.0","battery-v0.2","","""event"",""trial"",""time""
""fullscreenenter"",""1"",""2634""
","
","
","""event"",""trial"",""time""
""fullscreenenter"",""1"",""2634""
","
","","","-1","","","13","3177","1850","j","elianto","#f73b6a7A"," ","-1","0","-10","[2890]","1","3","","","3177","160","0","3","lose","go","0"
"pit-trial","235","1735430","0.0-166.0","battery-v0.2","","""event"",""trial"",""time""
""fullscreenenter"",""1"",""2634""
","
","
","""event"",""trial"",""time""
""fullscreenenter"",""1"",""2634""
","
","","","-1","","","13","3177","1850","j","elianto","#f73b6a7A"," ","-1","0","-10","[2858]","1","3","","","3177","161","0","3","lose","go","0"
"pit-trial","236","1740289","0.0-167.0","battery-v0.2","","""event"",""trial"",""time""
""fullscreenenter"",""1"",""2634""
","
","
","""event"",""trial"",""time""
""fullscreenenter"",""1"",""2634""
","
","","","-1","","","13","3177","1850","d","elianto","#3366ff99","-1","-1","1","+10","[]","0","3","","","3177","162","1","2","win","no-go","0"
"pit-trial","237","1745102","0.0-168.0","battery-v0.2","","""event"",""trial"",""time""
""fullscreenenter"",""1"",""2634""
","
","
","""event"",""trial"",""time""
""fullscreenenter"",""1"",""2634""
","
","","","1953.0000000002328","","","13","3177","1850","e","elianto","#f73b6a7A"," "," ","1","0","[2803.000000000233]","1","3","","","3177","163","2","3","lose","go","0"
"pit-trial","238","1749189","0.0-169.0","battery-v0.2","","""event"",""trial"",""time""
""fullscreenenter"",""1"",""2634""
","
","
","""event"",""trial"",""time""
""fullscreenenter"",""1"",""2634""
","
","","","1230","","","13","3177","1850","w","elianto","#f73b6a7A","-1"," ","0","-10","[2081]","1","3","","","3177","164","3","4","lose","no-go","0"
"pit-trial","239","1752612","0.0-170.0","battery-v0.2","","""event"",""trial"",""time""
""fullscreenenter"",""1"",""2634""
","
","
","""event"",""trial"",""time""
""fullscreenenter"",""1"",""2634""
","
","","","564","","","13","3177","1850","w","elianto","#f73b6a7A","-1"," ","0","0","[1414.9999999997672]","1","3","","","3177","165","3","4","lose","no-go","1"
"pit-trial","240","1755664","0.0-171.0","battery-v0.2","","""event"",""trial"",""time""
""fullscreenenter"",""1"",""2634""
","
","
","""event"",""trial"",""time""
""fullscreenenter"",""1"",""2634""
","
","","","193","","","13","3177","1850","e","elianto","#f73b6a7A"," "," ","1","0","[1044]","1","3","","","3177","166","2","3","lose","go","0"
"pit-trial","241","1760061","0.0-172.0","battery-v0.2","","""event"",""trial"",""time""
""fullscreenenter"",""1"",""2634""
","
","
","""event"",""trial"",""time""
""fullscreenenter"",""1"",""2634""
","
","","","1539","","","13","3177","1850","j","elianto","#f73b6a7A"," "," ","1","-10","[2390]","1","3","","","3177","167","0","3","lose","go","1"
"pit-trial","242","1764322","0.0-173.0","battery-v0.2","","""event"",""trial"",""time""
""fullscreenenter"",""1"",""2634""
","
","
","""event"",""trial"",""time""
""fullscreenenter"",""1"",""2634""
","
","","","1403.0000000002328","","","13","3177","1850","d","elianto","#3366ff99","-1"," ","0","0","[2254.000000000233]","1","3","","","3177","168","1","2","win","no-go","0"
"pit-trial","243","1768310","0.0-174.0","battery-v0.2","","""event"",""trial"",""time""
""fullscreenenter"",""1"",""2634""
","
","
","""event"",""trial"",""time""
""fullscreenenter"",""1"",""2634""
","
","","","1129","","","13","3177","1850","w","elianto","#f73b6a7A","-1"," ","0","-10","[1978.9999999997672]","1","3","","","3177","169","3","4","lose","no-go","0"
"pit-trial","244","1772222","0.0-175.0","battery-v0.2","","""event"",""trial"",""time""
""fullscreenenter"",""1"",""2634""
","
","
","""event"",""trial"",""time""
""fullscreenenter"",""1"",""2634""
","
","","","1053.9999999997672","","","13","3177","1850","d","elianto","#3366ff99","-1"," ","0","0","[1905]","1","3","","","3177","170","1","2","win","no-go","0"
"pit-trial","245","1777051","0.0-176.0","battery-v0.2","","""event"",""trial"",""time""
""fullscreenenter"",""1"",""2634""
","
","
","""event"",""trial"",""time""
""fullscreenenter"",""1"",""2634""
","
","","","1969.9999999997672","","","13","3177","1850","j","elianto","#f73b6a7A"," "," ","1","0","[2821]","1","3","","","3177","171","0","3","lose","go","0"
"pit-trial","246","1781908","0.0-177.0","battery-v0.2","","""event"",""trial"",""time""
""fullscreenenter"",""1"",""2634""
","
","
","""event"",""trial"",""time""
""fullscreenenter"",""1"",""2634""
","
","","","-1","","","13","3177","1850","e","elianto","#f73b6a7A"," ","-1","0","-10","[2884]","1","3","","","3177","172","2","3","lose","go","0"
"pit-trial","247","1785835","0.0-178.0","battery-v0.2","","""event"",""trial"",""time""
""fullscreenenter"",""1"",""2634""
","
","
","""event"",""trial"",""time""
""fullscreenenter"",""1"",""2634""
","
","","","1068","","","13","3177","1850","j","elianto","#f73b6a7A"," "," ","1","0","[1919]","1","3","","","3177","173","0","3","lose","go","0"
"pit-trial","248","1790694","0.0-179.0","battery-v0.2","","""event"",""trial"",""time""
""fullscreenenter"",""1"",""2634""
","
","
","""event"",""trial"",""time""
""fullscreenenter"",""1"",""2634""
","
","","","-1","","","13","3177","1850","e","elianto","#f73b6a7A"," ","-1","0","-10","[3005]","1","3","","","3177","174","2","3","lose","go","0"
"pit-trial","249","1795553","0.0-180.0","battery-v0.2","","""event"",""trial"",""time""
""fullscreenenter"",""1"",""2634""
","
","
","""event"",""trial"",""time""
""fullscreenenter"",""1"",""2634""
","
","","","-1","","","13","3177","1850","d","elianto","#3366ff99","-1","-1","1","+10","[3247]","1","3","","","3177","175","1","2","win","no-go","0"
"pit-trial","250","1800412","0.0-181.0","battery-v0.2","","""event"",""trial"",""time""
""fullscreenenter"",""1"",""2634""
","
","
","""event"",""trial"",""time""
""fullscreenenter"",""1"",""2634""
","
","","","-1","","","13","3177","1850","w","elianto","#f73b6a7A","-1","-1","1","0","[]","0","3","","","3177","176","3","4","lose","no-go","0"
"pit-trial","251","1805271","0.0-182.0","battery-v0.2","","""event"",""trial"",""time""
""fullscreenenter"",""1"",""2634""
","
","
","""event"",""trial"",""time""
""fullscreenenter"",""1"",""2634""
","
","","","-1","","","13","3177","1850","s","elianto","#3366ff99"," ","-1","0","+10","[]","0","3","","","3177","177","4","1","win","go","1"
"pit-trial","252","1809823","0.0-183.0","battery-v0.2","","""event"",""trial"",""time""
""fullscreenenter"",""1"",""2634""
","
","
","""event"",""trial"",""time""
""fullscreenenter"",""1"",""2634""
","
","","","1695.9999999997672","","","13","3177","1850","w","elianto","#f73b6a7A","-1"," ","0","-10","[2546]","1","3","","","3177","178","3","4","lose","no-go","0"
"pit-trial","253","1814682","0.0-184.0","battery-v0.2","","""event"",""trial"",""time""
""fullscreenenter"",""1"",""2634""
","
","
","""event"",""trial"",""time""
""fullscreenenter"",""1"",""2634""
","
","","","-1","","","13","3177","1850","j","elianto","#f73b6a7A"," ","-1","0","-10","[2896]","1","3","","","3177","179","0","3","lose","go","0"
"pit-trial","254","1819540","0.0-185.0","battery-v0.2","","""event"",""trial"",""time""
""fullscreenenter"",""1"",""2634""
","
","
","""event"",""trial"",""time""
""fullscreenenter"",""1"",""2634""
","
","","","-1","","","13","3177","1850","e","elianto","#f73b6a7A"," ","-1","0","-10","[]","0","3","","","3177","180","2","3","lose","go","0"
"pit-trial","255","1823394","0.0-186.0","battery-v0.2","","""event"",""trial"",""time""
""fullscreenenter"",""1"",""2634""
","
","
","""event"",""trial"",""time""
""fullscreenenter"",""1"",""2634""
","
","","","995","","","13","3177","1850","e","elianto","#f73b6a7A"," "," ","1","0","[1846]","1","3","","","3177","181","2","3","lose","go","0"
"pit-trial","256","1828252","0.0-187.0","battery-v0.2","","""event"",""trial"",""time""
""fullscreenenter"",""1"",""2634""
","
","
","""event"",""trial"",""time""
""fullscreenenter"",""1"",""2634""
","
","","","-1","","","13","3177","1850","w","elianto","#f73b6a7A","-1","-1","1","0","[]","0","3","","","3177","182","3","4","lose","no-go","0"
"pit-trial","257","1832030","0.0-188.0","battery-v0.2","","""event"",""trial"",""time""
""fullscreenenter"",""1"",""2634""
","
","
","""event"",""trial"",""time""
""fullscreenenter"",""1"",""2634""
","
","","","919","","","13","3177","1850","d","elianto","#3366ff99","-1"," ","0","+10","[1770]","1","3","","","3177","183","1","2","win","no-go","1"
"pit-trial","258","1835549","0.0-189.0","battery-v0.2","","""event"",""trial"",""time""
""fullscreenenter"",""1"",""2634""
","
","
","""event"",""trial"",""time""
""fullscreenenter"",""1"",""2634""
","
","","","661.0000000002328","","","13","3177","1850","s","elianto","#3366ff99"," "," ","1","+10","[1512.0000000002328]","1","3","","","3177","184","4","1","win","go","0"
"pit-trial","259","1839054","0.0-190.0","battery-v0.2","","""event"",""trial"",""time""
""fullscreenenter"",""1"",""2634""
","
","
","""event"",""trial"",""time""
""fullscreenenter"",""1"",""2634""
","
","","","647","","","13","3177","1850","s","elianto","#3366ff99"," "," ","1","+10","[1497]","1","3","","","3177","185","4","1","win","go","0"
"pit-trial","260","1843731","0.0-191.0","battery-v0.2","","""event"",""trial"",""time""
""fullscreenenter"",""1"",""2634""
","
","
","""event"",""trial"",""time""
""fullscreenenter"",""1"",""2634""
","
","","","1820.0000000002328","","","13","3177","1850","d","elianto","#3366ff99","-1"," ","0","+10","[2670.000000000233]","1","3","","","3177","186","1","2","win","no-go","1"
"pit-trial","261","1846652","0.0-192.0","battery-v0.2","","""event"",""trial"",""time""
""fullscreenenter"",""1"",""2634""
","
","
","""event"",""trial"",""time""
""fullscreenenter"",""1"",""2634""
","
","","","63","","","13","3177","1850","w","elianto","#f73b6a7A","-1"," ","0","-10","[914]","1","3","","","3177","187","3","4","lose","no-go","0"
"pit-trial","262","1851511","0.0-193.0","battery-v0.2","","""event"",""trial"",""time""
""fullscreenenter"",""1"",""2634""
","
","
","""event"",""trial"",""time""
""fullscreenenter"",""1"",""2634""
","
","","","-1","","","13","3177","1850","p","elianto","#3366ff99","-1","-1","1","+10","[2929]","1","3","","","3177","188","5","2","win","no-go","0"
"pit-trial","263","1855179","0.0-194.0","battery-v0.2","","""event"",""trial"",""time""
""fullscreenenter"",""1"",""2634""
","
","
","""event"",""trial"",""time""
""fullscreenenter"",""1"",""2634""
","
","","","810","","","13","3177","1850","p","elianto","#3366ff99","-1"," ","0","0","[1661]","1","3","","","3177","189","5","2","win","no-go","0"
"pit-trial","264","1860038","0.0-195.0","battery-v0.2","","""event"",""trial"",""time""
""fullscreenenter"",""1"",""2634""
","
","
","""event"",""trial"",""time""
""fullscreenenter"",""1"",""2634""
","
","","","-1","","","13","3177","1850","e","elianto","#f73b6a7A"," ","-1","0","-10","[]","0","3","","","3177","190","2","3","lose","go","0"
"pit-trial","265","1864897","0.0-196.0","battery-v0.2","","""event"",""trial"",""time""
""fullscreenenter"",""1"",""2634""
","
","
","""event"",""trial"",""time""
""fullscreenenter"",""1"",""2634""
","
","","","-1","","","13","3177","1850","s","elianto","#3366ff99"," ","-1","0","+10","[3090]","1","3","","","3177","191","4","1","win","go","1"
"pit-trial","266","1868733","0.0-197.0","battery-v0.2","","""event"",""trial"",""time""
""fullscreenenter"",""1"",""2634""
","
","
","""event"",""trial"",""time""
""fullscreenenter"",""1"",""2634""
","
","","","979","","","13","3177","1850","d","elianto","#3366ff99","-1"," ","0","0","[1829.9999999997672]","1","3","","","3177","192","1","2","win","no-go","0"
"pit-trial","267","1873591","0.0-198.0","battery-v0.2","","""event"",""trial"",""time""
""fullscreenenter"",""1"",""2634""
","
","
","""event"",""trial"",""time""
""fullscreenenter"",""1"",""2634""
","
","","","-1","","","13","3177","1850","p","elianto","#3366ff99","-1","-1","1","0","[4469]","1","3","","","3177","193","5","2","win","no-go","1"
"pit-trial","268","1878450","0.0-199.0","battery-v0.2","","""event"",""trial"",""time""
""fullscreenenter"",""1"",""2634""
","
","
","""event"",""trial"",""time""
""fullscreenenter"",""1"",""2634""
","
","","","-1","","","13","3177","1850","d","elianto","#3366ff99","-1","-1","1","+10","[]","0","3","","","3177","194","1","2","win","no-go","0"
"pit-trial","269","1882222","0.0-200.0","battery-v0.2","","""event"",""trial"",""time""
""fullscreenenter"",""1"",""2634""
","
","
","""event"",""trial"",""time""
""fullscreenenter"",""1"",""2634""
","
","","","912","","","13","3177","1850","s","elianto","#3366ff99"," "," ","1","+10","[1764.0000000002328]","1","3","","","3177","195","4","1","win","go","0"
"pit-trial","270","1887080","0.0-201.0","battery-v0.2","","""event"",""trial"",""time""
""fullscreenenter"",""1"",""2634""
","
","
","""event"",""trial"",""time""
""fullscreenenter"",""1"",""2634""
","
","","","-1","","","13","3177","1850","w","elianto","#f73b6a7A","-1","-1","1","-10","[]","0","3","","","3177","196","3","4","lose","no-go","1"
"pit-trial","271","1891716","0.0-202.0","battery-v0.2","","""event"",""trial"",""time""
""fullscreenenter"",""1"",""2634""
","
","
","""event"",""trial"",""time""
""fullscreenenter"",""1"",""2634""
","
","","","1778","","","13","3177","1850","p","elianto","#3366ff99","-1"," ","0","0","[2629]","1","3","","","3177","197","5","2","win","no-go","0"
"pit-trial","272","1896575","0.0-203.0","battery-v0.2","","""event"",""trial"",""time""
""fullscreenenter"",""1"",""2634""
","
","
","""event"",""trial"",""time""
""fullscreenenter"",""1"",""2634""
","
","","","-1","","","13","3177","1850","s","elianto","#3366ff99"," ","-1","0","0","[2941]","1","3","","","3177","198","4","1","win","go","0"
"pit-trial","273","1900923","0.0-204.0","battery-v0.2","","""event"",""trial"",""time""
""fullscreenenter"",""1"",""2634""
","
","
","""event"",""trial"",""time""
""fullscreenenter"",""1"",""2634""
","
","","","1490","","","13","3177","1850","s","elianto","#3366ff99"," "," ","1","+10","[2341]","1","3","","","3177","199","4","1","win","go","0"
