"trial_type","trial_index","time_elapsed","internal_node_id","task_version","subject_id","interactions","blur_events","focus_events","fullscreenenter_events","fullscreenexit_events","success","view_history","rt","responses","num_errors","age","subject","participantId","rune","rune_set","hex","correct","choice","accuracy","outcome","keys","total_keys","block","practice","value","sub","trial","stimulus","robot","valence","action","sham"
"pavlovia","0","12","0.0-0.0","battery-v0.2","","""event"",""trial"",""time""
""fullscreenenter"",""1"",""2258""
","
","
","""event"",""trial"",""time""
""fullscreenenter"",""1"",""2258""
","
","","","","","","","","","","","","","","","","","","","","","","","","","","",""
"fullscreen","1","3254","0.0-1.0","battery-v0.2","","""event"",""trial"",""time""
""fullscreenenter"",""1"",""2258""
","
","
","""event"",""trial"",""time""
""fullscreenenter"",""1"",""2258""
","
","true","","","","","","","","","","","","","","","","","","","","","","","","","",""
"pit-instructions","2","8442","0.0-2.0-0.0","battery-v0.2","","""event"",""trial"",""time""
""fullscreenenter"",""1"",""2258""
","
","
","""event"",""trial"",""time""
""fullscreenenter"",""1"",""2258""
","
","","[{""page_index"":0,""viewing_time"":5180.700000047684}]","5181.100000023842","","","","","","","","","","","","","","","","","","","","","","","",""
"pit-comprehension","3","13202","0.0-2.0-1.0-0.0","battery-v0.2","","""event"",""trial"",""time""
""fullscreenenter"",""1"",""2258""
","
","
","""event"",""trial"",""time""
""fullscreenenter"",""1"",""2258""
","
","","","4754.5","[""shark""]","0","17","20081","7273","","","","","","","","","","","","","","","","","","",""
"pit-instructions","4","14580","0.0-2.0-1.0-1.0","battery-v0.2","","""event"",""trial"",""time""
""fullscreenenter"",""1"",""2258""
","
","
","""event"",""trial"",""time""
""fullscreenenter"",""1"",""2258""
","
","","[{""page_index"":0,""viewing_time"":1366.2999999523163}]","1366.5999999046326","","","","","","","","","","","","","","","","","","","","","","","",""
"pit-comprehension","5","17633","0.0-2.0-2.0-0.0","battery-v0.2","","""event"",""trial"",""time""
""fullscreenenter"",""1"",""2258""
","
","
","""event"",""trial"",""time""
""fullscreenenter"",""1"",""2258""
","
","","","3049.7999999523163","[""tiger""]","0","17","20081","7273","","","","","","","","","","","","","","","","","","",""
"pit-instructions","6","22063","0.0-2.0-2.0-1.0","battery-v0.2","","""event"",""trial"",""time""
""fullscreenenter"",""1"",""2258""
","
","
","""event"",""trial"",""time""
""fullscreenenter"",""1"",""2258""
","
","","[{""page_index"":0,""viewing_time"":4424.400000095367}]","4424.800000071526","","","","","","","","","","","","","","","","","","","","","","","",""
"pit-instructions","7","120454","0.0-2.0-3.0","battery-v0.2","","""event"",""trial"",""time""
""fullscreenenter"",""1"",""2258""
","
","
","""event"",""trial"",""time""
""fullscreenenter"",""1"",""2258""
","
","","[{""page_index"":0,""viewing_time"":8554.200000047684},{""page_index"":1,""viewing_time"":6524.399999976158},{""page_index"":2,""viewing_time"":8101.100000023842},{""page_index"":3,""viewing_time"":5348.899999976158},{""page_index"":4,""viewing_time"":5652.399999976158},{""page_index"":5,""viewing_time"":6770.800000071526},{""page_index"":6,""viewing_time"":5847},{""page_index"":7,""viewing_time"":8300.399999976158},{""page_index"":8,""viewing_time"":6634},{""page_index"":9,""viewing_time"":8853.299999952316},{""page_index"":10,""viewing_time"":10051.600000023842},{""page_index"":11,""viewing_time"":5397.799999952316},{""page_index"":12,""viewing_time"":6813.600000023842},{""page_index"":13,""viewing_time"":5529.200000047684}]","98379","","","","","","","","","","","","","","","","","","","","","","","",""
"pit-trial","8","125314","0.0-2.0-4.0-0.0","battery-v0.2","","""event"",""trial"",""time""
""fullscreenenter"",""1"",""2258""
","
","
","""event"",""trial"",""time""
""fullscreenenter"",""1"",""2258""
","
","","","-1","","","17","20081","7273","&#9784;","elianto","#FFFFF080"," ","-1","0","&#10060","[777.5]","1","0","0","","","","","","","",""
"pit-trial","9","130182","0.0-2.0-4.1-0.1","battery-v0.2","","""event"",""trial"",""time""
""fullscreenenter"",""1"",""2258""
","
","
","""event"",""trial"",""time""
""fullscreenenter"",""1"",""2258""
","
","","","-1","","","17","20081","7273","&#9784;","elianto","#FFFFF080"," ","-1","0","&#10060","[]","0","0","0","","","","","","","",""
"pit-trial","10","133830","0.0-2.0-4.2-0.2","battery-v0.2","","""event"",""trial"",""time""
""fullscreenenter"",""1"",""2258""
","
","
","""event"",""trial"",""time""
""fullscreenenter"",""1"",""2258""
","
","","","776.6000000238419","","","17","20081","7273","&#9784;","elianto","#FFFFF080"," "," ","1","&#10004","[748.5,1638.7999999523163]","2","0","0","","","","","","","",""
"pit-trial","11","137123","0.0-2.0-4.3-0.3","battery-v0.2","","""event"",""trial"",""time""
""fullscreenenter"",""1"",""2258""
","
","
","""event"",""trial"",""time""
""fullscreenenter"",""1"",""2258""
","
","","","419.10000002384186","","","17","20081","7273","&#9784;","elianto","#FFFFF080"," "," ","1","&#10004","[1270.8999999761581]","1","0","0","","","","","","","",""
"pit-trial","12","140445","0.0-2.0-4.4-0.4","battery-v0.2","","""event"",""trial"",""time""
""fullscreenenter"",""1"",""2258""
","
","
","""event"",""trial"",""time""
""fullscreenenter"",""1"",""2258""
","
","","","459.5","","","17","20081","7273","&#9784;","elianto","#FFFFF080"," "," ","1","&#10004","[1314.5]","1","0","0","","","","","","","",""
"pit-instructions","13","163007","0.0-2.0-5.0","battery-v0.2","","""event"",""trial"",""time""
""fullscreenenter"",""1"",""2258""
","
","
","""event"",""trial"",""time""
""fullscreenenter"",""1"",""2258""
","
","","[{""page_index"":0,""viewing_time"":5376},{""page_index"":1,""viewing_time"":5832.5},{""page_index"":2,""viewing_time"":5189.5},{""page_index"":3,""viewing_time"":6159.600000023842}]","22557.800000071526","","","","","","","","","","","","","","","","","","","","","","","",""
"pit-trial","14","167861","0.0-2.0-6.0-0.0","battery-v0.2","","""event"",""trial"",""time""
""fullscreenenter"",""1"",""2258""
","
","
","""event"",""trial"",""time""
""fullscreenenter"",""1"",""2258""
","
","","","-1","","","17","20081","7273","&#9854;","elianto","#FFFFF080","-1","-1","1","&#10004","[]","0","0","1","","","","","","","",""
"pit-trial","15","171303","0.0-2.0-6.1-0.1","battery-v0.2","","""event"",""trial"",""time""
""fullscreenenter"",""1"",""2258""
","
","
","""event"",""trial"",""time""
""fullscreenenter"",""1"",""2258""
","
","","","578","","","17","20081","7273","&#9854;","elianto","#FFFFF080","-1"," ","0","&#10060","[1429.5]","1","0","1","","","","","","","",""
"pit-trial","16","176174","0.0-2.0-6.2-0.2","battery-v0.2","","""event"",""trial"",""time""
""fullscreenenter"",""1"",""2258""
","
","
","""event"",""trial"",""time""
""fullscreenenter"",""1"",""2258""
","
","","","-1","","","17","20081","7273","&#9854;","elianto","#FFFFF080","-1","-1","1","&#10004","[]","0","0","1","","","","","","","",""
"pit-trial","17","181057","0.0-2.0-6.3-0.3","battery-v0.2","","""event"",""trial"",""time""
""fullscreenenter"",""1"",""2258""
","
","
","""event"",""trial"",""time""
""fullscreenenter"",""1"",""2258""
","
","","","-1","","","17","20081","7273","&#9854;","elianto","#FFFFF080","-1","-1","1","&#10004","[]","0","0","1","","","","","","","",""
"pit-trial","18","185929","0.0-2.0-6.4-0.4","battery-v0.2","","""event"",""trial"",""time""
""fullscreenenter"",""1"",""2258""
","
","
","""event"",""trial"",""time""
""fullscreenenter"",""1"",""2258""
","
","","","-1","","","17","20081","7273","&#9854;","elianto","#FFFFF080","-1","-1","1","&#10004","[]","0","0","1","","","","","","","",""
"pit-instructions","19","309878","0.0-2.0-7.0","battery-v0.2","","""event"",""trial"",""time""
""fullscreenenter"",""1"",""2258""
","
","
","""event"",""trial"",""time""
""fullscreenenter"",""1"",""2258""
","
","","[{""page_index"":0,""viewing_time"":8579},{""page_index"":1,""viewing_time"":7143.5},{""page_index"":2,""viewing_time"":11792.100000023842},{""page_index"":3,""viewing_time"":7795.199999928474},{""page_index"":4,""viewing_time"":6214.600000023842},{""page_index"":5,""viewing_time"":6157.700000047684},{""page_index"":6,""viewing_time"":4797.199999928474},{""page_index"":7,""viewing_time"":7951.899999976158},{""page_index"":8,""viewing_time"":6333.700000047684},{""page_index"":9,""viewing_time"":5163.5},{""page_index"":10,""viewing_time"":6049.600000023842},{""page_index"":11,""viewing_time"":4580.299999952316},{""page_index"":12,""viewing_time"":9037.700000047684},{""page_index"":13,""viewing_time"":6126.5},{""page_index"":14,""viewing_time"":6012.299999952316},{""page_index"":15,""viewing_time"":6804.300000071526},{""page_index"":16,""viewing_time"":6167.799999952316},{""page_index"":17,""viewing_time"":7235.299999952316}]","123942.69999992847","","","","","","","","","","","","","","","","","","","","","","","",""
"pit-trial","20","313196","0.0-2.0-8.0-0.0","battery-v0.2","","""event"",""trial"",""time""
""fullscreenenter"",""1"",""2258""
","
","
","""event"",""trial"",""time""
""fullscreenenter"",""1"",""2258""
","
","","","460.89999997615814","","","17","20081","7273","&#9776;","elianto","#3366ff99"," "," ","1","+10","[1313.2000000476837]","1","0","1","","","","","","","",""
"pit-trial","21","316618","0.0-2.0-8.0-1.0","battery-v0.2","","""event"",""trial"",""time""
""fullscreenenter"",""1"",""2258""
","
","
","""event"",""trial"",""time""
""fullscreenenter"",""1"",""2258""
","
","","","556.2000000476837","","","17","20081","7273","&#9776;","elianto","#3366ff99"," "," ","1","+10","[1408]","1","0","1","","","","","","","",""
"pit-trial","22","320015","0.0-2.0-8.0-2.0","battery-v0.2","","""event"",""trial"",""time""
""fullscreenenter"",""1"",""2258""
","
","
","""event"",""trial"",""time""
""fullscreenenter"",""1"",""2258""
","
","","","527.8999999761581","","","17","20081","7273","&#9776;","elianto","#3366ff99"," "," ","1","+10","[1378.5999999046326]","1","0","1","","","","","","","",""
"pit-trial","23","323411","0.0-2.0-8.0-3.0","battery-v0.2","","""event"",""trial"",""time""
""fullscreenenter"",""1"",""2258""
","
","
","""event"",""trial"",""time""
""fullscreenenter"",""1"",""2258""
","
","","","538.1000000238419","","","17","20081","7273","&#9776;","elianto","#3366ff99"," "," ","1","0","[1388.3000000715256]","1","0","1","","","","","","","",""
"pit-trial","24","327312","0.0-2.0-8.0-4.0","battery-v0.2","","""event"",""trial"",""time""
""fullscreenenter"",""1"",""2258""
","
","
","""event"",""trial"",""time""
""fullscreenenter"",""1"",""2258""
","
","","","1032.8999999761581","","","17","20081","7273","&#9776;","elianto","#3366ff99"," "," ","1","+10","[1887.1000000238419]","1","0","1","","","","","","","",""
"pit-trial","25","330806","0.0-2.0-8.1-0.1","battery-v0.2","","""event"",""trial"",""time""
""fullscreenenter"",""1"",""2258""
","
","
","""event"",""trial"",""time""
""fullscreenenter"",""1"",""2258""
","
","","","628.6999999284744","","","17","20081","7273","&#9776;","elianto","#3366ff99"," "," ","1","+10","[1480.1999999284744]","1","0","1","","","","","","","",""
"pit-trial","26","334254","0.0-2.0-8.1-1.1","battery-v0.2","","""event"",""trial"",""time""
""fullscreenenter"",""1"",""2258""
","
","
","""event"",""trial"",""time""
""fullscreenenter"",""1"",""2258""
","
","","","573.6000000238419","","","17","20081","7273","&#9776;","elianto","#3366ff99"," "," ","1","+10","[1432.5]","1","0","1","","","","","","","",""
"pit-trial","27","337658","0.0-2.0-8.1-2.1","battery-v0.2","","""event"",""trial"",""time""
""fullscreenenter"",""1"",""2258""
","
","
","""event"",""trial"",""time""
""fullscreenenter"",""1"",""2258""
","
","","","534.1999999284744","","","17","20081","7273","&#9776;","elianto","#3366ff99"," "," ","1","+10","[1389.5999999046326]","1","0","1","","","","","","","",""
"pit-trial","28","341009","0.0-2.0-8.1-3.1","battery-v0.2","","""event"",""trial"",""time""
""fullscreenenter"",""1"",""2258""
","
","
","""event"",""trial"",""time""
""fullscreenenter"",""1"",""2258""
","
","","","495","","","17","20081","7273","&#9776;","elianto","#3366ff99"," "," ","1","0","[1348.6999999284744]","1","0","1","","","","","","","",""
"pit-trial","29","344289","0.0-2.0-8.1-4.1","battery-v0.2","","""event"",""trial"",""time""
""fullscreenenter"",""1"",""2258""
","
","
","""event"",""trial"",""time""
""fullscreenenter"",""1"",""2258""
","
","","","426.7000000476837","","","17","20081","7273","&#9776;","elianto","#3366ff99"," "," ","1","+10","[1277.2999999523163]","1","0","1","","","","","","","",""
"pit-trial","30","347704","0.0-2.0-8.2-0.2","battery-v0.2","","""event"",""trial"",""time""
""fullscreenenter"",""1"",""2258""
","
","
","""event"",""trial"",""time""
""fullscreenenter"",""1"",""2258""
","
","","","562.8000000715256","","","17","20081","7273","&#9776;","elianto","#3366ff99"," "," ","1","+10","[1413]","1","0","1","","","","","","","",""
"pit-trial","31","350883","0.0-2.0-8.2-1.2","battery-v0.2","","""event"",""trial"",""time""
""fullscreenenter"",""1"",""2258""
","
","
","""event"",""trial"",""time""
""fullscreenenter"",""1"",""2258""
","
","","","325.7999999523163","","","17","20081","7273","&#9776;","elianto","#3366ff99"," "," ","1","+10","[1177]","1","0","1","","","","","","","",""
"pit-trial","32","353896","0.0-2.0-8.2-2.2","battery-v0.2","","""event"",""trial"",""time""
""fullscreenenter"",""1"",""2258""
","
","
","""event"",""trial"",""time""
""fullscreenenter"",""1"",""2258""
","
","","","159.10000002384186","","","17","20081","7273","&#9776;","elianto","#3366ff99"," "," ","1","+10","[1009.5]","1","0","1","","","","","","","",""
"pit-trial","33","357232","0.0-2.0-8.2-3.2","battery-v0.2","","""event"",""trial"",""time""
""fullscreenenter"",""1"",""2258""
","
","
","""event"",""trial"",""time""
""fullscreenenter"",""1"",""2258""
","
","","","482.7999999523163","","","17","20081","7273","&#9776;","elianto","#3366ff99"," "," ","1","0","[1333.7000000476837]","1","0","1","","","","","","","",""
"pit-trial","34","360239","0.0-2.0-8.2-4.2","battery-v0.2","","""event"",""trial"",""time""
""fullscreenenter"",""1"",""2258""
","
","
","""event"",""trial"",""time""
""fullscreenenter"",""1"",""2258""
","
","","","150.60000002384186","","","17","20081","7273","&#9776;","elianto","#3366ff99"," "," ","1","+10","[1002.8000000715256]","1","0","1","","","","","","","",""
"call-function","35","360242","0.0-2.0-9.0","battery-v0.2","","""event"",""trial"",""time""
""fullscreenenter"",""1"",""2258""
","
","
","""event"",""trial"",""time""
""fullscreenenter"",""1"",""2258""
","
","","","","","","","","","","","","","","","","","","","","","","","","","","",""
"pit-instructions","36","398660","0.0-2.0-10.0","battery-v0.2","","""event"",""trial"",""time""
""fullscreenenter"",""1"",""2258""
","
","
","""event"",""trial"",""time""
""fullscreenenter"",""1"",""2258""
","
","","[{""page_index"":0,""viewing_time"":6053.400000095367},{""page_index"":1,""viewing_time"":7031.099999904633},{""page_index"":2,""viewing_time"":9700.900000095367},{""page_index"":3,""viewing_time"":8264.099999904633},{""page_index"":4,""viewing_time"":7368.200000047684}]","38418.40000009537","","","","","","","","","","","","","","","","","","","","","","","",""
"pit-trial","37","401965","0.0-2.0-11.0-0.0","battery-v0.2","","""event"",""trial"",""time""
""fullscreenenter"",""1"",""2258""
","
","
","""event"",""trial"",""time""
""fullscreenenter"",""1"",""2258""
","
","","","439.90000009536743","","","17","20081","7273","&#9761;","elianto","#3366ff99","-1"," ","0","0","[1294.8000000715256]","1","0","2","","","","","","","",""
"pit-trial","38","405159","0.0-2.0-11.0-1.0","battery-v0.2","","""event"",""trial"",""time""
""fullscreenenter"",""1"",""2258""
","
","
","""event"",""trial"",""time""
""fullscreenenter"",""1"",""2258""
","
","","","337.3000000715256","","","17","20081","7273","&#9761;","elianto","#3366ff99","-1"," ","0","0","[1188.2000000476837]","1","0","2","","","","","","","",""
"pit-trial","39","408125","0.0-2.0-11.0-2.0","battery-v0.2","","""event"",""trial"",""time""
""fullscreenenter"",""1"",""2258""
","
","
","""event"",""trial"",""time""
""fullscreenenter"",""1"",""2258""
","
","","","105","","","17","20081","7273","&#9761;","elianto","#3366ff99","-1"," ","0","0","[960]","1","0","2","","","","","","","",""
"pit-trial","40","412998","0.0-2.0-11.0-3.0","battery-v0.2","","""event"",""trial"",""time""
""fullscreenenter"",""1"",""2258""
","
","
","""event"",""trial"",""time""
""fullscreenenter"",""1"",""2258""
","
","","","-1","","","17","20081","7273","&#9761;","elianto","#3366ff99","-1","-1","1","0","[]","0","0","2","","","","","","","",""
"pit-trial","41","417874","0.0-2.0-11.0-4.0","battery-v0.2","","""event"",""trial"",""time""
""fullscreenenter"",""1"",""2258""
","
","
","""event"",""trial"",""time""
""fullscreenenter"",""1"",""2258""
","
","","","-1","","","17","20081","7273","&#9761;","elianto","#3366ff99","-1","-1","1","+10","[]","0","0","2","","","","","","","",""
"pit-trial","42","422738","0.0-2.0-11.1-0.1","battery-v0.2","","""event"",""trial"",""time""
""fullscreenenter"",""1"",""2258""
","
","
","""event"",""trial"",""time""
""fullscreenenter"",""1"",""2258""
","
","","","-1","","","17","20081","7273","&#9761;","elianto","#3366ff99","-1","-1","1","+10","[]","0","0","2","","","","","","","",""
"pit-trial","43","427598","0.0-2.0-11.1-1.1","battery-v0.2","","""event"",""trial"",""time""
""fullscreenenter"",""1"",""2258""
","
","
","""event"",""trial"",""time""
""fullscreenenter"",""1"",""2258""
","
","","","-1","","","17","20081","7273","&#9761;","elianto","#3366ff99","-1","-1","1","+10","[]","0","0","2","","","","","","","",""
"pit-trial","44","432451","0.0-2.0-11.1-2.1","battery-v0.2","","""event"",""trial"",""time""
""fullscreenenter"",""1"",""2258""
","
","
","""event"",""trial"",""time""
""fullscreenenter"",""1"",""2258""
","
","","","-1","","","17","20081","7273","&#9761;","elianto","#3366ff99","-1","-1","1","+10","[]","0","0","2","","","","","","","",""
"pit-trial","45","437305","0.0-2.0-11.1-3.1","battery-v0.2","","""event"",""trial"",""time""
""fullscreenenter"",""1"",""2258""
","
","
","""event"",""trial"",""time""
""fullscreenenter"",""1"",""2258""
","
","","","-1","","","17","20081","7273","&#9761;","elianto","#3366ff99","-1","-1","1","0","[]","0","0","2","","","","","","","",""
"pit-trial","46","442159","0.0-2.0-11.1-4.1","battery-v0.2","","""event"",""trial"",""time""
""fullscreenenter"",""1"",""2258""
","
","
","""event"",""trial"",""time""
""fullscreenenter"",""1"",""2258""
","
","","","-1","","","17","20081","7273","&#9761;","elianto","#3366ff99","-1","-1","1","+10","[]","0","0","2","","","","","","","",""
"pit-trial","47","447013","0.0-2.0-11.2-0.2","battery-v0.2","","""event"",""trial"",""time""
""fullscreenenter"",""1"",""2258""
","
","
","""event"",""trial"",""time""
""fullscreenenter"",""1"",""2258""
","
","","","-1","","","17","20081","7273","&#9761;","elianto","#3366ff99","-1","-1","1","+10","[]","0","0","2","","","","","","","",""
"pit-trial","48","451867","0.0-2.0-11.2-1.2","battery-v0.2","","""event"",""trial"",""time""
""fullscreenenter"",""1"",""2258""
","
","
","""event"",""trial"",""time""
""fullscreenenter"",""1"",""2258""
","
","","","-1","","","17","20081","7273","&#9761;","elianto","#3366ff99","-1","-1","1","+10","[]","0","0","2","","","","","","","",""
"pit-trial","49","456721","0.0-2.0-11.2-2.2","battery-v0.2","","""event"",""trial"",""time""
""fullscreenenter"",""1"",""2258""
","
","
","""event"",""trial"",""time""
""fullscreenenter"",""1"",""2258""
","
","","","-1","","","17","20081","7273","&#9761;","elianto","#3366ff99","-1","-1","1","+10","[]","0","0","2","","","","","","","",""
"pit-trial","50","461576","0.0-2.0-11.2-3.2","battery-v0.2","","""event"",""trial"",""time""
""fullscreenenter"",""1"",""2258""
","
","
","""event"",""trial"",""time""
""fullscreenenter"",""1"",""2258""
","
","","","-1","","","17","20081","7273","&#9761;","elianto","#3366ff99","-1","-1","1","0","[]","0","0","2","","","","","","","",""
"pit-trial","51","465785","0.0-2.0-11.2-4.2","battery-v0.2","","""event"",""trial"",""time""
""fullscreenenter"",""1"",""2258""
","
","
","""event"",""trial"",""time""
""fullscreenenter"",""1"",""2258""
","
","","","1355.6000000238419","","","17","20081","7273","&#9761;","elianto","#3366ff99","-1"," ","0","0","[2205.8000000715256]","1","0","2","","","","","","","",""
"pit-trial","52","468856","0.0-2.0-11.3-0.3","battery-v0.2","","""event"",""trial"",""time""
""fullscreenenter"",""1"",""2258""
","
","
","""event"",""trial"",""time""
""fullscreenenter"",""1"",""2258""
","
","","","217.20000004768372","","","17","20081","7273","&#9761;","elianto","#3366ff99","-1"," ","0","0","[1067.3999999761581]","1","0","2","","","","","","","",""
"pit-trial","53","473709","0.0-2.0-11.3-1.3","battery-v0.2","","""event"",""trial"",""time""
""fullscreenenter"",""1"",""2258""
","
","
","""event"",""trial"",""time""
""fullscreenenter"",""1"",""2258""
","
","","","-1","","","17","20081","7273","&#9761;","elianto","#3366ff99","-1","-1","1","+10","[]","0","0","2","","","","","","","",""
"pit-trial","54","477265","0.0-2.0-11.3-2.3","battery-v0.2","","""event"",""trial"",""time""
""fullscreenenter"",""1"",""2258""
","
","
","""event"",""trial"",""time""
""fullscreenenter"",""1"",""2258""
","
","","","701.8000000715256","","","17","20081","7273","&#9761;","elianto","#3366ff99","-1"," ","0","0","[1552.2000000476837]","1","0","2","","","","","","","",""
"pit-trial","55","480416","0.0-2.0-11.3-3.3","battery-v0.2","","""event"",""trial"",""time""
""fullscreenenter"",""1"",""2258""
","
","
","""event"",""trial"",""time""
""fullscreenenter"",""1"",""2258""
","
","","","296.39999997615814","","","17","20081","7273","&#9761;","elianto","#3366ff99","-1"," ","0","+10","[1146.9000000953674]","1","0","2","","","","","","","",""
"pit-trial","56","484020","0.0-2.0-11.3-4.3","battery-v0.2","","""event"",""trial"",""time""
""fullscreenenter"",""1"",""2258""
","
","
","""event"",""trial"",""time""
""fullscreenenter"",""1"",""2258""
","
","","","749.7999999523163","","","17","20081","7273","&#9761;","elianto","#3366ff99","-1"," ","0","0","[1599.7999999523163]","1","0","2","","","","","","","",""
"call-function","57","484022","0.0-2.0-12.0","battery-v0.2","","""event"",""trial"",""time""
""fullscreenenter"",""1"",""2258""
","
","
","""event"",""trial"",""time""
""fullscreenenter"",""1"",""2258""
","
","","","","","","","","","","","","","","","","","","","","","","","","","","",""
"pit-instructions","58","519617","0.0-2.0-13.0","battery-v0.2","","""event"",""trial"",""time""
""fullscreenenter"",""1"",""2258""
","
","
","""event"",""trial"",""time""
""fullscreenenter"",""1"",""2258""
","
","","[{""page_index"":0,""viewing_time"":6406.600000023842},{""page_index"":1,""viewing_time"":8032.599999904633},{""page_index"":2,""viewing_time"":3161.2000000476837},{""page_index"":3,""viewing_time"":12021.799999952316},{""page_index"":4,""viewing_time"":5967}]","35593.799999952316","","","","","","","","","","","","","","","","","","","","","","","",""
"pit-trial","59","522958","0.0-2.0-14.0-0.0","battery-v0.2","","""event"",""trial"",""time""
""fullscreenenter"",""1"",""2258""
","
","
","""event"",""trial"",""time""
""fullscreenenter"",""1"",""2258""
","
","","","470.5","","","17","20081","7273","&#9826;","elianto","#f73b6a7A","-1"," ","0","-10","[1321.6000000238419]","1","0","3","","","","","","","",""
"pit-trial","60","527816","0.0-2.0-14.0-1.0","battery-v0.2","","""event"",""trial"",""time""
""fullscreenenter"",""1"",""2258""
","
","
","""event"",""trial"",""time""
""fullscreenenter"",""1"",""2258""
","
","","","-1","","","17","20081","7273","&#9826;","elianto","#f73b6a7A","-1","-1","1","0","[]","0","0","3","","","","","","","",""
"pit-trial","61","532691","0.0-2.0-14.0-2.0","battery-v0.2","","""event"",""trial"",""time""
""fullscreenenter"",""1"",""2258""
","
","
","""event"",""trial"",""time""
""fullscreenenter"",""1"",""2258""
","
","","","-1","","","17","20081","7273","&#9826;","elianto","#f73b6a7A","-1","-1","1","0","[]","0","0","3","","","","","","","",""
"pit-trial","62","537553","0.0-2.0-14.0-3.0","battery-v0.2","","""event"",""trial"",""time""
""fullscreenenter"",""1"",""2258""
","
","
","""event"",""trial"",""time""
""fullscreenenter"",""1"",""2258""
","
","","","-1","","","17","20081","7273","&#9826;","elianto","#f73b6a7A","-1","-1","1","-10","[]","0","0","3","","","","","","","",""
"pit-trial","63","542422","0.0-2.0-14.0-4.0","battery-v0.2","","""event"",""trial"",""time""
""fullscreenenter"",""1"",""2258""
","
","
","""event"",""trial"",""time""
""fullscreenenter"",""1"",""2258""
","
","","","-1","","","17","20081","7273","&#9826;","elianto","#f73b6a7A","-1","-1","1","0","[]","0","0","3","","","","","","","",""
"pit-trial","64","547295","0.0-2.0-14.1-0.1","battery-v0.2","","""event"",""trial"",""time""
""fullscreenenter"",""1"",""2258""
","
","
","""event"",""trial"",""time""
""fullscreenenter"",""1"",""2258""
","
","","","-1","","","17","20081","7273","&#9826;","elianto","#f73b6a7A","-1","-1","1","0","[]","0","0","3","","","","","","","",""
"pit-trial","65","552149","0.0-2.0-14.1-1.1","battery-v0.2","","""event"",""trial"",""time""
""fullscreenenter"",""1"",""2258""
","
","
","""event"",""trial"",""time""
""fullscreenenter"",""1"",""2258""
","
","","","-1","","","17","20081","7273","&#9826;","elianto","#f73b6a7A","-1","-1","1","0","[]","0","0","3","","","","","","","",""
"pit-trial","66","557002","0.0-2.0-14.1-2.1","battery-v0.2","","""event"",""trial"",""time""
""fullscreenenter"",""1"",""2258""
","
","
","""event"",""trial"",""time""
""fullscreenenter"",""1"",""2258""
","
","","","-1","","","17","20081","7273","&#9826;","elianto","#f73b6a7A","-1","-1","1","0","[]","0","0","3","","","","","","","",""
"pit-trial","67","561868","0.0-2.0-14.1-3.1","battery-v0.2","","""event"",""trial"",""time""
""fullscreenenter"",""1"",""2258""
","
","
","""event"",""trial"",""time""
""fullscreenenter"",""1"",""2258""
","
","","","-1","","","17","20081","7273","&#9826;","elianto","#f73b6a7A","-1","-1","1","-10","[]","0","0","3","","","","","","","",""
"pit-trial","68","566723","0.0-2.0-14.1-4.1","battery-v0.2","","""event"",""trial"",""time""
""fullscreenenter"",""1"",""2258""
","
","
","""event"",""trial"",""time""
""fullscreenenter"",""1"",""2258""
","
","","","-1","","","17","20081","7273","&#9826;","elianto","#f73b6a7A","-1","-1","1","0","[]","0","0","3","","","","","","","",""
"pit-trial","69","571578","0.0-2.0-14.2-0.2","battery-v0.2","","""event"",""trial"",""time""
""fullscreenenter"",""1"",""2258""
","
","
","""event"",""trial"",""time""
""fullscreenenter"",""1"",""2258""
","
","","","-1","","","17","20081","7273","&#9826;","elianto","#f73b6a7A","-1","-1","1","0","[]","0","0","3","","","","","","","",""
"pit-trial","70","576432","0.0-2.0-14.2-1.2","battery-v0.2","","""event"",""trial"",""time""
""fullscreenenter"",""1"",""2258""
","
","
","""event"",""trial"",""time""
""fullscreenenter"",""1"",""2258""
","
","","","-1","","","17","20081","7273","&#9826;","elianto","#f73b6a7A","-1","-1","1","0","[]","0","0","3","","","","","","","",""
"pit-trial","71","581284","0.0-2.0-14.2-2.2","battery-v0.2","","""event"",""trial"",""time""
""fullscreenenter"",""1"",""2258""
","
","
","""event"",""trial"",""time""
""fullscreenenter"",""1"",""2258""
","
","","","-1","","","17","20081","7273","&#9826;","elianto","#f73b6a7A","-1","-1","1","0","[]","0","0","3","","","","","","","",""
"pit-trial","72","586138","0.0-2.0-14.2-3.2","battery-v0.2","","""event"",""trial"",""time""
""fullscreenenter"",""1"",""2258""
","
","
","""event"",""trial"",""time""
""fullscreenenter"",""1"",""2258""
","
","","","-1","","","17","20081","7273","&#9826;","elianto","#f73b6a7A","-1","-1","1","-10","[]","0","0","3","","","","","","","",""
"pit-trial","73","590991","0.0-2.0-14.2-4.2","battery-v0.2","","""event"",""trial"",""time""
""fullscreenenter"",""1"",""2258""
","
","
","""event"",""trial"",""time""
""fullscreenenter"",""1"",""2258""
","
","","","-1","","","17","20081","7273","&#9826;","elianto","#f73b6a7A","-1","-1","1","0","[]","0","0","3","","","","","","","",""
"pit-trial","74","595845","0.0-2.0-14.3-0.3","battery-v0.2","","""event"",""trial"",""time""
""fullscreenenter"",""1"",""2258""
","
","
","""event"",""trial"",""time""
""fullscreenenter"",""1"",""2258""
","
","","","-1","","","17","20081","7273","&#9826;","elianto","#f73b6a7A","-1","-1","1","0","[]","0","0","3","","","","","","","",""
"pit-trial","75","600700","0.0-2.0-14.3-1.3","battery-v0.2","","""event"",""trial"",""time""
""fullscreenenter"",""1"",""2258""
","
","
","""event"",""trial"",""time""
""fullscreenenter"",""1"",""2258""
","
","","","-1","","","17","20081","7273","&#9826;","elianto","#f73b6a7A","-1","-1","1","0","[]","0","0","3","","","","","","","",""
"pit-trial","76","605555","0.0-2.0-14.3-2.3","battery-v0.2","","""event"",""trial"",""time""
""fullscreenenter"",""1"",""2258""
","
","
","""event"",""trial"",""time""
""fullscreenenter"",""1"",""2258""
","
","","","-1","","","17","20081","7273","&#9826;","elianto","#f73b6a7A","-1","-1","1","0","[]","0","0","3","","","","","","","",""
"pit-trial","77","610408","0.0-2.0-14.3-3.3","battery-v0.2","","""event"",""trial"",""time""
""fullscreenenter"",""1"",""2258""
","
","
","""event"",""trial"",""time""
""fullscreenenter"",""1"",""2258""
","
","","","-1","","","17","20081","7273","&#9826;","elianto","#f73b6a7A","-1","-1","1","-10","[]","0","0","3","","","","","","","",""
"pit-trial","78","615262","0.0-2.0-14.3-4.3","battery-v0.2","","""event"",""trial"",""time""
""fullscreenenter"",""1"",""2258""
","
","
","""event"",""trial"",""time""
""fullscreenenter"",""1"",""2258""
","
","","","-1","","","17","20081","7273","&#9826;","elianto","#f73b6a7A","-1","-1","1","0","[]","0","0","3","","","","","","","",""
"call-function","79","615265","0.0-2.0-15.0","battery-v0.2","","""event"",""trial"",""time""
""fullscreenenter"",""1"",""2258""
","
","
","""event"",""trial"",""time""
""fullscreenenter"",""1"",""2258""
","
","","","","","","","","","","","","","","","","","","","","","","","","","","",""
"pit-instructions","80","650117","0.0-2.0-16.0","battery-v0.2","","""event"",""trial"",""time""
""fullscreenenter"",""1"",""2258""
","
","
","""event"",""trial"",""time""
""fullscreenenter"",""1"",""2258""
","
","","[{""page_index"":0,""viewing_time"":12423.200000047684},{""page_index"":1,""viewing_time"":11227.599999904633},{""page_index"":2,""viewing_time"":4137},{""page_index"":3,""viewing_time"":7062.5}]","34851.10000002384","","","","","","","","","","","","","","","","","","","","","","","",""
"pit-trial","81","654988","0.0-2.0-17.0-0.0","battery-v0.2","","""event"",""trial"",""time""
""fullscreenenter"",""1"",""2258""
","
","
","""event"",""trial"",""time""
""fullscreenenter"",""1"",""2258""
","
","","","-1","","","17","20081","7273","&#9789;","elianto","#f73b6a7A"," ","-1","0","-10","[]","0","0","4","","","","","","","",""
"pit-trial","82","659848","0.0-2.0-17.0-1.0","battery-v0.2","","""event"",""trial"",""time""
""fullscreenenter"",""1"",""2258""
","
","
","""event"",""trial"",""time""
""fullscreenenter"",""1"",""2258""
","
","","","-1","","","17","20081","7273","&#9789;","elianto","#f73b6a7A"," ","-1","0","-10","[]","0","0","4","","","","","","","",""
"pit-trial","83","664718","0.0-2.0-17.0-2.0","battery-v0.2","","""event"",""trial"",""time""
""fullscreenenter"",""1"",""2258""
","
","
","""event"",""trial"",""time""
""fullscreenenter"",""1"",""2258""
","
","","","-1","","","17","20081","7273","&#9789;","elianto","#f73b6a7A"," ","-1","0","-10","[]","0","0","4","","","","","","","",""
"pit-trial","84","669590","0.0-2.0-17.0-3.0","battery-v0.2","","""event"",""trial"",""time""
""fullscreenenter"",""1"",""2258""
","
","
","""event"",""trial"",""time""
""fullscreenenter"",""1"",""2258""
","
","","","-1","","","17","20081","7273","&#9789;","elianto","#f73b6a7A"," ","-1","0","0","[]","0","0","4","","","","","","","",""
"pit-trial","85","674464","0.0-2.0-17.0-4.0","battery-v0.2","","""event"",""trial"",""time""
""fullscreenenter"",""1"",""2258""
","
","
","""event"",""trial"",""time""
""fullscreenenter"",""1"",""2258""
","
","","","-1","","","17","20081","7273","&#9789;","elianto","#f73b6a7A"," ","-1","0","-10","[]","0","0","4","","","","","","","",""
"pit-trial","86","679333","0.0-2.0-17.1-0.1","battery-v0.2","","""event"",""trial"",""time""
""fullscreenenter"",""1"",""2258""
","
","
","""event"",""trial"",""time""
""fullscreenenter"",""1"",""2258""
","
","","","-1","","","17","20081","7273","&#9789;","elianto","#f73b6a7A"," ","-1","0","-10","[]","0","0","4","","","","","","","",""
"pit-trial","87","684188","0.0-2.0-17.1-1.1","battery-v0.2","","""event"",""trial"",""time""
""fullscreenenter"",""1"",""2258""
","
","
","""event"",""trial"",""time""
""fullscreenenter"",""1"",""2258""
","
","","","-1","","","17","20081","7273","&#9789;","elianto","#f73b6a7A"," ","-1","0","-10","[]","0","0","4","","","","","","","",""
"pit-trial","88","689042","0.0-2.0-17.1-2.1","battery-v0.2","","""event"",""trial"",""time""
""fullscreenenter"",""1"",""2258""
","
","
","""event"",""trial"",""time""
""fullscreenenter"",""1"",""2258""
","
","","","-1","","","17","20081","7273","&#9789;","elianto","#f73b6a7A"," ","-1","0","-10","[]","0","0","4","","","","","","","",""
"pit-trial","89","693896","0.0-2.0-17.1-3.1","battery-v0.2","","""event"",""trial"",""time""
""fullscreenenter"",""1"",""2258""
","
","
","""event"",""trial"",""time""
""fullscreenenter"",""1"",""2258""
","
","","","-1","","","17","20081","7273","&#9789;","elianto","#f73b6a7A"," ","-1","0","0","[]","0","0","4","","","","","","","",""
"pit-trial","90","698751","0.0-2.0-17.1-4.1","battery-v0.2","","""event"",""trial"",""time""
""fullscreenenter"",""1"",""2258""
","
","
","""event"",""trial"",""time""
""fullscreenenter"",""1"",""2258""
","
","","","-1","","","17","20081","7273","&#9789;","elianto","#f73b6a7A"," ","-1","0","-10","[]","0","0","4","","","","","","","",""
"pit-trial","91","703605","0.0-2.0-17.2-0.2","battery-v0.2","","""event"",""trial"",""time""
""fullscreenenter"",""1"",""2258""
","
","
","""event"",""trial"",""time""
""fullscreenenter"",""1"",""2258""
","
","","","-1","","","17","20081","7273","&#9789;","elianto","#f73b6a7A"," ","-1","0","-10","[]","0","0","4","","","","","","","",""
"pit-trial","92","708458","0.0-2.0-17.2-1.2","battery-v0.2","","""event"",""trial"",""time""
""fullscreenenter"",""1"",""2258""
","
","
","""event"",""trial"",""time""
""fullscreenenter"",""1"",""2258""
","
","","","-1","","","17","20081","7273","&#9789;","elianto","#f73b6a7A"," ","-1","0","-10","[]","0","0","4","","","","","","","",""
"pit-trial","93","713311","0.0-2.0-17.2-2.2","battery-v0.2","","""event"",""trial"",""time""
""fullscreenenter"",""1"",""2258""
","
","
","""event"",""trial"",""time""
""fullscreenenter"",""1"",""2258""
","
","","","-1","","","17","20081","7273","&#9789;","elianto","#f73b6a7A"," ","-1","0","-10","[]","0","0","4","","","","","","","",""
"pit-trial","94","718166","0.0-2.0-17.2-3.2","battery-v0.2","","""event"",""trial"",""time""
""fullscreenenter"",""1"",""2258""
","
","
","""event"",""trial"",""time""
""fullscreenenter"",""1"",""2258""
","
","","","-1","","","17","20081","7273","&#9789;","elianto","#f73b6a7A"," ","-1","0","0","[]","0","0","4","","","","","","","",""
"pit-trial","95","723021","0.0-2.0-17.2-4.2","battery-v0.2","","""event"",""trial"",""time""
""fullscreenenter"",""1"",""2258""
","
","
","""event"",""trial"",""time""
""fullscreenenter"",""1"",""2258""
","
","","","-1","","","17","20081","7273","&#9789;","elianto","#f73b6a7A"," ","-1","0","-10","[]","0","0","4","","","","","","","",""
"pit-trial","96","727876","0.0-2.0-17.3-0.3","battery-v0.2","","""event"",""trial"",""time""
""fullscreenenter"",""1"",""2258""
","
","
","""event"",""trial"",""time""
""fullscreenenter"",""1"",""2258""
","
","","","-1","","","17","20081","7273","&#9789;","elianto","#f73b6a7A"," ","-1","0","-10","[]","0","0","4","","","","","","","",""
"pit-trial","97","732731","0.0-2.0-17.3-1.3","battery-v0.2","","""event"",""trial"",""time""
""fullscreenenter"",""1"",""2258""
","
","
","""event"",""trial"",""time""
""fullscreenenter"",""1"",""2258""
","
","","","-1","","","17","20081","7273","&#9789;","elianto","#f73b6a7A"," ","-1","0","-10","[]","0","0","4","","","","","","","",""
"pit-trial","98","737598","0.0-2.0-17.3-2.3","battery-v0.2","","""event"",""trial"",""time""
""fullscreenenter"",""1"",""2258""
","
","
","""event"",""trial"",""time""
""fullscreenenter"",""1"",""2258""
","
","","","-1","","","17","20081","7273","&#9789;","elianto","#f73b6a7A"," ","-1","0","-10","[]","0","0","4","","","","","","","",""
"pit-trial","99","742450","0.0-2.0-17.3-3.3","battery-v0.2","","""event"",""trial"",""time""
""fullscreenenter"",""1"",""2258""
","
","
","""event"",""trial"",""time""
""fullscreenenter"",""1"",""2258""
","
","","","-1","","","17","20081","7273","&#9789;","elianto","#f73b6a7A"," ","-1","0","0","[]","0","0","4","","","","","","","",""
"pit-trial","100","747303","0.0-2.0-17.3-4.3","battery-v0.2","","""event"",""trial"",""time""
""fullscreenenter"",""1"",""2258""
","
","
","""event"",""trial"",""time""
""fullscreenenter"",""1"",""2258""
","
","","","-1","","","17","20081","7273","&#9789;","elianto","#f73b6a7A"," ","-1","0","-10","[]","0","0","4","","","","","","","",""
"call-function","101","747306","0.0-2.0-18.0","battery-v0.2","","""event"",""trial"",""time""
""fullscreenenter"",""1"",""2258""
","
","
","""event"",""trial"",""time""
""fullscreenenter"",""1"",""2258""
","
","","","","","","","","","","","","","","","","","","","","","","","","","","",""
"pit-instructions","102","829515","0.0-2.0-19.0","battery-v0.2","","""event"",""trial"",""time""
""fullscreenenter"",""1"",""2258""
","
","
","""event"",""trial"",""time""
""fullscreenenter"",""1"",""2258""
","
","","[{""page_index"":0,""viewing_time"":8286.5},{""page_index"":1,""viewing_time"":14723.900000095367},{""page_index"":2,""viewing_time"":15503.5},{""page_index"":3,""viewing_time"":4609.599999904633},{""page_index"":4,""viewing_time"":9535.900000095367},{""page_index"":5,""viewing_time"":8537.899999976158},{""page_index"":6,""viewing_time"":9203.100000023842},{""page_index"":7,""viewing_time"":6979.699999928474},{""page_index"":8,""viewing_time"":4827.899999976158}]","82208.30000007153","","","","","","","","","","","","","","","","","","","","","","","",""
"pit-comprehension","103","834798","0.0-2.0-20.0-0.0","battery-v0.2","","""event"",""trial"",""time""
""fullscreenenter"",""1"",""2258""
","
","
","""event"",""trial"",""time""
""fullscreenenter"",""1"",""2258""
","
","","","5280.400000095367","[""SPACE""]","0","17","20081","7273","","","","","","","","","","","","","","","","","","",""
"pit-instructions","104","838324","0.0-2.0-20.0-1.0","battery-v0.2","","""event"",""trial"",""time""
""fullscreenenter"",""1"",""2258""
","
","
","""event"",""trial"",""time""
""fullscreenenter"",""1"",""2258""
","
","","[{""page_index"":0,""viewing_time"":3492.7000000476837}]","3492.9000000953674","","","","","","","","","","","","","","","","","","","","","","","",""
"pit-comprehension","105","845649","0.0-2.0-21.0-0.0","battery-v0.2","","""event"",""trial"",""time""
""fullscreenenter"",""1"",""2258""
","
","
","""event"",""trial"",""time""
""fullscreenenter"",""1"",""2258""
","
","","","7323.699999928474","[""10""]","0","17","20081","7273","","","","","","","","","","","","","","","","","","",""
"pit-instructions","106","848063","0.0-2.0-21.0-1.0","battery-v0.2","","""event"",""trial"",""time""
""fullscreenenter"",""1"",""2258""
","
","
","""event"",""trial"",""time""
""fullscreenenter"",""1"",""2258""
","
","","[{""page_index"":0,""viewing_time"":2386.1999999284744}]","2386.399999976158","","","","","","","","","","","","","","","","","","","","","","","",""
"pit-comprehension","107","855101","0.0-2.0-22.0-0.0","battery-v0.2","","""event"",""trial"",""time""
""fullscreenenter"",""1"",""2258""
","
","
","""event"",""trial"",""time""
""fullscreenenter"",""1"",""2258""
","
","","","7035.899999976158","[""0""]","0","17","20081","7273","","","","","","","","","","","","","","","","","","",""
"pit-instructions","108","859232","0.0-2.0-22.0-1.0","battery-v0.2","","""event"",""trial"",""time""
""fullscreenenter"",""1"",""2258""
","
","
","""event"",""trial"",""time""
""fullscreenenter"",""1"",""2258""
","
","","[{""page_index"":0,""viewing_time"":4102.600000023842}]","4102.800000071526","","","","","","","","","","","","","","","","","","","","","","","",""
"pit-comprehension","109","871740","0.0-2.0-23.0-0.0","battery-v0.2","","""event"",""trial"",""time""
""fullscreenenter"",""1"",""2258""
","
","
","""event"",""trial"",""time""
""fullscreenenter"",""1"",""2258""
","
","","","12505.699999928474","[""False""]","1","17","20081","7273","","","","","","","","","","","","","","","","","","",""
"pit-instructions","110","873647","0.0-2.0-23.0-1.0","battery-v0.2","","""event"",""trial"",""time""
""fullscreenenter"",""1"",""2258""
","
","
","""event"",""trial"",""time""
""fullscreenenter"",""1"",""2258""
","
","","[{""page_index"":0,""viewing_time"":1875.0999999046326}]","1875.3999999761581","","","","","","","","","","","","","","","","","","","","","","","",""
"pit-instructions","111","875148","0.0-2.0-23.0-2.0-0.0","battery-v0.2","","""event"",""trial"",""time""
""fullscreenenter"",""1"",""2258""
","
","
","""event"",""trial"",""time""
""fullscreenenter"",""1"",""2258""
","
","","[{""page_index"":0,""viewing_time"":1498.8999999761581}]","1499.1000000238419","","","","","","","","","","","","","","","","","","","","","","","",""
"pit-comprehension","112","885884","0.0-2.0-23.1-0.1","battery-v0.2","","""event"",""trial"",""time""
""fullscreenenter"",""1"",""2258""
","
","
","""event"",""trial"",""time""
""fullscreenenter"",""1"",""2258""
","
","","","10735.399999976158","[""True""]","0","17","20081","7273","","","","","","","","","","","","","","","","","","",""
"pit-instructions","113","895397","0.0-2.0-23.1-1.1","battery-v0.2","","""event"",""trial"",""time""
""fullscreenenter"",""1"",""2258""
","
","
","""event"",""trial"",""time""
""fullscreenenter"",""1"",""2258""
","
","","[{""page_index"":0,""viewing_time"":9484.200000047684}]","9484.300000071526","","","","","","","","","","","","","","","","","","","","","","","",""
"pit-comprehension","114","908037","0.0-2.0-24.0-0.0","battery-v0.2","","""event"",""trial"",""time""
""fullscreenenter"",""1"",""2258""
","
","
","""event"",""trial"",""time""
""fullscreenenter"",""1"",""2258""
","
","","","12638.399999976158","[""True""]","0","17","20081","7273","","","","","","","","","","","","","","","","","","",""
"pit-instructions","115","911951","0.0-2.0-24.0-1.0","battery-v0.2","","""event"",""trial"",""time""
""fullscreenenter"",""1"",""2258""
","
","
","""event"",""trial"",""time""
""fullscreenenter"",""1"",""2258""
","
","","[{""page_index"":0,""viewing_time"":3886.100000023842}]","3886.3000000715256","","","","","","","","","","","","","","","","","","","","","","","",""
"pit-comprehension","116","919066","0.0-2.0-25.0-0.0","battery-v0.2","","""event"",""trial"",""time""
""fullscreenenter"",""1"",""2258""
","
","
","""event"",""trial"",""time""
""fullscreenenter"",""1"",""2258""
","
","","","7113.799999952316","[""True""]","0","17","20081","7273","","","","","","","","","","","","","","","","","","",""
"pit-instructions","117","923832","0.0-2.0-25.0-1.0","battery-v0.2","","""event"",""trial"",""time""
""fullscreenenter"",""1"",""2258""
","
","
","""event"",""trial"",""time""
""fullscreenenter"",""1"",""2258""
","
","","[{""page_index"":0,""viewing_time"":4733.200000047684}]","4733.399999976158","","","","","","","","","","","","","","","","","","","","","","","",""
"pit-comprehension","118","932052","0.0-2.0-26.0-0.0","battery-v0.2","","""event"",""trial"",""time""
""fullscreenenter"",""1"",""2258""
","
","
","""event"",""trial"",""time""
""fullscreenenter"",""1"",""2258""
","
","","","8217.300000071526","[""True""]","1","17","20081","7273","","","","","","","","","","","","","","","","","","",""
"pit-instructions","119","933514","0.0-2.0-26.0-1.0","battery-v0.2","","""event"",""trial"",""time""
""fullscreenenter"",""1"",""2258""
","
","
","""event"",""trial"",""time""
""fullscreenenter"",""1"",""2258""
","
","","[{""page_index"":0,""viewing_time"":1433.1000000238419}]","1433.2000000476837","","","","","","","","","","","","","","","","","","","","","","","",""
"pit-instructions","120","934904","0.0-2.0-26.0-2.0-0.0","battery-v0.2","","""event"",""trial"",""time""
""fullscreenenter"",""1"",""2258""
","
","
","""event"",""trial"",""time""
""fullscreenenter"",""1"",""2258""
","
","","[{""page_index"":0,""viewing_time"":1388.5}]","1388.6999999284744","","","","","","","","","","","","","","","","","","","","","","","",""
"pit-comprehension","121","939543","0.0-2.0-26.1-0.1","battery-v0.2","","""event"",""trial"",""time""
""fullscreenenter"",""1"",""2258""
","
","
","""event"",""trial"",""time""
""fullscreenenter"",""1"",""2258""
","
","","","4637.299999952316","[""False""]","0","17","20081","7273","","","","","","","","","","","","","","","","","","",""
"pit-instructions","122","943433","0.0-2.0-26.1-1.1","battery-v0.2","","""event"",""trial"",""time""
""fullscreenenter"",""1"",""2258""
","
","
","""event"",""trial"",""time""
""fullscreenenter"",""1"",""2258""
","
","","[{""page_index"":0,""viewing_time"":3861.7999999523163}]","3862.0999999046326","","","","","","","","","","","","","","","","","","","","","","","",""
"pit-instructions","123","959271","0.0-3.0","battery-v0.2","","""event"",""trial"",""time""
""fullscreenenter"",""1"",""2258""
","
","
","""event"",""trial"",""time""
""fullscreenenter"",""1"",""2258""
","
","","[{""page_index"":0,""viewing_time"":4155},{""page_index"":1,""viewing_time"":5111.399999976158},{""page_index"":2,""viewing_time"":6570}]","15836.599999904633","","","","","","","","","","","","","","","","","","","","","","","",""
"pit-trial","124","962625","0.0-4.0","battery-v0.2","","""event"",""trial"",""time""
""fullscreenenter"",""1"",""2258""
","
","
","""event"",""trial"",""time""
""fullscreenenter"",""1"",""2258""
","
","","","492.2999999523163","","","17","20081","7273","&#9730;","elianto","#3366ff99"," "," ","1","+10","[1344.1000000238419]","1","1","","","20081","1","1","1","win","go","0"
"pit-trial","125","965989","0.0-5.0","battery-v0.2","","""event"",""trial"",""time""
""fullscreenenter"",""1"",""2258""
","
","
","""event"",""trial"",""time""
""fullscreenenter"",""1"",""2258""
","
","","","497.6999999284744","","","17","20081","7273","&#9733;","elianto","#3366ff99","-1"," ","0","+10","[1347.7999999523163]","1","1","","","20081","2","2","2","win","no-go","1"
"pit-trial","126","970842","0.0-6.0","battery-v0.2","","""event"",""trial"",""time""
""fullscreenenter"",""1"",""2258""
","
","
","""event"",""trial"",""time""
""fullscreenenter"",""1"",""2258""
","
","","","-1","","","17","20081","7273","&#9752;","elianto","#f73b6a7A"," ","-1","0","-10","[]","0","1","","","20081","3","3","3","lose","go","0"
"pit-trial","127","975704","0.0-7.0","battery-v0.2","","""event"",""trial"",""time""
""fullscreenenter"",""1"",""2258""
","
","
","""event"",""trial"",""time""
""fullscreenenter"",""1"",""2258""
","
","","","-1","","","17","20081","7273","&#9728;","elianto","#f73b6a7A","-1","-1","1","0","[]","0","1","","","20081","4","0","4","lose","no-go","0"
"pit-trial","128","979111","0.0-8.0","battery-v0.2","","""event"",""trial"",""time""
""fullscreenenter"",""1"",""2258""
","
","
","""event"",""trial"",""time""
""fullscreenenter"",""1"",""2258""
","
","","","551","","","17","20081","7273","&#9733;","elianto","#3366ff99","-1"," ","0","0","[1404.8000000715256]","1","1","","","20081","5","2","2","win","no-go","0"
"pit-trial","129","982572","0.0-9.0","battery-v0.2","","""event"",""trial"",""time""
""fullscreenenter"",""1"",""2258""
","
","
","""event"",""trial"",""time""
""fullscreenenter"",""1"",""2258""
","
","","","589.8999999761581","","","17","20081","7273","&#9730;","elianto","#3366ff99"," "," ","1","+10","[1453.8999999761581]","1","1","","","20081","6","1","1","win","go","0"
"pit-trial","130","987432","0.0-10.0","battery-v0.2","","""event"",""trial"",""time""
""fullscreenenter"",""1"",""2258""
","
","
","""event"",""trial"",""time""
""fullscreenenter"",""1"",""2258""
","
","","","-1","","","17","20081","7273","&#9728;","elianto","#f73b6a7A","-1","-1","1","0","[]","0","1","","","20081","7","0","4","lose","no-go","0"
"pit-trial","131","992285","0.0-11.0","battery-v0.2","","""event"",""trial"",""time""
""fullscreenenter"",""1"",""2258""
","
","
","""event"",""trial"",""time""
""fullscreenenter"",""1"",""2258""
","
","","","-1","","","17","20081","7273","&#9752;","elianto","#f73b6a7A"," ","-1","0","-10","[]","0","1","","","20081","8","3","3","lose","go","0"
"pit-trial","132","997145","0.0-12.0","battery-v0.2","","""event"",""trial"",""time""
""fullscreenenter"",""1"",""2258""
","
","
","""event"",""trial"",""time""
""fullscreenenter"",""1"",""2258""
","
","","","-1","","","17","20081","7273","&#9728;","elianto","#f73b6a7A","-1","-1","1","-10","[]","0","1","","","20081","9","0","4","lose","no-go","1"
"pit-trial","133","1000498","0.0-13.0","battery-v0.2","","""event"",""trial"",""time""
""fullscreenenter"",""1"",""2258""
","
","
","""event"",""trial"",""time""
""fullscreenenter"",""1"",""2258""
","
","","","501.7000000476837","","","17","20081","7273","&#9730;","elianto","#3366ff99"," "," ","1","+10","[1351.9000000953674]","1","1","","","20081","10","1","1","win","go","0"
"pit-trial","134","1003995","0.0-14.0","battery-v0.2","","""event"",""trial"",""time""
""fullscreenenter"",""1"",""2258""
","
","
","""event"",""trial"",""time""
""fullscreenenter"",""1"",""2258""
","
","","","644.8000000715256","","","17","20081","7273","&#9733;","elianto","#3366ff99","-1"," ","0","0","[1495.4000000953674]","1","1","","","20081","11","2","2","win","no-go","0"
"pit-trial","135","1008847","0.0-15.0","battery-v0.2","","""event"",""trial"",""time""
""fullscreenenter"",""1"",""2258""
","
","
","""event"",""trial"",""time""
""fullscreenenter"",""1"",""2258""
","
","","","-1","","","17","20081","7273","&#9752;","elianto","#f73b6a7A"," ","-1","0","-10","[]","0","1","","","20081","12","3","3","lose","go","0"
"pit-trial","136","1012109","0.0-16.0","battery-v0.2","","""event"",""trial"",""time""
""fullscreenenter"",""1"",""2258""
","
","
","""event"",""trial"",""time""
""fullscreenenter"",""1"",""2258""
","
","","","409.6999999284744","","","17","20081","7273","&#9733;","elianto","#3366ff99","-1"," ","0","0","[1260]","1","1","","","20081","13","2","2","win","no-go","0"
"pit-trial","137","1015654","0.0-17.0","battery-v0.2","","""event"",""trial"",""time""
""fullscreenenter"",""1"",""2258""
","
","
","""event"",""trial"",""time""
""fullscreenenter"",""1"",""2258""
","
","","","691.8999999761581","","","17","20081","7273","&#9730;","elianto","#3366ff99"," "," ","1","+10","[1543.1000000238419]","1","1","","","20081","14","1","1","win","go","0"
"pit-trial","138","1020504","0.0-18.0","battery-v0.2","","""event"",""trial"",""time""
""fullscreenenter"",""1"",""2258""
","
","
","""event"",""trial"",""time""
""fullscreenenter"",""1"",""2258""
","
","","","-1","","","17","20081","7273","&#9728;","elianto","#f73b6a7A","-1","-1","1","0","[]","0","1","","","20081","15","0","4","lose","no-go","0"
"pit-trial","139","1025357","0.0-19.0","battery-v0.2","","""event"",""trial"",""time""
""fullscreenenter"",""1"",""2258""
","
","
","""event"",""trial"",""time""
""fullscreenenter"",""1"",""2258""
","
","","","-1","","","17","20081","7273","&#9752;","elianto","#f73b6a7A"," ","-1","0","0","[]","0","1","","","20081","16","3","3","lose","go","1"
"pit-trial","140","1030212","0.0-20.0","battery-v0.2","","""event"",""trial"",""time""
""fullscreenenter"",""1"",""2258""
","
","
","""event"",""trial"",""time""
""fullscreenenter"",""1"",""2258""
","
","","","-1","","","17","20081","7273","&#9728;","elianto","#f73b6a7A","-1","-1","1","0","[]","0","1","","","20081","17","0","4","lose","no-go","0"
"pit-trial","141","1033509","0.0-21.0","battery-v0.2","","""event"",""trial"",""time""
""fullscreenenter"",""1"",""2258""
","
","
","""event"",""trial"",""time""
""fullscreenenter"",""1"",""2258""
","
","","","442.89999997615814","","","17","20081","7273","&#9730;","elianto","#3366ff99"," "," ","1","+10","[1294.7999999523163]","1","1","","","20081","18","1","1","win","go","0"
"pit-trial","142","1038363","0.0-22.0","battery-v0.2","","""event"",""trial"",""time""
""fullscreenenter"",""1"",""2258""
","
","
","""event"",""trial"",""time""
""fullscreenenter"",""1"",""2258""
","
","","","-1","","","17","20081","7273","&#9752;","elianto","#f73b6a7A"," ","-1","0","0","[]","0","1","","","20081","19","3","3","lose","go","1"
"pit-trial","143","1041697","0.0-23.0","battery-v0.2","","""event"",""trial"",""time""
""fullscreenenter"",""1"",""2258""
","
","
","""event"",""trial"",""time""
""fullscreenenter"",""1"",""2258""
","
","","","481.39999997615814","","","17","20081","7273","&#9733;","elianto","#3366ff99","-1"," ","0","0","[1332.1999999284744]","1","1","","","20081","20","2","2","win","no-go","0"
"pit-instructions","144","1053714","0.0-24.0","battery-v0.2","","""event"",""trial"",""time""
""fullscreenenter"",""1"",""2258""
","
","
","""event"",""trial"",""time""
""fullscreenenter"",""1"",""2258""
","
","","[{""page_index"":0,""viewing_time"":5879.199999928474},{""page_index"":1,""viewing_time"":6135.600000023842}]","12015.099999904633","","","","","","","","","","","","","","","","","","","","","","","",""
"pit-trial","145","1058591","0.0-25.0","battery-v0.2","","""event"",""trial"",""time""
""fullscreenenter"",""1"",""2258""
","
","
","""event"",""trial"",""time""
""fullscreenenter"",""1"",""2258""
","
","","","-1","","","17","20081","7273","a","elianto","#f73b6a7A"," ","-1","0","-10","[]","0","2","","","20081","21","2","3","lose","go","0"
"pit-trial","146","1063450","0.0-26.0","battery-v0.2","","""event"",""trial"",""time""
""fullscreenenter"",""1"",""2258""
","
","
","""event"",""trial"",""time""
""fullscreenenter"",""1"",""2258""
","
","","","-1","","","17","20081","7273","u","elianto","#f73b6a7A"," ","-1","0","-10","[]","0","2","","","20081","22","0","3","lose","go","0"
"pit-trial","147","1066737","0.0-27.0","battery-v0.2","","""event"",""trial"",""time""
""fullscreenenter"",""1"",""2258""
","
","
","""event"",""trial"",""time""
""fullscreenenter"",""1"",""2258""
","
","","","417","","","17","20081","7273","l","elianto","#3366ff99","-1"," ","0","+10","[1270.7999999523163]","1","2","","","20081","23","1","2","win","no-go","1"
"pit-trial","148","1071601","0.0-28.0","battery-v0.2","","""event"",""trial"",""time""
""fullscreenenter"",""1"",""2258""
","
","
","""event"",""trial"",""time""
""fullscreenenter"",""1"",""2258""
","
","","","-1","","","17","20081","7273","g","elianto","#f73b6a7A","-1","-1","1","-10","[]","0","2","","","20081","24","3","4","lose","no-go","1"
"pit-trial","149","1076463","0.0-29.0","battery-v0.2","","""event"",""trial"",""time""
""fullscreenenter"",""1"",""2258""
","
","
","""event"",""trial"",""time""
""fullscreenenter"",""1"",""2258""
","
","","","-1","","","17","20081","7273","g","elianto","#f73b6a7A","-1","-1","1","0","[]","0","2","","","20081","25","3","4","lose","no-go","0"
"pit-trial","150","1079777","0.0-30.0","battery-v0.2","","""event"",""trial"",""time""
""fullscreenenter"",""1"",""2258""
","
","
","""event"",""trial"",""time""
""fullscreenenter"",""1"",""2258""
","
","","","454","","","17","20081","7273","l","elianto","#3366ff99","-1"," ","0","0","[1310.6999999284744]","1","2","","","20081","26","1","2","win","no-go","0"
"pit-trial","151","1084644","0.0-31.0","battery-v0.2","","""event"",""trial"",""time""
""fullscreenenter"",""1"",""2258""
","
","
","""event"",""trial"",""time""
""fullscreenenter"",""1"",""2258""
","
","","","-1","","","17","20081","7273","a","elianto","#f73b6a7A"," ","-1","0","-10","[]","0","2","","","20081","27","2","3","lose","go","0"
"pit-trial","152","1089496","0.0-32.0","battery-v0.2","","""event"",""trial"",""time""
""fullscreenenter"",""1"",""2258""
","
","
","""event"",""trial"",""time""
""fullscreenenter"",""1"",""2258""
","
","","","-1","","","17","20081","7273","u","elianto","#f73b6a7A"," ","-1","0","-10","[]","0","2","","","20081","28","0","3","lose","go","0"
"pit-trial","153","1094350","0.0-33.0","battery-v0.2","","""event"",""trial"",""time""
""fullscreenenter"",""1"",""2258""
","
","
","""event"",""trial"",""time""
""fullscreenenter"",""1"",""2258""
","
","","","-1","","","17","20081","7273","u","elianto","#f73b6a7A"," ","-1","0","-10","[]","0","2","","","20081","29","0","3","lose","go","0"
"pit-trial","154","1097594","0.0-34.0","battery-v0.2","","""event"",""trial"",""time""
""fullscreenenter"",""1"",""2258""
","
","
","""event"",""trial"",""time""
""fullscreenenter"",""1"",""2258""
","
","","","390","","","17","20081","7273","l","elianto","#3366ff99","-1"," ","0","+10","[1241.6000000238419]","1","2","","","20081","30","1","2","win","no-go","1"
"pit-trial","155","1102462","0.0-35.0","battery-v0.2","","""event"",""trial"",""time""
""fullscreenenter"",""1"",""2258""
","
","
","""event"",""trial"",""time""
""fullscreenenter"",""1"",""2258""
","
","","","-1","","","17","20081","7273","g","elianto","#f73b6a7A","-1","-1","1","0","[]","0","2","","","20081","31","3","4","lose","no-go","0"
"pit-trial","156","1107314","0.0-36.0","battery-v0.2","","""event"",""trial"",""time""
""fullscreenenter"",""1"",""2258""
","
","
","""event"",""trial"",""time""
""fullscreenenter"",""1"",""2258""
","
","","","-1","","","17","20081","7273","a","elianto","#f73b6a7A"," ","-1","0","-10","[]","0","2","","","20081","32","2","3","lose","go","0"
"pit-trial","157","1112166","0.0-37.0","battery-v0.2","","""event"",""trial"",""time""
""fullscreenenter"",""1"",""2258""
","
","
","""event"",""trial"",""time""
""fullscreenenter"",""1"",""2258""
","
","","","-1","","","17","20081","7273","u","elianto","#f73b6a7A"," ","-1","0","0","[]","0","2","","","20081","33","0","3","lose","go","1"
"pit-trial","158","1117019","0.0-38.0","battery-v0.2","","""event"",""trial"",""time""
""fullscreenenter"",""1"",""2258""
","
","
","""event"",""trial"",""time""
""fullscreenenter"",""1"",""2258""
","
","","","-1","","","17","20081","7273","a","elianto","#f73b6a7A"," ","-1","0","0","[]","0","2","","","20081","34","2","3","lose","go","1"
"pit-trial","159","1120565","0.0-39.0","battery-v0.2","","""event"",""trial"",""time""
""fullscreenenter"",""1"",""2258""
","
","
","""event"",""trial"",""time""
""fullscreenenter"",""1"",""2258""
","
","","","693.3000000715256","","","17","20081","7273","l","elianto","#3366ff99","-1"," ","0","+10","[1543.7000000476837]","1","2","","","20081","35","1","2","win","no-go","1"
"pit-trial","160","1125418","0.0-40.0","battery-v0.2","","""event"",""trial"",""time""
""fullscreenenter"",""1"",""2258""
","
","
","""event"",""trial"",""time""
""fullscreenenter"",""1"",""2258""
","
","","","-1","","","17","20081","7273","g","elianto","#f73b6a7A","-1","-1","1","0","[]","0","2","","","20081","36","3","4","lose","no-go","0"
"pit-trial","161","1130271","0.0-41.0","battery-v0.2","","""event"",""trial"",""time""
""fullscreenenter"",""1"",""2258""
","
","
","""event"",""trial"",""time""
""fullscreenenter"",""1"",""2258""
","
","","","-1","","","17","20081","7273","a","elianto","#f73b6a7A"," ","-1","0","-10","[]","0","2","","","20081","37","2","3","lose","go","0"
"pit-trial","162","1133543","0.0-42.0","battery-v0.2","","""event"",""trial"",""time""
""fullscreenenter"",""1"",""2258""
","
","
","""event"",""trial"",""time""
""fullscreenenter"",""1"",""2258""
","
","","","419.1999999284744","","","17","20081","7273","l","elianto","#3366ff99","-1"," ","0","0","[1270.6999999284744]","1","2","","","20081","38","1","2","win","no-go","0"
"pit-trial","163","1138396","0.0-43.0","battery-v0.2","","""event"",""trial"",""time""
""fullscreenenter"",""1"",""2258""
","
","
","""event"",""trial"",""time""
""fullscreenenter"",""1"",""2258""
","
","","","-1","","","17","20081","7273","g","elianto","#f73b6a7A","-1","-1","1","-10","[]","0","2","","","20081","39","3","4","lose","no-go","1"
"pit-trial","164","1143236","0.0-44.0","battery-v0.2","","""event"",""trial"",""time""
""fullscreenenter"",""1"",""2258""
","
","
","""event"",""trial"",""time""
""fullscreenenter"",""1"",""2258""
","
","","","-1","","","17","20081","7273","u","elianto","#f73b6a7A"," ","-1","0","0","[]","0","2","","","20081","40","0","3","lose","go","1"
"pit-trial","165","1148088","0.0-45.0","battery-v0.2","","""event"",""trial"",""time""
""fullscreenenter"",""1"",""2258""
","
","
","""event"",""trial"",""time""
""fullscreenenter"",""1"",""2258""
","
","","","-1","","","17","20081","7273","u","elianto","#f73b6a7A"," ","-1","0","0","[]","0","2","","","20081","41","0","3","lose","go","1"
"pit-trial","166","1152940","0.0-46.0","battery-v0.2","","""event"",""trial"",""time""
""fullscreenenter"",""1"",""2258""
","
","
","""event"",""trial"",""time""
""fullscreenenter"",""1"",""2258""
","
","","","-1","","","17","20081","7273","a","elianto","#f73b6a7A"," ","-1","0","-10","[]","0","2","","","20081","42","2","3","lose","go","0"
"pit-trial","167","1157793","0.0-47.0","battery-v0.2","","""event"",""trial"",""time""
""fullscreenenter"",""1"",""2258""
","
","
","""event"",""trial"",""time""
""fullscreenenter"",""1"",""2258""
","
","","","-1","","","17","20081","7273","g","elianto","#f73b6a7A","-1","-1","1","0","[]","0","2","","","20081","43","3","4","lose","no-go","0"
"pit-trial","168","1161195","0.0-48.0","battery-v0.2","","""event"",""trial"",""time""
""fullscreenenter"",""1"",""2258""
","
","
","""event"",""trial"",""time""
""fullscreenenter"",""1"",""2258""
","
","","","550.5","","","17","20081","7273","l","elianto","#3366ff99","-1"," ","0","0","[1400.5]","1","2","","","20081","44","1","2","win","no-go","0"
"pit-trial","169","1166047","0.0-49.0","battery-v0.2","","""event"",""trial"",""time""
""fullscreenenter"",""1"",""2258""
","
","
","""event"",""trial"",""time""
""fullscreenenter"",""1"",""2258""
","
","","","-1","","","17","20081","7273","u","elianto","#f73b6a7A"," ","-1","0","0","[]","0","2","","","20081","45","0","3","lose","go","1"
"pit-trial","170","1170899","0.0-50.0","battery-v0.2","","""event"",""trial"",""time""
""fullscreenenter"",""1"",""2258""
","
","
","""event"",""trial"",""time""
""fullscreenenter"",""1"",""2258""
","
","","","-1","","","17","20081","7273","g","elianto","#f73b6a7A","-1","-1","1","-10","[]","0","2","","","20081","46","3","4","lose","no-go","1"
"pit-trial","171","1175752","0.0-51.0","battery-v0.2","","""event"",""trial"",""time""
""fullscreenenter"",""1"",""2258""
","
","
","""event"",""trial"",""time""
""fullscreenenter"",""1"",""2258""
","
","","","-1","","","17","20081","7273","a","elianto","#f73b6a7A"," ","-1","0","-10","[]","0","2","","","20081","47","2","3","lose","go","0"
"pit-trial","172","1179053","0.0-52.0","battery-v0.2","","""event"",""trial"",""time""
""fullscreenenter"",""1"",""2258""
","
","
","""event"",""trial"",""time""
""fullscreenenter"",""1"",""2258""
","
","","","446","","","17","20081","7273","l","elianto","#3366ff99","-1"," ","0","+10","[1298]","1","2","","","20081","48","1","2","win","no-go","1"
"pit-trial","173","1183905","0.0-53.0","battery-v0.2","","""event"",""trial"",""time""
""fullscreenenter"",""1"",""2258""
","
","
","""event"",""trial"",""time""
""fullscreenenter"",""1"",""2258""
","
","","","-1","","","17","20081","7273","g","elianto","#f73b6a7A","-1","-1","1","-10","[]","0","2","","","20081","49","3","4","lose","no-go","1"
"pit-trial","174","1188758","0.0-54.0","battery-v0.2","","""event"",""trial"",""time""
""fullscreenenter"",""1"",""2258""
","
","
","""event"",""trial"",""time""
""fullscreenenter"",""1"",""2258""
","
","","","-1","","","17","20081","7273","a","elianto","#f73b6a7A"," ","-1","0","-10","[]","0","2","","","20081","50","2","3","lose","go","0"
"pit-trial","175","1193611","0.0-55.0","battery-v0.2","","""event"",""trial"",""time""
""fullscreenenter"",""1"",""2258""
","
","
","""event"",""trial"",""time""
""fullscreenenter"",""1"",""2258""
","
","","","-1","","","17","20081","7273","u","elianto","#f73b6a7A"," ","-1","0","-10","[]","0","2","","","20081","51","0","3","lose","go","0"
"pit-trial","176","1196975","0.0-56.0","battery-v0.2","","""event"",""trial"",""time""
""fullscreenenter"",""1"",""2258""
","
","
","""event"",""trial"",""time""
""fullscreenenter"",""1"",""2258""
","
","","","511.60000002384186","","","17","20081","7273","l","elianto","#3366ff99","-1"," ","0","0","[1362]","1","2","","","20081","52","1","2","win","no-go","0"
"pit-trial","177","1201817","0.0-57.0","battery-v0.2","","""event"",""trial"",""time""
""fullscreenenter"",""1"",""2258""
","
","
","""event"",""trial"",""time""
""fullscreenenter"",""1"",""2258""
","
","","","-1","","","17","20081","7273","g","elianto","#f73b6a7A","-1","-1","1","-10","[]","0","2","","","20081","53","3","4","lose","no-go","1"
"pit-trial","178","1206670","0.0-58.0","battery-v0.2","","""event"",""trial"",""time""
""fullscreenenter"",""1"",""2258""
","
","
","""event"",""trial"",""time""
""fullscreenenter"",""1"",""2258""
","
","","","-1","","","17","20081","7273","a","elianto","#f73b6a7A"," ","-1","0","-10","[]","0","2","","","20081","54","2","3","lose","go","0"
"pit-trial","179","1211523","0.0-59.0","battery-v0.2","","""event"",""trial"",""time""
""fullscreenenter"",""1"",""2258""
","
","
","""event"",""trial"",""time""
""fullscreenenter"",""1"",""2258""
","
","","","-1","","","17","20081","7273","u","elianto","#f73b6a7A"," ","-1","0","-10","[]","0","2","","","20081","55","0","3","lose","go","0"
"pit-trial","180","1214820","0.0-60.0","battery-v0.2","","""event"",""trial"",""time""
""fullscreenenter"",""1"",""2258""
","
","
","""event"",""trial"",""time""
""fullscreenenter"",""1"",""2258""
","
","","","443.2999999523163","","","17","20081","7273","l","elianto","#3366ff99","-1"," ","0","0","[1294.7000000476837]","1","2","","","20081","56","1","2","win","no-go","0"
"pit-trial","181","1219673","0.0-61.0","battery-v0.2","","""event"",""trial"",""time""
""fullscreenenter"",""1"",""2258""
","
","
","""event"",""trial"",""time""
""fullscreenenter"",""1"",""2258""
","
","","","-1","","","17","20081","7273","g","elianto","#f73b6a7A","-1","-1","1","0","[]","0","2","","","20081","57","3","4","lose","no-go","0"
"pit-trial","182","1224527","0.0-62.0","battery-v0.2","","""event"",""trial"",""time""
""fullscreenenter"",""1"",""2258""
","
","
","""event"",""trial"",""time""
""fullscreenenter"",""1"",""2258""
","
","","","-1","","","17","20081","7273","u","elianto","#f73b6a7A"," ","-1","0","-10","[]","0","2","","","20081","58","0","3","lose","go","0"
"pit-trial","183","1229390","0.0-63.0","battery-v0.2","","""event"",""trial"",""time""
""fullscreenenter"",""1"",""2258""
","
","
","""event"",""trial"",""time""
""fullscreenenter"",""1"",""2258""
","
","","","-1","","","17","20081","7273","a","elianto","#f73b6a7A"," ","-1","0","-10","[]","0","2","","","20081","59","2","3","lose","go","0"
"pit-trial","184","1232767","0.0-64.0","battery-v0.2","","""event"",""trial"",""time""
""fullscreenenter"",""1"",""2258""
","
","
","""event"",""trial"",""time""
""fullscreenenter"",""1"",""2258""
","
","","","524.8999999761581","","","17","20081","7273","p","elianto","#3366ff99"," "," ","1","+10","[1375.2000000476837]","1","2","","","20081","60","4","1","win","go","0"
"pit-trial","185","1236047","0.0-65.0","battery-v0.2","","""event"",""trial"",""time""
""fullscreenenter"",""1"",""2258""
","
","
","""event"",""trial"",""time""
""fullscreenenter"",""1"",""2258""
","
","","","427.7999999523163","","","17","20081","7273","p","elianto","#3366ff99"," "," ","1","+10","[1277.7999999523163]","1","2","","","20081","61","4","1","win","go","0"
"pit-trial","186","1240900","0.0-66.0","battery-v0.2","","""event"",""trial"",""time""
""fullscreenenter"",""1"",""2258""
","
","
","""event"",""trial"",""time""
""fullscreenenter"",""1"",""2258""
","
","","","-1","","","17","20081","7273","a","elianto","#f73b6a7A"," ","-1","0","-10","[]","0","2","","","20081","62","2","3","lose","go","0"
"pit-trial","187","1245754","0.0-67.0","battery-v0.2","","""event"",""trial"",""time""
""fullscreenenter"",""1"",""2258""
","
","
","""event"",""trial"",""time""
""fullscreenenter"",""1"",""2258""
","
","","","-1","","","17","20081","7273","g","elianto","#f73b6a7A","-1","-1","1","0","[]","0","2","","","20081","63","3","4","lose","no-go","0"
"pit-trial","188","1249187","0.0-68.0","battery-v0.2","","""event"",""trial"",""time""
""fullscreenenter"",""1"",""2258""
","
","
","""event"",""trial"",""time""
""fullscreenenter"",""1"",""2258""
","
","","","580.7999999523163","","","17","20081","7273","l","elianto","#3366ff99","-1"," ","0","0","[1430.8000000715256]","1","2","","","20081","64","1","2","win","no-go","0"
"pit-trial","189","1252492","0.0-69.0","battery-v0.2","","""event"",""trial"",""time""
""fullscreenenter"",""1"",""2258""
","
","
","""event"",""trial"",""time""
""fullscreenenter"",""1"",""2258""
","
","","","452.7999999523163","","","17","20081","7273","l","elianto","#3366ff99","-1"," ","0","0","[1303]","1","2","","","20081","65","1","2","win","no-go","0"
"pit-trial","190","1255721","0.0-70.0","battery-v0.2","","""event"",""trial"",""time""
""fullscreenenter"",""1"",""2258""
","
","
","""event"",""trial"",""time""
""fullscreenenter"",""1"",""2258""
","
","","","376.6999999284744","","","17","20081","7273","s","elianto","#3366ff99","-1"," ","0","+10","[1227.3999999761581]","1","2","","","20081","66","5","2","win","no-go","1"
"pit-trial","191","1258978","0.0-71.0","battery-v0.2","","""event"",""trial"",""time""
""fullscreenenter"",""1"",""2258""
","
","
","""event"",""trial"",""time""
""fullscreenenter"",""1"",""2258""
","
","","","404.60000002384186","","","17","20081","7273","p","elianto","#3366ff99"," "," ","1","+10","[1254.8999999761581]","1","2","","","20081","67","4","1","win","go","0"
"pit-trial","192","1263817","0.0-72.0","battery-v0.2","","""event"",""trial"",""time""
""fullscreenenter"",""1"",""2258""
","
","
","""event"",""trial"",""time""
""fullscreenenter"",""1"",""2258""
","
","","","-1","","","17","20081","7273","g","elianto","#f73b6a7A","-1","-1","1","0","[]","0","2","","","20081","68","3","4","lose","no-go","0"
"pit-trial","193","1267117","0.0-73.0","battery-v0.2","","""event"",""trial"",""time""
""fullscreenenter"",""1"",""2258""
","
","
","""event"",""trial"",""time""
""fullscreenenter"",""1"",""2258""
","
","","","448.3000000715256","","","17","20081","7273","l","elianto","#3366ff99","-1"," ","0","0","[1298.6000000238419]","1","2","","","20081","69","1","2","win","no-go","0"
"pit-trial","194","1271970","0.0-74.0","battery-v0.2","","""event"",""trial"",""time""
""fullscreenenter"",""1"",""2258""
","
","
","""event"",""trial"",""time""
""fullscreenenter"",""1"",""2258""
","
","","","-1","","","17","20081","7273","a","elianto","#f73b6a7A"," ","-1","0","-10","[]","0","2","","","20081","70","2","3","lose","go","0"
"pit-trial","195","1275263","0.0-75.0","battery-v0.2","","""event"",""trial"",""time""
""fullscreenenter"",""1"",""2258""
","
","
","""event"",""trial"",""time""
""fullscreenenter"",""1"",""2258""
","
","","","439.5","","","17","20081","7273","p","elianto","#3366ff99"," "," ","1","+10","[1290.8999999761581]","1","2","","","20081","71","4","1","win","go","0"
"pit-trial","196","1278554","0.0-76.0","battery-v0.2","","""event"",""trial"",""time""
""fullscreenenter"",""1"",""2258""
","
","
","""event"",""trial"",""time""
""fullscreenenter"",""1"",""2258""
","
","","","438.60000002384186","","","17","20081","7273","s","elianto","#3366ff99","-1"," ","0","+10","[1289.7999999523163]","1","2","","","20081","72","5","2","win","no-go","1"
"pit-trial","197","1281853","0.0-77.0","battery-v0.2","","""event"",""trial"",""time""
""fullscreenenter"",""1"",""2258""
","
","
","""event"",""trial"",""time""
""fullscreenenter"",""1"",""2258""
","
","","","445.7000000476837","","","17","20081","7273","p","elianto","#3366ff99"," "," ","1","0","[1296.3000000715256]","1","2","","","20081","73","4","1","win","go","1"
"pit-trial","198","1286706","0.0-78.0","battery-v0.2","","""event"",""trial"",""time""
""fullscreenenter"",""1"",""2258""
","
","
","""event"",""trial"",""time""
""fullscreenenter"",""1"",""2258""
","
","","","-1","","","17","20081","7273","g","elianto","#f73b6a7A","-1","-1","1","0","[]","0","2","","","20081","74","3","4","lose","no-go","0"
"pit-trial","199","1289998","0.0-79.0","battery-v0.2","","""event"",""trial"",""time""
""fullscreenenter"",""1"",""2258""
","
","
","""event"",""trial"",""time""
""fullscreenenter"",""1"",""2258""
","
","","","440.5","","","17","20081","7273","l","elianto","#3366ff99","-1"," ","0","+10","[1290.6000000238419]","1","2","","","20081","75","1","2","win","no-go","1"
"pit-trial","200","1293284","0.0-80.0","battery-v0.2","","""event"",""trial"",""time""
""fullscreenenter"",""1"",""2258""
","
","
","""event"",""trial"",""time""
""fullscreenenter"",""1"",""2258""
","
","","","433.60000002384186","","","17","20081","7273","s","elianto","#3366ff99","-1"," ","0","0","[1283.6000000238419]","1","2","","","20081","76","5","2","win","no-go","0"
"pit-trial","201","1296615","0.0-81.0","battery-v0.2","","""event"",""trial"",""time""
""fullscreenenter"",""1"",""2258""
","
","
","""event"",""trial"",""time""
""fullscreenenter"",""1"",""2258""
","
","","","479.5","","","17","20081","7273","p","elianto","#3366ff99"," "," ","1","+10","[1329.5]","1","2","","","20081","77","4","1","win","go","0"
"pit-trial","202","1299860","0.0-82.0","battery-v0.2","","""event"",""trial"",""time""
""fullscreenenter"",""1"",""2258""
","
","
","""event"",""trial"",""time""
""fullscreenenter"",""1"",""2258""
","
","","","392.39999997615814","","","17","20081","7273","p","elianto","#3366ff99"," "," ","1","+10","[1243]","1","2","","","20081","78","4","1","win","go","0"
"pit-trial","203","1304713","0.0-83.0","battery-v0.2","","""event"",""trial"",""time""
""fullscreenenter"",""1"",""2258""
","
","
","""event"",""trial"",""time""
""fullscreenenter"",""1"",""2258""
","
","","","-1","","","17","20081","7273","g","elianto","#f73b6a7A","-1","-1","1","0","[]","0","2","","","20081","79","3","4","lose","no-go","0"
"pit-trial","204","1307963","0.0-84.0","battery-v0.2","","""event"",""trial"",""time""
""fullscreenenter"",""1"",""2258""
","
","
","""event"",""trial"",""time""
""fullscreenenter"",""1"",""2258""
","
","","","397.39999997615814","","","17","20081","7273","s","elianto","#3366ff99","-1"," ","0","+10","[1247.7999999523163]","1","2","","","20081","80","5","2","win","no-go","1"
"pit-trial","205","1312815","0.0-85.0","battery-v0.2","","""event"",""trial"",""time""
""fullscreenenter"",""1"",""2258""
","
","
","""event"",""trial"",""time""
""fullscreenenter"",""1"",""2258""
","
","","","-1","","","17","20081","7273","e","elianto","#f73b6a7A","-1","-1","1","0","[]","0","2","","","20081","81","7","4","lose","no-go","0"
"pit-trial","206","1317671","0.0-86.0","battery-v0.2","","""event"",""trial"",""time""
""fullscreenenter"",""1"",""2258""
","
","
","""event"",""trial"",""time""
""fullscreenenter"",""1"",""2258""
","
","","","-1","","","17","20081","7273","g","elianto","#f73b6a7A","-1","-1","1","0","[]","0","2","","","20081","82","3","4","lose","no-go","0"
"pit-trial","207","1321003","0.0-87.0","battery-v0.2","","""event"",""trial"",""time""
""fullscreenenter"",""1"",""2258""
","
","
","""event"",""trial"",""time""
""fullscreenenter"",""1"",""2258""
","
","","","491.60000002384186","","","17","20081","7273","p","elianto","#3366ff99"," "," ","1","+10","[1343]","1","2","","","20081","83","4","1","win","go","0"
"pit-trial","208","1324307","0.0-88.0","battery-v0.2","","""event"",""trial"",""time""
""fullscreenenter"",""1"",""2258""
","
","
","""event"",""trial"",""time""
""fullscreenenter"",""1"",""2258""
","
","","","450.7000000476837","","","17","20081","7273","s","elianto","#3366ff99","-1"," ","0","0","[1302.4000000953674]","1","2","","","20081","84","5","2","win","no-go","0"
"pit-trial","209","1327606","0.0-89.0","battery-v0.2","","""event"",""trial"",""time""
""fullscreenenter"",""1"",""2258""
","
","
","""event"",""trial"",""time""
""fullscreenenter"",""1"",""2258""
","
","","","446.7999999523163","","","17","20081","7273","p","elianto","#3366ff99"," "," ","1","+10","[1298]","1","2","","","20081","85","4","1","win","go","0"
"pit-trial","210","1332459","0.0-90.0","battery-v0.2","","""event"",""trial"",""time""
""fullscreenenter"",""1"",""2258""
","
","
","""event"",""trial"",""time""
""fullscreenenter"",""1"",""2258""
","
","","","-1","","","17","20081","7273","e","elianto","#f73b6a7A","-1","-1","1","0","[]","0","2","","","20081","86","7","4","lose","no-go","0"
"pit-trial","211","1337314","0.0-91.0","battery-v0.2","","""event"",""trial"",""time""
""fullscreenenter"",""1"",""2258""
","
","
","""event"",""trial"",""time""
""fullscreenenter"",""1"",""2258""
","
","","","-1","","","17","20081","7273","w","elianto","#f73b6a7A"," ","-1","0","-10","[]","0","2","","","20081","87","6","3","lose","go","0"
"pit-trial","212","1340537","0.0-92.0","battery-v0.2","","""event"",""trial"",""time""
""fullscreenenter"",""1"",""2258""
","
","
","""event"",""trial"",""time""
""fullscreenenter"",""1"",""2258""
","
","","","369.10000002384186","","","17","20081","7273","s","elianto","#3366ff99","-1"," ","0","0","[1220.6000000238419]","1","2","","","20081","88","5","2","win","no-go","0"
"pit-trial","213","1343814","0.0-93.0","battery-v0.2","","""event"",""trial"",""time""
""fullscreenenter"",""1"",""2258""
","
","
","""event"",""trial"",""time""
""fullscreenenter"",""1"",""2258""
","
","","","423.8000000715256","","","17","20081","7273","p","elianto","#3366ff99"," "," ","1","+10","[1274.3000000715256]","1","2","","","20081","89","4","1","win","go","0"
"pit-trial","214","1348667","0.0-94.0","battery-v0.2","","""event"",""trial"",""time""
""fullscreenenter"",""1"",""2258""
","
","
","""event"",""trial"",""time""
""fullscreenenter"",""1"",""2258""
","
","","","-1","","","17","20081","7273","e","elianto","#f73b6a7A","-1","-1","1","0","[]","0","2","","","20081","90","7","4","lose","no-go","0"
"pit-trial","215","1353521","0.0-95.0","battery-v0.2","","""event"",""trial"",""time""
""fullscreenenter"",""1"",""2258""
","
","
","""event"",""trial"",""time""
""fullscreenenter"",""1"",""2258""
","
","","","-1","","","17","20081","7273","w","elianto","#f73b6a7A"," ","-1","0","-10","[]","0","2","","","20081","91","6","3","lose","go","0"
"pit-trial","216","1356818","0.0-96.0","battery-v0.2","","""event"",""trial"",""time""
""fullscreenenter"",""1"",""2258""
","
","
","""event"",""trial"",""time""
""fullscreenenter"",""1"",""2258""
","
","","","445.1999999284744","","","17","20081","7273","s","elianto","#3366ff99","-1"," ","0","+10","[1295.6000000238419]","1","2","","","20081","92","5","2","win","no-go","1"
"pit-trial","217","1361671","0.0-97.0","battery-v0.2","","""event"",""trial"",""time""
""fullscreenenter"",""1"",""2258""
","
","
","""event"",""trial"",""time""
""fullscreenenter"",""1"",""2258""
","
","","","-1","","","17","20081","7273","w","elianto","#f73b6a7A"," ","-1","0","0","[]","0","2","","","20081","93","6","3","lose","go","1"
"pit-trial","218","1364984","0.0-98.0","battery-v0.2","","""event"",""trial"",""time""
""fullscreenenter"",""1"",""2258""
","
","
","""event"",""trial"",""time""
""fullscreenenter"",""1"",""2258""
","
","","","460","","","17","20081","7273","s","elianto","#3366ff99","-1"," ","0","0","[1310.7999999523163]","1","2","","","20081","94","5","2","win","no-go","0"
"pit-trial","219","1368346","0.0-99.0","battery-v0.2","","""event"",""trial"",""time""
""fullscreenenter"",""1"",""2258""
","
","
","""event"",""trial"",""time""
""fullscreenenter"",""1"",""2258""
","
","","","509","","","17","20081","7273","d","elianto","#3366ff99"," "," ","1","+10","[1360.1000000238419]","1","2","","","20081","95","8","1","win","go","0"
"pit-trial","220","1373200","0.0-100.0","battery-v0.2","","""event"",""trial"",""time""
""fullscreenenter"",""1"",""2258""
","
","
","""event"",""trial"",""time""
""fullscreenenter"",""1"",""2258""
","
","","","-1","","","17","20081","7273","e","elianto","#f73b6a7A","-1","-1","1","0","[]","0","2","","","20081","96","7","4","lose","no-go","0"
"pit-trial","221","1378065","0.0-101.0","battery-v0.2","","""event"",""trial"",""time""
""fullscreenenter"",""1"",""2258""
","
","
","""event"",""trial"",""time""
""fullscreenenter"",""1"",""2258""
","
","","","-1","","","17","20081","7273","w","elianto","#f73b6a7A"," ","-1","0","-10","[]","0","2","","","20081","97","6","3","lose","go","0"
"pit-trial","222","1381319","0.0-102.0","battery-v0.2","","""event"",""trial"",""time""
""fullscreenenter"",""1"",""2258""
","
","
","""event"",""trial"",""time""
""fullscreenenter"",""1"",""2258""
","
","","","413","","","17","20081","7273","s","elianto","#3366ff99","-1"," ","0","+10","[1264.5]","1","2","","","20081","98","5","2","win","no-go","1"
"pit-trial","223","1386173","0.0-103.0","battery-v0.2","","""event"",""trial"",""time""
""fullscreenenter"",""1"",""2258""
","
","
","""event"",""trial"",""time""
""fullscreenenter"",""1"",""2258""
","
","","","-1","","","17","20081","7273","e","elianto","#f73b6a7A","-1","-1","1","0","[]","0","2","","","20081","99","7","4","lose","no-go","0"
"pit-trial","224","1389458","0.0-104.0","battery-v0.2","","""event"",""trial"",""time""
""fullscreenenter"",""1"",""2258""
","
","
","""event"",""trial"",""time""
""fullscreenenter"",""1"",""2258""
","
","","","433.7000000476837","","","17","20081","7273","d","elianto","#3366ff99"," "," ","1","+10","[1283.8999999761581]","1","2","","","20081","100","8","1","win","go","0"
"pit-trial","225","1392782","0.0-105.0","battery-v0.2","","""event"",""trial"",""time""
""fullscreenenter"",""1"",""2258""
","
","
","""event"",""trial"",""time""
""fullscreenenter"",""1"",""2258""
","
","","","467.10000002384186","","","17","20081","7273","j","elianto","#3366ff99"," "," ","1","+10","[1319.3999999761581]","1","2","","","20081","101","9","1","win","go","0"
"pit-trial","226","1396161","0.0-106.0","battery-v0.2","","""event"",""trial"",""time""
""fullscreenenter"",""1"",""2258""
","
","
","""event"",""trial"",""time""
""fullscreenenter"",""1"",""2258""
","
","","","523.7000000476837","","","17","20081","7273","d","elianto","#3366ff99"," "," ","1","+10","[1374.7999999523163]","1","2","","","20081","102","8","1","win","go","0"
"pit-trial","227","1399647","0.0-107.0","battery-v0.2","","""event"",""trial"",""time""
""fullscreenenter"",""1"",""2258""
","
","
","""event"",""trial"",""time""
""fullscreenenter"",""1"",""2258""
","
","","","633.2999999523163","","","17","20081","7273","s","elianto","#3366ff99","-1"," ","0","+10","[1483.8999999761581]","1","2","","","20081","103","5","2","win","no-go","1"
"pit-trial","228","1404500","0.0-108.0","battery-v0.2","","""event"",""trial"",""time""
""fullscreenenter"",""1"",""2258""
","
","
","""event"",""trial"",""time""
""fullscreenenter"",""1"",""2258""
","
","","","-1","","","17","20081","7273","e","elianto","#f73b6a7A","-1","-1","1","0","[]","0","2","","","20081","104","7","4","lose","no-go","0"
"pit-trial","229","1407856","0.0-109.0","battery-v0.2","","""event"",""trial"",""time""
""fullscreenenter"",""1"",""2258""
","
","
","""event"",""trial"",""time""
""fullscreenenter"",""1"",""2258""
","
","","","504","","","17","20081","7273","j","elianto","#3366ff99"," "," ","1","+10","[1354.4000000953674]","1","2","","","20081","105","9","1","win","go","0"
"pit-trial","230","1411148","0.0-110.0","battery-v0.2","","""event"",""trial"",""time""
""fullscreenenter"",""1"",""2258""
","
","
","""event"",""trial"",""time""
""fullscreenenter"",""1"",""2258""
","
","","","438.7000000476837","","","17","20081","7273","d","elianto","#3366ff99"," "," ","1","+10","[272.60000002384186,1289.6000000238419]","2","2","","","20081","106","8","1","win","go","0"
"pit-trial","231","1416000","0.0-111.0","battery-v0.2","","""event"",""trial"",""time""
""fullscreenenter"",""1"",""2258""
","
","
","""event"",""trial"",""time""
""fullscreenenter"",""1"",""2258""
","
","","","-1","","","17","20081","7273","w","elianto","#f73b6a7A"," ","-1","0","0","[]","0","2","","","20081","107","6","3","lose","go","1"
"pit-trial","232","1419283","0.0-112.0","battery-v0.2","","""event"",""trial"",""time""
""fullscreenenter"",""1"",""2258""
","
","
","""event"",""trial"",""time""
""fullscreenenter"",""1"",""2258""
","
","","","431.10000002384186","","","17","20081","7273","p","elianto","#3366ff99"," "," ","1","+10","[1281.2000000476837]","1","2","","","20081","108","4","1","win","go","0"
"pit-trial","233","1422566","0.0-113.0","battery-v0.2","","""event"",""trial"",""time""
""fullscreenenter"",""1"",""2258""
","
","
","""event"",""trial"",""time""
""fullscreenenter"",""1"",""2258""
","
","","","430.2999999523163","","","17","20081","7273","s","elianto","#3366ff99","-1"," ","0","0","[1280.6999999284744]","1","2","","","20081","109","5","2","win","no-go","0"
"pit-trial","234","1427420","0.0-114.0","battery-v0.2","","""event"",""trial"",""time""
""fullscreenenter"",""1"",""2258""
","
","
","""event"",""trial"",""time""
""fullscreenenter"",""1"",""2258""
","
","","","-1","","","17","20081","7273","w","elianto","#f73b6a7A"," ","-1","0","-10","[]","0","2","","","20081","110","6","3","lose","go","0"
"pit-trial","235","1431008","0.0-115.0","battery-v0.2","","""event"",""trial"",""time""
""fullscreenenter"",""1"",""2258""
","
","
","""event"",""trial"",""time""
""fullscreenenter"",""1"",""2258""
","
","","","735.8999999761581","","","17","20081","7273","j","elianto","#3366ff99"," "," ","1","+10","[1586.3000000715256]","1","2","","","20081","111","9","1","win","go","0"
"pit-trial","236","1434346","0.0-116.0","battery-v0.2","","""event"",""trial"",""time""
""fullscreenenter"",""1"",""2258""
","
","
","""event"",""trial"",""time""
""fullscreenenter"",""1"",""2258""
","
","","","484.6999999284744","","","17","20081","7273","d","elianto","#3366ff99"," "," ","1","0","[1336.1999999284744]","1","2","","","20081","112","8","1","win","go","1"
"pit-trial","237","1437613","0.0-117.0","battery-v0.2","","""event"",""trial"",""time""
""fullscreenenter"",""1"",""2258""
","
","
","""event"",""trial"",""time""
""fullscreenenter"",""1"",""2258""
","
","","","413.60000002384186","","","17","20081","7273","d","elianto","#3366ff99"," "," ","1","0","[1264.6000000238419]","1","2","","","20081","113","8","1","win","go","1"
"pit-trial","238","1442458","0.0-118.0","battery-v0.2","","""event"",""trial"",""time""
""fullscreenenter"",""1"",""2258""
","
","
","""event"",""trial"",""time""
""fullscreenenter"",""1"",""2258""
","
","","","-1","","","17","20081","7273","w","elianto","#f73b6a7A"," ","-1","0","0","[]","0","2","","","20081","114","6","3","lose","go","1"
"pit-trial","239","1445857","0.0-119.0","battery-v0.2","","""event"",""trial"",""time""
""fullscreenenter"",""1"",""2258""
","
","
","""event"",""trial"",""time""
""fullscreenenter"",""1"",""2258""
","
","","","546.5","","","17","20081","7273","s","elianto","#3366ff99","-1"," ","0","0","[1397]","1","2","","","20081","115","5","2","win","no-go","0"
"pit-trial","240","1449161","0.0-120.0","battery-v0.2","","""event"",""trial"",""time""
""fullscreenenter"",""1"",""2258""
","
","
","""event"",""trial"",""time""
""fullscreenenter"",""1"",""2258""
","
","","","451.39999997615814","","","17","20081","7273","j","elianto","#3366ff99"," "," ","1","+10","[1302.5999999046326]","1","2","","","20081","116","9","1","win","go","0"
"pit-trial","241","1452434","0.0-121.0","battery-v0.2","","""event"",""trial"",""time""
""fullscreenenter"",""1"",""2258""
","
","
","""event"",""trial"",""time""
""fullscreenenter"",""1"",""2258""
","
","","","421","","","17","20081","7273","j","elianto","#3366ff99"," "," ","1","+10","[1271.6000000238419]","1","2","","","20081","117","9","1","win","go","0"
"pit-trial","242","1457287","0.0-122.0","battery-v0.2","","""event"",""trial"",""time""
""fullscreenenter"",""1"",""2258""
","
","
","""event"",""trial"",""time""
""fullscreenenter"",""1"",""2258""
","
","","","-1","","","17","20081","7273","w","elianto","#f73b6a7A"," ","-1","0","-10","[]","0","2","","","20081","118","6","3","lose","go","0"
"pit-trial","243","1460655","0.0-123.0","battery-v0.2","","""event"",""trial"",""time""
""fullscreenenter"",""1"",""2258""
","
","
","""event"",""trial"",""time""
""fullscreenenter"",""1"",""2258""
","
","","","515.5","","","17","20081","7273","s","elianto","#3366ff99","-1"," ","0","0","[1365.8999999761581]","1","2","","","20081","119","5","2","win","no-go","0"
"pit-trial","244","1464085","0.0-124.0","battery-v0.2","","""event"",""trial"",""time""
""fullscreenenter"",""1"",""2258""
","
","
","""event"",""trial"",""time""
""fullscreenenter"",""1"",""2258""
","
","","","566.6999999284744","","","17","20081","7273","d","elianto","#3366ff99"," "," ","1","0","[1417]","1","2","","","20081","120","8","1","win","go","1"
"pit-trial","245","1467499","0.0-125.0","battery-v0.2","","""event"",""trial"",""time""
""fullscreenenter"",""1"",""2258""
","
","
","""event"",""trial"",""time""
""fullscreenenter"",""1"",""2258""
","
","","","548.2000000476837","","","17","20081","7273","j","elianto","#3366ff99"," "," ","1","0","[1399.1000000238419]","1","2","","","20081","121","9","1","win","go","1"
"pit-trial","246","1472352","0.0-126.0","battery-v0.2","","""event"",""trial"",""time""
""fullscreenenter"",""1"",""2258""
","
","
","""event"",""trial"",""time""
""fullscreenenter"",""1"",""2258""
","
","","","-1","","","17","20081","7273","w","elianto","#f73b6a7A"," ","-1","0","-10","[]","0","2","","","20081","122","6","3","lose","go","0"
"pit-trial","247","1477211","0.0-127.0","battery-v0.2","","""event"",""trial"",""time""
""fullscreenenter"",""1"",""2258""
","
","
","""event"",""trial"",""time""
""fullscreenenter"",""1"",""2258""
","
","","","-1","","","17","20081","7273","e","elianto","#f73b6a7A","-1","-1","1","0","[]","0","2","","","20081","123","7","4","lose","no-go","0"
"pit-trial","248","1480504","0.0-128.0","battery-v0.2","","""event"",""trial"",""time""
""fullscreenenter"",""1"",""2258""
","
","
","""event"",""trial"",""time""
""fullscreenenter"",""1"",""2258""
","
","","","439.1999999284744","","","17","20081","7273","d","elianto","#3366ff99"," "," ","1","+10","[1291.2000000476837]","1","2","","","20081","124","8","1","win","go","0"
"pit-trial","249","1485365","0.0-129.0","battery-v0.2","","""event"",""trial"",""time""
""fullscreenenter"",""1"",""2258""
","
","
","""event"",""trial"",""time""
""fullscreenenter"",""1"",""2258""
","
","","","-1","","","17","20081","7273","w","elianto","#f73b6a7A"," ","-1","0","0","[]","0","2","","","20081","125","6","3","lose","go","1"
"pit-trial","250","1490218","0.0-130.0","battery-v0.2","","""event"",""trial"",""time""
""fullscreenenter"",""1"",""2258""
","
","
","""event"",""trial"",""time""
""fullscreenenter"",""1"",""2258""
","
","","","-1","","","17","20081","7273","e","elianto","#f73b6a7A","-1","-1","1","0","[]","0","2","","","20081","126","7","4","lose","no-go","0"
"pit-trial","251","1493514","0.0-131.0","battery-v0.2","","""event"",""trial"",""time""
""fullscreenenter"",""1"",""2258""
","
","
","""event"",""trial"",""time""
""fullscreenenter"",""1"",""2258""
","
","","","442.2999999523163","","","17","20081","7273","d","elianto","#3366ff99"," "," ","1","0","[1294.1000000238419]","1","2","","","20081","127","8","1","win","go","1"
"pit-trial","252","1496754","0.0-132.0","battery-v0.2","","""event"",""trial"",""time""
""fullscreenenter"",""1"",""2258""
","
","
","""event"",""trial"",""time""
""fullscreenenter"",""1"",""2258""
","
","","","387.2000000476837","","","17","20081","7273","j","elianto","#3366ff99"," "," ","1","+10","[1237.6000000238419]","1","2","","","20081","128","9","1","win","go","0"
"pit-trial","253","1500021","0.0-133.0","battery-v0.2","","""event"",""trial"",""time""
""fullscreenenter"",""1"",""2258""
","
","
","""event"",""trial"",""time""
""fullscreenenter"",""1"",""2258""
","
","","","413.89999997615814","","","17","20081","7273","j","elianto","#3366ff99"," "," ","1","+10","[1264.6999999284744]","1","2","","","20081","129","9","1","win","go","0"
"pit-trial","254","1503370","0.0-134.0","battery-v0.2","","""event"",""trial"",""time""
""fullscreenenter"",""1"",""2258""
","
","
","""event"",""trial"",""time""
""fullscreenenter"",""1"",""2258""
","
","","","509.3000000715256","","","17","20081","7273","d","elianto","#3366ff99"," "," ","1","+10","[1361.1000000238419]","1","2","","","20081","130","8","1","win","go","0"
"pit-trial","255","1508224","0.0-135.0","battery-v0.2","","""event"",""trial"",""time""
""fullscreenenter"",""1"",""2258""
","
","
","""event"",""trial"",""time""
""fullscreenenter"",""1"",""2258""
","
","","","-1","","","17","20081","7273","e","elianto","#f73b6a7A","-1","-1","1","0","[]","0","2","","","20081","131","7","4","lose","no-go","0"
"pit-trial","256","1513077","0.0-136.0","battery-v0.2","","""event"",""trial"",""time""
""fullscreenenter"",""1"",""2258""
","
","
","""event"",""trial"",""time""
""fullscreenenter"",""1"",""2258""
","
","","","-1","","","17","20081","7273","w","elianto","#f73b6a7A"," ","-1","0","-10","[]","0","2","","","20081","132","6","3","lose","go","0"
"pit-trial","257","1516384","0.0-137.0","battery-v0.2","","""event"",""trial"",""time""
""fullscreenenter"",""1"",""2258""
","
","
","""event"",""trial"",""time""
""fullscreenenter"",""1"",""2258""
","
","","","453.5","","","17","20081","7273","j","elianto","#3366ff99"," "," ","1","+10","[1304]","1","2","","","20081","133","9","1","win","go","0"
"pit-trial","258","1521241","0.0-138.0","battery-v0.2","","""event"",""trial"",""time""
""fullscreenenter"",""1"",""2258""
","
","
","""event"",""trial"",""time""
""fullscreenenter"",""1"",""2258""
","
","","","-1","","","17","20081","7273","w","elianto","#f73b6a7A"," ","-1","0","0","[]","0","2","","","20081","134","6","3","lose","go","1"
"pit-trial","259","1526094","0.0-139.0","battery-v0.2","","""event"",""trial"",""time""
""fullscreenenter"",""1"",""2258""
","
","
","""event"",""trial"",""time""
""fullscreenenter"",""1"",""2258""
","
","","","-1","","","17","20081","7273","e","elianto","#f73b6a7A","-1","-1","1","0","[]","0","2","","","20081","135","7","4","lose","no-go","0"
"pit-trial","260","1529408","0.0-140.0","battery-v0.2","","""event"",""trial"",""time""
""fullscreenenter"",""1"",""2258""
","
","
","""event"",""trial"",""time""
""fullscreenenter"",""1"",""2258""
","
","","","460.5","","","17","20081","7273","d","elianto","#3366ff99"," "," ","1","+10","[1310.6999999284744]","1","2","","","20081","136","8","1","win","go","0"
"pit-trial","261","1532754","0.0-141.0","battery-v0.2","","""event"",""trial"",""time""
""fullscreenenter"",""1"",""2258""
","
","
","""event"",""trial"",""time""
""fullscreenenter"",""1"",""2258""
","
","","","493.2999999523163","","","17","20081","7273","j","elianto","#3366ff99"," "," ","1","+10","[1344.1000000238419]","1","2","","","20081","137","9","1","win","go","0"
"pit-trial","262","1537608","0.0-142.0","battery-v0.2","","""event"",""trial"",""time""
""fullscreenenter"",""1"",""2258""
","
","
","""event"",""trial"",""time""
""fullscreenenter"",""1"",""2258""
","
","","","-1","","","17","20081","7273","w","elianto","#f73b6a7A"," ","-1","0","-10","[]","0","2","","","20081","138","6","3","lose","go","0"
"pit-trial","263","1540908","0.0-143.0","battery-v0.2","","""event"",""trial"",""time""
""fullscreenenter"",""1"",""2258""
","
","
","""event"",""trial"",""time""
""fullscreenenter"",""1"",""2258""
","
","","","448.7000000476837","","","17","20081","7273","d","elianto","#3366ff99"," "," ","1","+10","[1299.2000000476837]","1","2","","","20081","139","8","1","win","go","0"
"pit-trial","264","1545760","0.0-144.0","battery-v0.2","","""event"",""trial"",""time""
""fullscreenenter"",""1"",""2258""
","
","
","""event"",""trial"",""time""
""fullscreenenter"",""1"",""2258""
","
","","","-1","","","17","20081","7273","e","elianto","#f73b6a7A","-1","-1","1","0","[]","0","2","","","20081","140","7","4","lose","no-go","0"
"pit-instructions","265","1559917","0.0-145.0","battery-v0.2","","""event"",""trial"",""time""
""fullscreenenter"",""1"",""2258""
","
","
","""event"",""trial"",""time""
""fullscreenenter"",""1"",""2258""
","
","","[{""page_index"":0,""viewing_time"":5721.5},{""page_index"":1,""viewing_time"":8434.399999976158}]","14156.100000023842","","","","","","","","","","","","","","","","","","","","","","","",""
"pit-trial","266","1563291","0.0-146.0","battery-v0.2","","""event"",""trial"",""time""
""fullscreenenter"",""1"",""2258""
","
","
","""event"",""trial"",""time""
""fullscreenenter"",""1"",""2258""
","
","","","511.89999997615814","","","17","20081","7273","f","elianto","#3366ff99"," "," ","1","+10","[1368.7000000476837]","1","3","","","20081","141","1","1","win","go","0"
"pit-trial","267","1568140","0.0-147.0","battery-v0.2","","""event"",""trial"",""time""
""fullscreenenter"",""1"",""2258""
","
","
","""event"",""trial"",""time""
""fullscreenenter"",""1"",""2258""
","
","","","-1","","","17","20081","7273","n","elianto","#f73b6a7A","-1","-1","1","0","[]","0","3","","","20081","142","0","4","lose","no-go","0"
"pit-trial","268","1573003","0.0-148.0","battery-v0.2","","""event"",""trial"",""time""
""fullscreenenter"",""1"",""2258""
","
","
","""event"",""trial"",""time""
""fullscreenenter"",""1"",""2258""
","
