"trial_type","trial_index","time_elapsed","internal_node_id","task_version","subject_id","interactions","blur_events","focus_events","fullscreenenter_events","fullscreenexit_events","success","view_history","rt","responses","num_errors","age","subject","participantId","rune","rune_set","hex","correct","choice","accuracy","outcome","keys","total_keys","block","practice","value","sub","trial","stimulus","robot","valence","action","sham"
"pavlovia","0","5","0.0-0.0","battery-v0.2","","""event"",""trial"",""time""
""fullscreenenter"",""1"",""5022""
","
","
","""event"",""trial"",""time""
""fullscreenenter"",""1"",""5022""
","
","","","","","","","","","","","","","","","","","","","","","","","","","","",""
"fullscreen","1","5967","0.0-1.0","battery-v0.2","","""event"",""trial"",""time""
""fullscreenenter"",""1"",""5022""
","
","
","""event"",""trial"",""time""
""fullscreenenter"",""1"",""5022""
","
","true","","","","","","","","","","","","","","","","","","","","","","","","","",""
"pit-instructions","2","10896","0.0-2.0-0.0","battery-v0.2","","""event"",""trial"",""time""
""fullscreenenter"",""1"",""5022""
","
","
","""event"",""trial"",""time""
""fullscreenenter"",""1"",""5022""
","
","","[{""page_index"":0,""viewing_time"":4923.000000000002}]","4923.000000000002","","","","","","","","","","","","","","","","","","","","","","","",""
"pit-comprehension","3","14969","0.0-2.0-1.0-0.0","battery-v0.2","","""event"",""trial"",""time""
""fullscreenenter"",""1"",""5022""
","
","
","""event"",""trial"",""time""
""fullscreenenter"",""1"",""5022""
","
","","","3587.999999999998","[""shark""]","0","23","17291","6687","","","","","","","","","","","","","","","","","","",""
"pit-instructions","4","16614","0.0-2.0-1.0-1.0","battery-v0.2","","""event"",""trial"",""time""
""fullscreenenter"",""1"",""5022""
","
","
","""event"",""trial"",""time""
""fullscreenenter"",""1"",""5022""
","
","","[{""page_index"":0,""viewing_time"":1635}]","1636","","","","","","","","","","","","","","","","","","","","","","","",""
"pit-comprehension","5","19468","0.0-2.0-2.0-0.0","battery-v0.2","","""event"",""trial"",""time""
""fullscreenenter"",""1"",""5022""
","
","
","""event"",""trial"",""time""
""fullscreenenter"",""1"",""5022""
","
","","","2849","[""tiger""]","0","23","17291","6687","","","","","","","","","","","","","","","","","","",""
"pit-instructions","6","22096","0.0-2.0-2.0-1.0","battery-v0.2","","""event"",""trial"",""time""
""fullscreenenter"",""1"",""5022""
","
","
","""event"",""trial"",""time""
""fullscreenenter"",""1"",""5022""
","
","","[{""page_index"":0,""viewing_time"":2616}]","2616","","","","","","","","","","","","","","","","","","","","","","","",""
"pit-instructions","7","157480","0.0-2.0-3.0","battery-v0.2","","""event"",""trial"",""time""
""fullscreenenter"",""1"",""5022""
","
","
","""event"",""trial"",""time""
""fullscreenenter"",""1"",""5022""
","
","","[{""page_index"":0,""viewing_time"":8662.000000000004},{""page_index"":1,""viewing_time"":6233.999999999996},{""page_index"":2,""viewing_time"":9383},{""page_index"":3,""viewing_time"":35766},{""page_index"":4,""viewing_time"":7583},{""page_index"":5,""viewing_time"":5484.000000000015},{""page_index"":6,""viewing_time"":8282.999999999985},{""page_index"":7,""viewing_time"":6850},{""page_index"":8,""viewing_time"":9050},{""page_index"":9,""viewing_time"":10751},{""page_index"":10,""viewing_time"":7349},{""page_index"":11,""viewing_time"":7234},{""page_index"":12,""viewing_time"":7432},{""page_index"":13,""viewing_time"":5318}]","135379","","","","","","","","","","","","","","","","","","","","","","","",""
"pit-trial","8","160488","0.0-2.0-4.0-0.0","battery-v0.2","","""event"",""trial"",""time""
""fullscreenenter"",""1"",""5022""
","
","
","""event"",""trial"",""time""
""fullscreenenter"",""1"",""5022""
","
","","","149","","","23","17291","6687","&#9784;","elianto","#FFFFF080"," "," ","1","&#10004","[1000,2794]","2","0","0","","","","","","","",""
"pit-trial","9","164093","0.0-2.0-4.1-0.1","battery-v0.2","","""event"",""trial"",""time""
""fullscreenenter"",""1"",""5022""
","
","
","""event"",""trial"",""time""
""fullscreenenter"",""1"",""5022""
","
","","","748","","","23","17291","6687","&#9784;","elianto","#FFFFF080"," "," ","1","&#10004","[1598,3029]","2","0","0","","","","","","","",""
"pit-trial","10","167372","0.0-2.0-4.2-0.2","battery-v0.2","","""event"",""trial"",""time""
""fullscreenenter"",""1"",""5022""
","
","
","""event"",""trial"",""time""
""fullscreenenter"",""1"",""5022""
","
","","","421","","","23","17291","6687","&#9784;","elianto","#FFFFF080"," "," ","1","&#10004","[1272,2388]","2","0","0","","","","","","","",""
"pit-trial","11","170765","0.0-2.0-4.3-0.3","battery-v0.2","","""event"",""trial"",""time""
""fullscreenenter"",""1"",""5022""
","
","
","""event"",""trial"",""time""
""fullscreenenter"",""1"",""5022""
","
","","","536","","","23","17291","6687","&#9784;","elianto","#FFFFF080"," "," ","1","&#10004","[1387]","1","0","0","","","","","","","",""
"pit-trial","12","173978","0.0-2.0-4.4-0.4","battery-v0.2","","""event"",""trial"",""time""
""fullscreenenter"",""1"",""5022""
","
","
","""event"",""trial"",""time""
""fullscreenenter"",""1"",""5022""
","
","","","355","","","23","17291","6687","&#9784;","elianto","#FFFFF080"," "," ","1","&#10004","[1206]","1","0","0","","","","","","","",""
"pit-instructions","13","196146","0.0-2.0-5.0","battery-v0.2","","""event"",""trial"",""time""
""fullscreenenter"",""1"",""5022""
","
","
","""event"",""trial"",""time""
""fullscreenenter"",""1"",""5022""
","
","","[{""page_index"":0,""viewing_time"":5946},{""page_index"":1,""viewing_time"":6016},{""page_index"":2,""viewing_time"":5018},{""page_index"":3,""viewing_time"":5182.000000000029}]","22163","","","","","","","","","","","","","","","","","","","","","","","",""
"pit-trial","14","201003","0.0-2.0-6.0-0.0","battery-v0.2","","""event"",""trial"",""time""
""fullscreenenter"",""1"",""5022""
","
","
","""event"",""trial"",""time""
""fullscreenenter"",""1"",""5022""
","
","","","-1","","","23","17291","6687","&#9854;","elianto","#FFFFF080","-1","-1","1","&#10004","[]","0","0","1","","","","","","","",""
"pit-trial","15","205861","0.0-2.0-6.1-0.1","battery-v0.2","","""event"",""trial"",""time""
""fullscreenenter"",""1"",""5022""
","
","
","""event"",""trial"",""time""
""fullscreenenter"",""1"",""5022""
","
","","","-1","","","23","17291","6687","&#9854;","elianto","#FFFFF080","-1","-1","1","&#10004","[]","0","0","1","","","","","","","",""
"pit-trial","16","209574","0.0-2.0-6.2-0.2","battery-v0.2","","""event"",""trial"",""time""
""fullscreenenter"",""1"",""5022""
","
","
","""event"",""trial"",""time""
""fullscreenenter"",""1"",""5022""
","
","","","858","","","23","17291","6687","&#9854;","elianto","#FFFFF080","-1"," ","0","&#10060","[1708]","1","0","1","","","","","","","",""
"pit-trial","17","214431","0.0-2.0-6.3-0.3","battery-v0.2","","""event"",""trial"",""time""
""fullscreenenter"",""1"",""5022""
","
","
","""event"",""trial"",""time""
""fullscreenenter"",""1"",""5022""
","
","","","-1","","","23","17291","6687","&#9854;","elianto","#FFFFF080","-1","-1","1","&#10004","[]","0","0","1","","","","","","","",""
"pit-trial","18","219288","0.0-2.0-6.4-0.4","battery-v0.2","","""event"",""trial"",""time""
""fullscreenenter"",""1"",""5022""
","
","
","""event"",""trial"",""time""
""fullscreenenter"",""1"",""5022""
","
","","","-1","","","23","17291","6687","&#9854;","elianto","#FFFFF080","-1","-1","1","&#10004","[]","0","0","1","","","","","","","",""
"pit-trial","19","224145","0.0-2.0-6.5-0.5","battery-v0.2","","""event"",""trial"",""time""
""fullscreenenter"",""1"",""5022""
""blur"",""20"",""636642""
""focus"",""20"",""709834""
","""event"",""trial"",""time""
""blur"",""20"",""636642""
","""event"",""trial"",""time""
""focus"",""20"",""709834""
","""event"",""trial"",""time""
""fullscreenenter"",""1"",""5022""
","
","","","-1","","","23","17291","6687","&#9854;","elianto","#FFFFF080","-1","-1","1","&#10004","[]","0","0","1","","","","","","","",""
"pit-instructions","20","741954","0.0-2.0-7.0","battery-v0.2","","""event"",""trial"",""time""
""fullscreenenter"",""1"",""5022""
""blur"",""20"",""636642""
""focus"",""20"",""709834""
","""event"",""trial"",""time""
""blur"",""20"",""636642""
","""event"",""trial"",""time""
""focus"",""20"",""709834""
","""event"",""trial"",""time""
""fullscreenenter"",""1"",""5022""
","
","","[{""page_index"":0,""viewing_time"":9162.00000000003},{""page_index"":1,""viewing_time"":9782.99999999997},{""page_index"":2,""viewing_time"":7117},{""page_index"":3,""viewing_time"":7250},{""page_index"":4,""viewing_time"":6701},{""page_index"":5,""viewing_time"":5865},{""page_index"":6,""viewing_time"":4784},{""page_index"":7,""viewing_time"":7569.000000000058},{""page_index"":8,""viewing_time"":6647.999999999942},{""page_index"":9,""viewing_time"":6149},{""page_index"":10,""viewing_time"":6734},{""page_index"":11,""viewing_time"":6484},{""page_index"":12,""viewing_time"":7816},{""page_index"":13,""viewing_time"":7983},{""page_index"":14,""viewing_time"":387898},{""page_index"":15,""viewing_time"":11217},{""page_index"":16,""viewing_time"":10700},{""page_index"":17,""viewing_time"":7933}]","517794","","","","","","","","","","","","","","","","","","","","","","","",""
"pit-trial","21","745637","0.0-2.0-8.0-0.0","battery-v0.2","","""event"",""trial"",""time""
""fullscreenenter"",""1"",""5022""
""blur"",""20"",""636642""
""focus"",""20"",""709834""
","""event"",""trial"",""time""
""blur"",""20"",""636642""
","""event"",""trial"",""time""
""focus"",""20"",""709834""
","""event"",""trial"",""time""
""fullscreenenter"",""1"",""5022""
","
","","","810.0000000001164","","","23","17291","6687","&#9776;","elianto","#3366ff99"," "," ","1","+10","[1660]","1","0","1","","","","","","","",""
"pit-trial","22","749267","0.0-2.0-8.0-1.0","battery-v0.2","","""event"",""trial"",""time""
""fullscreenenter"",""1"",""5022""
""blur"",""20"",""636642""
""focus"",""20"",""709834""
","""event"",""trial"",""time""
""blur"",""20"",""636642""
","""event"",""trial"",""time""
""focus"",""20"",""709834""
","""event"",""trial"",""time""
""fullscreenenter"",""1"",""5022""
","
","","","774","","","23","17291","6687","&#9776;","elianto","#3366ff99"," "," ","1","+10","[1624]","1","0","1","","","","","","","",""
"pit-trial","23","753029","0.0-2.0-8.0-2.0","battery-v0.2","","""event"",""trial"",""time""
""fullscreenenter"",""1"",""5022""
""blur"",""20"",""636642""
""focus"",""20"",""709834""
","""event"",""trial"",""time""
""blur"",""20"",""636642""
","""event"",""trial"",""time""
""focus"",""20"",""709834""
","""event"",""trial"",""time""
""fullscreenenter"",""1"",""5022""
","
","","","903","","","23","17291","6687","&#9776;","elianto","#3366ff99"," "," ","1","+10","[1754]","1","0","1","","","","","","","",""
"pit-trial","24","756349","0.0-2.0-8.0-3.0","battery-v0.2","","""event"",""trial"",""time""
""fullscreenenter"",""1"",""5022""
""blur"",""20"",""636642""
""focus"",""20"",""709834""
","""event"",""trial"",""time""
""blur"",""20"",""636642""
","""event"",""trial"",""time""
""focus"",""20"",""709834""
","""event"",""trial"",""time""
""fullscreenenter"",""1"",""5022""
","
","","","463","","","23","17291","6687","&#9776;","elianto","#3366ff99"," "," ","1","0","[1314]","1","0","1","","","","","","","",""
"pit-trial","25","759448","0.0-2.0-8.0-4.0","battery-v0.2","","""event"",""trial"",""time""
""fullscreenenter"",""1"",""5022""
""blur"",""20"",""636642""
""focus"",""20"",""709834""
","""event"",""trial"",""time""
""blur"",""20"",""636642""
","""event"",""trial"",""time""
""focus"",""20"",""709834""
","""event"",""trial"",""time""
""fullscreenenter"",""1"",""5022""
","
","","","243","","","23","17291","6687","&#9776;","elianto","#3366ff99"," "," ","1","+10","[1094]","1","0","1","","","","","","","",""
"pit-trial","26","762795","0.0-2.0-8.1-0.1","battery-v0.2","","""event"",""trial"",""time""
""fullscreenenter"",""1"",""5022""
""blur"",""20"",""636642""
""focus"",""20"",""709834""
","""event"",""trial"",""time""
""blur"",""20"",""636642""
","""event"",""trial"",""time""
""focus"",""20"",""709834""
","""event"",""trial"",""time""
""fullscreenenter"",""1"",""5022""
","
","","","489.9999999998836","","","23","17291","6687","&#9776;","elianto","#3366ff99"," "," ","1","+10","[1340.9999999998836]","1","0","1","","","","","","","",""
"pit-trial","27","766129","0.0-2.0-8.1-1.1","battery-v0.2","","""event"",""trial"",""time""
""fullscreenenter"",""1"",""5022""
""blur"",""20"",""636642""
""focus"",""20"",""709834""
","""event"",""trial"",""time""
""blur"",""20"",""636642""
","""event"",""trial"",""time""
""focus"",""20"",""709834""
","""event"",""trial"",""time""
""fullscreenenter"",""1"",""5022""
","
","","","476","","","23","17291","6687","&#9776;","elianto","#3366ff99"," "," ","1","+10","[1328]","1","0","1","","","","","","","",""
"pit-trial","28","769351","0.0-2.0-8.1-2.1","battery-v0.2","","""event"",""trial"",""time""
""fullscreenenter"",""1"",""5022""
""blur"",""20"",""636642""
""focus"",""20"",""709834""
","""event"",""trial"",""time""
""blur"",""20"",""636642""
","""event"",""trial"",""time""
""focus"",""20"",""709834""
","""event"",""trial"",""time""
""fullscreenenter"",""1"",""5022""
","
","","","364","","","23","17291","6687","&#9776;","elianto","#3366ff99"," "," ","1","+10","[1215]","1","0","1","","","","","","","",""
"pit-trial","29","772594","0.0-2.0-8.1-3.1","battery-v0.2","","""event"",""trial"",""time""
""fullscreenenter"",""1"",""5022""
""blur"",""20"",""636642""
""focus"",""20"",""709834""
","""event"",""trial"",""time""
""blur"",""20"",""636642""
","""event"",""trial"",""time""
""focus"",""20"",""709834""
","""event"",""trial"",""time""
""fullscreenenter"",""1"",""5022""
","
","","","386","","","23","17291","6687","&#9776;","elianto","#3366ff99"," "," ","1","0","[1237]","1","0","1","","","","","","","",""
"pit-trial","30","775729","0.0-2.0-8.1-4.1","battery-v0.2","","""event"",""trial"",""time""
""fullscreenenter"",""1"",""5022""
""blur"",""20"",""636642""
""focus"",""20"",""709834""
","""event"",""trial"",""time""
""blur"",""20"",""636642""
","""event"",""trial"",""time""
""focus"",""20"",""709834""
","""event"",""trial"",""time""
""fullscreenenter"",""1"",""5022""
","
","","","278","","","23","17291","6687","&#9776;","elianto","#3366ff99"," "," ","1","+10","[1129]","1","0","1","","","","","","","",""
"pit-trial","31","778718","0.0-2.0-8.2-0.2","battery-v0.2","","""event"",""trial"",""time""
""fullscreenenter"",""1"",""5022""
""blur"",""20"",""636642""
""focus"",""20"",""709834""
","""event"",""trial"",""time""
""blur"",""20"",""636642""
","""event"",""trial"",""time""
""focus"",""20"",""709834""
","""event"",""trial"",""time""
""fullscreenenter"",""1"",""5022""
","
","","","132","","","23","17291","6687","&#9776;","elianto","#3366ff99"," "," ","1","+10","[983]","1","0","1","","","","","","","",""
"pit-trial","32","781966","0.0-2.0-8.2-1.2","battery-v0.2","","""event"",""trial"",""time""
""fullscreenenter"",""1"",""5022""
""blur"",""20"",""636642""
""focus"",""20"",""709834""
","""event"",""trial"",""time""
""blur"",""20"",""636642""
","""event"",""trial"",""time""
""focus"",""20"",""709834""
","""event"",""trial"",""time""
""fullscreenenter"",""1"",""5022""
","
","","","390","","","23","17291","6687","&#9776;","elianto","#3366ff99"," "," ","1","+10","[1241]","1","0","1","","","","","","","",""
"pit-trial","33","785038","0.0-2.0-8.2-2.2","battery-v0.2","","""event"",""trial"",""time""
""fullscreenenter"",""1"",""5022""
""blur"",""20"",""636642""
""focus"",""20"",""709834""
","""event"",""trial"",""time""
""blur"",""20"",""636642""
","""event"",""trial"",""time""
""focus"",""20"",""709834""
","""event"",""trial"",""time""
""fullscreenenter"",""1"",""5022""
","
","","","215","","","23","17291","6687","&#9776;","elianto","#3366ff99"," "," ","1","+10","[1066]","1","0","1","","","","","","","",""
"pit-trial","34","788308","0.0-2.0-8.2-3.2","battery-v0.2","","""event"",""trial"",""time""
""fullscreenenter"",""1"",""5022""
""blur"",""20"",""636642""
""focus"",""20"",""709834""
","""event"",""trial"",""time""
""blur"",""20"",""636642""
","""event"",""trial"",""time""
""focus"",""20"",""709834""
","""event"",""trial"",""time""
""fullscreenenter"",""1"",""5022""
","
","","","415","","","23","17291","6687","&#9776;","elianto","#3366ff99"," "," ","1","0","[1266]","1","0","1","","","","","","","",""
"pit-trial","35","791520","0.0-2.0-8.2-4.2","battery-v0.2","","""event"",""trial"",""time""
""fullscreenenter"",""1"",""5022""
""blur"",""20"",""636642""
""focus"",""20"",""709834""
","""event"",""trial"",""time""
""blur"",""20"",""636642""
","""event"",""trial"",""time""
""focus"",""20"",""709834""
","""event"",""trial"",""time""
""fullscreenenter"",""1"",""5022""
","
","","","355","","","23","17291","6687","&#9776;","elianto","#3366ff99"," "," ","1","+10","[1206]","1","0","1","","","","","","","",""
"call-function","36","791526","0.0-2.0-9.0","battery-v0.2","","""event"",""trial"",""time""
""fullscreenenter"",""1"",""5022""
""blur"",""20"",""636642""
""focus"",""20"",""709834""
","""event"",""trial"",""time""
""blur"",""20"",""636642""
","""event"",""trial"",""time""
""focus"",""20"",""709834""
","""event"",""trial"",""time""
""fullscreenenter"",""1"",""5022""
","
","","","","","","","","","","","","","","","","","","","","","","","","","","",""
"pit-instructions","37","834404","0.0-2.0-10.0","battery-v0.2","","""event"",""trial"",""time""
""fullscreenenter"",""1"",""5022""
""blur"",""20"",""636642""
""focus"",""20"",""709834""
","""event"",""trial"",""time""
""blur"",""20"",""636642""
","""event"",""trial"",""time""
""focus"",""20"",""709834""
","""event"",""trial"",""time""
""fullscreenenter"",""1"",""5022""
","
","","[{""page_index"":0,""viewing_time"":7309},{""page_index"":1,""viewing_time"":8084},{""page_index"":2,""viewing_time"":10317},{""page_index"":3,""viewing_time"":9566.000000000116},{""page_index"":4,""viewing_time"":7599.999999999884}]","42877.00000000012","","","","","","","","","","","","","","","","","","","","","","","",""
"pit-trial","38","838107","0.0-2.0-11.0-0.0","battery-v0.2","","""event"",""trial"",""time""
""fullscreenenter"",""1"",""5022""
""blur"",""20"",""636642""
""focus"",""20"",""709834""
","""event"",""trial"",""time""
""blur"",""20"",""636642""
","""event"",""trial"",""time""
""focus"",""20"",""709834""
","""event"",""trial"",""time""
""fullscreenenter"",""1"",""5022""
","
","","","847","","","23","17291","6687","&#9761;","elianto","#3366ff99","-1"," ","0","0","[1697]","1","0","2","","","","","","","",""
"pit-trial","39","841382","0.0-2.0-11.0-1.0","battery-v0.2","","""event"",""trial"",""time""
""fullscreenenter"",""1"",""5022""
""blur"",""20"",""636642""
""focus"",""20"",""709834""
","""event"",""trial"",""time""
""blur"",""20"",""636642""
","""event"",""trial"",""time""
""focus"",""20"",""709834""
","""event"",""trial"",""time""
""fullscreenenter"",""1"",""5022""
","
","","","418","","","23","17291","6687","&#9761;","elianto","#3366ff99","-1"," ","0","0","[1269]","1","0","2","","","","","","","",""
"pit-trial","40","844607","0.0-2.0-11.0-2.0","battery-v0.2","","""event"",""trial"",""time""
""fullscreenenter"",""1"",""5022""
""blur"",""20"",""636642""
""focus"",""20"",""709834""
","""event"",""trial"",""time""
""blur"",""20"",""636642""
","""event"",""trial"",""time""
""focus"",""20"",""709834""
","""event"",""trial"",""time""
""fullscreenenter"",""1"",""5022""
","
","","","368","","","23","17291","6687","&#9761;","elianto","#3366ff99","-1"," ","0","0","[1218]","1","0","2","","","","","","","",""
"pit-trial","41","847919","0.0-2.0-11.0-3.0","battery-v0.2","","""event"",""trial"",""time""
""fullscreenenter"",""1"",""5022""
""blur"",""20"",""636642""
""focus"",""20"",""709834""
","""event"",""trial"",""time""
""blur"",""20"",""636642""
","""event"",""trial"",""time""
""focus"",""20"",""709834""
","""event"",""trial"",""time""
""fullscreenenter"",""1"",""5022""
","
","","","453.9999999998836","","","23","17291","6687","&#9761;","elianto","#3366ff99","-1"," ","0","+10","[1304.9999999998836]","1","0","2","","","","","","","",""
"pit-trial","42","851190","0.0-2.0-11.0-4.0","battery-v0.2","","""event"",""trial"",""time""
""fullscreenenter"",""1"",""5022""
""blur"",""20"",""636642""
""focus"",""20"",""709834""
","""event"",""trial"",""time""
""blur"",""20"",""636642""
","""event"",""trial"",""time""
""focus"",""20"",""709834""
","""event"",""trial"",""time""
""fullscreenenter"",""1"",""5022""
","
","","","415.0000000001164","","","23","17291","6687","&#9761;","elianto","#3366ff99","-1"," ","0","0","[1265]","1","0","2","","","","","","","",""
"pit-trial","43","856047","0.0-2.0-11.1-0.1","battery-v0.2","","""event"",""trial"",""time""
""fullscreenenter"",""1"",""5022""
""blur"",""20"",""636642""
""focus"",""20"",""709834""
","""event"",""trial"",""time""
""blur"",""20"",""636642""
","""event"",""trial"",""time""
""focus"",""20"",""709834""
","""event"",""trial"",""time""
""fullscreenenter"",""1"",""5022""
","
","","","-1","","","23","17291","6687","&#9761;","elianto","#3366ff99","-1","-1","1","+10","[4811.000000000116]","1","0","2","","","","","","","",""
"pit-trial","44","859852","0.0-2.0-11.1-1.1","battery-v0.2","","""event"",""trial"",""time""
""fullscreenenter"",""1"",""5022""
""blur"",""20"",""636642""
""focus"",""20"",""709834""
","""event"",""trial"",""time""
""blur"",""20"",""636642""
","""event"",""trial"",""time""
""focus"",""20"",""709834""
","""event"",""trial"",""time""
""fullscreenenter"",""1"",""5022""
","
","","","949","","","23","17291","6687","&#9761;","elianto","#3366ff99","-1"," ","0","0","[1799]","1","0","2","","","","","","","",""
"pit-trial","45","863477","0.0-2.0-11.1-2.1","battery-v0.2","","""event"",""trial"",""time""
""fullscreenenter"",""1"",""5022""
""blur"",""20"",""636642""
""focus"",""20"",""709834""
","""event"",""trial"",""time""
""blur"",""20"",""636642""
","""event"",""trial"",""time""
""focus"",""20"",""709834""
","""event"",""trial"",""time""
""fullscreenenter"",""1"",""5022""
","
","","","768","","","23","17291","6687","&#9761;","elianto","#3366ff99","-1"," ","0","0","[1619]","1","0","2","","","","","","","",""
"pit-trial","46","868333","0.0-2.0-11.1-3.1","battery-v0.2","","""event"",""trial"",""time""
""fullscreenenter"",""1"",""5022""
""blur"",""20"",""636642""
""focus"",""20"",""709834""
","""event"",""trial"",""time""
""blur"",""20"",""636642""
","""event"",""trial"",""time""
""focus"",""20"",""709834""
","""event"",""trial"",""time""
""fullscreenenter"",""1"",""5022""
","
","","","-1","","","23","17291","6687","&#9761;","elianto","#3366ff99","-1","-1","1","0","[]","0","0","2","","","","","","","",""
"pit-trial","47","872032","0.0-2.0-11.1-4.1","battery-v0.2","","""event"",""trial"",""time""
""fullscreenenter"",""1"",""5022""
""blur"",""20"",""636642""
""focus"",""20"",""709834""
","""event"",""trial"",""time""
""blur"",""20"",""636642""
","""event"",""trial"",""time""
""focus"",""20"",""709834""
","""event"",""trial"",""time""
""fullscreenenter"",""1"",""5022""
","
","","","841.9999999998836","","","23","17291","6687","&#9761;","elianto","#3366ff99","-1"," ","0","0","[1694]","1","0","2","","","","","","","",""
"pit-trial","48","875660","0.0-2.0-11.2-0.2","battery-v0.2","","""event"",""trial"",""time""
""fullscreenenter"",""1"",""5022""
""blur"",""20"",""636642""
""focus"",""20"",""709834""
","""event"",""trial"",""time""
""blur"",""20"",""636642""
","""event"",""trial"",""time""
""focus"",""20"",""709834""
","""event"",""trial"",""time""
""fullscreenenter"",""1"",""5022""
","
","","","771","","","23","17291","6687","&#9761;","elianto","#3366ff99","-1"," ","0","0","[1621]","1","0","2","","","","","","","",""
"pit-trial","49","878942","0.0-2.0-11.2-1.2","battery-v0.2","","""event"",""trial"",""time""
""fullscreenenter"",""1"",""5022""
""blur"",""20"",""636642""
""focus"",""20"",""709834""
","""event"",""trial"",""time""
""blur"",""20"",""636642""
","""event"",""trial"",""time""
""focus"",""20"",""709834""
","""event"",""trial"",""time""
""fullscreenenter"",""1"",""5022""
","
","","","424","","","23","17291","6687","&#9761;","elianto","#3366ff99","-1"," ","0","0","[1275]","1","0","2","","","","","","","",""
"pit-trial","50","882205","0.0-2.0-11.2-2.2","battery-v0.2","","""event"",""trial"",""time""
""fullscreenenter"",""1"",""5022""
""blur"",""20"",""636642""
""focus"",""20"",""709834""
","""event"",""trial"",""time""
""blur"",""20"",""636642""
","""event"",""trial"",""time""
""focus"",""20"",""709834""
","""event"",""trial"",""time""
""fullscreenenter"",""1"",""5022""
","
","","","407","","","23","17291","6687","&#9761;","elianto","#3366ff99","-1"," ","0","0","[669,1258]","2","0","2","","","","","","","",""
"pit-trial","51","885366","0.0-2.0-11.2-3.2","battery-v0.2","","""event"",""trial"",""time""
""fullscreenenter"",""1"",""5022""
""blur"",""20"",""636642""
""focus"",""20"",""709834""
","""event"",""trial"",""time""
""blur"",""20"",""636642""
","""event"",""trial"",""time""
""focus"",""20"",""709834""
","""event"",""trial"",""time""
""fullscreenenter"",""1"",""5022""
","
","","","304","","","23","17291","6687","&#9761;","elianto","#3366ff99","-1"," ","0","+10","[1155]","1","0","2","","","","","","","",""
"pit-trial","52","889241","0.0-2.0-11.2-4.2","battery-v0.2","","""event"",""trial"",""time""
""fullscreenenter"",""1"",""5022""
""blur"",""20"",""636642""
""focus"",""20"",""709834""
","""event"",""trial"",""time""
""blur"",""20"",""636642""
","""event"",""trial"",""time""
""focus"",""20"",""709834""
","""event"",""trial"",""time""
""fullscreenenter"",""1"",""5022""
","
","","","1019","","","23","17291","6687","&#9761;","elianto","#3366ff99","-1"," ","0","0","[1869]","1","0","2","","","","","","","",""
"pit-trial","53","892439","0.0-2.0-11.3-0.3","battery-v0.2","","""event"",""trial"",""time""
""fullscreenenter"",""1"",""5022""
""blur"",""20"",""636642""
""focus"",""20"",""709834""
","""event"",""trial"",""time""
""blur"",""20"",""636642""
","""event"",""trial"",""time""
""focus"",""20"",""709834""
","""event"",""trial"",""time""
""fullscreenenter"",""1"",""5022""
","
","","","340.9999999998836","","","23","17291","6687","&#9761;","elianto","#3366ff99","-1"," ","0","0","[1192]","1","0","2","","","","","","","",""
"pit-trial","54","895787","0.0-2.0-11.3-1.3","battery-v0.2","","""event"",""trial"",""time""
""fullscreenenter"",""1"",""5022""
""blur"",""20"",""636642""
""focus"",""20"",""709834""
","""event"",""trial"",""time""
""blur"",""20"",""636642""
","""event"",""trial"",""time""
""focus"",""20"",""709834""
","""event"",""trial"",""time""
""fullscreenenter"",""1"",""5022""
","
","","","491.0000000001164","","","23","17291","6687","&#9761;","elianto","#3366ff99","-1"," ","0","0","[1342.0000000001164]","1","0","2","","","","","","","",""
"pit-trial","55","899127","0.0-2.0-11.3-2.3","battery-v0.2","","""event"",""trial"",""time""
""fullscreenenter"",""1"",""5022""
""blur"",""20"",""636642""
""focus"",""20"",""709834""
","""event"",""trial"",""time""
""blur"",""20"",""636642""
","""event"",""trial"",""time""
""focus"",""20"",""709834""
","""event"",""trial"",""time""
""fullscreenenter"",""1"",""5022""
","
","","","484","","","23","17291","6687","&#9761;","elianto","#3366ff99","-1"," ","0","0","[1334]","1","0","2","","","","","","","",""
"pit-trial","56","902874","0.0-2.0-11.3-3.3","battery-v0.2","","""event"",""trial"",""time""
""fullscreenenter"",""1"",""5022""
""blur"",""20"",""636642""
""focus"",""20"",""709834""
","""event"",""trial"",""time""
""blur"",""20"",""636642""
","""event"",""trial"",""time""
""focus"",""20"",""709834""
","""event"",""trial"",""time""
""fullscreenenter"",""1"",""5022""
","
","","","890.9999999998836","","","23","17291","6687","&#9761;","elianto","#3366ff99","-1"," ","0","+10","[1740.9999999998836]","1","0","2","","","","","","","",""
"pit-trial","57","906180","0.0-2.0-11.3-4.3","battery-v0.2","","""event"",""trial"",""time""
""fullscreenenter"",""1"",""5022""
""blur"",""20"",""636642""
""focus"",""20"",""709834""
","""event"",""trial"",""time""
""blur"",""20"",""636642""
","""event"",""trial"",""time""
""focus"",""20"",""709834""
","""event"",""trial"",""time""
""fullscreenenter"",""1"",""5022""
","
","","","450.0000000001164","","","23","17291","6687","&#9761;","elianto","#3366ff99","-1"," ","0","0","[1301.0000000001164]","1","0","2","","","","","","","",""
"call-function","58","906184","0.0-2.0-12.0","battery-v0.2","","""event"",""trial"",""time""
""fullscreenenter"",""1"",""5022""
""blur"",""20"",""636642""
""focus"",""20"",""709834""
","""event"",""trial"",""time""
""blur"",""20"",""636642""
","""event"",""trial"",""time""
""focus"",""20"",""709834""
","""event"",""trial"",""time""
""fullscreenenter"",""1"",""5022""
","
","","","","","","","","","","","","","","","","","","","","","","","","","","",""
"pit-instructions","59","949705","0.0-2.0-13.0","battery-v0.2","","""event"",""trial"",""time""
""fullscreenenter"",""1"",""5022""
""blur"",""20"",""636642""
""focus"",""20"",""709834""
","""event"",""trial"",""time""
""blur"",""20"",""636642""
","""event"",""trial"",""time""
""focus"",""20"",""709834""
","""event"",""trial"",""time""
""fullscreenenter"",""1"",""5022""
","
","","[{""page_index"":0,""viewing_time"":8936.000000000116},{""page_index"":1,""viewing_time"":7199.999999999884},{""page_index"":2,""viewing_time"":4117},{""page_index"":3,""viewing_time"":16717.000000000116},{""page_index"":4,""viewing_time"":6549.999999999884}]","43520","","","","","","","","","","","","","","","","","","","","","","","",""
"pit-trial","60","953867","0.0-2.0-14.0-0.0","battery-v0.2","","""event"",""trial"",""time""
""fullscreenenter"",""1"",""5022""
""blur"",""20"",""636642""
""focus"",""20"",""709834""
","""event"",""trial"",""time""
""blur"",""20"",""636642""
","""event"",""trial"",""time""
""focus"",""20"",""709834""
","""event"",""trial"",""time""
""fullscreenenter"",""1"",""5022""
","
","","","1306","","","23","17291","6687","&#9826;","elianto","#f73b6a7A","-1"," ","0","-10","[2157]","1","0","3","","","","","","","",""
"pit-trial","61","958724","0.0-2.0-14.0-1.0","battery-v0.2","","""event"",""trial"",""time""
""fullscreenenter"",""1"",""5022""
""blur"",""20"",""636642""
""focus"",""20"",""709834""
","""event"",""trial"",""time""
""blur"",""20"",""636642""
","""event"",""trial"",""time""
""focus"",""20"",""709834""
","""event"",""trial"",""time""
""fullscreenenter"",""1"",""5022""
","
","","","-1","","","23","17291","6687","&#9826;","elianto","#f73b6a7A","-1","-1","1","0","[]","0","0","3","","","","","","","",""
"pit-trial","62","963581","0.0-2.0-14.0-2.0","battery-v0.2","","""event"",""trial"",""time""
""fullscreenenter"",""1"",""5022""
""blur"",""20"",""636642""
""focus"",""20"",""709834""
","""event"",""trial"",""time""
""blur"",""20"",""636642""
","""event"",""trial"",""time""
""focus"",""20"",""709834""
","""event"",""trial"",""time""
""fullscreenenter"",""1"",""5022""
","
","","","-1","","","23","17291","6687","&#9826;","elianto","#f73b6a7A","-1","-1","1","0","[]","0","0","3","","","","","","","",""
"pit-trial","63","968438","0.0-2.0-14.0-3.0","battery-v0.2","","""event"",""trial"",""time""
""fullscreenenter"",""1"",""5022""
""blur"",""20"",""636642""
""focus"",""20"",""709834""
","""event"",""trial"",""time""
""blur"",""20"",""636642""
","""event"",""trial"",""time""
""focus"",""20"",""709834""
","""event"",""trial"",""time""
""fullscreenenter"",""1"",""5022""
","
","","","-1","","","23","17291","6687","&#9826;","elianto","#f73b6a7A","-1","-1","1","-10","[]","0","0","3","","","","","","","",""
"pit-trial","64","973295","0.0-2.0-14.0-4.0","battery-v0.2","","""event"",""trial"",""time""
""fullscreenenter"",""1"",""5022""
""blur"",""20"",""636642""
""focus"",""20"",""709834""
","""event"",""trial"",""time""
""blur"",""20"",""636642""
","""event"",""trial"",""time""
""focus"",""20"",""709834""
","""event"",""trial"",""time""
""fullscreenenter"",""1"",""5022""
","
","","","-1","","","23","17291","6687","&#9826;","elianto","#f73b6a7A","-1","-1","1","0","[3104]","1","0","3","","","","","","","",""
"pit-trial","65","976510","0.0-2.0-14.1-0.1","battery-v0.2","","""event"",""trial"",""time""
""fullscreenenter"",""1"",""5022""
""blur"",""20"",""636642""
""focus"",""20"",""709834""
","""event"",""trial"",""time""
""blur"",""20"",""636642""
","""event"",""trial"",""time""
""focus"",""20"",""709834""
","""event"",""trial"",""time""
""fullscreenenter"",""1"",""5022""
","
","","","356","","","23","17291","6687","&#9826;","elianto","#f73b6a7A","-1"," ","0","-10","[1207]","1","0","3","","","","","","","",""
"pit-trial","66","981366","0.0-2.0-14.1-1.1","battery-v0.2","","""event"",""trial"",""time""
""fullscreenenter"",""1"",""5022""
""blur"",""20"",""636642""
""focus"",""20"",""709834""
","""event"",""trial"",""time""
""blur"",""20"",""636642""
","""event"",""trial"",""time""
""focus"",""20"",""709834""
","""event"",""trial"",""time""
""fullscreenenter"",""1"",""5022""
","
","","","-1","","","23","17291","6687","&#9826;","elianto","#f73b6a7A","-1","-1","1","0","[]","0","0","3","","","","","","","",""
"pit-trial","67","986222","0.0-2.0-14.1-2.1","battery-v0.2","","""event"",""trial"",""time""
""fullscreenenter"",""1"",""5022""
""blur"",""20"",""636642""
""focus"",""20"",""709834""
","""event"",""trial"",""time""
""blur"",""20"",""636642""
","""event"",""trial"",""time""
""focus"",""20"",""709834""
","""event"",""trial"",""time""
""fullscreenenter"",""1"",""5022""
","
","","","-1","","","23","17291","6687","&#9826;","elianto","#f73b6a7A","-1","-1","1","0","[]","0","0","3","","","","","","","",""
"pit-trial","68","991078","0.0-2.0-14.1-3.1","battery-v0.2","","""event"",""trial"",""time""
""fullscreenenter"",""1"",""5022""
""blur"",""20"",""636642""
""focus"",""20"",""709834""
","""event"",""trial"",""time""
""blur"",""20"",""636642""
","""event"",""trial"",""time""
""focus"",""20"",""709834""
","""event"",""trial"",""time""
""fullscreenenter"",""1"",""5022""
","
","","","-1","","","23","17291","6687","&#9826;","elianto","#f73b6a7A","-1","-1","1","-10","[]","0","0","3","","","","","","","",""
"pit-trial","69","995935","0.0-2.0-14.1-4.1","battery-v0.2","","""event"",""trial"",""time""
""fullscreenenter"",""1"",""5022""
""blur"",""20"",""636642""
""focus"",""20"",""709834""
","""event"",""trial"",""time""
""blur"",""20"",""636642""
","""event"",""trial"",""time""
""focus"",""20"",""709834""
","""event"",""trial"",""time""
""fullscreenenter"",""1"",""5022""
","
","","","-1","","","23","17291","6687","&#9826;","elianto","#f73b6a7A","-1","-1","1","0","[]","0","0","3","","","","","","","",""
"pit-trial","70","1000809","0.0-2.0-14.2-0.2","battery-v0.2","","""event"",""trial"",""time""
""fullscreenenter"",""1"",""5022""
""blur"",""20"",""636642""
""focus"",""20"",""709834""
","""event"",""trial"",""time""
""blur"",""20"",""636642""
","""event"",""trial"",""time""
""focus"",""20"",""709834""
","""event"",""trial"",""time""
""fullscreenenter"",""1"",""5022""
","
","","","-1","","","23","17291","6687","&#9826;","elianto","#f73b6a7A","-1","-1","1","0","[]","0","0","3","","","","","","","",""
"pit-trial","71","1005699","0.0-2.0-14.2-1.2","battery-v0.2","","""event"",""trial"",""time""
""fullscreenenter"",""1"",""5022""
""blur"",""20"",""636642""
""focus"",""20"",""709834""
","""event"",""trial"",""time""
""blur"",""20"",""636642""
","""event"",""trial"",""time""
""focus"",""20"",""709834""
","""event"",""trial"",""time""
""fullscreenenter"",""1"",""5022""
","
","","","-1","","","23","17291","6687","&#9826;","elianto","#f73b6a7A","-1","-1","1","0","[]","0","0","3","","","","","","","",""
"pit-trial","72","1010589","0.0-2.0-14.2-2.2","battery-v0.2","","""event"",""trial"",""time""
""fullscreenenter"",""1"",""5022""
""blur"",""20"",""636642""
""focus"",""20"",""709834""
","""event"",""trial"",""time""
""blur"",""20"",""636642""
","""event"",""trial"",""time""
""focus"",""20"",""709834""
","""event"",""trial"",""time""
""fullscreenenter"",""1"",""5022""
","
","","","-1","","","23","17291","6687","&#9826;","elianto","#f73b6a7A","-1","-1","1","0","[]","0","0","3","","","","","","","",""
"pit-trial","73","1015479","0.0-2.0-14.2-3.2","battery-v0.2","","""event"",""trial"",""time""
""fullscreenenter"",""1"",""5022""
""blur"",""20"",""636642""
""focus"",""20"",""709834""
","""event"",""trial"",""time""
""blur"",""20"",""636642""
","""event"",""trial"",""time""
""focus"",""20"",""709834""
","""event"",""trial"",""time""
""fullscreenenter"",""1"",""5022""
","
","","","-1","","","23","17291","6687","&#9826;","elianto","#f73b6a7A","-1","-1","1","-10","[]","0","0","3","","","","","","","",""
"pit-trial","74","1020369","0.0-2.0-14.2-4.2","battery-v0.2","","""event"",""trial"",""time""
""fullscreenenter"",""1"",""5022""
""blur"",""20"",""636642""
""focus"",""20"",""709834""
","""event"",""trial"",""time""
""blur"",""20"",""636642""
","""event"",""trial"",""time""
""focus"",""20"",""709834""
","""event"",""trial"",""time""
""fullscreenenter"",""1"",""5022""
","
","","","-1","","","23","17291","6687","&#9826;","elianto","#f73b6a7A","-1","-1","1","0","[]","0","0","3","","","","","","","",""
"pit-trial","75","1025259","0.0-2.0-14.3-0.3","battery-v0.2","","""event"",""trial"",""time""
""fullscreenenter"",""1"",""5022""
""blur"",""20"",""636642""
""focus"",""20"",""709834""
","""event"",""trial"",""time""
""blur"",""20"",""636642""
","""event"",""trial"",""time""
""focus"",""20"",""709834""
","""event"",""trial"",""time""
""fullscreenenter"",""1"",""5022""
","
","","","-1","","","23","17291","6687","&#9826;","elianto","#f73b6a7A","-1","-1","1","0","[]","0","0","3","","","","","","","",""
"pit-trial","76","1030149","0.0-2.0-14.3-1.3","battery-v0.2","","""event"",""trial"",""time""
""fullscreenenter"",""1"",""5022""
""blur"",""20"",""636642""
""focus"",""20"",""709834""
","""event"",""trial"",""time""
""blur"",""20"",""636642""
","""event"",""trial"",""time""
""focus"",""20"",""709834""
","""event"",""trial"",""time""
""fullscreenenter"",""1"",""5022""
","
","","","-1","","","23","17291","6687","&#9826;","elianto","#f73b6a7A","-1","-1","1","0","[]","0","0","3","","","","","","","",""
"pit-trial","77","1035039","0.0-2.0-14.3-2.3","battery-v0.2","","""event"",""trial"",""time""
""fullscreenenter"",""1"",""5022""
""blur"",""20"",""636642""
""focus"",""20"",""709834""
","""event"",""trial"",""time""
""blur"",""20"",""636642""
","""event"",""trial"",""time""
""focus"",""20"",""709834""
","""event"",""trial"",""time""
""fullscreenenter"",""1"",""5022""
","
","","","-1","","","23","17291","6687","&#9826;","elianto","#f73b6a7A","-1","-1","1","0","[]","0","0","3","","","","","","","",""
"pit-trial","78","1039929","0.0-2.0-14.3-3.3","battery-v0.2","","""event"",""trial"",""time""
""fullscreenenter"",""1"",""5022""
""blur"",""20"",""636642""
""focus"",""20"",""709834""
","""event"",""trial"",""time""
""blur"",""20"",""636642""
","""event"",""trial"",""time""
""focus"",""20"",""709834""
","""event"",""trial"",""time""
""fullscreenenter"",""1"",""5022""
","
","","","-1","","","23","17291","6687","&#9826;","elianto","#f73b6a7A","-1","-1","1","-10","[]","0","0","3","","","","","","","",""
"pit-trial","79","1044819","0.0-2.0-14.3-4.3","battery-v0.2","","""event"",""trial"",""time""
""fullscreenenter"",""1"",""5022""
""blur"",""20"",""636642""
""focus"",""20"",""709834""
","""event"",""trial"",""time""
""blur"",""20"",""636642""
","""event"",""trial"",""time""
""focus"",""20"",""709834""
","""event"",""trial"",""time""
""fullscreenenter"",""1"",""5022""
","
","","","-1","","","23","17291","6687","&#9826;","elianto","#f73b6a7A","-1","-1","1","0","[]","0","0","3","","","","","","","",""
"call-function","80","1044822","0.0-2.0-15.0","battery-v0.2","","""event"",""trial"",""time""
""fullscreenenter"",""1"",""5022""
""blur"",""20"",""636642""
""focus"",""20"",""709834""
","""event"",""trial"",""time""
""blur"",""20"",""636642""
","""event"",""trial"",""time""
""focus"",""20"",""709834""
","""event"",""trial"",""time""
""fullscreenenter"",""1"",""5022""
","
","","","","","","","","","","","","","","","","","","","","","","","","","","",""
"pit-instructions","81","1081837","0.0-2.0-16.0","battery-v0.2","","""event"",""trial"",""time""
""fullscreenenter"",""1"",""5022""
""blur"",""20"",""636642""
""focus"",""20"",""709834""
","""event"",""trial"",""time""
""blur"",""20"",""636642""
","""event"",""trial"",""time""
""focus"",""20"",""709834""
","""event"",""trial"",""time""
""fullscreenenter"",""1"",""5022""
","
","","[{""page_index"":0,""viewing_time"":15082},{""page_index"":1,""viewing_time"":10267.000000000233},{""page_index"":2,""viewing_time"":5565.999999999767},{""page_index"":3,""viewing_time"":6100}]","37015","","","","","","","","","","","","","","","","","","","","","","","",""
"pit-trial","82","1086693","0.0-2.0-17.0-0.0","battery-v0.2","","""event"",""trial"",""time""
""fullscreenenter"",""1"",""5022""
""blur"",""20"",""636642""
""focus"",""20"",""709834""
","""event"",""trial"",""time""
""blur"",""20"",""636642""
","""event"",""trial"",""time""
""focus"",""20"",""709834""
","""event"",""trial"",""time""
""fullscreenenter"",""1"",""5022""
","
","","","-1","","","23","17291","6687","&#9789;","elianto","#f73b6a7A"," ","-1","0","-10","[]","0","0","4","","","","","","","",""
"pit-trial","83","1091550","0.0-2.0-17.0-1.0","battery-v0.2","","""event"",""trial"",""time""
""fullscreenenter"",""1"",""5022""
""blur"",""20"",""636642""
""focus"",""20"",""709834""
","""event"",""trial"",""time""
""blur"",""20"",""636642""
","""event"",""trial"",""time""
""focus"",""20"",""709834""
","""event"",""trial"",""time""
""fullscreenenter"",""1"",""5022""
","
","","","-1","","","23","17291","6687","&#9789;","elianto","#f73b6a7A"," ","-1","0","-10","[]","0","0","4","","","","","","","",""
"pit-trial","84","1094923","0.0-2.0-17.0-2.0","battery-v0.2","","""event"",""trial"",""time""
""fullscreenenter"",""1"",""5022""
""blur"",""20"",""636642""
""focus"",""20"",""709834""
","""event"",""trial"",""time""
""blur"",""20"",""636642""
","""event"",""trial"",""time""
""focus"",""20"",""709834""
","""event"",""trial"",""time""
""fullscreenenter"",""1"",""5022""
","
","","","517.0000000002328","","","23","17291","6687","&#9789;","elianto","#f73b6a7A"," "," ","1","0","[1368.0000000002328]","1","0","4","","","","","","","",""
"pit-trial","85","1098022","0.0-2.0-17.0-3.0","battery-v0.2","","""event"",""trial"",""time""
""fullscreenenter"",""1"",""5022""
""blur"",""20"",""636642""
""focus"",""20"",""709834""
","""event"",""trial"",""time""
""blur"",""20"",""636642""
","""event"",""trial"",""time""
""focus"",""20"",""709834""
","""event"",""trial"",""time""
""fullscreenenter"",""1"",""5022""
","
","","","242","","","23","17291","6687","&#9789;","elianto","#f73b6a7A"," "," ","1","-10","[1093]","1","0","4","","","","","","","",""
"pit-trial","86","1102878","0.0-2.0-17.0-4.0","battery-v0.2","","""event"",""trial"",""time""
""fullscreenenter"",""1"",""5022""
""blur"",""20"",""636642""
""focus"",""20"",""709834""
","""event"",""trial"",""time""
""blur"",""20"",""636642""
","""event"",""trial"",""time""
""focus"",""20"",""709834""
","""event"",""trial"",""time""
""fullscreenenter"",""1"",""5022""
","
","","","-1","","","23","17291","6687","&#9789;","elianto","#f73b6a7A"," ","-1","0","-10","[]","0","0","4","","","","","","","",""
"pit-trial","87","1107735","0.0-2.0-17.1-0.1","battery-v0.2","","""event"",""trial"",""time""
""fullscreenenter"",""1"",""5022""
""blur"",""20"",""636642""
""focus"",""20"",""709834""
","""event"",""trial"",""time""
""blur"",""20"",""636642""
","""event"",""trial"",""time""
""focus"",""20"",""709834""
","""event"",""trial"",""time""
""fullscreenenter"",""1"",""5022""
","
","","","-1","","","23","17291","6687","&#9789;","elianto","#f73b6a7A"," ","-1","0","-10","[]","0","0","4","","","","","","","",""
"pit-trial","88","1112591","0.0-2.0-17.1-1.1","battery-v0.2","","""event"",""trial"",""time""
""fullscreenenter"",""1"",""5022""
""blur"",""20"",""636642""
""focus"",""20"",""709834""
","""event"",""trial"",""time""
""blur"",""20"",""636642""
","""event"",""trial"",""time""
""focus"",""20"",""709834""
","""event"",""trial"",""time""
""fullscreenenter"",""1"",""5022""
","
","","","-1","","","23","17291","6687","&#9789;","elianto","#f73b6a7A"," ","-1","0","-10","[]","0","0","4","","","","","","","",""
"pit-trial","89","1117448","0.0-2.0-17.1-2.1","battery-v0.2","","""event"",""trial"",""time""
""fullscreenenter"",""1"",""5022""
""blur"",""20"",""636642""
""focus"",""20"",""709834""
","""event"",""trial"",""time""
""blur"",""20"",""636642""
","""event"",""trial"",""time""
""focus"",""20"",""709834""
","""event"",""trial"",""time""
""fullscreenenter"",""1"",""5022""
","
","","","-1","","","23","17291","6687","&#9789;","elianto","#f73b6a7A"," ","-1","0","-10","[]","0","0","4","","","","","","","",""
"pit-trial","90","1122309","0.0-2.0-17.1-3.1","battery-v0.2","","""event"",""trial"",""time""
""fullscreenenter"",""1"",""5022""
""blur"",""20"",""636642""
""focus"",""20"",""709834""
","""event"",""trial"",""time""
""blur"",""20"",""636642""
","""event"",""trial"",""time""
""focus"",""20"",""709834""
","""event"",""trial"",""time""
""fullscreenenter"",""1"",""5022""
","
","","","-1","","","23","17291","6687","&#9789;","elianto","#f73b6a7A"," ","-1","0","0","[]","0","0","4","","","","","","","",""
"pit-trial","91","1127199","0.0-2.0-17.1-4.1","battery-v0.2","","""event"",""trial"",""time""
""fullscreenenter"",""1"",""5022""
""blur"",""20"",""636642""
""focus"",""20"",""709834""
","""event"",""trial"",""time""
""blur"",""20"",""636642""
","""event"",""trial"",""time""
""focus"",""20"",""709834""
","""event"",""trial"",""time""
""fullscreenenter"",""1"",""5022""
","
","","","-1","","","23","17291","6687","&#9789;","elianto","#f73b6a7A"," ","-1","0","-10","[]","0","0","4","","","","","","","",""
"pit-trial","92","1132088","0.0-2.0-17.2-0.2","battery-v0.2","","""event"",""trial"",""time""
""fullscreenenter"",""1"",""5022""
""blur"",""20"",""636642""
""focus"",""20"",""709834""
","""event"",""trial"",""time""
""blur"",""20"",""636642""
","""event"",""trial"",""time""
""focus"",""20"",""709834""
","""event"",""trial"",""time""
""fullscreenenter"",""1"",""5022""
","
","","","-1","","","23","17291","6687","&#9789;","elianto","#f73b6a7A"," ","-1","0","-10","[]","0","0","4","","","","","","","",""
"pit-trial","93","1136979","0.0-2.0-17.2-1.2","battery-v0.2","","""event"",""trial"",""time""
""fullscreenenter"",""1"",""5022""
""blur"",""20"",""636642""
""focus"",""20"",""709834""
","""event"",""trial"",""time""
""blur"",""20"",""636642""
","""event"",""trial"",""time""
""focus"",""20"",""709834""
","""event"",""trial"",""time""
""fullscreenenter"",""1"",""5022""
","
","","","-1","","","23","17291","6687","&#9789;","elianto","#f73b6a7A"," ","-1","0","-10","[]","0","0","4","","","","","","","",""
"pit-trial","94","1141869","0.0-2.0-17.2-2.2","battery-v0.2","","""event"",""trial"",""time""
""fullscreenenter"",""1"",""5022""
""blur"",""20"",""636642""
""focus"",""20"",""709834""
","""event"",""trial"",""time""
""blur"",""20"",""636642""
","""event"",""trial"",""time""
""focus"",""20"",""709834""
","""event"",""trial"",""time""
""fullscreenenter"",""1"",""5022""
","
","","","-1","","","23","17291","6687","&#9789;","elianto","#f73b6a7A"," ","-1","0","-10","[]","0","0","4","","","","","","","",""
"pit-trial","95","1146759","0.0-2.0-17.2-3.2","battery-v0.2","","""event"",""trial"",""time""
""fullscreenenter"",""1"",""5022""
""blur"",""20"",""636642""
""focus"",""20"",""709834""
","""event"",""trial"",""time""
""blur"",""20"",""636642""
","""event"",""trial"",""time""
""focus"",""20"",""709834""
","""event"",""trial"",""time""
""fullscreenenter"",""1"",""5022""
","
","","","-1","","","23","17291","6687","&#9789;","elianto","#f73b6a7A"," ","-1","0","0","[]","0","0","4","","","","","","","",""
"pit-trial","96","1151649","0.0-2.0-17.2-4.2","battery-v0.2","","""event"",""trial"",""time""
""fullscreenenter"",""1"",""5022""
""blur"",""20"",""636642""
""focus"",""20"",""709834""
","""event"",""trial"",""time""
""blur"",""20"",""636642""
","""event"",""trial"",""time""
""focus"",""20"",""709834""
","""event"",""trial"",""time""
""fullscreenenter"",""1"",""5022""
","
","","","-1","","","23","17291","6687","&#9789;","elianto","#f73b6a7A"," ","-1","0","-10","[]","0","0","4","","","","","","","",""
"pit-trial","97","1156539","0.0-2.0-17.3-0.3","battery-v0.2","","""event"",""trial"",""time""
""fullscreenenter"",""1"",""5022""
""blur"",""20"",""636642""
""focus"",""20"",""709834""
","""event"",""trial"",""time""
""blur"",""20"",""636642""
","""event"",""trial"",""time""
""focus"",""20"",""709834""
","""event"",""trial"",""time""
""fullscreenenter"",""1"",""5022""
","
","","","-1","","","23","17291","6687","&#9789;","elianto","#f73b6a7A"," ","-1","0","-10","[]","0","0","4","","","","","","","",""
"pit-trial","98","1161429","0.0-2.0-17.3-1.3","battery-v0.2","","""event"",""trial"",""time""
""fullscreenenter"",""1"",""5022""
""blur"",""20"",""636642""
""focus"",""20"",""709834""
","""event"",""trial"",""time""
""blur"",""20"",""636642""
","""event"",""trial"",""time""
""focus"",""20"",""709834""
","""event"",""trial"",""time""
""fullscreenenter"",""1"",""5022""
","
","","","-1","","","23","17291","6687","&#9789;","elianto","#f73b6a7A"," ","-1","0","-10","[]","0","0","4","","","","","","","",""
"pit-trial","99","1166318","0.0-2.0-17.3-2.3","battery-v0.2","","""event"",""trial"",""time""
""fullscreenenter"",""1"",""5022""
""blur"",""20"",""636642""
""focus"",""20"",""709834""
","""event"",""trial"",""time""
""blur"",""20"",""636642""
","""event"",""trial"",""time""
""focus"",""20"",""709834""
","""event"",""trial"",""time""
""fullscreenenter"",""1"",""5022""
","
","","","-1","","","23","17291","6687","&#9789;","elianto","#f73b6a7A"," ","-1","0","-10","[]","0","0","4","","","","","","","",""
"pit-trial","100","1171208","0.0-2.0-17.3-3.3","battery-v0.2","","""event"",""trial"",""time""
""fullscreenenter"",""1"",""5022""
""blur"",""20"",""636642""
""focus"",""20"",""709834""
","""event"",""trial"",""time""
""blur"",""20"",""636642""
","""event"",""trial"",""time""
""focus"",""20"",""709834""
","""event"",""trial"",""time""
""fullscreenenter"",""1"",""5022""
","
","","","-1","","","23","17291","6687","&#9789;","elianto","#f73b6a7A"," ","-1","0","0","[]","0","0","4","","","","","","","",""
"pit-trial","101","1176099","0.0-2.0-17.3-4.3","battery-v0.2","","""event"",""trial"",""time""
""fullscreenenter"",""1"",""5022""
""blur"",""20"",""636642""
""focus"",""20"",""709834""
","""event"",""trial"",""time""
""blur"",""20"",""636642""
","""event"",""trial"",""time""
""focus"",""20"",""709834""
","""event"",""trial"",""time""
""fullscreenenter"",""1"",""5022""
","
","","","-1","","","23","17291","6687","&#9789;","elianto","#f73b6a7A"," ","-1","0","-10","[]","0","0","4","","","","","","","",""
"call-function","102","1176103","0.0-2.0-18.0","battery-v0.2","","""event"",""trial"",""time""
""fullscreenenter"",""1"",""5022""
""blur"",""20"",""636642""
""focus"",""20"",""709834""
","""event"",""trial"",""time""
""blur"",""20"",""636642""
","""event"",""trial"",""time""
""focus"",""20"",""709834""
","""event"",""trial"",""time""
""fullscreenenter"",""1"",""5022""
","
","","","","","","","","","","","","","","","","","","","","","","","","","","",""
"pit-instructions","103","1284772","0.0-2.0-19.0","battery-v0.2","","""event"",""trial"",""time""
""fullscreenenter"",""1"",""5022""
""blur"",""20"",""636642""
""focus"",""20"",""709834""
","""event"",""trial"",""time""
""blur"",""20"",""636642""
","""event"",""trial"",""time""
""focus"",""20"",""709834""
","""event"",""trial"",""time""
""fullscreenenter"",""1"",""5022""
","
","","[{""page_index"":0,""viewing_time"":26484.999999999767},{""page_index"":1,""viewing_time"":16719},{""page_index"":2,""viewing_time"":15414},{""page_index"":3,""viewing_time"":8733},{""page_index"":4,""viewing_time"":9017},{""page_index"":5,""viewing_time"":9200.000000000233},{""page_index"":6,""viewing_time"":8465.999999999767},{""page_index"":7,""viewing_time"":9701},{""page_index"":8,""viewing_time"":4932}]","108667.99999999977","","","","","","","","","","","","","","","","","","","","","","","",""
"pit-comprehension","104","1289995","0.0-2.0-20.0-0.0","battery-v0.2","","""event"",""trial"",""time""
""fullscreenenter"",""1"",""5022""
""blur"",""20"",""636642""
""focus"",""20"",""709834""
","""event"",""trial"",""time""
""blur"",""20"",""636642""
","""event"",""trial"",""time""
""focus"",""20"",""709834""
","""event"",""trial"",""time""
""fullscreenenter"",""1"",""5022""
","
","","","5214","[""SPACE""]","0","23","17291","6687","","","","","","","","","","","","","","","","","","",""
"pit-instructions","105","1292455","0.0-2.0-20.0-1.0","battery-v0.2","","""event"",""trial"",""time""
""fullscreenenter"",""1"",""5022""
""blur"",""20"",""636642""
""focus"",""20"",""709834""
","""event"",""trial"",""time""
""blur"",""20"",""636642""
","""event"",""trial"",""time""
""focus"",""20"",""709834""
","""event"",""trial"",""time""
""fullscreenenter"",""1"",""5022""
","
","","[{""page_index"":0,""viewing_time"":2412}]","2413","","","","","","","","","","","","","","","","","","","","","","","",""
"pit-comprehension","106","1298560","0.0-2.0-21.0-0.0","battery-v0.2","","""event"",""trial"",""time""
""fullscreenenter"",""1"",""5022""
""blur"",""20"",""636642""
""focus"",""20"",""709834""
","""event"",""trial"",""time""
""blur"",""20"",""636642""
","""event"",""trial"",""time""
""focus"",""20"",""709834""
","""event"",""trial"",""time""
""fullscreenenter"",""1"",""5022""
","
","","","6096","[""10""]","0","23","17291","6687","","","","","","","","","","","","","","","","","","",""
"pit-instructions","107","1300822","0.0-2.0-21.0-1.0","battery-v0.2","","""event"",""trial"",""time""
""fullscreenenter"",""1"",""5022""
""blur"",""20"",""636642""
""focus"",""20"",""709834""
","""event"",""trial"",""time""
""blur"",""20"",""636642""
","""event"",""trial"",""time""
""focus"",""20"",""709834""
","""event"",""trial"",""time""
""fullscreenenter"",""1"",""5022""
","
","","[{""page_index"":0,""viewing_time"":2217}]","2217","","","","","","","","","","","","","","","","","","","","","","","",""
"pit-comprehension","108","1307426","0.0-2.0-22.0-0.0","battery-v0.2","","""event"",""trial"",""time""
""fullscreenenter"",""1"",""5022""
""blur"",""20"",""636642""
""focus"",""20"",""709834""
","""event"",""trial"",""time""
""blur"",""20"",""636642""
","""event"",""trial"",""time""
""focus"",""20"",""709834""
","""event"",""trial"",""time""
""fullscreenenter"",""1"",""5022""
","
","","","6597","[""0""]","0","23","17291","6687","","","","","","","","","","","","","","","","","","",""
"pit-instructions","109","1310539","0.0-2.0-22.0-1.0","battery-v0.2","","""event"",""trial"",""time""
""fullscreenenter"",""1"",""5022""
""blur"",""20"",""636642""
""focus"",""20"",""709834""
","""event"",""trial"",""time""
""blur"",""20"",""636642""
","""event"",""trial"",""time""
""focus"",""20"",""709834""
","""event"",""trial"",""time""
""fullscreenenter"",""1"",""5022""
","
","","[{""page_index"":0,""viewing_time"":3068}]","3069","","","","","","","","","","","","","","","","","","","","","","","",""
"pit-comprehension","110","1322242","0.0-2.0-23.0-0.0","battery-v0.2","","""event"",""trial"",""time""
""fullscreenenter"",""1"",""5022""
""blur"",""20"",""636642""
""focus"",""20"",""709834""
","""event"",""trial"",""time""
""blur"",""20"",""636642""
","""event"",""trial"",""time""
""focus"",""20"",""709834""
","""event"",""trial"",""time""
""fullscreenenter"",""1"",""5022""
","
","","","11697","[""True""]","0","23","17291","6687","","","","","","","","","","","","","","","","","","",""
"pit-instructions","111","1325422","0.0-2.0-23.0-1.0","battery-v0.2","","""event"",""trial"",""time""
""fullscreenenter"",""1"",""5022""
""blur"",""20"",""636642""
""focus"",""20"",""709834""
","""event"",""trial"",""time""
""blur"",""20"",""636642""
","""event"",""trial"",""time""
""focus"",""20"",""709834""
","""event"",""trial"",""time""
""fullscreenenter"",""1"",""5022""
","
","","[{""page_index"":0,""viewing_time"":3133.000000000233}]","3133.000000000233","","","","","","","","","","","","","","","","","","","","","","","",""
"pit-comprehension","112","1332911","0.0-2.0-24.0-0.0","battery-v0.2","","""event"",""trial"",""time""
""fullscreenenter"",""1"",""5022""
""blur"",""20"",""636642""
""focus"",""20"",""709834""
","""event"",""trial"",""time""
""blur"",""20"",""636642""
","""event"",""trial"",""time""
""focus"",""20"",""709834""
","""event"",""trial"",""time""
""fullscreenenter"",""1"",""5022""
","
","","","7482","[""True""]","0","23","17291","6687","","","","","","","","","","","","","","","","","","",""
"pit-instructions","113","1334722","0.0-2.0-24.0-1.0","battery-v0.2","","""event"",""trial"",""time""
""fullscreenenter"",""1"",""5022""
""blur"",""20"",""636642""
""focus"",""20"",""709834""
","""event"",""trial"",""time""
""blur"",""20"",""636642""
","""event"",""trial"",""time""
""focus"",""20"",""709834""
","""event"",""trial"",""time""
""fullscreenenter"",""1"",""5022""
","
","","[{""page_index"":0,""viewing_time"":1765}]","1766","","","","","","","","","","","","","","","","","","","","","","","",""
"pit-comprehension","114","1341193","0.0-2.0-25.0-0.0","battery-v0.2","","""event"",""trial"",""time""
""fullscreenenter"",""1"",""5022""
""blur"",""20"",""636642""
""focus"",""20"",""709834""
","""event"",""trial"",""time""
""blur"",""20"",""636642""
","""event"",""trial"",""time""
""focus"",""20"",""709834""
","""event"",""trial"",""time""
""fullscreenenter"",""1"",""5022""
","
","","","6464","[""True""]","0","23","17291","6687","","","","","","","","","","","","","","","","","","",""
"pit-instructions","115","1343139","0.0-2.0-25.0-1.0","battery-v0.2","","""event"",""trial"",""time""
""fullscreenenter"",""1"",""5022""
""blur"",""20"",""636642""
""focus"",""20"",""709834""
","""event"",""trial"",""time""
""blur"",""20"",""636642""
","""event"",""trial"",""time""
""focus"",""20"",""709834""
","""event"",""trial"",""time""
""fullscreenenter"",""1"",""5022""
","
","","[{""page_index"":0,""viewing_time"":1896}]","1896","","","","","","","","","","","","","","","","","","","","","","","",""
"pit-comprehension","116","1347893","0.0-2.0-26.0-0.0","battery-v0.2","","""event"",""trial"",""time""
""fullscreenenter"",""1"",""5022""
""blur"",""20"",""636642""
""focus"",""20"",""709834""
","""event"",""trial"",""time""
""blur"",""20"",""636642""
","""event"",""trial"",""time""
""focus"",""20"",""709834""
","""event"",""trial"",""time""
""fullscreenenter"",""1"",""5022""
","
","","","4744","[""False""]","0","23","17291","6687","","","","","","","","","","","","","","","","","","",""
"pit-instructions","117","1352689","0.0-2.0-26.0-1.0","battery-v0.2","","""event"",""trial"",""time""
""fullscreenenter"",""1"",""5022""
""blur"",""20"",""636642""
""focus"",""20"",""709834""
","""event"",""trial"",""time""
""blur"",""20"",""636642""
","""event"",""trial"",""time""
""focus"",""20"",""709834""
","""event"",""trial"",""time""
""fullscreenenter"",""1"",""5022""
","
","","[{""page_index"":0,""viewing_time"":4747.999999999767}]","4747.999999999767","","","","","","","","","","","","","","","","","","","","","","","",""
"pit-instructions","118","1370488","0.0-3.0","battery-v0.2","","""event"",""trial"",""time""
""fullscreenenter"",""1"",""5022""
""blur"",""20"",""636642""
""focus"",""20"",""709834""
","""event"",""trial"",""time""
""blur"",""20"",""636642""
","""event"",""trial"",""time""
""focus"",""20"",""709834""
","""event"",""trial"",""time""
""fullscreenenter"",""1"",""5022""
","
","","[{""page_index"":0,""viewing_time"":4442},{""page_index"":1,""viewing_time"":5583},{""page_index"":2,""viewing_time"":7766}]","17792.000000000233","","","","","","","","","","","","","","","","","","","","","","","",""
"pit-trial","119","1374075","0.0-4.0","battery-v0.2","","""event"",""trial"",""time""
""fullscreenenter"",""1"",""5022""
""blur"",""20"",""636642""
""focus"",""20"",""709834""
","""event"",""trial"",""time""
""blur"",""20"",""636642""
","""event"",""trial"",""time""
""focus"",""20"",""709834""
","""event"",""trial"",""time""
""fullscreenenter"",""1"",""5022""
","
","","","725","","","23","17291","6687","&#9728;","elianto","#f73b6a7A","-1"," ","0","-10","[1576]","1","1","","","17291","1","0","4","lose","no-go","0"
"pit-trial","120","1377714","0.0-5.0","battery-v0.2","","""event"",""trial"",""time""
""fullscreenenter"",""1"",""5022""
""blur"",""20"",""636642""
""focus"",""20"",""709834""
","""event"",""trial"",""time""
""blur"",""20"",""636642""
","""event"",""trial"",""time""
""focus"",""20"",""709834""
","""event"",""trial"",""time""
""fullscreenenter"",""1"",""5022""
","
","","","781.9999999997672","","","23","17291","6687","&#9730;","elianto","#3366ff99"," "," ","1","+10","[1633]","1","1","","","17291","2","1","1","win","go","0"
"pit-trial","121","1381722","0.0-6.0","battery-v0.2","","""event"",""trial"",""time""
""fullscreenenter"",""1"",""5022""
""blur"",""20"",""636642""
""focus"",""20"",""709834""
","""event"",""trial"",""time""
""blur"",""20"",""636642""
","""event"",""trial"",""time""
""focus"",""20"",""709834""
","""event"",""trial"",""time""
""fullscreenenter"",""1"",""5022""
","
","","","1149.0000000002328","","","23","17291","6687","&#9752;","elianto","#f73b6a7A"," "," ","1","0","[2000]","1","1","","","17291","3","3","3","lose","go","0"
"pit-trial","122","1385435","0.0-7.0","battery-v0.2","","""event"",""trial"",""time""
""fullscreenenter"",""1"",""5022""
""blur"",""20"",""636642""
""focus"",""20"",""709834""
","""event"",""trial"",""time""
""blur"",""20"",""636642""
","""event"",""trial"",""time""
""focus"",""20"",""709834""
","""event"",""trial"",""time""
""fullscreenenter"",""1"",""5022""
","
","","","854","","","23","17291","6687","&#9733;","elianto","#3366ff99","-1"," ","0","0","[1705]","1","1","","","17291","4","2","2","win","no-go","0"
"pit-trial","123","1389501","0.0-8.0","battery-v0.2","","""event"",""trial"",""time""
""fullscreenenter"",""1"",""5022""
""blur"",""20"",""636642""
""focus"",""20"",""709834""
","""event"",""trial"",""time""
""blur"",""20"",""636642""
","""event"",""trial"",""time""
""focus"",""20"",""709834""
","""event"",""trial"",""time""
""fullscreenenter"",""1"",""5022""
","
","","","1203.0000000002328","","","23","17291","6687","&#9730;","elianto","#3366ff99"," "," ","1","0","[2054.000000000233]","1","1","","","17291","5","1","1","win","go","1"
"pit-trial","124","1394360","0.0-9.0","battery-v0.2","","""event"",""trial"",""time""
""fullscreenenter"",""1"",""5022""
""blur"",""20"",""636642""
""focus"",""20"",""709834""
","""event"",""trial"",""time""
""blur"",""20"",""636642""
","""event"",""trial"",""time""
""focus"",""20"",""709834""
","""event"",""trial"",""time""
""fullscreenenter"",""1"",""5022""
","
","","","-1","","","23","17291","6687","&#9728;","elianto","#f73b6a7A","-1","-1","1","0","[]","0","1","","","17291","6","0","4","lose","no-go","0"
"pit-trial","125","1399223","0.0-10.0","battery-v0.2","","""event"",""trial"",""time""
""fullscreenenter"",""1"",""5022""
""blur"",""20"",""636642""
""focus"",""20"",""709834""
","""event"",""trial"",""time""
""blur"",""20"",""636642""
","""event"",""trial"",""time""
""focus"",""20"",""709834""
","""event"",""trial"",""time""
""fullscreenenter"",""1"",""5022""
","
","","","-1","","","23","17291","6687","&#9733;","elianto","#3366ff99","-1","-1","1","0","[4433]","1","1","","","17291","7","2","2","win","no-go","1"
"pit-trial","126","1403053","0.0-11.0","battery-v0.2","","""event"",""trial"",""time""
""fullscreenenter"",""1"",""5022""
""blur"",""20"",""636642""
""focus"",""20"",""709834""
","""event"",""trial"",""time""
""blur"",""20"",""636642""
","""event"",""trial"",""time""
""focus"",""20"",""709834""
","""event"",""trial"",""time""
""fullscreenenter"",""1"",""5022""
","
","","","973","","","23","17291","6687","&#9752;","elianto","#f73b6a7A"," "," ","1","0","[1822.9999999997672]","1","1","","","17291","8","3","3","lose","go","0"
"pit-trial","127","1407674","0.0-12.0","battery-v0.2","","""event"",""trial"",""time""
""fullscreenenter"",""1"",""5022""
""blur"",""20"",""636642""
""focus"",""20"",""709834""
","""event"",""trial"",""time""
""blur"",""20"",""636642""
","""event"",""trial"",""time""
""focus"",""20"",""709834""
","""event"",""trial"",""time""
""fullscreenenter"",""1"",""5022""
","
","","","1764","","","23","17291","6687","&#9730;","elianto","#3366ff99"," "," ","1","+10","[2614]","1","1","","","17291","9","1","1","win","go","0"
"pit-trial","128","1411509","0.0-13.0","battery-v0.2","","""event"",""trial"",""time""
""fullscreenenter"",""1"",""5022""
""blur"",""20"",""636642""
""focus"",""20"",""709834""
","""event"",""trial"",""time""
""blur"",""20"",""636642""
","""event"",""trial"",""time""
""focus"",""20"",""709834""
","""event"",""trial"",""time""
""fullscreenenter"",""1"",""5022""
","
","","","977.0000000002328","","","23","17291","6687","&#9752;","elianto","#f73b6a7A"," "," ","1","0","[1828.0000000002328]","1","1","","","17291","10","3","3","lose","go","0"
"pit-trial","129","1416374","0.0-14.0","battery-v0.2","","""event"",""trial"",""time""
""fullscreenenter"",""1"",""5022""
""blur"",""20"",""636642""
""focus"",""20"",""709834""
","""event"",""trial"",""time""
""blur"",""20"",""636642""
","""event"",""trial"",""time""
""focus"",""20"",""709834""
","""event"",""trial"",""time""
""fullscreenenter"",""1"",""5022""
","
","","","-1","","","23","17291","6687","&#9728;","elianto","#f73b6a7A","-1","-1","1","-10","[]","0","1","","","17291","11","0","4","lose","no-go","1"
"pit-trial","130","1421237","0.0-15.0","battery-v0.2","","""event"",""trial"",""time""
""fullscreenenter"",""1"",""5022""
""blur"",""20"",""636642""
""focus"",""20"",""709834""
","""event"",""trial"",""time""
""blur"",""20"",""636642""
","""event"",""trial"",""time""
""focus"",""20"",""709834""
","""event"",""trial"",""time""
""fullscreenenter"",""1"",""5022""
","
","","","-1","","","23","17291","6687","&#9733;","elianto","#3366ff99","-1","-1","1","+10","[]","0","1","","","17291","12","2","2","win","no-go","0"
"pit-trial","131","1425218","0.0-16.0","battery-v0.2","","""event"",""trial"",""time""
""fullscreenenter"",""1"",""5022""
""blur"",""20"",""636642""
""focus"",""20"",""709834""
","""event"",""trial"",""time""
""blur"",""20"",""636642""
","""event"",""trial"",""time""
""focus"",""20"",""709834""
","""event"",""trial"",""time""
""fullscreenenter"",""1"",""5022""
","
","","","1122","","","23","17291","6687","&#9752;","elianto","#f73b6a7A"," "," ","1","0","[1974]","1","1","","","17291","13","3","3","lose","go","0"
"pit-trial","132","1430076","0.0-17.0","battery-v0.2","","""event"",""trial"",""time""
""fullscreenenter"",""1"",""5022""
""blur"",""20"",""636642""
""focus"",""20"",""709834""
","""event"",""trial"",""time""
""blur"",""20"",""636642""
","""event"",""trial"",""time""
""focus"",""20"",""709834""
","""event"",""trial"",""time""
""fullscreenenter"",""1"",""5022""
","
","","","-1","","","23","17291","6687","&#9733;","elianto","#3366ff99","-1","-1","1","+10","[]","0","1","","","17291","14","2","2","win","no-go","0"
"pit-trial","133","1434873","0.0-18.0","battery-v0.2","","""event"",""trial"",""time""
""fullscreenenter"",""1"",""5022""
""blur"",""20"",""636642""
""focus"",""20"",""709834""
","""event"",""trial"",""time""
""blur"",""20"",""636642""
","""event"",""trial"",""time""
""focus"",""20"",""709834""
","""event"",""trial"",""time""
""fullscreenenter"",""1"",""5022""
","
","","","1938","","","23","17291","6687","&#9730;","elianto","#3366ff99"," "," ","1","+10","[2790]","1","1","","","17291","15","1","1","win","go","0"
"pit-trial","134","1439734","0.0-19.0","battery-v0.2","","""event"",""trial"",""time""
""fullscreenenter"",""1"",""5022""
""blur"",""20"",""636642""
""focus"",""20"",""709834""
","""event"",""trial"",""time""
""blur"",""20"",""636642""
","""event"",""trial"",""time""
""focus"",""20"",""709834""
","""event"",""trial"",""time""
""fullscreenenter"",""1"",""5022""
","
","","","-1","","","23","17291","6687","&#9728;","elianto","#f73b6a7A","-1","-1","1","0","[]","0","1","","","17291","16","0","4","lose","no-go","0"
"pit-trial","135","1444164","0.0-20.0","battery-v0.2","","""event"",""trial"",""time""
""fullscreenenter"",""1"",""5022""
""blur"",""20"",""636642""
""focus"",""20"",""709834""
","""event"",""trial"",""time""
""blur"",""20"",""636642""
","""event"",""trial"",""time""
""focus"",""20"",""709834""
","""event"",""trial"",""time""
""fullscreenenter"",""1"",""5022""
","
","","","1569.0000000002328","","","23","17291","6687","&#9733;","elianto","#3366ff99","-1"," ","0","0","[2420.000000000233]","1","1","","","17291","17","2","2","win","no-go","0"
"pit-trial","136","1449021","0.0-21.0","battery-v0.2","","""event"",""trial"",""time""
""fullscreenenter"",""1"",""5022""
""blur"",""20"",""636642""
""focus"",""20"",""709834""
","""event"",""trial"",""time""
""blur"",""20"",""636642""
","""event"",""trial"",""time""
""focus"",""20"",""709834""
","""event"",""trial"",""time""
""fullscreenenter"",""1"",""5022""
","
","","","-1","","","23","17291","6687","&#9728;","elianto","#f73b6a7A","-1","-1","1","0","[]","0","1","","","17291","18","0","4","lose","no-go","0"
"pit-trial","137","1453007","0.0-22.0","battery-v0.2","","""event"",""trial"",""time""
""fullscreenenter"",""1"",""5022""
""blur"",""20"",""636642""
""focus"",""20"",""709834""
","""event"",""trial"",""time""
""blur"",""20"",""636642""
","""event"",""trial"",""time""
""focus"",""20"",""709834""
","""event"",""trial"",""time""
""fullscreenenter"",""1"",""5022""
","
","","","1126","","","23","17291","6687","&#9752;","elianto","#f73b6a7A"," "," ","1","-10","[1977]","1","1","","","17291","19","3","3","lose","go","1"
"pit-trial","138","1456863","0.0-23.0","battery-v0.2","","""event"",""trial"",""time""
""fullscreenenter"",""1"",""5022""
""blur"",""20"",""636642""
""focus"",""20"",""709834""
","""event"",""trial"",""time""
""blur"",""20"",""636642""
","""event"",""trial"",""time""
""focus"",""20"",""709834""
","""event"",""trial"",""time""
""fullscreenenter"",""1"",""5022""
","
","","","999","","","23","17291","6687","&#9730;","elianto","#3366ff99"," "," ","1","+10","[1850]","1","1","","","17291","20","1","1","win","go","0"
"pit-instructions","139","1633822","0.0-24.0","battery-v0.2","","""event"",""trial"",""time""
""fullscreenenter"",""1"",""5022""
""blur"",""20"",""636642""
""focus"",""20"",""709834""
","""event"",""trial"",""time""
""blur"",""20"",""636642""
","""event"",""trial"",""time""
""focus"",""20"",""709834""
","""event"",""trial"",""time""
""fullscreenenter"",""1"",""5022""
","
","","[{""page_index"":0,""viewing_time"":168024},{""page_index"":1,""viewing_time"":8932}]","176956","","","","","","","","","","","","","","","","","","","","","","","",""
"pit-trial","140","1637482","0.0-25.0","battery-v0.2","","""event"",""trial"",""time""
""fullscreenenter"",""1"",""5022""
""blur"",""20"",""636642""
""focus"",""20"",""709834""
","""event"",""trial"",""time""
""blur"",""20"",""636642""
","""event"",""trial"",""time""
""focus"",""20"",""709834""
","""event"",""trial"",""time""
""fullscreenenter"",""1"",""5022""
","
","","","803","","","23","17291","6687","a","elianto","#f73b6a7A","-1"," ","0","-10","[1652]","1","2","","","17291","21","2","4","lose","no-go","0"
"pit-trial","141","1641523","0.0-26.0","battery-v0.2","","""event"",""trial"",""time""
""fullscreenenter"",""1"",""5022""
""blur"",""20"",""636642""
""focus"",""20"",""709834""
","""event"",""trial"",""time""
""blur"",""20"",""636642""
","""event"",""trial"",""time""
""focus"",""20"",""709834""
","""event"",""trial"",""time""
""fullscreenenter"",""1"",""5022""
","
","","","1181","","","23","17291","6687","g","elianto","#f73b6a7A"," "," ","1","0","[2031.9999999997672]","1","2","","","17291","22","3","3","lose","go","0"
"pit-trial","142","1645578","0.0-27.0","battery-v0.2","","""event"",""trial"",""time""
""fullscreenenter"",""1"",""5022""
""blur"",""20"",""636642""
""focus"",""20"",""709834""
","""event"",""trial"",""time""
""blur"",""20"",""636642""
","""event"",""trial"",""time""
""focus"",""20"",""709834""
","""event"",""trial"",""time""
""fullscreenenter"",""1"",""5022""
","
","","","1196","","","23","17291","6687","l","elianto","#3366ff99"," "," ","1","+10","[2047]","1","2","","","17291","23","1","1","win","go","0"
"pit-trial","143","1649181","0.0-28.0","battery-v0.2","","""event"",""trial"",""time""
""fullscreenenter"",""1"",""5022""
""blur"",""20"",""636642""
""focus"",""20"",""709834""
","""event"",""trial"",""time""
""blur"",""20"",""636642""
","""event"",""trial"",""time""
""focus"",""20"",""709834""
","""event"",""trial"",""time""
""fullscreenenter"",""1"",""5022""
","
","","","740","","","23","17291","6687","u","elianto","#f73b6a7A","-1"," ","0","-10","[1591]","1","2","","","17291","24","0","4","lose","no-go","0"
"pit-trial","144","1654039","0.0-29.0","battery-v0.2","","""event"",""trial"",""time""
""fullscreenenter"",""1"",""5022""
""blur"",""20"",""636642""
""focus"",""20"",""709834""
","""event"",""trial"",""time""
""blur"",""20"",""636642""
","""event"",""trial"",""time""
""focus"",""20"",""709834""
","""event"",""trial"",""time""
""fullscreenenter"",""1"",""5022""
","
","","","-1","","","23","17291","6687","u","elianto","#f73b6a7A","-1","-1","1","-10","[]","0","2","","","17291","25","0","4","lose","no-go","1"
"pit-trial","145","1658907","0.0-30.0","battery-v0.2","","""event"",""trial"",""time""
""fullscreenenter"",""1"",""5022""
""blur"",""20"",""636642""
""focus"",""20"",""709834""
","""event"",""trial"",""time""
""blur"",""20"",""636642""
","""event"",""trial"",""time""
""focus"",""20"",""709834""
","""event"",""trial"",""time""
""fullscreenenter"",""1"",""5022""
","
","","","-1","","","23","17291","6687","a","elianto","#f73b6a7A","-1","-1","1","-10","[]","0","2","","","17291","26","2","4","lose","no-go","1"
"pit-trial","146","1662689","0.0-31.0","battery-v0.2","","""event"",""trial"",""time""
""fullscreenenter"",""1"",""5022""
""blur"",""20"",""636642""
""focus"",""20"",""709834""
","""event"",""trial"",""time""
""blur"",""20"",""636642""
","""event"",""trial"",""time""
""focus"",""20"",""709834""
","""event"",""trial"",""time""
""fullscreenenter"",""1"",""5022""
","
","","","924","","","23","17291","6687","l","elianto","#3366ff99"," "," ","1","0","[1774.9999999997672]","1","2","","","17291","27","1","1","win","go","1"
"pit-trial","147","1666494","0.0-32.0","battery-v0.2","","""event"",""trial"",""time""
""fullscreenenter"",""1"",""5022""
""blur"",""20"",""636642""
""focus"",""20"",""709834""
","""event"",""trial"",""time""
""blur"",""20"",""636642""
","""event"",""trial"",""time""
""focus"",""20"",""709834""
","""event"",""trial"",""time""
""fullscreenenter"",""1"",""5022""
","
","","","949","","","23","17291","6687","g","elianto","#f73b6a7A"," "," ","1","0","[1798]","1","2","","","17291","28","3","3","lose","go","0"
"pit-trial","148","1670631","0.0-33.0","battery-v0.2","","""event"",""trial"",""time""
""fullscreenenter"",""1"",""5022""
""blur"",""20"",""636642""
""focus"",""20"",""709834""
","""event"",""trial"",""time""
""blur"",""20"",""636642""
","""event"",""trial"",""time""
""focus"",""20"",""709834""
","""event"",""trial"",""time""
""fullscreenenter"",""1"",""5022""
","
","","","1274.9999999997672","","","23","17291","6687","g","elianto","#f73b6a7A"," "," ","1","0","[2125]","1","2","","","17291","29","3","3","lose","go","0"
"pit-trial","149","1674327","0.0-34.0","battery-v0.2","","""event"",""trial"",""time""
""fullscreenenter"",""1"",""5022""
""blur"",""20"",""636642""
""focus"",""20"",""709834""
","""event"",""trial"",""time""
""blur"",""20"",""636642""
","""event"",""trial"",""time""
""focus"",""20"",""709834""
","""event"",""trial"",""time""
""fullscreenenter"",""1"",""5022""
","
","","","835.0000000002328","","","23","17291","6687","l","elianto","#3366ff99"," "," ","1","+10","[1686.0000000002328]","1","2","","","17291","30","1","1","win","go","0"
"pit-trial","150","1677910","0.0-35.0","battery-v0.2","","""event"",""trial"",""time""
""fullscreenenter"",""1"",""5022""
""blur"",""20"",""636642""
""focus"",""20"",""709834""
","""event"",""trial"",""time""
""blur"",""20"",""636642""
","""event"",""trial"",""time""
""focus"",""20"",""709834""
","""event"",""trial"",""time""
""fullscreenenter"",""1"",""5022""
","
","","","726","","","23","17291","6687","u","elianto","#f73b6a7A","-1"," ","0","0","[1576]","1","2","","","17291","31","0","4","lose","no-go","1"
"pit-trial","151","1682774","0.0-36.0","battery-v0.2","","""event"",""trial"",""time""
""fullscreenenter"",""1"",""5022""
""blur"",""20"",""636642""
""focus"",""20"",""709834""
","""event"",""trial"",""time""
""blur"",""20"",""636642""
","""event"",""trial"",""time""
""focus"",""20"",""709834""
","""event"",""trial"",""time""
""fullscreenenter"",""1"",""5022""
","
","","","-1","","","23","17291","6687","a","elianto","#f73b6a7A","-1","-1","1","-10","[]","0","2","","","17291","32","2","4","lose","no-go","1"
"pit-trial","152","1687631","0.0-37.0","battery-v0.2","","""event"",""trial"",""time""
""fullscreenenter"",""1"",""5022""
""blur"",""20"",""636642""
""focus"",""20"",""709834""
","""event"",""trial"",""time""
""blur"",""20"",""636642""
","""event"",""trial"",""time""
""focus"",""20"",""709834""
","""event"",""trial"",""time""
""fullscreenenter"",""1"",""5022""
","
","","","-1","","","23","17291","6687","l","elianto","#3366ff99"," ","-1","0","0","[]","0","2","","","17291","33","1","1","win","go","0"
"pit-trial","153","1691161","0.0-38.0","battery-v0.2","","""event"",""trial"",""time""
""fullscreenenter"",""1"",""5022""
""blur"",""20"",""636642""
""focus"",""20"",""709834""
","""event"",""trial"",""time""
""blur"",""20"",""636642""
","""event"",""trial"",""time""
""focus"",""20"",""709834""
","""event"",""trial"",""time""
""fullscreenenter"",""1"",""5022""
","
","","","669.9999999997672","","","23","17291","6687","u","elianto","#f73b6a7A","-1"," ","0","-10","[1521]","1","2","","","17291","34","0","4","lose","no-go","0"
"pit-trial","154","1694814","0.0-39.0","battery-v0.2","","""event"",""trial"",""time""
""fullscreenenter"",""1"",""5022""
""blur"",""20"",""636642""
""focus"",""20"",""709834""
","""event"",""trial"",""time""
""blur"",""20"",""636642""
","""event"",""trial"",""time""
""focus"",""20"",""709834""
","""event"",""trial"",""time""
""fullscreenenter"",""1"",""5022""
","
","","","789","","","23","17291","6687","g","elianto","#f73b6a7A"," "," ","1","-10","[1640.9999999997672]","1","2","","","17291","35","3","3","lose","go","1"
"pit-trial","155","1699672","0.0-40.0","battery-v0.2","","""event"",""trial"",""time""
""fullscreenenter"",""1"",""5022""
""blur"",""20"",""636642""
""focus"",""20"",""709834""
","""event"",""trial"",""time""
""blur"",""20"",""636642""
","""event"",""trial"",""time""
""focus"",""20"",""709834""
","""event"",""trial"",""time""
""fullscreenenter"",""1"",""5022""
","
","","","-1","","","23","17291","6687","a","elianto","#f73b6a7A","-1","-1","1","0","[]","0","2","","","17291","36","2","4","lose","no-go","0"
"pit-trial","156","1704534","0.0-41.0","battery-v0.2","","""event"",""trial"",""time""
""fullscreenenter"",""1"",""5022""
""blur"",""20"",""636642""
""focus"",""20"",""709834""
","""event"",""trial"",""time""
""blur"",""20"",""636642""
","""event"",""trial"",""time""
""focus"",""20"",""709834""
","""event"",""trial"",""time""
""fullscreenenter"",""1"",""5022""
","
","","","-1","","","23","17291","6687","g","elianto","#f73b6a7A"," ","-1","0","-10","[3000]","1","2","","","17291","37","3","3","lose","go","0"
"pit-trial","157","1709179","0.0-42.0","battery-v0.2","","""event"",""trial"",""time""
""fullscreenenter"",""1"",""5022""
""blur"",""20"",""636642""
""focus"",""20"",""709834""
","""event"",""trial"",""time""
""blur"",""20"",""636642""
","""event"",""trial"",""time""
""focus"",""20"",""709834""
","""event"",""trial"",""time""
""fullscreenenter"",""1"",""5022""
","
","","","1782","","","23","17291","6687","l","elianto","#3366ff99"," "," ","1","+10","[2633]","1","2","","","17291","38","1","1","win","go","0"
"pit-trial","158","1712872","0.0-43.0","battery-v0.2","","""event"",""trial"",""time""
""fullscreenenter"",""1"",""5022""
""blur"",""20"",""636642""
""focus"",""20"",""709834""
","""event"",""trial"",""time""
""blur"",""20"",""636642""
","""event"",""trial"",""time""
""focus"",""20"",""709834""
","""event"",""trial"",""time""
""fullscreenenter"",""1"",""5022""
","
","","","834","","","23","17291","6687","u","elianto","#f73b6a7A","-1"," ","0","0","[1685]","1","2","","","17291","39","0","4","lose","no-go","1"
"pit-trial","159","1716224","0.0-44.0","battery-v0.2","","""event"",""trial"",""time""
""fullscreenenter"",""1"",""5022""
""blur"",""20"",""636642""
""focus"",""20"",""709834""
","""event"",""trial"",""time""
""blur"",""20"",""636642""
","""event"",""trial"",""time""
""focus"",""20"",""709834""
","""event"",""trial"",""time""
""fullscreenenter"",""1"",""5022""
","
","","","495","","","23","17291","6687","a","elianto","#f73b6a7A","-1"," ","0","-10","[1346]","1","2","","","17291","40","2","4","lose","no-go","0"
"pit-trial","160","1721088","0.0-45.0","battery-v0.2","","""event"",""trial"",""time""
""fullscreenenter"",""1"",""5022""
""blur"",""20"",""636642""
""focus"",""20"",""709834""
","""event"",""trial"",""time""
""blur"",""20"",""636642""
","""event"",""trial"",""time""
""focus"",""20"",""709834""
","""event"",""trial"",""time""
""fullscreenenter"",""1"",""5022""
","
","","","-1","","","23","17291","6687","a","elianto","#f73b6a7A","-1","-1","1","-10","[]","0","2","","","17291","41","2","4","lose","no-go","1"
"pit-trial","161","1725599","0.0-46.0","battery-v0.2","","""event"",""trial"",""time""
""fullscreenenter"",""1"",""5022""
""blur"",""20"",""636642""
""focus"",""20"",""709834""
","""event"",""trial"",""time""
""blur"",""20"",""636642""
","""event"",""trial"",""time""
""focus"",""20"",""709834""
","""event"",""trial"",""time""
""fullscreenenter"",""1"",""5022""
","
","","","1648","","","23","17291","6687","l","elianto","#3366ff99"," "," ","1","+10","[2499]","1","2","","","17291","42","1","1","win","go","0"
"pit-trial","162","1730120","0.0-47.0","battery-v0.2","","""event"",""trial"",""time""
""fullscreenenter"",""1"",""5022""
""blur"",""20"",""636642""
""focus"",""20"",""709834""
","""event"",""trial"",""time""
""blur"",""20"",""636642""
","""event"",""trial"",""time""
""focus"",""20"",""709834""
","""event"",""trial"",""time""
""fullscreenenter"",""1"",""5022""
","
","","","1662","","","23","17291","6687","u","elianto","#f73b6a7A","-1"," ","0","-10","[2513]","1","2","","","17291","43","0","4","lose","no-go","0"
"pit-trial","163","1734984","0.0-48.0","battery-v0.2","","""event"",""trial"",""time""
""fullscreenenter"",""1"",""5022""
""blur"",""20"",""636642""
""focus"",""20"",""709834""
","""event"",""trial"",""time""
""blur"",""20"",""636642""
","""event"",""trial"",""time""
""focus"",""20"",""709834""
","""event"",""trial"",""time""
""fullscreenenter"",""1"",""5022""
","
","","","-1","","","23","17291","6687","g","elianto","#f73b6a7A"," ","-1","0","0","[]","0","2","","","17291","44","3","3","lose","go","1"
"pit-trial","164","1738769","0.0-49.0","battery-v0.2","","""event"",""trial"",""time""
""fullscreenenter"",""1"",""5022""
""blur"",""20"",""636642""
""focus"",""20"",""709834""
","""event"",""trial"",""time""
""blur"",""20"",""636642""
","""event"",""trial"",""time""
""focus"",""20"",""709834""
","""event"",""trial"",""time""
""fullscreenenter"",""1"",""5022""
","
","","","927.0000000002328","","","23","17291","6687","p","elianto","#3366ff99","-1"," ","0","0","[1778.0000000002328]","1","2","","","17291","45","4","2","win","no-go","0"
"pit-trial","165","1742718","0.0-50.0","battery-v0.2","","""event"",""trial"",""time""
""fullscreenenter"",""1"",""5022""
""blur"",""20"",""636642""
""focus"",""20"",""709834""
","""event"",""trial"",""time""
""blur"",""20"",""636642""
","""event"",""trial"",""time""
""focus"",""20"",""709834""
","""event"",""trial"",""time""
""fullscreenenter"",""1"",""5022""
","
","","","1091","","","23","17291","6687","g","elianto","#f73b6a7A"," "," ","1","0","[1942]","1","2","","","17291","46","3","3","lose","go","0"
"pit-trial","166","1747580","0.0-51.0","battery-v0.2","","""event"",""trial"",""time""
""fullscreenenter"",""1"",""5022""
""blur"",""20"",""636642""
""focus"",""20"",""709834""
","""event"",""trial"",""time""
""blur"",""20"",""636642""
","""event"",""trial"",""time""
""focus"",""20"",""709834""
","""event"",""trial"",""time""
""fullscreenenter"",""1"",""5022""
","
","","","-1","","","23","17291","6687","u","elianto","#f73b6a7A","-1","-1","1","0","[]","0","2","","","17291","47","0","4","lose","no-go","0"
"pit-trial","167","1752439","0.0-52.0","battery-v0.2","","""event"",""trial"",""time""
""fullscreenenter"",""1"",""5022""
""blur"",""20"",""636642""
""focus"",""20"",""709834""
","""event"",""trial"",""time""
""blur"",""20"",""636642""
","""event"",""trial"",""time""
""focus"",""20"",""709834""
","""event"",""trial"",""time""
""fullscreenenter"",""1"",""5022""
","
","","","-1","","","23","17291","6687","a","elianto","#f73b6a7A","-1","-1","1","0","[]","0","2","","","17291","48","2","4","lose","no-go","0"
"pit-trial","168","1756861","0.0-53.0","battery-v0.2","","""event"",""trial"",""time""
""fullscreenenter"",""1"",""5022""
""blur"",""20"",""636642""
""focus"",""20"",""709834""
","""event"",""trial"",""time""
""blur"",""20"",""636642""
","""event"",""trial"",""time""
""focus"",""20"",""709834""
","""event"",""trial"",""time""
""fullscreenenter"",""1"",""5022""
","
","","","1560","","","23","17291","6687","g","elianto","#f73b6a7A"," "," ","1","0","[2411]","1","2","","","17291","49","3","3","lose","go","0"
"pit-trial","169","1761719","0.0-54.0","battery-v0.2","","""event"",""trial"",""time""
""fullscreenenter"",""1"",""5022""
""blur"",""20"",""636642""
""focus"",""20"",""709834""
","""event"",""trial"",""time""
""blur"",""20"",""636642""
","""event"",""trial"",""time""
""focus"",""20"",""709834""
","""event"",""trial"",""time""
""fullscreenenter"",""1"",""5022""
","
","","","-1","","","23","17291","6687","l","elianto","#3366ff99"," ","-1","0","0","[]","0","2","","","17291","50","1","1","win","go","0"
"pit-trial","170","1765354","0.0-55.0","battery-v0.2","","""event"",""trial"",""time""
""fullscreenenter"",""1"",""5022""
""blur"",""20"",""636642""
""focus"",""20"",""709834""
","""event"",""trial"",""time""
""blur"",""20"",""636642""
","""event"",""trial"",""time""
""focus"",""20"",""709834""
","""event"",""trial"",""time""
""fullscreenenter"",""1"",""5022""
","
","","","772","","","23","17291","6687","u","elianto","#f73b6a7A","-1"," ","0","0","[1622.9999999997672]","1","2","","","17291","51","0","4","lose","no-go","1"
"pit-trial","171","1770217","0.0-56.0","battery-v0.2","","""event"",""trial"",""time""
""fullscreenenter"",""1"",""5022""
""blur"",""20"",""636642""
""focus"",""20"",""709834""
","""event"",""trial"",""time""
""blur"",""20"",""636642""
","""event"",""trial"",""time""
""focus"",""20"",""709834""
","""event"",""trial"",""time""
""fullscreenenter"",""1"",""5022""
","
","","","-1","","","23","17291","6687","p","elianto","#3366ff99","-1","-1","1","+10","[3840]","1","2","","","17291","52","4","2","win","no-go","0"
"pit-trial","172","1775074","0.0-57.0","battery-v0.2","","""event"",""trial"",""time""
""fullscreenenter"",""1"",""5022""
""blur"",""20"",""636642""
""focus"",""20"",""709834""
","""event"",""trial"",""time""
""blur"",""20"",""636642""
","""event"",""trial"",""time""
""focus"",""20"",""709834""
","""event"",""trial"",""time""
""fullscreenenter"",""1"",""5022""
","
","","","-1","","","23","17291","6687","a","elianto","#f73b6a7A","-1","-1","1","0","[3058]","1","2","","","17291","53","2","4","lose","no-go","0"
"pit-trial","173","1779933","0.0-58.0","battery-v0.2","","""event"",""trial"",""time""
""fullscreenenter"",""1"",""5022""
""blur"",""20"",""636642""
""focus"",""20"",""709834""
","""event"",""trial"",""time""
""blur"",""20"",""636642""
","""event"",""trial"",""time""
""focus"",""20"",""709834""
","""event"",""trial"",""time""
""fullscreenenter"",""1"",""5022""
","
","","","-1","","","23","17291","6687","l","elianto","#3366ff99"," ","-1","0","0","[]","0","2","","","17291","54","1","1","win","go","0"
"pit-trial","174","1784795","0.0-59.0","battery-v0.2","","""event"",""trial"",""time""
""fullscreenenter"",""1"",""5022""
""blur"",""20"",""636642""
""focus"",""20"",""709834""
","""event"",""trial"",""time""
""blur"",""20"",""636642""
","""event"",""trial"",""time""
""focus"",""20"",""709834""
","""event"",""trial"",""time""
""fullscreenenter"",""1"",""5022""
","
","","","-1","","","23","17291","6687","p","elianto","#3366ff99","-1","-1","1","+10","[]","0","2","","","17291","55","4","2","win","no-go","0"
"pit-trial","175","1789659","0.0-60.0","battery-v0.2","","""event"",""trial"",""time""
""fullscreenenter"",""1"",""5022""
""blur"",""20"",""636642""
""focus"",""20"",""709834""
","""event"",""trial"",""time""
""blur"",""20"",""636642""
","""event"",""trial"",""time""
""focus"",""20"",""709834""
","""event"",""trial"",""time""
""fullscreenenter"",""1"",""5022""
","
","","","-1","","","23","17291","6687","u","elianto","#f73b6a7A","-1","-1","1","0","[]","0","2","","","17291","56","0","4","lose","no-go","0"
"pit-trial","176","1794549","0.0-61.0","battery-v0.2","","""event"",""trial"",""time""
""fullscreenenter"",""1"",""5022""
""blur"",""20"",""636642""
""focus"",""20"",""709834""
","""event"",""trial"",""time""
""blur"",""20"",""636642""
","""event"",""trial"",""time""
""focus"",""20"",""709834""
","""event"",""trial"",""time""
""fullscreenenter"",""1"",""5022""
","
","","","-1","","","23","17291","6687","u","elianto","#f73b6a7A","-1","-1","1","0","[]","0","2","","","17291","57","0","4","lose","no-go","0"
"pit-trial","177","1799439","0.0-62.0","battery-v0.2","","""event"",""trial"",""time""
""fullscreenenter"",""1"",""5022""
""blur"",""20"",""636642""
""focus"",""20"",""709834""
","""event"",""trial"",""time""
""blur"",""20"",""636642""
","""event"",""trial"",""time""
""focus"",""20"",""709834""
","""event"",""trial"",""time""
""fullscreenenter"",""1"",""5022""
","
","","","-1","","","23","17291","6687","l","elianto","#3366ff99"," ","-1","0","+10","[]","0","2","","","17291","58","1","1","win","go","1"
"pit-trial","178","1803524","0.0-63.0","battery-v0.2","","""event"",""trial"",""time""
""fullscreenenter"",""1"",""5022""
""blur"",""20"",""636642""
""focus"",""20"",""709834""
","""event"",""trial"",""time""
""blur"",""20"",""636642""
","""event"",""trial"",""time""
""focus"",""20"",""709834""
","""event"",""trial"",""time""
""fullscreenenter"",""1"",""5022""
","
","","","1215","","","23","17291","6687","p","elianto","#3366ff99","-1"," ","0","0","[2076]","1","2","","","17291","59","4","2","win","no-go","0"
"pit-trial","179","1808386","0.0-64.0","battery-v0.2","","""event"",""trial"",""time""
""fullscreenenter"",""1"",""5022""
""blur"",""20"",""636642""
""focus"",""20"",""709834""
","""event"",""trial"",""time""
""blur"",""20"",""636642""
","""event"",""trial"",""time""
""focus"",""20"",""709834""
","""event"",""trial"",""time""
""fullscreenenter"",""1"",""5022""
","
","","","-1","","","23","17291","6687","g","elianto","#f73b6a7A"," ","-1","0","-10","[]","0","2","","","17291","60","3","3","lose","go","0"
"pit-trial","180","1813244","0.0-65.0","battery-v0.2","","""event"",""trial"",""time""
""fullscreenenter"",""1"",""5022""
""blur"",""20"",""636642""
""focus"",""20"",""709834""
","""event"",""trial"",""time""
""blur"",""20"",""636642""
","""event"",""trial"",""time""
""focus"",""20"",""709834""
","""event"",""trial"",""time""
""fullscreenenter"",""1"",""5022""
","
","","","-1","","","23","17291","6687","a","elianto","#f73b6a7A","-1","-1","1","-10","[]","0","2","","","17291","61","2","4","lose","no-go","1"
"pit-trial","181","1817339","0.0-66.0","battery-v0.2","","""event"",""trial"",""time""
""fullscreenenter"",""1"",""5022""
""blur"",""20"",""636642""
""focus"",""20"",""709834""
","""event"",""trial"",""time""
""blur"",""20"",""636642""
","""event"",""trial"",""time""
""focus"",""20"",""709834""
","""event"",""trial"",""time""
""fullscreenenter"",""1"",""5022""
","
","","","1230","","","23","17291","6687","p","elianto","#3366ff99","-1"," ","0","0","[2081]","1","2","","","17291","62","4","2","win","no-go","0"
"pit-trial","182","1822197","0.0-67.0","battery-v0.2","","""event"",""trial"",""time""
""fullscreenenter"",""1"",""5022""
""blur"",""20"",""636642""
""focus"",""20"",""709834""
","""event"",""trial"",""time""
""blur"",""20"",""636642""
","""event"",""trial"",""time""
""focus"",""20"",""709834""
","""event"",""trial"",""time""
""fullscreenenter"",""1"",""5022""
","
","","","-1","","","23","17291","6687","l","elianto","#3366ff99"," ","-1","0","0","[2949.999999999767]","1","2","","","17291","63","1","1","win","go","0"
"pit-trial","183","1827057","0.0-68.0","battery-v0.2","","""event"",""trial"",""time""
""fullscreenenter"",""1"",""5022""
""blur"",""20"",""636642""
""focus"",""20"",""709834""
","""event"",""trial"",""time""
""blur"",""20"",""636642""
","""event"",""trial"",""time""
""focus"",""20"",""709834""
","""event"",""trial"",""time""
""fullscreenenter"",""1"",""5022""
","
","","","-1","","","23","17291","6687","g","elianto","#f73b6a7A"," ","-1","0","-10","[]","0","2","","","17291","64","3","3","lose","go","0"
"pit-trial","184","1831920","0.0-69.0","battery-v0.2","","""event"",""trial"",""time""
""fullscreenenter"",""1"",""5022""
""blur"",""20"",""636642""
""focus"",""20"",""709834""
","""event"",""trial"",""time""
""blur"",""20"",""636642""
","""event"",""trial"",""time""
""focus"",""20"",""709834""
","""event"",""trial"",""time""
""fullscreenenter"",""1"",""5022""
","
","","","-1","","","23","17291","6687","g","elianto","#f73b6a7A"," ","-1","0","-10","[]","0","2","","","17291","65","3","3","lose","go","0"
"pit-trial","185","1836777","0.0-70.0","battery-v0.2","","""event"",""trial"",""time""
""fullscreenenter"",""1"",""5022""
""blur"",""20"",""636642""
""focus"",""20"",""709834""
","""event"",""trial"",""time""
""blur"",""20"",""636642""
","""event"",""trial"",""time""
""focus"",""20"",""709834""
","""event"",""trial"",""time""
""fullscreenenter"",""1"",""5022""
","
","","","-1","","","23","17291","6687","p","elianto","#3366ff99","-1","-1","1","+10","[]","0","2","","","17291","66","4","2","win","no-go","0"
"pit-trial","186","1841649","0.0-71.0","battery-v0.2","","""event"",""trial"",""time""
""fullscreenenter"",""1"",""5022""
""blur"",""20"",""636642""
""focus"",""20"",""709834""
","""event"",""trial"",""time""
""blur"",""20"",""636642""
","""event"",""trial"",""time""
""focus"",""20"",""709834""
","""event"",""trial"",""time""
""fullscreenenter"",""1"",""5022""
","
","","","-1","","","23","17291","6687","a","elianto","#f73b6a7A","-1","-1","1","0","[]","0","2","","","17291","67","2","4","lose","no-go","0"
"pit-trial","187","1846540","0.0-72.0","battery-v0.2","","""event"",""trial"",""time""
""fullscreenenter"",""1"",""5022""
""blur"",""20"",""636642""
""focus"",""20"",""709834""
","""event"",""trial"",""time""
""blur"",""20"",""636642""
","""event"",""trial"",""time""
""focus"",""20"",""709834""
","""event"",""trial"",""time""
""fullscreenenter"",""1"",""5022""
","
","","","-1","","","23","17291","6687","l","elianto","#3366ff99"," ","-1","0","0","[]","0","2","","","17291","68","1","1","win","go","0"
"pit-trial","188","1851430","0.0-73.0","battery-v0.2","","""event"",""trial"",""time""
""fullscreenenter"",""1"",""5022""
""blur"",""20"",""636642""
""focus"",""20"",""709834""
","""event"",""trial"",""time""
""blur"",""20"",""636642""
","""event"",""trial"",""time""
""focus"",""20"",""709834""
","""event"",""trial"",""time""
""fullscreenenter"",""1"",""5022""
","
","","","-1","","","23","17291","6687","l","elianto","#3366ff99"," ","-1","0","+10","[]","0","2","","","17291","69","1","1","win","go","1"
"pit-trial","189","1855837","0.0-74.0","battery-v0.2","","""event"",""trial"",""time""
""fullscreenenter"",""1"",""5022""
""blur"",""20"",""636642""
""focus"",""20"",""709834""
","""event"",""trial"",""time""
""blur"",""20"",""636642""
","""event"",""trial"",""time""
""focus"",""20"",""709834""
","""event"",""trial"",""time""
""fullscreenenter"",""1"",""5022""
","
","","","1536.0000000002328","","","23","17291","6687","g","elianto","#f73b6a7A"," "," ","1","0","[2400.000000000233]","1","2","","","17291","70","3","3","lose","go","0"
"pit-trial","190","1859590","0.0-75.0","battery-v0.2","","""event"",""trial"",""time""
""fullscreenenter"",""1"",""5022""
""blur"",""20"",""636642""
""focus"",""20"",""709834""
","""event"",""trial"",""time""
""blur"",""20"",""636642""
","""event"",""trial"",""time""
""focus"",""20"",""709834""
","""event"",""trial"",""time""
""fullscreenenter"",""1"",""5022""
","
","","","889","","","23","17291","6687","s","elianto","#3366ff99"," "," ","1","+10","[1740]","1","2","","","17291","71","5","1","win","go","0"
"pit-trial","191","1863311","0.0-76.0","battery-v0.2","","""event"",""trial"",""time""
""fullscreenenter"",""1"",""5022""
""blur"",""20"",""636642""
""focus"",""20"",""709834""
","""event"",""trial"",""time""
""blur"",""20"",""636642""
","""event"",""trial"",""time""
""focus"",""20"",""709834""
","""event"",""trial"",""time""
""fullscreenenter"",""1"",""5022""
","
","","","864","","","23","17291","6687","p","elianto","#3366ff99","-1"," ","0","0","[1713.9999999997672]","1","2","","","17291","72","4","2","win","no-go","0"
