"trial_type","trial_index","time_elapsed","internal_node_id","task_version","subject_id","interactions","blur_events","focus_events","fullscreenenter_events","fullscreenexit_events","success","view_history","rt","responses","num_errors","age","subject","participantId","rune","rune_set","hex","correct","choice","accuracy","outcome","keys","total_keys","block","practice","value","sub","trial","stimulus","robot","valence","action","sham"
"pavlovia","0","8","0.0-0.0","battery-v0.2","","""event"",""trial"",""time""
""fullscreenenter"",""1"",""2233""
","
","
","""event"",""trial"",""time""
""fullscreenenter"",""1"",""2233""
","
","","","","","","","","","","","","","","","","","","","","","","","","","","",""
"fullscreen","1","3216","0.0-1.0","battery-v0.2","","""event"",""trial"",""time""
""fullscreenenter"",""1"",""2233""
","
","
","""event"",""trial"",""time""
""fullscreenenter"",""1"",""2233""
","
","true","","","","","","","","","","","","","","","","","","","","","","","","","",""
"pit-instructions","2","9877","0.0-2.0-0.0","battery-v0.2","","""event"",""trial"",""time""
""fullscreenenter"",""1"",""2233""
","
","
","""event"",""trial"",""time""
""fullscreenenter"",""1"",""2233""
","
","","[{""page_index"":0,""viewing_time"":6652.799999952316}]","6653.099999904633","","","","","","","","","","","","","","","","","","","","","","","",""
"pit-comprehension","3","12866","0.0-2.0-1.0-0.0","battery-v0.2","","""event"",""trial"",""time""
""fullscreenenter"",""1"",""2233""
","
","
","""event"",""trial"",""time""
""fullscreenenter"",""1"",""2233""
","
","","","2985.699999809265","[""shark""]","0","15","4672","3223","","","","","","","","","","","","","","","","","","",""
"pit-instructions","4","13809","0.0-2.0-1.0-1.0","battery-v0.2","","""event"",""trial"",""time""
""fullscreenenter"",""1"",""2233""
","
","
","""event"",""trial"",""time""
""fullscreenenter"",""1"",""2233""
","
","","[{""page_index"":0,""viewing_time"":934.5}]","935","","","","","","","","","","","","","","","","","","","","","","","",""
"pit-comprehension","5","15977","0.0-2.0-2.0-0.0","battery-v0.2","","""event"",""trial"",""time""
""fullscreenenter"",""1"",""2233""
","
","
","""event"",""trial"",""time""
""fullscreenenter"",""1"",""2233""
","
","","","2162.5999999046326","[""tiger""]","0","15","4672","3223","","","","","","","","","","","","","","","","","","",""
"pit-instructions","6","16902","0.0-2.0-2.0-1.0","battery-v0.2","","""event"",""trial"",""time""
""fullscreenenter"",""1"",""2233""
","
","
","""event"",""trial"",""time""
""fullscreenenter"",""1"",""2233""
","
","","[{""page_index"":0,""viewing_time"":919.2000000476837}]","919.5","","","","","","","","","","","","","","","","","","","","","","","",""
"pit-instructions","7","115773","0.0-2.0-3.0","battery-v0.2","","""event"",""trial"",""time""
""fullscreenenter"",""1"",""2233""
","
","
","""event"",""trial"",""time""
""fullscreenenter"",""1"",""2233""
","
","","[{""page_index"":0,""viewing_time"":10647.700000047684},{""page_index"":1,""viewing_time"":6841.700000047684},{""page_index"":2,""viewing_time"":6474.5},{""page_index"":3,""viewing_time"":6153.299999952316},{""page_index"":4,""viewing_time"":5928.200000047684},{""page_index"":5,""viewing_time"":5724.400000095367},{""page_index"":6,""viewing_time"":7649.599999904633},{""page_index"":7,""viewing_time"":6738.099999904633},{""page_index"":8,""viewing_time"":7591.300000190735},{""page_index"":9,""viewing_time"":8651.599999904633},{""page_index"":10,""viewing_time"":7544.5},{""page_index"":11,""viewing_time"":7261.400000095367},{""page_index"":12,""viewing_time"":6553.699999809265},{""page_index"":13,""viewing_time"":5095.700000047684}]","98856.90000009537","","","","","","","","","","","","","","","","","","","","","","","",""
"pit-trial","8","119289","0.0-2.0-4.0-0.0","battery-v0.2","","""event"",""trial"",""time""
""fullscreenenter"",""1"",""2233""
","
","
","""event"",""trial"",""time""
""fullscreenenter"",""1"",""2233""
","
","","","634.7000000476837","","","15","4672","3223","&#9784;","elianto","#FFFFF080"," "," ","1","&#10004","[207.79999995231628,1488]","2","0","0","","","","","","","",""
"pit-trial","9","123021","0.0-2.0-4.1-0.1","battery-v0.2","","""event"",""trial"",""time""
""fullscreenenter"",""1"",""2233""
","
","
","""event"",""trial"",""time""
""fullscreenenter"",""1"",""2233""
","
","","","864","","","15","4672","3223","&#9784;","elianto","#FFFFF080"," "," ","1","&#10004","[1716.6999998092651]","1","0","0","","","","","","","",""
"pit-trial","10","126492","0.0-2.0-4.2-0.2","battery-v0.2","","""event"",""trial"",""time""
""fullscreenenter"",""1"",""2233""
","
","
","""event"",""trial"",""time""
""fullscreenenter"",""1"",""2233""
","
","","","601.7000000476837","","","15","4672","3223","&#9784;","elianto","#FFFFF080"," "," ","1","&#10004","[1454.7000000476837]","1","0","0","","","","","","","",""
"pit-trial","11","130033","0.0-2.0-4.3-0.3","battery-v0.2","","""event"",""trial"",""time""
""fullscreenenter"",""1"",""2233""
","
","
","""event"",""trial"",""time""
""fullscreenenter"",""1"",""2233""
","
","","","669.2999999523163","","","15","4672","3223","&#9784;","elianto","#FFFFF080"," "," ","1","&#10004","[1524.0999999046326]","1","0","0","","","","","","","",""
"pit-trial","12","133473","0.0-2.0-4.4-0.4","battery-v0.2","","""event"",""trial"",""time""
""fullscreenenter"",""1"",""2233""
","
","
","""event"",""trial"",""time""
""fullscreenenter"",""1"",""2233""
","
","","","561.2999999523163","","","15","4672","3223","&#9784;","elianto","#FFFFF080"," "," ","1","&#10004","[1413.2000000476837]","1","0","0","","","","","","","",""
"pit-instructions","13","157421","0.0-2.0-5.0","battery-v0.2","","""event"",""trial"",""time""
""fullscreenenter"",""1"",""2233""
","
","
","""event"",""trial"",""time""
""fullscreenenter"",""1"",""2233""
","
","","[{""page_index"":0,""viewing_time"":6561.100000143051},{""page_index"":1,""viewing_time"":6054.199999809265},{""page_index"":2,""viewing_time"":6237.5},{""page_index"":3,""viewing_time"":5086.200000047684}]","23939.5","","","","","","","","","","","","","","","","","","","","","","","",""
"pit-trial","14","162310","0.0-2.0-6.0-0.0","battery-v0.2","","""event"",""trial"",""time""
""fullscreenenter"",""1"",""2233""
","
","
","""event"",""trial"",""time""
""fullscreenenter"",""1"",""2233""
","
","","","-1","","","15","4672","3223","&#9854;","elianto","#FFFFF080","-1","-1","1","&#10004","[]","0","0","1","","","","","","","",""
"pit-trial","15","167202","0.0-2.0-6.1-0.1","battery-v0.2","","""event"",""trial"",""time""
""fullscreenenter"",""1"",""2233""
","
","
","""event"",""trial"",""time""
""fullscreenenter"",""1"",""2233""
","
","","","-1","","","15","4672","3223","&#9854;","elianto","#FFFFF080","-1","-1","1","&#10004","[]","0","0","1","","","","","","","",""
"pit-trial","16","172073","0.0-2.0-6.2-0.2","battery-v0.2","","""event"",""trial"",""time""
""fullscreenenter"",""1"",""2233""
","
","
","""event"",""trial"",""time""
""fullscreenenter"",""1"",""2233""
","
","","","-1","","","15","4672","3223","&#9854;","elianto","#FFFFF080","-1","-1","1","&#10004","[]","0","0","1","","","","","","","",""
"pit-trial","17","175479","0.0-2.0-6.3-0.3","battery-v0.2","","""event"",""trial"",""time""
""fullscreenenter"",""1"",""2233""
","
","
","""event"",""trial"",""time""
""fullscreenenter"",""1"",""2233""
","
","","","526.3999998569489","","","15","4672","3223","&#9854;","elianto","#FFFFF080","-1"," ","0","&#10060","[1379.2999999523163]","1","0","1","","","","","","","",""
"pit-trial","18","180346","0.0-2.0-6.4-0.4","battery-v0.2","","""event"",""trial"",""time""
""fullscreenenter"",""1"",""2233""
","
","
","""event"",""trial"",""time""
""fullscreenenter"",""1"",""2233""
","
","","","-1","","","15","4672","3223","&#9854;","elianto","#FFFFF080","-1","-1","1","&#10004","[]","0","0","1","","","","","","","",""
"pit-trial","19","185218","0.0-2.0-6.5-0.5","battery-v0.2","","""event"",""trial"",""time""
""fullscreenenter"",""1"",""2233""
","
","
","""event"",""trial"",""time""
""fullscreenenter"",""1"",""2233""
","
","","","-1","","","15","4672","3223","&#9854;","elianto","#FFFFF080","-1","-1","1","&#10004","[]","0","0","1","","","","","","","",""
"pit-trial","20","190088","0.0-2.0-6.6-0.6","battery-v0.2","","""event"",""trial"",""time""
""fullscreenenter"",""1"",""2233""
","
","
","""event"",""trial"",""time""
""fullscreenenter"",""1"",""2233""
","
","","","-1","","","15","4672","3223","&#9854;","elianto","#FFFFF080","-1","-1","1","&#10004","[]","0","0","1","","","","","","","",""
"pit-instructions","21","203794","0.0-2.0-6.6-1.6-0.6","battery-v0.2","","""event"",""trial"",""time""
""fullscreenenter"",""1"",""2233""
","
","
","""event"",""trial"",""time""
""fullscreenenter"",""1"",""2233""
","
","","[{""page_index"":0,""viewing_time"":5564.700000047684},{""page_index"":1,""viewing_time"":8138.899999856949}]","13704.5","","","","","","","","","","","","","","","","","","","","","","","",""
"pit-instructions","22","322815","0.0-2.0-7.0","battery-v0.2","","""event"",""trial"",""time""
""fullscreenenter"",""1"",""2233""
","
","
","""event"",""trial"",""time""
""fullscreenenter"",""1"",""2233""
","
","","[{""page_index"":0,""viewing_time"":5713.899999856949},{""page_index"":1,""viewing_time"":6767.800000190735},{""page_index"":2,""viewing_time"":5882.099999904633},{""page_index"":3,""viewing_time"":6353},{""page_index"":4,""viewing_time"":5545.5},{""page_index"":5,""viewing_time"":5717.900000095367},{""page_index"":6,""viewing_time"":4801.699999809265},{""page_index"":7,""viewing_time"":8112.300000190735},{""page_index"":8,""viewing_time"":7486},{""page_index"":9,""viewing_time"":9120.799999952316},{""page_index"":10,""viewing_time"":6707.700000047684},{""page_index"":11,""viewing_time"":4784.699999809265},{""page_index"":12,""viewing_time"":7060.800000190735},{""page_index"":13,""viewing_time"":7754.199999809265},{""page_index"":14,""viewing_time"":6962.200000047684},{""page_index"":15,""viewing_time"":6563.299999952316},{""page_index"":16,""viewing_time"":6690.200000047684},{""page_index"":17,""viewing_time"":6986.100000143051}]","119010.79999995232","","","","","","","","","","","","","","","","","","","","","","","",""
"pit-trial","23","326989","0.0-2.0-8.0-0.0","battery-v0.2","","""event"",""trial"",""time""
""fullscreenenter"",""1"",""2233""
","
","
","""event"",""trial"",""time""
""fullscreenenter"",""1"",""2233""
","
","","","1299.2999999523163","","","15","4672","3223","&#9776;","elianto","#3366ff99"," "," ","1","+10","[2150.2999999523163]","1","0","1","","","","","","","",""
"pit-trial","24","330757","0.0-2.0-8.0-1.0","battery-v0.2","","""event"",""trial"",""time""
""fullscreenenter"",""1"",""2233""
","
","
","""event"",""trial"",""time""
""fullscreenenter"",""1"",""2233""
","
","","","905.4000000953674","","","15","4672","3223","&#9776;","elianto","#3366ff99"," "," ","1","+10","[1760]","1","0","1","","","","","","","",""
"pit-trial","25","334173","0.0-2.0-8.0-2.0","battery-v0.2","","""event"",""trial"",""time""
""fullscreenenter"",""1"",""2233""
","
","
","""event"",""trial"",""time""
""fullscreenenter"",""1"",""2233""
","
","","","545.7000000476837","","","15","4672","3223","&#9776;","elianto","#3366ff99"," "," ","1","+10","[1400]","1","0","1","","","","","","","",""
"pit-trial","26","337608","0.0-2.0-8.0-3.0","battery-v0.2","","""event"",""trial"",""time""
""fullscreenenter"",""1"",""2233""
","
","
","""event"",""trial"",""time""
""fullscreenenter"",""1"",""2233""
","
","","","562.5999999046326","","","15","4672","3223","&#9776;","elianto","#3366ff99"," "," ","1","0","[1417.2000000476837]","1","0","1","","","","","","","",""
"pit-trial","27","341063","0.0-2.0-8.0-4.0","battery-v0.2","","""event"",""trial"",""time""
""fullscreenenter"",""1"",""2233""
","
","
","""event"",""trial"",""time""
""fullscreenenter"",""1"",""2233""
","
","","","589.7000000476837","","","15","4672","3223","&#9776;","elianto","#3366ff99"," "," ","1","+10","[1444.1000001430511]","1","0","1","","","","","","","",""
"pit-trial","28","344508","0.0-2.0-8.1-0.1","battery-v0.2","","""event"",""trial"",""time""
""fullscreenenter"",""1"",""2233""
","
","
","""event"",""trial"",""time""
""fullscreenenter"",""1"",""2233""
","
","","","567.7000000476837","","","15","4672","3223","&#9776;","elianto","#3366ff99"," "," ","1","+10","[1420.8000001907349]","1","0","1","","","","","","","",""
"pit-trial","29","347968","0.0-2.0-8.1-1.1","battery-v0.2","","""event"",""trial"",""time""
""fullscreenenter"",""1"",""2233""
","
","
","""event"",""trial"",""time""
""fullscreenenter"",""1"",""2233""
","
","","","597.7999999523163","","","15","4672","3223","&#9776;","elianto","#3366ff99"," "," ","1","+10","[1452.7999999523163]","1","0","1","","","","","","","",""
"pit-trial","30","351289","0.0-2.0-8.1-2.1","battery-v0.2","","""event"",""trial"",""time""
""fullscreenenter"",""1"",""2233""
","
","
","""event"",""trial"",""time""
""fullscreenenter"",""1"",""2233""
","
","","","457.10000014305115","","","15","4672","3223","&#9776;","elianto","#3366ff99"," "," ","1","+10","[1310.0999999046326]","1","0","1","","","","","","","",""
"pit-trial","31","354717","0.0-2.0-8.1-3.1","battery-v0.2","","""event"",""trial"",""time""
""fullscreenenter"",""1"",""2233""
","
","
","""event"",""trial"",""time""
""fullscreenenter"",""1"",""2233""
","
","","","559.9000000953674","","","15","4672","3223","&#9776;","elianto","#3366ff99"," "," ","1","0","[1414.6999998092651]","1","0","1","","","","","","","",""
"pit-trial","32","358048","0.0-2.0-8.1-4.1","battery-v0.2","","""event"",""trial"",""time""
""fullscreenenter"",""1"",""2233""
","
","
","""event"",""trial"",""time""
""fullscreenenter"",""1"",""2233""
","
","","","473.09999990463257","","","15","4672","3223","&#9776;","elianto","#3366ff99"," "," ","1","+10","[1327.7000000476837]","1","0","1","","","","","","","",""
"pit-trial","33","361366","0.0-2.0-8.2-0.2","battery-v0.2","","""event"",""trial"",""time""
""fullscreenenter"",""1"",""2233""
","
","
","""event"",""trial"",""time""
""fullscreenenter"",""1"",""2233""
","
","","","454.89999985694885","","","15","4672","3223","&#9776;","elianto","#3366ff99"," "," ","1","+10","[1309.3999998569489]","1","0","1","","","","","","","",""
"pit-trial","34","364631","0.0-2.0-8.2-1.2","battery-v0.2","","""event"",""trial"",""time""
""fullscreenenter"",""1"",""2233""
","
","
","""event"",""trial"",""time""
""fullscreenenter"",""1"",""2233""
","
","","","401.89999985694885","","","15","4672","3223","&#9776;","elianto","#3366ff99"," "," ","1","+10","[1254.3999998569489]","1","0","1","","","","","","","",""
"pit-trial","35","367904","0.0-2.0-8.2-2.2","battery-v0.2","","""event"",""trial"",""time""
""fullscreenenter"",""1"",""2233""
","
","
","""event"",""trial"",""time""
""fullscreenenter"",""1"",""2233""
","
","","","412.2999999523163","","","15","4672","3223","&#9776;","elianto","#3366ff99"," "," ","1","+10","[1263.1000001430511]","1","0","1","","","","","","","",""
"pit-trial","36","371220","0.0-2.0-8.2-3.2","battery-v0.2","","""event"",""trial"",""time""
""fullscreenenter"",""1"",""2233""
","
","
","""event"",""trial"",""time""
""fullscreenenter"",""1"",""2233""
","
","","","456.5","","","15","4672","3223","&#9776;","elianto","#3366ff99"," "," ","1","0","[1311.2999999523163]","1","0","1","","","","","","","",""
"pit-trial","37","374581","0.0-2.0-8.2-4.2","battery-v0.2","","""event"",""trial"",""time""
""fullscreenenter"",""1"",""2233""
","
","
","""event"",""trial"",""time""
""fullscreenenter"",""1"",""2233""
","
","","","490","","","15","4672","3223","&#9776;","elianto","#3366ff99"," "," ","1","+10","[1343.9000000953674]","1","0","1","","","","","","","",""
"call-function","38","374584","0.0-2.0-9.0","battery-v0.2","","""event"",""trial"",""time""
""fullscreenenter"",""1"",""2233""
","
","
","""event"",""trial"",""time""
""fullscreenenter"",""1"",""2233""
","
","","","","","","","","","","","","","","","","","","","","","","","","","","",""
"pit-instructions","39","420720","0.0-2.0-10.0","battery-v0.2","","""event"",""trial"",""time""
""fullscreenenter"",""1"",""2233""
","
","
","""event"",""trial"",""time""
""fullscreenenter"",""1"",""2233""
","
","","[{""page_index"":0,""viewing_time"":8379.199999809265},{""page_index"":1,""viewing_time"":8022.400000095367},{""page_index"":2,""viewing_time"":9690},{""page_index"":3,""viewing_time"":10941.5},{""page_index"":4,""viewing_time"":9098.5}]","46132.39999985695","","","","","","","","","","","","","","","","","","","","","","","",""
"pit-trial","40","424736","0.0-2.0-11.0-0.0","battery-v0.2","","""event"",""trial"",""time""
""fullscreenenter"",""1"",""2233""
","
","
","""event"",""trial"",""time""
""fullscreenenter"",""1"",""2233""
","
","","","1137.2000000476837","","","15","4672","3223","&#9761;","elianto","#3366ff99","-1"," ","0","0","[1989]","1","0","2","","","","","","","",""
"pit-trial","41","428119","0.0-2.0-11.0-1.0","battery-v0.2","","""event"",""trial"",""time""
""fullscreenenter"",""1"",""2233""
","
","
","""event"",""trial"",""time""
""fullscreenenter"",""1"",""2233""
","
","","","504","","","15","4672","3223","&#9761;","elianto","#3366ff99","-1"," ","0","0","[1358.0999999046326]","1","0","2","","","","","","","",""
"pit-trial","42","432999","0.0-2.0-11.0-2.0","battery-v0.2","","""event"",""trial"",""time""
""fullscreenenter"",""1"",""2233""
","
","
","""event"",""trial"",""time""
""fullscreenenter"",""1"",""2233""
","
","","","-1","","","15","4672","3223","&#9761;","elianto","#3366ff99","-1","-1","1","+10","[]","0","0","2","","","","","","","",""
"pit-trial","43","437875","0.0-2.0-11.0-3.0","battery-v0.2","","""event"",""trial"",""time""
""fullscreenenter"",""1"",""2233""
","
","
","""event"",""trial"",""time""
""fullscreenenter"",""1"",""2233""
","
","","","-1","","","15","4672","3223","&#9761;","elianto","#3366ff99","-1","-1","1","0","[]","0","0","2","","","","","","","",""
"pit-trial","44","442753","0.0-2.0-11.0-4.0","battery-v0.2","","""event"",""trial"",""time""
""fullscreenenter"",""1"",""2233""
","
","
","""event"",""trial"",""time""
""fullscreenenter"",""1"",""2233""
","
","","","-1","","","15","4672","3223","&#9761;","elianto","#3366ff99","-1","-1","1","+10","[]","0","0","2","","","","","","","",""
"pit-trial","45","447625","0.0-2.0-11.1-0.1","battery-v0.2","","""event"",""trial"",""time""
""fullscreenenter"",""1"",""2233""
","
","
","""event"",""trial"",""time""
""fullscreenenter"",""1"",""2233""
","
","","","-1","","","15","4672","3223","&#9761;","elianto","#3366ff99","-1","-1","1","+10","[]","0","0","2","","","","","","","",""
"pit-trial","46","452491","0.0-2.0-11.1-1.1","battery-v0.2","","""event"",""trial"",""time""
""fullscreenenter"",""1"",""2233""
","
","
","""event"",""trial"",""time""
""fullscreenenter"",""1"",""2233""
","
","","","-1","","","15","4672","3223","&#9761;","elianto","#3366ff99","-1","-1","1","+10","[]","0","0","2","","","","","","","",""
"pit-trial","47","457354","0.0-2.0-11.1-2.1","battery-v0.2","","""event"",""trial"",""time""
""fullscreenenter"",""1"",""2233""
","
","
","""event"",""trial"",""time""
""fullscreenenter"",""1"",""2233""
","
","","","-1","","","15","4672","3223","&#9761;","elianto","#3366ff99","-1","-1","1","+10","[]","0","0","2","","","","","","","",""
"pit-trial","48","462222","0.0-2.0-11.1-3.1","battery-v0.2","","""event"",""trial"",""time""
""fullscreenenter"",""1"",""2233""
","
","
","""event"",""trial"",""time""
""fullscreenenter"",""1"",""2233""
","
","","","-1","","","15","4672","3223","&#9761;","elianto","#3366ff99","-1","-1","1","0","[]","0","0","2","","","","","","","",""
"pit-trial","49","467092","0.0-2.0-11.1-4.1","battery-v0.2","","""event"",""trial"",""time""
""fullscreenenter"",""1"",""2233""
","
","
","""event"",""trial"",""time""
""fullscreenenter"",""1"",""2233""
","
","","","-1","","","15","4672","3223","&#9761;","elianto","#3366ff99","-1","-1","1","+10","[]","0","0","2","","","","","","","",""
"pit-trial","50","471962","0.0-2.0-11.2-0.2","battery-v0.2","","""event"",""trial"",""time""
""fullscreenenter"",""1"",""2233""
","
","
","""event"",""trial"",""time""
""fullscreenenter"",""1"",""2233""
","
","","","-1","","","15","4672","3223","&#9761;","elianto","#3366ff99","-1","-1","1","+10","[]","0","0","2","","","","","","","",""
"pit-trial","51","476826","0.0-2.0-11.2-1.2","battery-v0.2","","""event"",""trial"",""time""
""fullscreenenter"",""1"",""2233""
","
","
","""event"",""trial"",""time""
""fullscreenenter"",""1"",""2233""
","
","","","-1","","","15","4672","3223","&#9761;","elianto","#3366ff99","-1","-1","1","+10","[]","0","0","2","","","","","","","",""
"pit-trial","52","481691","0.0-2.0-11.2-2.2","battery-v0.2","","""event"",""trial"",""time""
""fullscreenenter"",""1"",""2233""
","
","
","""event"",""trial"",""time""
""fullscreenenter"",""1"",""2233""
","
","","","-1","","","15","4672","3223","&#9761;","elianto","#3366ff99","-1","-1","1","+10","[]","0","0","2","","","","","","","",""
"pit-trial","53","486564","0.0-2.0-11.2-3.2","battery-v0.2","","""event"",""trial"",""time""
""fullscreenenter"",""1"",""2233""
","
","
","""event"",""trial"",""time""
""fullscreenenter"",""1"",""2233""
","
","","","-1","","","15","4672","3223","&#9761;","elianto","#3366ff99","-1","-1","1","0","[]","0","0","2","","","","","","","",""
"pit-trial","54","491434","0.0-2.0-11.2-4.2","battery-v0.2","","""event"",""trial"",""time""
""fullscreenenter"",""1"",""2233""
","
","
","""event"",""trial"",""time""
""fullscreenenter"",""1"",""2233""
","
","","","-1","","","15","4672","3223","&#9761;","elianto","#3366ff99","-1","-1","1","+10","[]","0","0","2","","","","","","","",""
"pit-trial","55","496303","0.0-2.0-11.3-0.3","battery-v0.2","","""event"",""trial"",""time""
""fullscreenenter"",""1"",""2233""
","
","
","""event"",""trial"",""time""
""fullscreenenter"",""1"",""2233""
","
","","","-1","","","15","4672","3223","&#9761;","elianto","#3366ff99","-1","-1","1","+10","[]","0","0","2","","","","","","","",""
"pit-trial","56","501171","0.0-2.0-11.3-1.3","battery-v0.2","","""event"",""trial"",""time""
""fullscreenenter"",""1"",""2233""
","
","
","""event"",""trial"",""time""
""fullscreenenter"",""1"",""2233""
","
","","","-1","","","15","4672","3223","&#9761;","elianto","#3366ff99","-1","-1","1","+10","[]","0","0","2","","","","","","","",""
"pit-trial","57","506041","0.0-2.0-11.3-2.3","battery-v0.2","","""event"",""trial"",""time""
""fullscreenenter"",""1"",""2233""
","
","
","""event"",""trial"",""time""
""fullscreenenter"",""1"",""2233""
","
","","","-1","","","15","4672","3223","&#9761;","elianto","#3366ff99","-1","-1","1","+10","[]","0","0","2","","","","","","","",""
"pit-trial","58","510904","0.0-2.0-11.3-3.3","battery-v0.2","","""event"",""trial"",""time""
""fullscreenenter"",""1"",""2233""
","
","
","""event"",""trial"",""time""
""fullscreenenter"",""1"",""2233""
","
","","","-1","","","15","4672","3223","&#9761;","elianto","#3366ff99","-1","-1","1","0","[]","0","0","2","","","","","","","",""
"pit-trial","59","515776","0.0-2.0-11.3-4.3","battery-v0.2","","""event"",""trial"",""time""
""fullscreenenter"",""1"",""2233""
","
","
","""event"",""trial"",""time""
""fullscreenenter"",""1"",""2233""
","
","","","-1","","","15","4672","3223","&#9761;","elianto","#3366ff99","-1","-1","1","+10","[]","0","0","2","","","","","","","",""
"call-function","60","515779","0.0-2.0-12.0","battery-v0.2","","""event"",""trial"",""time""
""fullscreenenter"",""1"",""2233""
","
","
","""event"",""trial"",""time""
""fullscreenenter"",""1"",""2233""
","
","","","","","","","","","","","","","","","","","","","","","","","","","","",""
"pit-instructions","61","554316","0.0-2.0-13.0","battery-v0.2","","""event"",""trial"",""time""
""fullscreenenter"",""1"",""2233""
","
","
","""event"",""trial"",""time""
""fullscreenenter"",""1"",""2233""
","
","","[{""page_index"":0,""viewing_time"":8892.299999952316},{""page_index"":1,""viewing_time"":8115},{""page_index"":2,""viewing_time"":4559.200000047684},{""page_index"":3,""viewing_time"":11989.599999904633},{""page_index"":4,""viewing_time"":4978.700000047684}]","38535.5","","","","","","","","","","","","","","","","","","","","","","","",""
"pit-trial","62","559198","0.0-2.0-14.0-0.0","battery-v0.2","","""event"",""trial"",""time""
""fullscreenenter"",""1"",""2233""
","
","
","""event"",""trial"",""time""
""fullscreenenter"",""1"",""2233""
","
","","","-1","","","15","4672","3223","&#9826;","elianto","#f73b6a7A","-1","-1","1","0","[]","0","0","3","","","","","","","",""
"pit-trial","63","564078","0.0-2.0-14.0-1.0","battery-v0.2","","""event"",""trial"",""time""
""fullscreenenter"",""1"",""2233""
","
","
","""event"",""trial"",""time""
""fullscreenenter"",""1"",""2233""
","
","","","-1","","","15","4672","3223","&#9826;","elianto","#f73b6a7A","-1","-1","1","0","[]","0","0","3","","","","","","","",""
"pit-trial","64","568962","0.0-2.0-14.0-2.0","battery-v0.2","","""event"",""trial"",""time""
""fullscreenenter"",""1"",""2233""
","
","
","""event"",""trial"",""time""
""fullscreenenter"",""1"",""2233""
","
","","","-1","","","15","4672","3223","&#9826;","elianto","#f73b6a7A","-1","-1","1","0","[]","0","0","3","","","","","","","",""
"pit-trial","65","573835","0.0-2.0-14.0-3.0","battery-v0.2","","""event"",""trial"",""time""
""fullscreenenter"",""1"",""2233""
","
","
","""event"",""trial"",""time""
""fullscreenenter"",""1"",""2233""
","
","","","-1","","","15","4672","3223","&#9826;","elianto","#f73b6a7A","-1","-1","1","-10","[]","0","0","3","","","","","","","",""
"pit-trial","66","578727","0.0-2.0-14.0-4.0","battery-v0.2","","""event"",""trial"",""time""
""fullscreenenter"",""1"",""2233""
","
","
","""event"",""trial"",""time""
""fullscreenenter"",""1"",""2233""
","
","","","-1","","","15","4672","3223","&#9826;","elianto","#f73b6a7A","-1","-1","1","0","[]","0","0","3","","","","","","","",""
"pit-trial","67","583611","0.0-2.0-14.1-0.1","battery-v0.2","","""event"",""trial"",""time""
""fullscreenenter"",""1"",""2233""
","
","
","""event"",""trial"",""time""
""fullscreenenter"",""1"",""2233""
","
","","","-1","","","15","4672","3223","&#9826;","elianto","#f73b6a7A","-1","-1","1","0","[]","0","0","3","","","","","","","",""
"pit-trial","68","588482","0.0-2.0-14.1-1.1","battery-v0.2","","""event"",""trial"",""time""
""fullscreenenter"",""1"",""2233""
","
","
","""event"",""trial"",""time""
""fullscreenenter"",""1"",""2233""
","
","","","-1","","","15","4672","3223","&#9826;","elianto","#f73b6a7A","-1","-1","1","0","[]","0","0","3","","","","","","","",""
"pit-trial","69","593347","0.0-2.0-14.1-2.1","battery-v0.2","","""event"",""trial"",""time""
""fullscreenenter"",""1"",""2233""
","
","
","""event"",""trial"",""time""
""fullscreenenter"",""1"",""2233""
","
","","","-1","","","15","4672","3223","&#9826;","elianto","#f73b6a7A","-1","-1","1","0","[]","0","0","3","","","","","","","",""
"pit-trial","70","598213","0.0-2.0-14.1-3.1","battery-v0.2","","""event"",""trial"",""time""
""fullscreenenter"",""1"",""2233""
","
","
","""event"",""trial"",""time""
""fullscreenenter"",""1"",""2233""
","
","","","-1","","","15","4672","3223","&#9826;","elianto","#f73b6a7A","-1","-1","1","-10","[]","0","0","3","","","","","","","",""
"pit-trial","71","603081","0.0-2.0-14.1-4.1","battery-v0.2","","""event"",""trial"",""time""
""fullscreenenter"",""1"",""2233""
","
","
","""event"",""trial"",""time""
""fullscreenenter"",""1"",""2233""
","
","","","-1","","","15","4672","3223","&#9826;","elianto","#f73b6a7A","-1","-1","1","0","[]","0","0","3","","","","","","","",""
"pit-trial","72","607954","0.0-2.0-14.2-0.2","battery-v0.2","","""event"",""trial"",""time""
""fullscreenenter"",""1"",""2233""
","
","
","""event"",""trial"",""time""
""fullscreenenter"",""1"",""2233""
","
","","","-1","","","15","4672","3223","&#9826;","elianto","#f73b6a7A","-1","-1","1","0","[]","0","0","3","","","","","","","",""
"pit-trial","73","612824","0.0-2.0-14.2-1.2","battery-v0.2","","""event"",""trial"",""time""
""fullscreenenter"",""1"",""2233""
","
","
","""event"",""trial"",""time""
""fullscreenenter"",""1"",""2233""
","
","","","-1","","","15","4672","3223","&#9826;","elianto","#f73b6a7A","-1","-1","1","0","[]","0","0","3","","","","","","","",""
"pit-trial","74","617692","0.0-2.0-14.2-2.2","battery-v0.2","","""event"",""trial"",""time""
""fullscreenenter"",""1"",""2233""
","
","
","""event"",""trial"",""time""
""fullscreenenter"",""1"",""2233""
","
","","","-1","","","15","4672","3223","&#9826;","elianto","#f73b6a7A","-1","-1","1","0","[]","0","0","3","","","","","","","",""
"pit-trial","75","622561","0.0-2.0-14.2-3.2","battery-v0.2","","""event"",""trial"",""time""
""fullscreenenter"",""1"",""2233""
","
","
","""event"",""trial"",""time""
""fullscreenenter"",""1"",""2233""
","
","","","-1","","","15","4672","3223","&#9826;","elianto","#f73b6a7A","-1","-1","1","-10","[]","0","0","3","","","","","","","",""
"pit-trial","76","627424","0.0-2.0-14.2-4.2","battery-v0.2","","""event"",""trial"",""time""
""fullscreenenter"",""1"",""2233""
","
","
","""event"",""trial"",""time""
""fullscreenenter"",""1"",""2233""
","
","","","-1","","","15","4672","3223","&#9826;","elianto","#f73b6a7A","-1","-1","1","0","[]","0","0","3","","","","","","","",""
"pit-trial","77","632290","0.0-2.0-14.3-0.3","battery-v0.2","","""event"",""trial"",""time""
""fullscreenenter"",""1"",""2233""
","
","
","""event"",""trial"",""time""
""fullscreenenter"",""1"",""2233""
","
","","","-1","","","15","4672","3223","&#9826;","elianto","#f73b6a7A","-1","-1","1","0","[]","0","0","3","","","","","","","",""
"pit-trial","78","637155","0.0-2.0-14.3-1.3","battery-v0.2","","""event"",""trial"",""time""
""fullscreenenter"",""1"",""2233""
","
","
","""event"",""trial"",""time""
""fullscreenenter"",""1"",""2233""
","
","","","-1","","","15","4672","3223","&#9826;","elianto","#f73b6a7A","-1","-1","1","0","[]","0","0","3","","","","","","","",""
"pit-trial","79","642037","0.0-2.0-14.3-2.3","battery-v0.2","","""event"",""trial"",""time""
""fullscreenenter"",""1"",""2233""
","
","
","""event"",""trial"",""time""
""fullscreenenter"",""1"",""2233""
","
","","","-1","","","15","4672","3223","&#9826;","elianto","#f73b6a7A","-1","-1","1","0","[]","0","0","3","","","","","","","",""
"pit-trial","80","646905","0.0-2.0-14.3-3.3","battery-v0.2","","""event"",""trial"",""time""
""fullscreenenter"",""1"",""2233""
","
","
","""event"",""trial"",""time""
""fullscreenenter"",""1"",""2233""
","
","","","-1","","","15","4672","3223","&#9826;","elianto","#f73b6a7A","-1","-1","1","-10","[]","0","0","3","","","","","","","",""
"pit-trial","81","651770","0.0-2.0-14.3-4.3","battery-v0.2","","""event"",""trial"",""time""
""fullscreenenter"",""1"",""2233""
","
","
","""event"",""trial"",""time""
""fullscreenenter"",""1"",""2233""
","
","","","-1","","","15","4672","3223","&#9826;","elianto","#f73b6a7A","-1","-1","1","0","[]","0","0","3","","","","","","","",""
"call-function","82","651772","0.0-2.0-15.0","battery-v0.2","","""event"",""trial"",""time""
""fullscreenenter"",""1"",""2233""
","
","
","""event"",""trial"",""time""
""fullscreenenter"",""1"",""2233""
","
","","","","","","","","","","","","","","","","","","","","","","","","","","",""
"pit-instructions","83","674267","0.0-2.0-16.0","battery-v0.2","","""event"",""trial"",""time""
""fullscreenenter"",""1"",""2233""
","
","
","""event"",""trial"",""time""
""fullscreenenter"",""1"",""2233""
","
","","[{""page_index"":0,""viewing_time"":6038.100000143051},{""page_index"":1,""viewing_time"":8071.399999856949},{""page_index"":2,""viewing_time"":4057},{""page_index"":3,""viewing_time"":4325.900000095367}]","22493.5","","","","","","","","","","","","","","","","","","","","","","","",""
"pit-trial","84","679146","0.0-2.0-17.0-0.0","battery-v0.2","","""event"",""trial"",""time""
""fullscreenenter"",""1"",""2233""
","
","
","""event"",""trial"",""time""
""fullscreenenter"",""1"",""2233""
","
","","","-1","","","15","4672","3223","&#9789;","elianto","#f73b6a7A"," ","-1","0","-10","[]","0","0","4","","","","","","","",""
"pit-trial","85","682592","0.0-2.0-17.0-1.0","battery-v0.2","","""event"",""trial"",""time""
""fullscreenenter"",""1"",""2233""
","
","
","""event"",""trial"",""time""
""fullscreenenter"",""1"",""2233""
","
","","","568.5","","","15","4672","3223","&#9789;","elianto","#f73b6a7A"," "," ","1","0","[1418.8000001907349]","1","0","4","","","","","","","",""
"pit-trial","86","685821","0.0-2.0-17.0-2.0","battery-v0.2","","""event"",""trial"",""time""
""fullscreenenter"",""1"",""2233""
","
","
","""event"",""trial"",""time""
""fullscreenenter"",""1"",""2233""
","
","","","359.7000000476837","","","15","4672","3223","&#9789;","elianto","#f73b6a7A"," "," ","1","0","[1213.8000001907349]","1","0","4","","","","","","","",""
"pit-trial","87","689139","0.0-2.0-17.0-3.0","battery-v0.2","","""event"",""trial"",""time""
""fullscreenenter"",""1"",""2233""
","
","
","""event"",""trial"",""time""
""fullscreenenter"",""1"",""2233""
","
","","","450.40000009536743","","","15","4672","3223","&#9789;","elianto","#f73b6a7A"," "," ","1","-10","[1304.4000000953674,2754.300000190735]","2","0","4","","","","","","","",""
"pit-trial","88","692332","0.0-2.0-17.0-4.0","battery-v0.2","","""event"",""trial"",""time""
""fullscreenenter"",""1"",""2233""
","
","
","""event"",""trial"",""time""
""fullscreenenter"",""1"",""2233""
","
","","","324.7999999523163","","","15","4672","3223","&#9789;","elianto","#f73b6a7A"," "," ","1","0","[1178.7000000476837,1741]","2","0","4","","","","","","","",""
"pit-trial","89","695454","0.0-2.0-17.1-0.1","battery-v0.2","","""event"",""trial"",""time""
""fullscreenenter"",""1"",""2233""
","
","
","""event"",""trial"",""time""
""fullscreenenter"",""1"",""2233""
","
","","","246.09999990463257","","","15","4672","3223","&#9789;","elianto","#f73b6a7A"," "," ","1","0","[659.5,1097.3999998569489,1340.0999999046326,1548.2000000476837]","4","0","4","","","","","","","",""
"pit-trial","90","698638","0.0-2.0-17.1-1.1","battery-v0.2","","""event"",""trial"",""time""
""fullscreenenter"",""1"",""2233""
","
","
","""event"",""trial"",""time""
""fullscreenenter"",""1"",""2233""
","
","","","317.89999985694885","","","15","4672","3223","&#9789;","elianto","#f73b6a7A"," "," ","1","0","[1172]","1","0","4","","","","","","","",""
"pit-trial","91","701842","0.0-2.0-17.1-2.1","battery-v0.2","","""event"",""trial"",""time""
""fullscreenenter"",""1"",""2233""
","
","
","""event"",""trial"",""time""
""fullscreenenter"",""1"",""2233""
","
","","","339.09999990463257","","","15","4672","3223","&#9789;","elianto","#f73b6a7A"," "," ","1","0","[1193.3999998569489]","1","0","4","","","","","","","",""
"pit-trial","92","705161","0.0-2.0-17.1-3.1","battery-v0.2","","""event"",""trial"",""time""
""fullscreenenter"",""1"",""2233""
","
","
","""event"",""trial"",""time""
""fullscreenenter"",""1"",""2233""
","
","","","455.09999990463257","","","15","4672","3223","&#9789;","elianto","#f73b6a7A"," "," ","1","-10","[1309.4000000953674]","1","0","4","","","","","","","",""
"pit-trial","93","708186","0.0-2.0-17.1-4.1","battery-v0.2","","""event"",""trial"",""time""
""fullscreenenter"",""1"",""2233""
","
","
","""event"",""trial"",""time""
""fullscreenenter"",""1"",""2233""
","
","","","157.20000004768372","","","15","4672","3223","&#9789;","elianto","#f73b6a7A"," "," ","1","0","[1012.9000000953674]","1","0","4","","","","","","","",""
"pit-trial","94","711657","0.0-2.0-17.2-0.2","battery-v0.2","","""event"",""trial"",""time""
""fullscreenenter"",""1"",""2233""
","
","
","""event"",""trial"",""time""
""fullscreenenter"",""1"",""2233""
","
","","","609","","","15","4672","3223","&#9789;","elianto","#f73b6a7A"," "," ","1","0","[1462.2999999523163]","1","0","4","","","","","","","",""
"pit-trial","95","715088","0.0-2.0-17.2-1.2","battery-v0.2","","""event"",""trial"",""time""
""fullscreenenter"",""1"",""2233""
","
","
","""event"",""trial"",""time""
""fullscreenenter"",""1"",""2233""
","
","","","569.5","","","15","4672","3223","&#9789;","elianto","#f73b6a7A"," "," ","1","0","[1422]","1","0","4","","","","","","","",""
"pit-trial","96","719162","0.0-2.0-17.2-2.2","battery-v0.2","","""event"",""trial"",""time""
""fullscreenenter"",""1"",""2233""
","
","
","""event"",""trial"",""time""
""fullscreenenter"",""1"",""2233""
","
","","","1205","","","15","4672","3223","&#9789;","elianto","#f73b6a7A"," "," ","1","0","[2060.399999856949]","1","0","4","","","","","","","",""
"pit-trial","97","723546","0.0-2.0-17.2-3.2","battery-v0.2","","""event"",""trial"",""time""
""fullscreenenter"",""1"",""2233""
","
","
","""event"",""trial"",""time""
""fullscreenenter"",""1"",""2233""
","
","","","1516.7000000476837","","","15","4672","3223","&#9789;","elianto","#f73b6a7A"," "," ","1","-10","[2369.5999999046326,3046.5999999046326]","2","0","4","","","","","","","",""
"pit-trial","98","727213","0.0-2.0-17.2-4.2","battery-v0.2","","""event"",""trial"",""time""
""fullscreenenter"",""1"",""2233""
","
","
","""event"",""trial"",""time""
""fullscreenenter"",""1"",""2233""
","
","","","799.2000000476837","","","15","4672","3223","&#9789;","elianto","#f73b6a7A"," "," ","1","0","[1652.6999998092651]","1","0","4","","","","","","","",""
"pit-trial","99","730528","0.0-2.0-17.3-0.3","battery-v0.2","","""event"",""trial"",""time""
""fullscreenenter"",""1"",""2233""
","
","
","""event"",""trial"",""time""
""fullscreenenter"",""1"",""2233""
","
","","","450.7000000476837","","","15","4672","3223","&#9789;","elianto","#f73b6a7A"," "," ","1","0","[1304.6000001430511]","1","0","4","","","","","","","",""
"pit-trial","100","733903","0.0-2.0-17.3-1.3","battery-v0.2","","""event"",""trial"",""time""
""fullscreenenter"",""1"",""2233""
","
","
","""event"",""trial"",""time""
""fullscreenenter"",""1"",""2233""
","
","","","510.2000000476837","","","15","4672","3223","&#9789;","elianto","#f73b6a7A"," "," ","1","0","[1364.5]","1","0","4","","","","","","","",""
"pit-trial","101","737286","0.0-2.0-17.3-2.3","battery-v0.2","","""event"",""trial"",""time""
""fullscreenenter"",""1"",""2233""
","
","
","""event"",""trial"",""time""
""fullscreenenter"",""1"",""2233""
","
","","","504.2999999523163","","","15","4672","3223","&#9789;","elianto","#f73b6a7A"," "," ","1","0","[1357.1999998092651]","1","0","4","","","","","","","",""
"pit-trial","102","740925","0.0-2.0-17.3-3.3","battery-v0.2","","""event"",""trial"",""time""
""fullscreenenter"",""1"",""2233""
","
","
","""event"",""trial"",""time""
""fullscreenenter"",""1"",""2233""
","
","","","772.4000000953674","","","15","4672","3223","&#9789;","elianto","#f73b6a7A"," "," ","1","-10","[1625]","1","0","4","","","","","","","",""
"pit-trial","103","744118","0.0-2.0-17.3-4.3","battery-v0.2","","""event"",""trial"",""time""
""fullscreenenter"",""1"",""2233""
","
","
","""event"",""trial"",""time""
""fullscreenenter"",""1"",""2233""
","
","","","331.7999999523163","","","15","4672","3223","&#9789;","elianto","#f73b6a7A"," "," ","1","0","[1186.4000000953674]","1","0","4","","","","","","","",""
"call-function","104","744121","0.0-2.0-18.0","battery-v0.2","","""event"",""trial"",""time""
""fullscreenenter"",""1"",""2233""
","
","
","""event"",""trial"",""time""
""fullscreenenter"",""1"",""2233""
","
","","","","","","","","","","","","","","","","","","","","","","","","","","",""
"pit-instructions","105","816437","0.0-2.0-19.0","battery-v0.2","","""event"",""trial"",""time""
""fullscreenenter"",""1"",""2233""
","
","
","""event"",""trial"",""time""
""fullscreenenter"",""1"",""2233""
","
","","[{""page_index"":0,""viewing_time"":6436.700000047684},{""page_index"":1,""viewing_time"":5089.299999952316},{""page_index"":2,""viewing_time"":12978.400000095367},{""page_index"":3,""viewing_time"":7188.099999904633},{""page_index"":4,""viewing_time"":9628.299999952316},{""page_index"":5,""viewing_time"":11784.900000095367},{""page_index"":6,""viewing_time"":8323.5},{""page_index"":7,""viewing_time"":6683.700000047684},{""page_index"":8,""viewing_time"":4197.700000047684}]","72311.20000004768","","","","","","","","","","","","","","","","","","","","","","","",""
"pit-comprehension","106","825668","0.0-2.0-20.0-0.0","battery-v0.2","","""event"",""trial"",""time""
""fullscreenenter"",""1"",""2233""
","
","
","""event"",""trial"",""time""
""fullscreenenter"",""1"",""2233""
","
","","","9225.200000047684","[""SPACE""]","0","15","4672","3223","","","","","","","","","","","","","","","","","","",""
"pit-instructions","107","829013","0.0-2.0-20.0-1.0","battery-v0.2","","""event"",""trial"",""time""
""fullscreenenter"",""1"",""2233""
","
","
","""event"",""trial"",""time""
""fullscreenenter"",""1"",""2233""
","
","","[{""page_index"":0,""viewing_time"":3293.5}]","3294.2000000476837","","","","","","","","","","","","","","","","","","","","","","","",""
"pit-comprehension","108","834695","0.0-2.0-21.0-0.0","battery-v0.2","","""event"",""trial"",""time""
""fullscreenenter"",""1"",""2233""
","
","
","""event"",""trial"",""time""
""fullscreenenter"",""1"",""2233""
","
","","","5672.400000095367","[""10""]","0","15","4672","3223","","","","","","","","","","","","","","","","","","",""
"pit-instructions","109","836637","0.0-2.0-21.0-1.0","battery-v0.2","","""event"",""trial"",""time""
""fullscreenenter"",""1"",""2233""
","
","
","""event"",""trial"",""time""
""fullscreenenter"",""1"",""2233""
","
","","[{""page_index"":0,""viewing_time"":1900.7999999523163}]","1901.0999999046326","","","","","","","","","","","","","","","","","","","","","","","",""
"pit-comprehension","110","842729","0.0-2.0-22.0-0.0","battery-v0.2","","""event"",""trial"",""time""
""fullscreenenter"",""1"",""2233""
","
","
","""event"",""trial"",""time""
""fullscreenenter"",""1"",""2233""
","
","","","6088.199999809265","[""0""]","0","15","4672","3223","","","","","","","","","","","","","","","","","","",""
"pit-instructions","111","844283","0.0-2.0-22.0-1.0","battery-v0.2","","""event"",""trial"",""time""
""fullscreenenter"",""1"",""2233""
","
","
","""event"",""trial"",""time""
""fullscreenenter"",""1"",""2233""
","
","","[{""page_index"":0,""viewing_time"":1513.0999999046326}]","1513.5999999046326","","","","","","","","","","","","","","","","","","","","","","","",""
"pit-comprehension","112","859484","0.0-2.0-23.0-0.0","battery-v0.2","","""event"",""trial"",""time""
""fullscreenenter"",""1"",""2233""
","
","
","""event"",""trial"",""time""
""fullscreenenter"",""1"",""2233""
","
","","","15194.100000143051","[""False""]","1","15","4672","3223","","","","","","","","","","","","","","","","","","",""
"pit-instructions","113","863991","0.0-2.0-23.0-1.0","battery-v0.2","","""event"",""trial"",""time""
""fullscreenenter"",""1"",""2233""
","
","
","""event"",""trial"",""time""
""fullscreenenter"",""1"",""2233""
","
","","[{""page_index"":0,""viewing_time"":4433.299999952316}]","4434","","","","","","","","","","","","","","","","","","","","","","","",""
"pit-instructions","114","864943","0.0-2.0-23.0-2.0-0.0","battery-v0.2","","""event"",""trial"",""time""
""fullscreenenter"",""1"",""2233""
","
","
","""event"",""trial"",""time""
""fullscreenenter"",""1"",""2233""
","
","","[{""page_index"":0,""viewing_time"":947}]","947.5999999046326","","","","","","","","","","","","","","","","","","","","","","","",""
"pit-comprehension","115","873041","0.0-2.0-23.1-0.1","battery-v0.2","","""event"",""trial"",""time""
""fullscreenenter"",""1"",""2233""
","
","
","""event"",""trial"",""time""
""fullscreenenter"",""1"",""2233""
","
","","","8092.700000047684","[""True""]","0","15","4672","3223","","","","","","","","","","","","","","","","","","",""
"pit-instructions","116","874880","0.0-2.0-23.1-1.1","battery-v0.2","","""event"",""trial"",""time""
""fullscreenenter"",""1"",""2233""
","
","
","""event"",""trial"",""time""
""fullscreenenter"",""1"",""2233""
","
","","[{""page_index"":0,""viewing_time"":1790.5999999046326}]","1791.2999999523163","","","","","","","","","","","","","","","","","","","","","","","",""
"pit-comprehension","117","882058","0.0-2.0-24.0-0.0","battery-v0.2","","""event"",""trial"",""time""
""fullscreenenter"",""1"",""2233""
","
","
","""event"",""trial"",""time""
""fullscreenenter"",""1"",""2233""
","
","","","7170.300000190735","[""True""]","0","15","4672","3223","","","","","","","","","","","","","","","","","","",""
"pit-instructions","118","883518","0.0-2.0-24.0-1.0","battery-v0.2","","""event"",""trial"",""time""
""fullscreenenter"",""1"",""2233""
","
","
","""event"",""trial"",""time""
""fullscreenenter"",""1"",""2233""
","
","","[{""page_index"":0,""viewing_time"":1416.7999999523163}]","1417.3999998569489","","","","","","","","","","","","","","","","","","","","","","","",""
"pit-comprehension","119","889869","0.0-2.0-25.0-0.0","battery-v0.2","","""event"",""trial"",""time""
""fullscreenenter"",""1"",""2233""
","
","
","""event"",""trial"",""time""
""fullscreenenter"",""1"",""2233""
","
","","","6342.399999856949","[""True""]","0","15","4672","3223","","","","","","","","","","","","","","","","","","",""
"pit-instructions","120","891662","0.0-2.0-25.0-1.0","battery-v0.2","","""event"",""trial"",""time""
""fullscreenenter"",""1"",""2233""
","
","
","""event"",""trial"",""time""
""fullscreenenter"",""1"",""2233""
","
","","[{""page_index"":0,""viewing_time"":1748.5}]","1749.0999999046326","","","","","","","","","","","","","","","","","","","","","","","",""
"pit-comprehension","121","910084","0.0-2.0-26.0-0.0","battery-v0.2","","""event"",""trial"",""time""
""fullscreenenter"",""1"",""2233""
","
","
","""event"",""trial"",""time""
""fullscreenenter"",""1"",""2233""
","
","","","18415.700000047684","[""False""]","0","15","4672","3223","","","","","","","","","","","","","","","","","","",""
"pit-instructions","122","911682","0.0-2.0-26.0-1.0","battery-v0.2","","""event"",""trial"",""time""
""fullscreenenter"",""1"",""2233""
","
","
","""event"",""trial"",""time""
""fullscreenenter"",""1"",""2233""
","
","","[{""page_index"":0,""viewing_time"":1525.4000000953674}]","1526","","","","","","","","","","","","","","","","","","","","","","","",""
"pit-instructions","123","928082","0.0-3.0","battery-v0.2","","""event"",""trial"",""time""
""fullscreenenter"",""1"",""2233""
","
","
","""event"",""trial"",""time""
""fullscreenenter"",""1"",""2233""
","
","","[{""page_index"":0,""viewing_time"":3976.100000143051},{""page_index"":1,""viewing_time"":5540.399999856949},{""page_index"":2,""viewing_time"":6878.299999952316}]","16395.60000014305","","","","","","","","","","","","","","","","","","","","","","","",""
"pit-trial","124","932125","0.0-4.0","battery-v0.2","","""event"",""trial"",""time""
""fullscreenenter"",""1"",""2233""
","
","
","""event"",""trial"",""time""
""fullscreenenter"",""1"",""2233""
","
","","","1166.2000000476837","","","15","4672","3223","&#9733;","elianto","#3366ff99","-1"," ","0","0","[2017.2999999523163]","1","1","","","4672","1","2","2","win","no-go","0"
"pit-trial","125","937007","0.0-5.0","battery-v0.2","","""event"",""trial"",""time""
""fullscreenenter"",""1"",""2233""
","
","
","""event"",""trial"",""time""
""fullscreenenter"",""1"",""2233""
","
","","","-1","","","15","4672","3223","&#9752;","elianto","#f73b6a7A"," ","-1","0","-10","[]","0","1","","","4672","2","3","3","lose","go","0"
"pit-trial","126","941102","0.0-6.0","battery-v0.2","","""event"",""trial"",""time""
""fullscreenenter"",""1"",""2233""
","
","
","""event"",""trial"",""time""
""fullscreenenter"",""1"",""2233""
","
","","","1221.2999999523163","","","15","4672","3223","&#9728;","elianto","#f73b6a7A","-1"," ","0","-10","[2074.2000000476837]","1","1","","","4672","3","0","4","lose","no-go","0"
"pit-trial","127","945268","0.0-7.0","battery-v0.2","","""event"",""trial"",""time""
""fullscreenenter"",""1"",""2233""
","
","
","""event"",""trial"",""time""
""fullscreenenter"",""1"",""2233""
","
","","","1287.9000000953674","","","15","4672","3223","&#9730;","elianto","#3366ff99"," "," ","1","0","[2146]","1","1","","","4672","4","1","1","win","go","1"
"pit-trial","128","949986","0.0-8.0","battery-v0.2","","""event"",""trial"",""time""
""fullscreenenter"",""1"",""2233""
","
","
","""event"",""trial"",""time""
""fullscreenenter"",""1"",""2233""
","
","","","1855.7999999523163","","","15","4672","3223","&#9728;","elianto","#f73b6a7A","-1"," ","0","0","[2710.2000000476837]","1","1","","","4672","5","0","4","lose","no-go","1"
"pit-trial","129","954854","0.0-9.0","battery-v0.2","","""event"",""trial"",""time""
""fullscreenenter"",""1"",""2233""
","
","
","""event"",""trial"",""time""
""fullscreenenter"",""1"",""2233""
","
","","","-1","","","15","4672","3223","&#9752;","elianto","#f73b6a7A"," ","-1","0","0","[]","0","1","","","4672","6","3","3","lose","go","1"
"pit-trial","130","959405","0.0-10.0","battery-v0.2","","""event"",""trial"",""time""
""fullscreenenter"",""1"",""2233""
","
","
","""event"",""trial"",""time""
""fullscreenenter"",""1"",""2233""
","
","","","1687.3000001907349","","","15","4672","3223","&#9733;","elianto","#3366ff99","-1"," ","0","+10","[2542.100000143051]","1","1","","","4672","7","2","2","win","no-go","1"
"pit-trial","131","963828","0.0-11.0","battery-v0.2","","""event"",""trial"",""time""
""fullscreenenter"",""1"",""2233""
","
","
","""event"",""trial"",""time""
""fullscreenenter"",""1"",""2233""
","
","","","1560.8999998569489","","","15","4672","3223","&#9730;","elianto","#3366ff99"," "," ","1","0","[2415.2999999523163]","1","1","","","4672","8","1","1","win","go","1"
"pit-trial","132","968698","0.0-12.0","battery-v0.2","","""event"",""trial"",""time""
""fullscreenenter"",""1"",""2233""
","
","
","""event"",""trial"",""time""
""fullscreenenter"",""1"",""2233""
","
","","","-1","","","15","4672","3223","&#9752;","elianto","#f73b6a7A"," ","-1","0","-10","[]","0","1","","","4672","9","3","3","lose","go","0"
"pit-trial","133","973565","0.0-13.0","battery-v0.2","","""event"",""trial"",""time""
""fullscreenenter"",""1"",""2233""
","
","
","""event"",""trial"",""time""
""fullscreenenter"",""1"",""2233""
","
","","","-1","","","15","4672","3223","&#9730;","elianto","#3366ff99"," ","-1","0","0","[2992]","1","1","","","4672","10","1","1","win","go","0"
"pit-trial","134","978279","0.0-14.0","battery-v0.2","","""event"",""trial"",""time""
""fullscreenenter"",""1"",""2233""
","
","
","""event"",""trial"",""time""
""fullscreenenter"",""1"",""2233""
","
","","","1848.8999998569489","","","15","4672","3223","&#9733;","elianto","#3366ff99","-1"," ","0","+10","[2703.2999999523163]","1","1","","","4672","11","2","2","win","no-go","1"
"pit-trial","135","983144","0.0-15.0","battery-v0.2","","""event"",""trial"",""time""
""fullscreenenter"",""1"",""2233""
","
","
","""event"",""trial"",""time""
""fullscreenenter"",""1"",""2233""
","
","","","-1","","","15","4672","3223","&#9728;","elianto","#f73b6a7A","-1","-1","1","-10","[]","0","1","","","4672","12","0","4","lose","no-go","1"
"pit-trial","136","987584","0.0-16.0","battery-v0.2","","""event"",""trial"",""time""
""fullscreenenter"",""1"",""2233""
","
","
","""event"",""trial"",""time""
""fullscreenenter"",""1"",""2233""
","
","","","1581.1000001430511","","","15","4672","3223","&#9730;","elianto","#3366ff99"," "," ","1","0","[2433.7000000476837]","1","1","","","4672","13","1","1","win","go","1"
"pit-trial","137","992158","0.0-17.0","battery-v0.2","","""event"",""trial"",""time""
""fullscreenenter"",""1"",""2233""
","
","
","""event"",""trial"",""time""
""fullscreenenter"",""1"",""2233""
","
","","","1702.3999998569489","","","15","4672","3223","&#9733;","elianto","#3366ff99","-1"," ","0","0","[2557.899999856949]","1","1","","","4672","14","2","2","win","no-go","0"
"pit-trial","138","997034","0.0-18.0","battery-v0.2","","""event"",""trial"",""time""
""fullscreenenter"",""1"",""2233""
","
","
","""event"",""trial"",""time""
""fullscreenenter"",""1"",""2233""
","
","","","-1","","","15","4672","3223","&#9752;","elianto","#f73b6a7A"," ","-1","0","-10","[]","0","1","","","4672","15","3","3","lose","go","0"
"pit-trial","139","1001906","0.0-19.0","battery-v0.2","","""event"",""trial"",""time""
""fullscreenenter"",""1"",""2233""
","
","
","""event"",""trial"",""time""
""fullscreenenter"",""1"",""2233""
","
","","","-1","","","15","4672","3223","&#9728;","elianto","#f73b6a7A","-1","-1","1","-10","[]","0","1","","","4672","16","0","4","lose","no-go","1"
"pit-trial","140","1006384","0.0-20.0","battery-v0.2","","""event"",""trial"",""time""
""fullscreenenter"",""1"",""2233""
","
","
","""event"",""trial"",""time""
""fullscreenenter"",""1"",""2233""
","
","","","1616.7000000476837","","","15","4672","3223","&#9728;","elianto","#f73b6a7A","-1"," ","0","-10","[2471.0999999046326]","1","1","","","4672","17","0","4","lose","no-go","0"
"pit-trial","141","1011066","0.0-21.0","battery-v0.2","","""event"",""trial"",""time""
""fullscreenenter"",""1"",""2233""
","
","
","""event"",""trial"",""time""
""fullscreenenter"",""1"",""2233""
","
","","","1814.9000000953674","","","15","4672","3223","&#9733;","elianto","#3366ff99","-1"," ","0","0","[2669]","1","1","","","4672","18","2","2","win","no-go","0"
"pit-trial","142","1015933","0.0-22.0","battery-v0.2","","""event"",""trial"",""time""
""fullscreenenter"",""1"",""2233""
","
","
","""event"",""trial"",""time""
""fullscreenenter"",""1"",""2233""
","
","","","-1","","","15","4672","3223","&#9752;","elianto","#f73b6a7A"," ","-1","0","-10","[]","0","1","","","4672","19","3","3","lose","go","0"
"pit-trial","143","1020793","0.0-23.0","battery-v0.2","","""event"",""trial"",""time""
""fullscreenenter"",""1"",""2233""
","
","
","""event"",""trial"",""time""
""fullscreenenter"",""1"",""2233""
","
","","","-1","","","15","4672","3223","&#9730;","elianto","#3366ff99"," ","-1","0","0","[]","0","1","","","4672","20","1","1","win","go","0"
"pit-instructions","144","1035664","0.0-24.0","battery-v0.2","","""event"",""trial"",""time""
""fullscreenenter"",""1"",""2233""
","
","
","""event"",""trial"",""time""
""fullscreenenter"",""1"",""2233""
","
","","[{""page_index"":0,""viewing_time"":7789.600000143051},{""page_index"":1,""viewing_time"":7083.700000047684}]","14874.100000143051","","","","","","","","","","","","","","","","","","","","","","","",""
"pit-trial","145","1039833","0.0-25.0","battery-v0.2","","""event"",""trial"",""time""
""fullscreenenter"",""1"",""2233""
","
","
","""event"",""trial"",""time""
""fullscreenenter"",""1"",""2233""
","
","","","1291.8000001907349","","","15","4672","3223","n","elianto","#f73b6a7A"," "," ","1","0","[2155.600000143051]","1","2","","","4672","21","0","3","lose","go","0"
"pit-trial","146","1043837","0.0-26.0","battery-v0.2","","""event"",""trial"",""time""
""fullscreenenter"",""1"",""2233""
","
","
","""event"",""trial"",""time""
""fullscreenenter"",""1"",""2233""
","
","","","1140.2999999523163","","","15","4672","3223","f","elianto","#3366ff99","-1"," ","0","0","[1995]","1","2","","","4672","22","1","2","win","no-go","0"
"pit-trial","147","1047959","0.0-27.0","battery-v0.2","","""event"",""trial"",""time""
""fullscreenenter"",""1"",""2233""
","
","
","""event"",""trial"",""time""
""fullscreenenter"",""1"",""2233""
","
","","","1255.6000001430511","","","15","4672","3223","b","elianto","#f73b6a7A","-1"," ","0","0","[2107.5]","1","2","","","4672","23","3","4","lose","no-go","1"
"pit-trial","148","1052289","0.0-28.0","battery-v0.2","","""event"",""trial"",""time""
""fullscreenenter"",""1"",""2233""
","
","
","""event"",""trial"",""time""
""fullscreenenter"",""1"",""2233""
","
","","","1460.2999999523163","","","15","4672","3223","t","elianto","#f73b6a7A"," "," ","1","0","[2317.7000000476837]","1","2","","","4672","24","2","3","lose","go","0"
"pit-trial","149","1056120","0.0-29.0","battery-v0.2","","""event"",""trial"",""time""
""fullscreenenter"",""1"",""2233""
","
","
","""event"",""trial"",""time""
""fullscreenenter"",""1"",""2233""
","
","","","955.2999999523163","","","15","4672","3223","t","elianto","#f73b6a7A"," "," ","1","0","[1809.7999999523163]","1","2","","","4672","25","2","3","lose","go","0"
"pit-trial","150","1060994","0.0-30.0","battery-v0.2","","""event"",""trial"",""time""
""fullscreenenter"",""1"",""2233""
","
","
","""event"",""trial"",""time""
""fullscreenenter"",""1"",""2233""
","
","","","-1","","","15","4672","3223","n","elianto","#f73b6a7A"," ","-1","0","-10","[]","0","2","","","4672","26","0","3","lose","go","0"
"pit-trial","151","1065243","0.0-31.0","battery-v0.2","","""event"",""trial"",""time""
""fullscreenenter"",""1"",""2233""
","
","
","""event"",""trial"",""time""
""fullscreenenter"",""1"",""2233""
","
","","","1373.1000001430511","","","15","4672","3223","f","elianto","#3366ff99","-1"," ","0","0","[2228.0999999046326]","1","2","","","4672","27","1","2","win","no-go","0"
"pit-trial","152","1069940","0.0-32.0","battery-v0.2","","""event"",""trial"",""time""
""fullscreenenter"",""1"",""2233""
","
","
","""event"",""trial"",""time""
""fullscreenenter"",""1"",""2233""
","
","","","1826.6999998092651","","","15","4672","3223","b","elianto","#f73b6a7A","-1"," ","0","0","[2679.399999856949]","1","2","","","4672","28","3","4","lose","no-go","1"
"pit-trial","153","1074806","0.0-33.0","battery-v0.2","","""event"",""trial"",""time""
""fullscreenenter"",""1"",""2233""
","
","
","""event"",""trial"",""time""
""fullscreenenter"",""1"",""2233""
","
","","","-1","","","15","4672","3223","f","elianto","#3366ff99","-1","-1","1","+10","[]","0","2","","","4672","29","1","2","win","no-go","0"
"pit-trial","154","1079294","0.0-34.0","battery-v0.2","","""event"",""trial"",""time""
""fullscreenenter"",""1"",""2233""
","
","
","""event"",""trial"",""time""
""fullscreenenter"",""1"",""2233""
","
","","","1622.1000001430511","","","15","4672","3223","n","elianto","#f73b6a7A"," "," ","1","0","[2476.4000000953674]","1","2","","","4672","30","0","3","lose","go","0"
"pit-trial","155","1084167","0.0-35.0","battery-v0.2","","""event"",""trial"",""time""
""fullscreenenter"",""1"",""2233""
","
","
","""event"",""trial"",""time""
""fullscreenenter"",""1"",""2233""
","
","","","-1","","","15","4672","3223","t","elianto","#f73b6a7A"," ","-1","0","-10","[]","0","2","","","4672","31","2","3","lose","go","0"
"pit-trial","156","1088772","0.0-36.0","battery-v0.2","","""event"",""trial"",""time""
""fullscreenenter"",""1"",""2233""
","
","
","""event"",""trial"",""time""
""fullscreenenter"",""1"",""2233""
","
","","","1741.4000000953674","","","15","4672","3223","b","elianto","#f73b6a7A","-1"," ","0","-10","[2595.5]","1","2","","","4672","32","3","4","lose","no-go","0"
"pit-trial","157","1093647","0.0-37.0","battery-v0.2","","""event"",""trial"",""time""
""fullscreenenter"",""1"",""2233""
","
","
","""event"",""trial"",""time""
""fullscreenenter"",""1"",""2233""
","
","","","-1","","","15","4672","3223","t","elianto","#f73b6a7A"," ","-1","0","0","[]","0","2","","","4672","33","2","3","lose","go","1"
"pit-trial","158","1098090","0.0-38.0","battery-v0.2","","""event"",""trial"",""time""
""fullscreenenter"",""1"",""2233""
","
","
","""event"",""trial"",""time""
""fullscreenenter"",""1"",""2233""
","
","","","1574.3000001907349","","","15","4672","3223","n","elianto","#f73b6a7A"," "," ","1","-10","[2428.5999999046326]","1","2","","","4672","34","0","3","lose","go","1"
"pit-trial","159","1102960","0.0-39.0","battery-v0.2","","""event"",""trial"",""time""
""fullscreenenter"",""1"",""2233""
","
","
","""event"",""trial"",""time""
""fullscreenenter"",""1"",""2233""
","
","","","-1","","","15","4672","3223","f","elianto","#3366ff99","-1","-1","1","0","[]","0","2","","","4672","35","1","2","win","no-go","1"
"pit-trial","160","1107302","0.0-40.0","battery-v0.2","","""event"",""trial"",""time""
""fullscreenenter"",""1"",""2233""
","
","
","""event"",""trial"",""time""
""fullscreenenter"",""1"",""2233""
","
","","","1477.4000000953674","","","15","4672","3223","b","elianto","#f73b6a7A","-1"," ","0","-10","[2331.5]","1","2","","","4672","36","3","4","lose","no-go","0"
"pit-trial","161","1112166","0.0-41.0","battery-v0.2","","""event"",""trial"",""time""
""fullscreenenter"",""1"",""2233""
","
","
","""event"",""trial"",""time""
""fullscreenenter"",""1"",""2233""
","
","","","-1","","","15","4672","3223","f","elianto","#3366ff99","-1","-1","1","+10","[]","0","2","","","4672","37","1","2","win","no-go","0"
"pit-trial","162","1116493","0.0-42.0","battery-v0.2","","""event"",""trial"",""time""
""fullscreenenter"",""1"",""2233""
","
","
","""event"",""trial"",""time""
""fullscreenenter"",""1"",""2233""
","
","","","1469.2999999523163","","","15","4672","3223","b","elianto","#f73b6a7A","-1"," ","0","0","[2319.5]","1","2","","","4672","38","3","4","lose","no-go","1"
"pit-trial","163","1121357","0.0-43.0","battery-v0.2","","""event"",""trial"",""time""
""fullscreenenter"",""1"",""2233""
","
","
","""event"",""trial"",""time""
""fullscreenenter"",""1"",""2233""
","
","","","-1","","","15","4672","3223","n","elianto","#f73b6a7A"," ","-1","0","-10","[]","0","2","","","4672","39","0","3","lose","go","0"
"pit-trial","164","1126224","0.0-44.0","battery-v0.2","","""event"",""trial"",""time""
""fullscreenenter"",""1"",""2233""
","
","
","""event"",""trial"",""time""
""fullscreenenter"",""1"",""2233""
","
","","","-1","","","15","4672","3223","t","elianto","#f73b6a7A"," ","-1","0","-10","[]","0","2","","","4672","40","2","3","lose","go","0"
"pit-trial","165","1130207","0.0-45.0","battery-v0.2","","""event"",""trial"",""time""
""fullscreenenter"",""1"",""2233""
","
","
","""event"",""trial"",""time""
""fullscreenenter"",""1"",""2233""
","
","","","1119.9000000953674","","","15","4672","3223","f","elianto","#3366ff99","-1"," ","0","0","[1974.2999999523163]","1","2","","","4672","41","1","2","win","no-go","0"
"pit-trial","166","1134352","0.0-46.0","battery-v0.2","","""event"",""trial"",""time""
""fullscreenenter"",""1"",""2233""
","
","
","""event"",""trial"",""time""
""fullscreenenter"",""1"",""2233""
","
","","","1277.5","","","15","4672","3223","b","elianto","#f73b6a7A","-1"," ","0","-10","[2134.7000000476837]","1","2","","","4672","42","3","4","lose","no-go","0"
"pit-trial","167","1138150","0.0-47.0","battery-v0.2","","""event"",""trial"",""time""
""fullscreenenter"",""1"",""2233""
","
","
","""event"",""trial"",""time""
""fullscreenenter"",""1"",""2233""
","
","","","934.3999998569489","","","15","4672","3223","n","elianto","#f73b6a7A"," "," ","1","0","[1788.8999998569489]","1","2","","","4672","43","0","3","lose","go","0"
"pit-trial","168","1143013","0.0-48.0","battery-v0.2","","""event"",""trial"",""time""
""fullscreenenter"",""1"",""2233""
","
","
","""event"",""trial"",""time""
""fullscreenenter"",""1"",""2233""
","
","","","-1","","","15","4672","3223","t","elianto","#f73b6a7A"," ","-1","0","0","[]","0","2","","","4672","44","2","3","lose","go","1"
"pit-trial","169","1147878","0.0-49.0","battery-v0.2","","""event"",""trial"",""time""
""fullscreenenter"",""1"",""2233""
","
","
","""event"",""trial"",""time""
""fullscreenenter"",""1"",""2233""
","
","","","-1","","","15","4672","3223","t","elianto","#f73b6a7A"," ","-1","0","-10","[]","0","2","","","4672","45","2","3","lose","go","0"
"pit-trial","170","1152151","0.0-50.0","battery-v0.2","","""event"",""trial"",""time""
""fullscreenenter"",""1"",""2233""
","
","
","""event"",""trial"",""time""
""fullscreenenter"",""1"",""2233""
","
","","","1405.9000000953674","","","15","4672","3223","n","elianto","#f73b6a7A"," "," ","1","0","[2260.4000000953674]","1","2","","","4672","46","0","3","lose","go","0"
"pit-trial","171","1157022","0.0-51.0","battery-v0.2","","""event"",""trial"",""time""
""fullscreenenter"",""1"",""2233""
","
","
","""event"",""trial"",""time""
""fullscreenenter"",""1"",""2233""
","
","","","-1","","","15","4672","3223","b","elianto","#f73b6a7A","-1","-1","1","-10","[3406.600000143051]","1","2","","","4672","47","3","4","lose","no-go","1"
"pit-trial","172","1161891","0.0-52.0","battery-v0.2","","""event"",""trial"",""time""
""fullscreenenter"",""1"",""2233""
","
","
","""event"",""trial"",""time""
""fullscreenenter"",""1"",""2233""
","
","","","-1","","","15","4672","3223","f","elianto","#3366ff99","-1","-1","1","+10","[]","0","2","","","4672","48","1","2","win","no-go","0"
"pit-trial","173","1166376","0.0-53.0","battery-v0.2","","""event"",""trial"",""time""
""fullscreenenter"",""1"",""2233""
","
","
","""event"",""trial"",""time""
""fullscreenenter"",""1"",""2233""
","
","","","1624.9000000953674","","","15","4672","3223","n","elianto","#f73b6a7A"," "," ","1","0","[2479.4000000953674]","1","2","","","4672","49","0","3","lose","go","0"
"pit-trial","174","1171243","0.0-54.0","battery-v0.2","","""event"",""trial"",""time""
""fullscreenenter"",""1"",""2233""
","
","
","""event"",""trial"",""time""
""fullscreenenter"",""1"",""2233""
","
","","","-1","","","15","4672","3223","f","elianto","#3366ff99","-1","-1","1","+10","[]","0","2","","","4672","50","1","2","win","no-go","0"
"pit-trial","175","1176112","0.0-55.0","battery-v0.2","","""event"",""trial"",""time""
""fullscreenenter"",""1"",""2233""
","
","
","""event"",""trial"",""time""
""fullscreenenter"",""1"",""2233""
","
","","","-1","","","15","4672","3223","t","elianto","#f73b6a7A"," ","-1","0","-10","[]","0","2","","","4672","51","2","3","lose","go","0"
"pit-trial","176","1180283","0.0-56.0","battery-v0.2","","""event"",""trial"",""time""
""fullscreenenter"",""1"",""2233""
","
","
","""event"",""trial"",""time""
""fullscreenenter"",""1"",""2233""
","
","","","1303.5999999046326","","","15","4672","3223","b","elianto","#f73b6a7A","-1"," ","0","-10","[2155.2999999523163]","1","2","","","4672","52","3","4","lose","no-go","0"
"pit-trial","177","1184418","0.0-57.0","battery-v0.2","","""event"",""trial"",""time""
""fullscreenenter"",""1"",""2233""
","
","
","""event"",""trial"",""time""
""fullscreenenter"",""1"",""2233""
","
","","","1274.4000000953674","","","15","4672","3223","b","elianto","#f73b6a7A","-1"," ","0","-10","[2128.899999856949]","1","2","","","4672","53","3","4","lose","no-go","0"
"pit-trial","178","1189284","0.0-58.0","battery-v0.2","","""event"",""trial"",""time""
""fullscreenenter"",""1"",""2233""
","
","
","""event"",""trial"",""time""
""fullscreenenter"",""1"",""2233""
","
","","","-1","","","15","4672","3223","f","elianto","#3366ff99","-1","-1","1","+10","[]","0","2","","","4672","54","1","2","win","no-go","0"
"pit-trial","179","1193690","0.0-59.0","battery-v0.2","","""event"",""trial"",""time""
""fullscreenenter"",""1"",""2233""
","
","
","""event"",""trial"",""time""
""fullscreenenter"",""1"",""2233""
","
","","","1541.5","","","15","4672","3223","n","elianto","#f73b6a7A"," "," ","1","0","[2396.5]","1","2","","","4672","55","0","3","lose","go","0"
"pit-trial","180","1198562","0.0-60.0","battery-v0.2","","""event"",""trial"",""time""
""fullscreenenter"",""1"",""2233""
","
","
","""event"",""trial"",""time""
""fullscreenenter"",""1"",""2233""
","
","","","-1","","","15","4672","3223","t","elianto","#f73b6a7A"," ","-1","0","-10","[2917.4000000953674]","1","2","","","4672","56","2","3","lose","go","0"
"pit-trial","181","1202736","0.0-61.0","battery-v0.2","","""event"",""trial"",""time""
""fullscreenenter"",""1"",""2233""
","
","
","""event"",""trial"",""time""
""fullscreenenter"",""1"",""2233""
","
","","","1307.6000001430511","","","15","4672","3223","n","elianto","#f73b6a7A"," "," ","1","0","[2162.2000000476837]","1","2","","","4672","57","0","3","lose","go","0"
"pit-trial","182","1207604","0.0-62.0","battery-v0.2","","""event"",""trial"",""time""
""fullscreenenter"",""1"",""2233""
","
","
","""event"",""trial"",""time""
""fullscreenenter"",""1"",""2233""
","
","","","-1","","","15","4672","3223","t","elianto","#f73b6a7A"," ","-1","0","-10","[]","0","2","","","4672","58","2","3","lose","go","0"
"pit-trial","183","1212482","0.0-63.0","battery-v0.2","","""event"",""trial"",""time""
""fullscreenenter"",""1"",""2233""
","
","
","""event"",""trial"",""time""
""fullscreenenter"",""1"",""2233""
","
","","","-1","","","15","4672","3223","c","elianto","#3366ff99"," ","-1","0","+10","[2863.2999999523163]","1","2","","","4672","59","4","1","win","go","1"
"pit-trial","184","1217216","0.0-64.0","battery-v0.2","","""event"",""trial"",""time""
""fullscreenenter"",""1"",""2233""
","
","
","""event"",""trial"",""time""
""fullscreenenter"",""1"",""2233""
","
","","","1872.7999999523163","","","15","4672","3223","b","elianto","#f73b6a7A","-1"," ","0","-10","[2727.5]","1","2","","","4672","60","3","4","lose","no-go","0"
"pit-trial","185","1222081","0.0-65.0","battery-v0.2","","""event"",""trial"",""time""
""fullscreenenter"",""1"",""2233""
","
","
","""event"",""trial"",""time""
""fullscreenenter"",""1"",""2233""
","
","","","-1","","","15","4672","3223","f","elianto","#3366ff99","-1","-1","1","+10","[]","0","2","","","4672","61","1","2","win","no-go","0"
"pit-trial","186","1226554","0.0-66.0","battery-v0.2","","""event"",""trial"",""time""
""fullscreenenter"",""1"",""2233""
","
","
","""event"",""trial"",""time""
""fullscreenenter"",""1"",""2233""
","
","","","1603.8999998569489","","","15","4672","3223","b","elianto","#f73b6a7A","-1"," ","0","-10","[2456.2999999523163]","1","2","","","4672","62","3","4","lose","no-go","0"
"pit-trial","187","1230467","0.0-67.0","battery-v0.2","","""event"",""trial"",""time""
""fullscreenenter"",""1"",""2233""
","
","
","""event"",""trial"",""time""
""fullscreenenter"",""1"",""2233""
","
","","","1047.8999998569489","","","15","4672","3223","c","elianto","#3366ff99"," "," ","1","+10","[1902.0999999046326]","1","2","","","4672","63","4","1","win","go","0"
"pit-trial","188","1235339","0.0-68.0","battery-v0.2","","""event"",""trial"",""time""
""fullscreenenter"",""1"",""2233""
","
","
","""event"",""trial"",""time""
""fullscreenenter"",""1"",""2233""
","
","","","-1","","","15","4672","3223","t","elianto","#f73b6a7A"," ","-1","0","-10","[]","0","2","","","4672","64","2","3","lose","go","0"
"pit-trial","189","1239875","0.0-69.0","battery-v0.2","","""event"",""trial"",""time""
""fullscreenenter"",""1"",""2233""
","
","
","""event"",""trial"",""time""
""fullscreenenter"",""1"",""2233""
","
","","","1670.3999998569489","","","15","4672","3223","b","elianto","#f73b6a7A","-1"," ","0","-10","[2524.699999809265]","1","2","","","4672","65","3","4","lose","no-go","0"
"pit-trial","190","1244746","0.0-70.0","battery-v0.2","","""event"",""trial"",""time""
""fullscreenenter"",""1"",""2233""
","
","
","""event"",""trial"",""time""
""fullscreenenter"",""1"",""2233""
","
","","","-1","","","15","4672","3223","f","elianto","#3366ff99","-1","-1","1","+10","[]","0","2","","","4672","66","1","2","win","no-go","0"
"pit-trial","191","1249225","0.0-71.0","battery-v0.2","","""event"",""trial"",""time""
""fullscreenenter"",""1"",""2233""
","
","
","""event"",""trial"",""time""
""fullscreenenter"",""1"",""2233""
","
","","","1616.4000000953674","","","15","4672","3223","z","elianto","#3366ff99","-1"," ","0","0","[2469.2999999523163]","1","2","","","4672","67","5","2","win","no-go","0"
"pit-trial","192","1253314","0.0-72.0","battery-v0.2","","""event"",""trial"",""time""
""fullscreenenter"",""1"",""2233""
","
","
","""event"",""trial"",""time""
""fullscreenenter"",""1"",""2233""
","
","","","1222","","","15","4672","3223","c","elianto","#3366ff99"," "," ","1","+10","[2076.5]","1","2","","","4672","68","4","1","win","go","0"
"pit-trial","193","1258176","0.0-73.0","battery-v0.2","","""event"",""trial"",""time""
""fullscreenenter"",""1"",""2233""
","
","
","""event"",""trial"",""time""
""fullscreenenter"",""1"",""2233""
","
","","","-1","","","15","4672","3223","f","elianto","#3366ff99","-1","-1","1","+10","[]","0","2","","","4672","69","1","2","win","no-go","0"
"pit-trial","194","1262274","0.0-74.0","battery-v0.2","","""event"",""trial"",""time""
""fullscreenenter"",""1"",""2233""
","
","
","""event"",""trial"",""time""
""fullscreenenter"",""1"",""2233""
","
","","","1229.4000000953674","","","15","4672","3223","c","elianto","#3366ff99"," "," ","1","0","[2083]","1","2","","","4672","70","4","1","win","go","1"
"pit-trial","195","1267145","0.0-75.0","battery-v0.2","","""event"",""trial"",""time""
""fullscreenenter"",""1"",""2233""
","
","
","""event"",""trial"",""time""
""fullscreenenter"",""1"",""2233""
","
","","","-1","","","15","4672","3223","z","elianto","#3366ff99","-1","-1","1","0","[]","0","2","","","4672","71","5","2","win","no-go","1"
"pit-trial","196","1272011","0.0-76.0","battery-v0.2","","""event"",""trial"",""time""
""fullscreenenter"",""1"",""2233""
","
","
","""event"",""trial"",""time""
""fullscreenenter"",""1"",""2233""
","
","","","-1","","","15","4672","3223","t","elianto","#f73b6a7A"," ","-1","0","0","[]","0","2","","","4672","72","2","3","lose","go","1"
"pit-trial","197","1276338","0.0-77.0","battery-v0.2","","""event"",""trial"",""time""
""fullscreenenter"",""1"",""2233""
","
","
","""event"",""trial"",""time""
""fullscreenenter"",""1"",""2233""
","
","","","1454.8000001907349","","","15","4672","3223","c","elianto","#3366ff99"," "," ","1","+10","[2312.399999856949]","1","2","","","4672","73","4","1","win","go","0"
"pit-trial","198","1281206","0.0-78.0","battery-v0.2","","""event"",""trial"",""time""
""fullscreenenter"",""1"",""2233""
","
","
","""event"",""trial"",""time""
""fullscreenenter"",""1"",""2233""
","
","","","-1","","","15","4672","3223","f","elianto","#3366ff99","-1","-1","1","+10","[]","0","2","","","4672","74","1","2","win","no-go","0"
"pit-trial","199","1285710","0.0-79.0","battery-v0.2","","""event"",""trial"",""time""
""fullscreenenter"",""1"",""2233""
","
","
","""event"",""trial"",""time""
""fullscreenenter"",""1"",""2233""
","
","","","1637.0999999046326","","","15","4672","3223","b","elianto","#f73b6a7A","-1"," ","0","-10","[2491.0999999046326]","1","2","","","4672","75","3","4","lose","no-go","0"
"pit-trial","200","1290581","0.0-80.0","battery-v0.2","","""event"",""trial"",""time""
""fullscreenenter"",""1"",""2233""
","
","
","""event"",""trial"",""time""
""fullscreenenter"",""1"",""2233""
","
","","","-1","","","15","4672","3223","z","elianto","#3366ff99","-1","-1","1","+10","[]","0","2","","","4672","76","5","2","win","no-go","0"
"pit-trial","201","1294939","0.0-81.0","battery-v0.2","","""event"",""trial"",""time""
""fullscreenenter"",""1"",""2233""
","
","
","""event"",""trial"",""time""
""fullscreenenter"",""1"",""2233""
","
","","","1488.2000000476837","","","15","4672","3223","c","elianto","#3366ff99"," "," ","1","+10","[2342.399999856949]","1","2","","","4672","77","4","1","win","go","0"
"pit-trial","202","1298821","0.0-82.0","battery-v0.2","","""event"",""trial"",""time""
""fullscreenenter"",""1"",""2233""
","
","
","""event"",""trial"",""time""
""fullscreenenter"",""1"",""2233""
","
","","","1016.3999998569489","","","15","4672","3223","c","elianto","#3366ff99"," "," ","1","0","[1870.7000000476837]","1","2","","","4672","78","4","1","win","go","1"
"pit-trial","203","1303683","0.0-83.0","battery-v0.2","","""event"",""trial"",""time""
""fullscreenenter"",""1"",""2233""
","
","
","""event"",""trial"",""time""
""fullscreenenter"",""1"",""2233""
","
","","","-1","","","15","4672","3223","z","elianto","#3366ff99","-1","-1","1","+10","[]","0","2","","","4672","79","5","2","win","no-go","0"
"pit-trial","204","1308542","0.0-84.0","battery-v0.2","","""event"",""trial"",""time""
""fullscreenenter"",""1"",""2233""
","
","
","""event"",""trial"",""time""
""fullscreenenter"",""1"",""2233""
","
","","","1992.7999999523163","","","15","4672","3223","b","elianto","#f73b6a7A","-1"," ","0","-10","[2846.7999999523163]","1","2","","","4672","80","3","4","lose","no-go","0"
"pit-trial","205","1313411","0.0-85.0","battery-v0.2","","""event"",""trial"",""time""
""fullscreenenter"",""1"",""2233""
","
","
","""event"",""trial"",""time""
""fullscreenenter"",""1"",""2233""
","
","","","-1","","","15","4672","3223","b","elianto","#f73b6a7A","-1","-1","1","-10","[]","0","2","","","4672","81","3","4","lose","no-go","1"
"pit-trial","206","1317661","0.0-86.0","battery-v0.2","","""event"",""trial"",""time""
""fullscreenenter"",""1"",""2233""
","
","
","""event"",""trial"",""time""
""fullscreenenter"",""1"",""2233""
","
","","","1385.9000000953674","","","15","4672","3223","c","elianto","#3366ff99"," "," ","1","+10","[2241.5999999046326]","1","2","","","4672","82","4","1","win","go","0"
"pit-trial","207","1322527","0.0-87.0","battery-v0.2","","""event"",""trial"",""time""
""fullscreenenter"",""1"",""2233""
","
","
","""event"",""trial"",""time""
""fullscreenenter"",""1"",""2233""
","
","","","-1","","","15","4672","3223","z","elianto","#3366ff99","-1","-1","1","+10","[]","0","2","","","4672","83","5","2","win","no-go","0"
"pit-trial","208","1327197","0.0-88.0","battery-v0.2","","""event"",""trial"",""time""
""fullscreenenter"",""1"",""2233""
","
","
","""event"",""trial"",""time""
""fullscreenenter"",""1"",""2233""
","
","","","1805.5999999046326","","","15","4672","3223","y","elianto","#f73b6a7A","-1"," ","0","-10","[2659.7000000476837]","1","2","","","4672","84","7","4","lose","no-go","0"
"pit-trial","209","1332062","0.0-89.0","battery-v0.2","","""event"",""trial"",""time""
""fullscreenenter"",""1"",""2233""
","
","
","""event"",""trial"",""time""
""fullscreenenter"",""1"",""2233""
","
","","","-1","","","15","4672","3223","y","elianto","#f73b6a7A","-1","-1","1","0","[]","0","2","","","4672","85","7","4","lose","no-go","0"
"pit-trial","210","1336926","0.0-90.0","battery-v0.2","","""event"",""trial"",""time""
""fullscreenenter"",""1"",""2233""
","
","
","""event"",""trial"",""time""
""fullscreenenter"",""1"",""2233""
","
","","","-1","","","15","4672","3223","z","elianto","#3366ff99","-1","-1","1","+10","[]","0","2","","","4672","86","5","2","win","no-go","0"
"pit-trial","211","1341410","0.0-91.0","battery-v0.2","","""event"",""trial"",""time""
""fullscreenenter"",""1"",""2233""
","
","
","""event"",""trial"",""time""
""fullscreenenter"",""1"",""2233""
","
","","","1615.5999999046326","","","15","4672","3223","h","elianto","#f73b6a7A"," "," ","1","0","[2470.199999809265]","1","2","","","4672","87","6","3","lose","go","0"
"pit-trial","212","1346242","0.0-92.0","battery-v0.2","","""event"",""trial"",""time""
""fullscreenenter"",""1"",""2233""
","
","
","""event"",""trial"",""time""
""fullscreenenter"",""1"",""2233""
","
","","","1967","","","15","4672","3223","c","elianto","#3366ff99"," "," ","1","+10","[2821.399999856949]","1","2","","","4672","88","4","1","win","go","0"
"pit-trial","213","1351114","0.0-93.0","battery-v0.2","","""event"",""trial"",""time""
""fullscreenenter"",""1"",""2233""
","
","
","""event"",""trial"",""time""
""fullscreenenter"",""1"",""2233""
","
","","","-1","","","15","4672","3223","z","elianto","#3366ff99","-1","-1","1","0","[]","0","2","","","4672","89","5","2","win","no-go","1"
"pit-trial","214","1355984","0.0-94.0","battery-v0.2","","""event"",""trial"",""time""
""fullscreenenter"",""1"",""2233""
","
","
","""event"",""trial"",""time""
""fullscreenenter"",""1"",""2233""
","
","","","-1","","","15","4672","3223","y","elianto","#f73b6a7A","-1","-1","1","0","[]","0","2","","","4672","90","7","4","lose","no-go","0"
"pit-trial","215","1359964","0.0-95.0","battery-v0.2","","""event"",""trial"",""time""
""fullscreenenter"",""1"",""2233""
","
","
","""event"",""trial"",""time""
""fullscreenenter"",""1"",""2233""
","
","","","1116.9000000953674","","","15","4672","3223","c","elianto","#3366ff99"," "," ","1","+10","[1968.5999999046326]","1","2","","","4672","91","4","1","win","go","0"
"pit-trial","216","1364575","0.0-96.0","battery-v0.2","","""event"",""trial"",""time""
""fullscreenenter"",""1"",""2233""
","
","
","""event"",""trial"",""time""
""fullscreenenter"",""1"",""2233""
","
","","","1747.7999999523163","","","15","4672","3223","h","elianto","#f73b6a7A"," "," ","1","0","[2603.7999999523163]","1","2","","","4672","92","6","3","lose","go","0"
"pit-trial","217","1369442","0.0-97.0","battery-v0.2","","""event"",""trial"",""time""
""fullscreenenter"",""1"",""2233""
","
","
","""event"",""trial"",""time""
""fullscreenenter"",""1"",""2233""
","
","","","-1","","","15","4672","3223","z","elianto","#3366ff99","-1","-1","1","+10","[]","0","2","","","4672","93","5","2","win","no-go","0"
"pit-trial","218","1373451","0.0-98.0","battery-v0.2","","""event"",""trial"",""time""
""fullscreenenter"",""1"",""2233""
","
","
","""event"",""trial"",""time""
""fullscreenenter"",""1"",""2233""
","
","","","1141","","","15","4672","3223","h","elianto","#f73b6a7A"," "," ","1","-10","[1995.2000000476837]","1","2","","","4672","94","6","3","lose","go","1"
"pit-trial","219","1378322","0.0-99.0","battery-v0.2","","""event"",""trial"",""time""
""fullscreenenter"",""1"",""2233""
","
","
","""event"",""trial"",""time""
""fullscreenenter"",""1"",""2233""
","
","","","-1","","","15","4672","3223","y","elianto","#f73b6a7A","-1","-1","1","0","[]","0","2","","","4672","95","7","4","lose","no-go","0"
"pit-trial","220","1382722","0.0-100.0","battery-v0.2","","""event"",""trial"",""time""
""fullscreenenter"",""1"",""2233""
","
","
","""event"",""trial"",""time""
""fullscreenenter"",""1"",""2233""
","
","","","1535.0999999046326","","","15","4672","3223","r","elianto","#3366ff99"," "," ","1","+10","[2389.2000000476837]","1","2","","","4672","96","8","1","win","go","0"
"pit-trial","221","1386689","0.0-101.0","battery-v0.2","","""event"",""trial"",""time""
""fullscreenenter"",""1"",""2233""
","
","
","""event"",""trial"",""time""
""fullscreenenter"",""1"",""2233""
","
","","","1100.3999998569489","","","15","4672","3223","r","elianto","#3366ff99"," "," ","1","+10","[1954.7999999523163]","1","2","","","4672","97","8","1","win","go","0"
"pit-trial","222","1391561","0.0-102.0","battery-v0.2","","""event"",""trial"",""time""
""fullscreenenter"",""1"",""2233""
","
","
","""event"",""trial"",""time""
""fullscreenenter"",""1"",""2233""
","
","","","-1","","","15","4672","3223","y","elianto","#f73b6a7A","-1","-1","1","0","[3086.2999999523163]","1","2","","","4672","98","7","4","lose","no-go","0"
"pit-trial","223","1396073","0.0-103.0","battery-v0.2","","""event"",""trial"",""time""
""fullscreenenter"",""1"",""2233""
","
","
","""event"",""trial"",""time""
""fullscreenenter"",""1"",""2233""
","
","","","1642.9000000953674","","","15","4672","3223","h","elianto","#f73b6a7A"," "," ","1","0","[2496.9000000953674]","1","2","","","4672","99","6","3","lose","go","0"
"pit-trial","224","1400952","0.0-104.0","battery-v0.2","","""event"",""trial"",""time""
""fullscreenenter"",""1"",""2233""
","
","
","""event"",""trial"",""time""
""fullscreenenter"",""1"",""2233""
","
","","","-1","","","15","4672","3223","z","elianto","#3366ff99","-1","-1","1","+10","[]","0","2","","","4672","100","5","2","win","no-go","0"
"pit-trial","225","1405815","0.0-105.0","battery-v0.2","","""event"",""trial"",""time""
""fullscreenenter"",""1"",""2233""
","
","
","""event"",""trial"",""time""
""fullscreenenter"",""1"",""2233""
","
","","","-1","","","15","4672","3223","z","elianto","#3366ff99","-1","-1","1","+10","[]","0","2","","","4672","101","5","2","win","no-go","0"
"pit-trial","226","1410257","0.0-106.0","battery-v0.2","","""event"",""trial"",""time""
""fullscreenenter"",""1"",""2233""
","
","
","""event"",""trial"",""time""
""fullscreenenter"",""1"",""2233""
","
","","","1574.4000000953674","","","15","4672","3223","m","elianto","#3366ff99"," "," ","1","+10","[2429.5]","1","2","","","4672","102","9","1","win","go","0"
"pit-trial","227","1414891","0.0-107.0","battery-v0.2","","""event"",""trial"",""time""
""fullscreenenter"",""1"",""2233""
","
","
","""event"",""trial"",""time""
""fullscreenenter"",""1"",""2233""
","
","","","1769.7000000476837","","","15","4672","3223","y","elianto","#f73b6a7A","-1"," ","0","-10","[2623.7000000476837]","1","2","","","4672","103","7","4","lose","no-go","0"
"pit-trial","228","1419690","0.0-108.0","battery-v0.2","","""event"",""trial"",""time""
""fullscreenenter"",""1"",""2233""
","
","
","""event"",""trial"",""time""
""fullscreenenter"",""1"",""2233""
","
","","","1933","","","15","4672","3223","r","elianto","#3366ff99"," "," ","1","+10","[2787.5999999046326]","1","2","","","4672","104","8","1","win","go","0"
"pit-trial","229","1424183","0.0-109.0","battery-v0.2","","""event"",""trial"",""time""
""fullscreenenter"",""1"",""2233""
","
","
","""event"",""trial"",""time""
""fullscreenenter"",""1"",""2233""
","
","","","1628.6000001430511","","","15","4672","3223","c","elianto","#3366ff99"," "," ","1","0","[2483.2000000476837]","1","2","","","4672","105","4","1","win","go","1"
"pit-trial","230","1428651","0.0-110.0","battery-v0.2","","""event"",""trial"",""time""
""fullscreenenter"",""1"",""2233""
","
","
","""event"",""trial"",""time""
""fullscreenenter"",""1"",""2233""
","
","","","1604.9000000953674","","","15","4672","3223","r","elianto","#3366ff99"," "," ","1","+10","[2457]","1","2","","","4672","106","8","1","win","go","0"
"pit-trial","231","1433144","0.0-111.0","battery-v0.2","","""event"",""trial"",""time""
""fullscreenenter"",""1"",""2233""
","
","
","""event"",""trial"",""time""
""fullscreenenter"",""1"",""2233""
","
","","","1627.5","","","15","4672","3223","m","elianto","#3366ff99"," "," ","1","+10","[2482.100000143051]","1","2","","","4672","107","9","1","win","go","0"
"pit-trial","232","1437759","0.0-112.0","battery-v0.2","","""event"",""trial"",""time""
""fullscreenenter"",""1"",""2233""
","
","
","""event"",""trial"",""time""
""fullscreenenter"",""1"",""2233""
","
","","","1737.5","","","15","4672","3223","h","elianto","#f73b6a7A"," "," ","1","0","[2595.2999999523163]","1","2","","","4672","108","6","3","lose","go","0"
"pit-trial","233","1442571","0.0-113.0","battery-v0.2","","""event"",""trial"",""time""
""fullscreenenter"",""1"",""2233""
","
","
","""event"",""trial"",""time""
""fullscreenenter"",""1"",""2233""
","
","","","1948.4000000953674","","","15","4672","3223","z","elianto","#3366ff99","-1"," ","0","0","[2802.100000143051]","1","2","","","4672","109","5","2","win","no-go","0"
"pit-trial","234","1447353","0.0-114.0","battery-v0.2","","""event"",""trial"",""time""
""fullscreenenter"",""1"",""2233""
","
","
","""event"",""trial"",""time""
""fullscreenenter"",""1"",""2233""
","
","","","1913.5","","","15","4672","3223","h","elianto","#f73b6a7A"," "," ","1","0","[2767.9000000953674]","1","2","","","4672","110","6","3","lose","go","0"
"pit-trial","235","1451965","0.0-115.0","battery-v0.2","","""event"",""trial"",""time""
""fullscreenenter"",""1"",""2233""
","
","
","""event"",""trial"",""time""
""fullscreenenter"",""1"",""2233""
","
","","","1740.8999998569489","","","15","4672","3223","m","elianto","#3366ff99"," "," ","1","+10","[2594.899999856949]","1","2","","","4672","111","9","1","win","go","0"
"pit-trial","236","1456832","0.0-116.0","battery-v0.2","","""event"",""trial"",""time""
""fullscreenenter"",""1"",""2233""
","
","
","""event"",""trial"",""time""
""fullscreenenter"",""1"",""2233""
","
","","","-1","","","15","4672","3223","r","elianto","#3366ff99"," ","-1","0","0","[2980.7000000476837]","1","2","","","4672","112","8","1","win","go","0"
"pit-trial","237","1461130","0.0-117.0","battery-v0.2","","""event"",""trial"",""time""
""fullscreenenter"",""1"",""2233""
","
","
","""event"",""trial"",""time""
""fullscreenenter"",""1"",""2233""
","
","","","1427.6000001430511","","","15","4672","3223","m","elianto","#3366ff99"," "," ","1","+10","[2285.300000190735]","1","2","","","4672","113","9","1","win","go","0"
"pit-trial","238","1465995","0.0-118.0","battery-v0.2","","""event"",""trial"",""time""
""fullscreenenter"",""1"",""2233""
","
","
","""event"",""trial"",""time""
""fullscreenenter"",""1"",""2233""
","
","","","-1","","","15","4672","3223","z","elianto","#3366ff99","-1","-1","1","+10","[3790.100000143051]","1","2","","","4672","114","5","2","win","no-go","0"
"pit-trial","239","1469980","0.0-119.0","battery-v0.2","","""event"",""trial"",""time""
""fullscreenenter"",""1"",""2233""
","
","
","""event"",""trial"",""time""
""fullscreenenter"",""1"",""2233""
","
","","","1122.1999998092651","","","15","4672","3223","r","elianto","#3366ff99"," "," ","1","+10","[1976.9000000953674]","1","2","","","4672","115","8","1","win","go","0"
"pit-trial","240","1474240","0.0-120.0","battery-v0.2","","""event"",""trial"",""time""
""fullscreenenter"",""1"",""2233""
","
","
","""event"",""trial"",""time""
""fullscreenenter"",""1"",""2233""
","
","","","1392","","","15","4672","3223","h","elianto","#f73b6a7A"," "," ","1","0","[2245.7999999523163]","1","2","","","4672","116","6","3","lose","go","0"
"pit-trial","241","1478484","0.0-121.0","battery-v0.2","","""event"",""trial"",""time""
""fullscreenenter"",""1"",""2233""
","
","
","""event"",""trial"",""time""
""fullscreenenter"",""1"",""2233""
","
","","","1376.4000000953674","","","15","4672","3223","m","elianto","#3366ff99"," "," ","1","+10","[2231.7000000476837]","1","2","","","4672","117","9","1","win","go","0"
"pit-trial","242","1483355","0.0-122.0","battery-v0.2","","""event"",""trial"",""time""
""fullscreenenter"",""1"",""2233""
","
","
","""event"",""trial"",""time""
""fullscreenenter"",""1"",""2233""
","
","","","-1","","","15","4672","3223","z","elianto","#3366ff99","-1","-1","1","+10","[]","0","2","","","4672","118","5","2","win","no-go","0"
"pit-trial","243","1487819","0.0-123.0","battery-v0.2","","""event"",""trial"",""time""
""fullscreenenter"",""1"",""2233""
","
","
","""event"",""trial"",""time""
""fullscreenenter"",""1"",""2233""
","
","","","1602.6000001430511","","","15","4672","3223","h","elianto","#f73b6a7A"," "," ","1","0","[2457]","1","2","","","4672","119","6","3","lose","go","0"
"pit-trial","244","1492353","0.0-124.0","battery-v0.2","","""event"",""trial"",""time""
""fullscreenenter"",""1"",""2233""
","
","
","""event"",""trial"",""time""
""fullscreenenter"",""1"",""2233""
","
","","","1668.3999998569489","","","15","4672","3223","r","elianto","#3366ff99"," "," ","1","+10","[2521.600000143051]","1","2","","","4672","120","8","1","win","go","0"
"pit-trial","245","1497184","0.0-125.0","battery-v0.2","","""event"",""trial"",""time""
""fullscreenenter"",""1"",""2233""
","
","
","""event"",""trial"",""time""
""fullscreenenter"",""1"",""2233""
","
","","","1962.0999999046326","","","15","4672","3223","h","elianto","#f73b6a7A"," "," ","1","0","[2816.7000000476837]","1","2","","","4672","121","6","3","lose","go","0"
"pit-trial","246","1501683","0.0-126.0","battery-v0.2","","""event"",""trial"",""time""
""fullscreenenter"",""1"",""2233""
","
","
","""event"",""trial"",""time""
""fullscreenenter"",""1"",""2233""
","
","","","1629.2000000476837","","","15","4672","3223","r","elianto","#3366ff99"," "," ","1","+10","[2488.399999856949]","1","2","","","4672","122","8","1","win","go","0"
"pit-trial","247","1506546","0.0-127.0","battery-v0.2","","""event"",""trial"",""time""
""fullscreenenter"",""1"",""2233""
","
","
","""event"",""trial"",""time""
""fullscreenenter"",""1"",""2233""
","
","","","-1","","","15","4672","3223","y","elianto","#f73b6a7A","-1","-1","1","0","[3194.899999856949]","1","2","","","4672","123","7","4","lose","no-go","0"
"pit-trial","248","1510883","0.0-128.0","battery-v0.2","","""event"",""trial"",""time""
""fullscreenenter"",""1"",""2233""
","
","
","""event"",""trial"",""time""
""fullscreenenter"",""1"",""2233""
","
","","","1470","","","15","4672","3223","m","elianto","#3366ff99"," "," ","1","+10","[2324.4000000953674]","1","2","","","4672","124","9","1","win","go","0"
"pit-trial","249","1515754","0.0-129.0","battery-v0.2","","""event"",""trial"",""time""
""fullscreenenter"",""1"",""2233""
","
","
","""event"",""trial"",""time""
""fullscreenenter"",""1"",""2233""
","
","","","-1","","","15","4672","3223","y","elianto","#f73b6a7A","-1","-1","1","0","[3317.2999999523163]","1","2","","","4672","125","7","4","lose","no-go","0"
"pit-trial","250","1520299","0.0-130.0","battery-v0.2","","""event"",""trial"",""time""
""fullscreenenter"",""1"",""2233""
","
","
","""event"",""trial"",""time""
""fullscreenenter"",""1"",""2233""
","
","","","1686.0999999046326","","","15","4672","3223","h","elianto","#f73b6a7A"," "," ","1","-10","[2537.4000000953674]","1","2","","","4672","126","6","3","lose","go","1"
"pit-trial","251","1524987","0.0-131.0","battery-v0.2","","""event"",""trial"",""time""
""fullscreenenter"",""1"",""2233""
","
","
","""event"",""trial"",""time""
""fullscreenenter"",""1"",""2233""
","
","","","1820.3000001907349","","","15","4672","3223","m","elianto","#3366ff99"," "," ","1","+10","[2674.5999999046326]","1","2","","","4672","127","9","1","win","go","0"
"pit-trial","252","1529666","0.0-132.0","battery-v0.2","","""event"",""trial"",""time""
""fullscreenenter"",""1"",""2233""
","
","
","""event"",""trial"",""time""
""fullscreenenter"",""1"",""2233""
","
","","","1814","","","15","4672","3223","r","elianto","#3366ff99"," "," ","1","+10","[2668.699999809265]","1","2","","","4672","128","8","1","win","go","0"
"pit-trial","253","1532866","0.0-133.0","battery-v0.2","","""event"",""trial"",""time""
""fullscreenenter"",""1"",""2233""
","
","
","""event"",""trial"",""time""
""fullscreenenter"",""1"",""2233""
","
","","","332.39999985694885","","","15","4672","3223","m","elianto","#3366ff99"," "," ","1","+10","[1186.5999999046326]","1","2","","","4672","129","9","1","win","go","0"
"pit-trial","254","1537192","0.0-134.0","battery-v0.2","","""event"",""trial"",""time""
""fullscreenenter"",""1"",""2233""
","
","
","""event"",""trial"",""time""
""fullscreenenter"",""1"",""2233""
","
","","","1467.2000000476837","","","15","4672","3223","h","elianto","#f73b6a7A"," "," ","1","0","[2320.5999999046326]","1","2","","","4672","130","6","3","lose","go","0"
"pit-trial","255","1541795","0.0-135.0","battery-v0.2","","""event"",""trial"",""time""
""fullscreenenter"",""1"",""2233""
","
","
","""event"",""trial"",""time""
""fullscreenenter"",""1"",""2233""
","
","","","1735.5999999046326","","","15","4672","3223","y","elianto","#f73b6a7A","-1"," ","0","-10","[2590.0999999046326]","1","2","","","4672","131","7","4","lose","no-go","0"
"pit-trial","256","1546242","0.0-136.0","battery-v0.2","","""event"",""trial"",""time""
""fullscreenenter"",""1"",""2233""
","
","
","""event"",""trial"",""time""
""fullscreenenter"",""1"",""2233""
","
","","","1583.7000000476837","","","15","4672","3223","r","elianto","#3366ff99"," "," ","1","+10","[2438.800000190735]","1","2","","","4672","132","8","1","win","go","0"
"pit-trial","257","1550610","0.0-137.0","battery-v0.2","","""event"",""trial"",""time""
""fullscreenenter"",""1"",""2233""
","
","
","""event"",""trial"",""time""
""fullscreenenter"",""1"",""2233""
","
","","","1503.8000001907349","","","15","4672","3223","h","elianto","#f73b6a7A"," "," ","1","0","[2358.7999999523163]","1","2","","","4672","133","6","3","lose","go","0"
"pit-trial","258","1555474","0.0-138.0","battery-v0.2","","""event"",""trial"",""time""
""fullscreenenter"",""1"",""2233""
","
","
","""event"",""trial"",""time""
""fullscreenenter"",""1"",""2233""
","
","","","-1","","","15","4672","3223","m","elianto","#3366ff99"," ","-1","0","0","[2974]","1","2","","","4672","134","9","1","win","go","0"
"pit-trial","259","1559930","0.0-139.0","battery-v0.2","","""event"",""trial"",""time""
""fullscreenenter"",""1"",""2233""
","
","
","""event"",""trial"",""time""
""fullscreenenter"",""1"",""2233""
","
","","","1592.3000001907349","","","15","4672","3223","r","elianto","#3366ff99"," "," ","1","0","[2446.800000190735]","1","2","","","4672","135","8","1","win","go","1"
"pit-trial","260","1564794","0.0-140.0","battery-v0.2","","""event"",""trial"",""time""
""fullscreenenter"",""1"",""2233""
","
","
","""event"",""trial"",""time""
""fullscreenenter"",""1"",""2233""
","
","","","-1","","","15","4672","3223","y","elianto","#f73b6a7A","-1","-1","1","-10","[]","0","2","","","4672","136","7","4","lose","no-go","1"
"pit-trial","261","1569659","0.0-141.0","battery-v0.2","","""event"",""trial"",""time""
""fullscreenenter"",""1"",""2233""
","
","
","""event"",""trial"",""time""
""fullscreenenter"",""1"",""2233""
","
","","","-1","","","15","4672","3223","y","elianto","#f73b6a7A","-1","-1","1","-10","[]","0","2","","","4672","137","7","4","lose","no-go","1"
"pit-trial","262","1574053","0.0-142.0","battery-v0.2","","""event"",""trial"",""time""
""fullscreenenter"",""1"",""2233""
","
","
","""event"",""trial"",""time""
""fullscreenenter"",""1"",""2233""
","
","","","1526.3999998569489","","","15","4672","3223","r","elianto","#3366ff99"," "," ","1","+10","[2380.7999999523163]","1","2","","","4672","138","8","1","win","go","0"
"pit-trial","263","1578179","0.0-143.0","battery-v0.2","","""event"",""trial"",""time""
""fullscreenenter"",""1"",""2233""
","
","
","""event"",""trial"",""time""
""fullscreenenter"",""1"",""2233""
","
","","","1263.5","","","15","4672","3223","h","elianto","#f73b6a7A"," "," ","1","0","[2117.399999856949]","1","2","","","4672","139","6","3","lose","go","0"
"pit-trial","264","1582503","0.0-144.0","battery-v0.2","","""event"",""trial"",""time""
""fullscreenenter"",""1"",""2233""
","
","
","""event"",""trial"",""time""
""fullscreenenter"",""1"",""2233""
","
","","","1462.2000000476837","","","15","4672","3223","m","elianto","#3366ff99"," "," ","1","+10","[2316.0999999046326]","1","2","","","4672","140","9","1","win","go","0"
"pit-instructions","265","1602166","0.0-145.0","battery-v0.2","","""event"",""trial"",""time""
""fullscreenenter"",""1"",""2233""
","
","
","""event"",""trial"",""time""
""fullscreenenter"",""1"",""2233""
","
","","[{""page_index"":0,""viewing_time"":11220.099999904633},{""page_index"":1,""viewing_time"":8440.299999952316}]","19660.89999985695","","","","","","","","","","","","","","","","","","","","","","","",""
"pit-trial","266","1606263","0.0-146.0","battery-v0.2","","""event"",""trial"",""time""
""fullscreenenter"",""1"",""2233""
","
","
","""event"",""trial"",""time""
""fullscreenenter"",""1"",""2233""
","
