"trial_type","trial_index","time_elapsed","internal_node_id","task_version","subject_id","interactions","blur_events","focus_events","fullscreenenter_events","fullscreenexit_events","success","view_history","rt","responses","num_errors","age","subject","participantId","rune","rune_set","hex","correct","choice","accuracy","outcome","keys","total_keys","block","practice","value","sub","trial","stimulus","robot","valence","action","sham"
"pavlovia","0","7","0.0-0.0","battery-v0.2","","""event"",""trial"",""time""
""fullscreenenter"",""1"",""1776""
","
","
","""event"",""trial"",""time""
""fullscreenenter"",""1"",""1776""
","
","","","","","","","","","","","","","","","","","","","","","","","","","","",""
"fullscreen","1","2763","0.0-1.0","battery-v0.2","","""event"",""trial"",""time""
""fullscreenenter"",""1"",""1776""
","
","
","""event"",""trial"",""time""
""fullscreenenter"",""1"",""1776""
","
","true","","","","","","","","","","","","","","","","","","","","","","","","","",""
"pit-instructions","2","6234","0.0-2.0-0.0","battery-v0.2","","""event"",""trial"",""time""
""fullscreenenter"",""1"",""1776""
""blur"",""3"",""12512""
""focus"",""3"",""20794""
","""event"",""trial"",""time""
""blur"",""3"",""12512""
","""event"",""trial"",""time""
""focus"",""3"",""20794""
","""event"",""trial"",""time""
""fullscreenenter"",""1"",""1776""
","
","","[{""page_index"":0,""viewing_time"":3466.899999976158}]","3467.199999988079","","","","","","","","","","","","","","","","","","","","","","","",""
"pit-comprehension","3","24858","0.0-2.0-1.0-0.0","battery-v0.2","","""event"",""trial"",""time""
""fullscreenenter"",""1"",""1776""
""blur"",""3"",""12512""
""focus"",""3"",""20794""
","""event"",""trial"",""time""
""blur"",""3"",""12512""
","""event"",""trial"",""time""
""focus"",""3"",""20794""
","""event"",""trial"",""time""
""fullscreenenter"",""1"",""1776""
","
","","","18622","[""shark""]","0","13","13358","5720","","","","","","","","","","","","","","","","","","",""
"pit-instructions","4","26034","0.0-2.0-1.0-1.0","battery-v0.2","","""event"",""trial"",""time""
""fullscreenenter"",""1"",""1776""
""blur"",""3"",""12512""
""focus"",""3"",""20794""
","""event"",""trial"",""time""
""blur"",""3"",""12512""
","""event"",""trial"",""time""
""focus"",""3"",""20794""
","""event"",""trial"",""time""
""fullscreenenter"",""1"",""1776""
","
","","[{""page_index"":0,""viewing_time"":1166.2000000476837}]","1166.6000000238419","","","","","","","","","","","","","","","","","","","","","","","",""
"pit-comprehension","5","30338","0.0-2.0-2.0-0.0","battery-v0.2","","""event"",""trial"",""time""
""fullscreenenter"",""1"",""1776""
""blur"",""3"",""12512""
""focus"",""3"",""20794""
","""event"",""trial"",""time""
""blur"",""3"",""12512""
","""event"",""trial"",""time""
""focus"",""3"",""20794""
","""event"",""trial"",""time""
""fullscreenenter"",""1"",""1776""
","
","","","4301.900000035763","[""tiger""]","0","13","13358","5720","","","","","","","","","","","","","","","","","","",""
"pit-instructions","6","31450","0.0-2.0-2.0-1.0","battery-v0.2","","""event"",""trial"",""time""
""fullscreenenter"",""1"",""1776""
""blur"",""3"",""12512""
""focus"",""3"",""20794""
","""event"",""trial"",""time""
""blur"",""3"",""12512""
","""event"",""trial"",""time""
""focus"",""3"",""20794""
","""event"",""trial"",""time""
""fullscreenenter"",""1"",""1776""
","
","","[{""page_index"":0,""viewing_time"":1108.8999999761581}]","1109.199999988079","","","","","","","","","","","","","","","","","","","","","","","",""
"pit-instructions","7","132947","0.0-2.0-3.0","battery-v0.2","","""event"",""trial"",""time""
""fullscreenenter"",""1"",""1776""
""blur"",""3"",""12512""
""focus"",""3"",""20794""
","""event"",""trial"",""time""
""blur"",""3"",""12512""
","""event"",""trial"",""time""
""focus"",""3"",""20794""
","""event"",""trial"",""time""
""fullscreenenter"",""1"",""1776""
","
","","[{""page_index"":0,""viewing_time"":13037.900000035763},{""page_index"":1,""viewing_time"":5831.199999988079},{""page_index"":2,""viewing_time"":6672.699999988079},{""page_index"":3,""viewing_time"":11832.699999988079},{""page_index"":4,""viewing_time"":7262.900000035763},{""page_index"":5,""viewing_time"":7617.199999988079},{""page_index"":6,""viewing_time"":6880},{""page_index"":7,""viewing_time"":7054.399999976158},{""page_index"":8,""viewing_time"":6808.800000011921},{""page_index"":9,""viewing_time"":5015.699999988079},{""page_index"":10,""viewing_time"":7736.5},{""page_index"":11,""viewing_time"":5135.600000023842},{""page_index"":12,""viewing_time"":6056},{""page_index"":13,""viewing_time"":4551.800000011921}]","101493.60000002384","","","","","","","","","","","","","","","","","","","","","","","",""
"pit-trial","8","136170","0.0-2.0-4.0-0.0","battery-v0.2","","""event"",""trial"",""time""
""fullscreenenter"",""1"",""1776""
""blur"",""3"",""12512""
""focus"",""3"",""20794""
","""event"",""trial"",""time""
""blur"",""3"",""12512""
","""event"",""trial"",""time""
""focus"",""3"",""20794""
","""event"",""trial"",""time""
""fullscreenenter"",""1"",""1776""
","
","","","354.69999998807907","","","13","13358","5720","&#9784;","elianto","#FFFFF080"," "," ","1","&#10004","[1216.0999999642372]","1","0","0","","","","","","","",""
"pit-trial","9","140401","0.0-2.0-4.1-0.1","battery-v0.2","","""event"",""trial"",""time""
""fullscreenenter"",""1"",""1776""
""blur"",""3"",""12512""
""focus"",""3"",""20794""
","""event"",""trial"",""time""
""blur"",""3"",""12512""
","""event"",""trial"",""time""
""focus"",""3"",""20794""
","""event"",""trial"",""time""
""fullscreenenter"",""1"",""1776""
","
","","","1363.6000000238419","","","13","13358","5720","&#9784;","elianto","#FFFFF080"," "," ","1","&#10004","[2214.399999976158,2549.899999976158,3286.5,3478.100000023842,3646.100000023842,3806.399999976158,3958.100000023842,4118.199999988079]","8","0","0","","","","","","","",""
"pit-trial","10","143291","0.0-2.0-4.2-0.2","battery-v0.2","","""event"",""trial"",""time""
""fullscreenenter"",""1"",""1776""
""blur"",""3"",""12512""
""focus"",""3"",""20794""
","""event"",""trial"",""time""
""blur"",""3"",""12512""
","""event"",""trial"",""time""
""focus"",""3"",""20794""
","""event"",""trial"",""time""
""fullscreenenter"",""1"",""1776""
","
","","","28.099999964237213","","","13","13358","5720","&#9784;","elianto","#FFFFF080"," "," ","1","&#10004","[55.39999997615814,223.5999999642372,407.69999998807907,568.1999999880791,720.3000000119209,879,1032.199999988079,1176.0999999642372,1327.5999999642372,1488.5,1671.800000011921,1848,2064.099999964237,2248.199999988079,2432.300000011921,2624.300000011921,2887.699999988079]","17","0","0","","","","","","","",""
"pit-trial","11","146331","0.0-2.0-4.3-0.3","battery-v0.2","","""event"",""trial"",""time""
""fullscreenenter"",""1"",""1776""
""blur"",""3"",""12512""
""focus"",""3"",""20794""
","""event"",""trial"",""time""
""blur"",""3"",""12512""
","""event"",""trial"",""time""
""focus"",""3"",""20794""
","""event"",""trial"",""time""
""fullscreenenter"",""1"",""1776""
","
","","","168","","","13","13358","5720","&#9784;","elianto","#FFFFF080"," "," ","1","&#10004","[165.80000001192093,542,1029.699999988079,1566.699999988079,2086,2606.5]","6","0","0","","","","","","","",""
"pit-trial","12","149348","0.0-2.0-4.4-0.4","battery-v0.2","","""event"",""trial"",""time""
""fullscreenenter"",""1"",""1776""
""blur"",""3"",""12512""
""focus"",""3"",""20794""
","""event"",""trial"",""time""
""blur"",""3"",""12512""
","""event"",""trial"",""time""
""focus"",""3"",""20794""
","""event"",""trial"",""time""
""fullscreenenter"",""1"",""1776""
","
","","","162.69999998807907","","","13","13358","5720","&#9784;","elianto","#FFFFF080"," "," ","1","&#10004","[53.39999997615814,541.5,1013.6999999880791,1478,1965.6000000238419,2421.399999976158,2845.600000023842]","7","0","0","","","","","","","",""
"pit-instructions","13","171651","0.0-2.0-5.0","battery-v0.2","","""event"",""trial"",""time""
""fullscreenenter"",""1"",""1776""
""blur"",""3"",""12512""
""focus"",""3"",""20794""
","""event"",""trial"",""time""
""blur"",""3"",""12512""
","""event"",""trial"",""time""
""focus"",""3"",""20794""
","""event"",""trial"",""time""
""fullscreenenter"",""1"",""1776""
","
","","[{""page_index"":0,""viewing_time"":7412.399999976158},{""page_index"":1,""viewing_time"":5257.200000047684},{""page_index"":2,""viewing_time"":4406.699999988079},{""page_index"":3,""viewing_time"":5224.599999964237}]","22301.19999998808","","","","","","","","","","","","","","","","","","","","","","","",""
"pit-trial","14","176514","0.0-2.0-6.0-0.0","battery-v0.2","","""event"",""trial"",""time""
""fullscreenenter"",""1"",""1776""
""blur"",""3"",""12512""
""focus"",""3"",""20794""
","""event"",""trial"",""time""
""blur"",""3"",""12512""
","""event"",""trial"",""time""
""focus"",""3"",""20794""
","""event"",""trial"",""time""
""fullscreenenter"",""1"",""1776""
","
","","","-1","","","13","13358","5720","&#9854;","elianto","#FFFFF080","-1","-1","1","&#10004","[]","0","0","1","","","","","","","",""
"pit-trial","15","181372","0.0-2.0-6.1-0.1","battery-v0.2","","""event"",""trial"",""time""
""fullscreenenter"",""1"",""1776""
""blur"",""3"",""12512""
""focus"",""3"",""20794""
","""event"",""trial"",""time""
""blur"",""3"",""12512""
","""event"",""trial"",""time""
""focus"",""3"",""20794""
","""event"",""trial"",""time""
""fullscreenenter"",""1"",""1776""
","
","","","-1","","","13","13358","5720","&#9854;","elianto","#FFFFF080","-1","-1","1","&#10004","[]","0","0","1","","","","","","","",""
"pit-trial","16","186232","0.0-2.0-6.2-0.2","battery-v0.2","","""event"",""trial"",""time""
""fullscreenenter"",""1"",""1776""
""blur"",""3"",""12512""
""focus"",""3"",""20794""
","""event"",""trial"",""time""
""blur"",""3"",""12512""
","""event"",""trial"",""time""
""focus"",""3"",""20794""
","""event"",""trial"",""time""
""fullscreenenter"",""1"",""1776""
","
","","","-1","","","13","13358","5720","&#9854;","elianto","#FFFFF080","-1","-1","1","&#10004","[]","0","0","1","","","","","","","",""
"pit-trial","17","191092","0.0-2.0-6.3-0.3","battery-v0.2","","""event"",""trial"",""time""
""fullscreenenter"",""1"",""1776""
""blur"",""3"",""12512""
""focus"",""3"",""20794""
","""event"",""trial"",""time""
""blur"",""3"",""12512""
","""event"",""trial"",""time""
""focus"",""3"",""20794""
","""event"",""trial"",""time""
""fullscreenenter"",""1"",""1776""
","
","","","-1","","","13","13358","5720","&#9854;","elianto","#FFFFF080","-1","-1","1","&#10004","[]","0","0","1","","","","","","","",""
"pit-trial","18","195968","0.0-2.0-6.4-0.4","battery-v0.2","","""event"",""trial"",""time""
""fullscreenenter"",""1"",""1776""
""blur"",""3"",""12512""
""focus"",""3"",""20794""
","""event"",""trial"",""time""
""blur"",""3"",""12512""
","""event"",""trial"",""time""
""focus"",""3"",""20794""
","""event"",""trial"",""time""
""fullscreenenter"",""1"",""1776""
","
","","","-1","","","13","13358","5720","&#9854;","elianto","#FFFFF080","-1","-1","1","&#10004","[]","0","0","1","","","","","","","",""
"pit-instructions","19","331396","0.0-2.0-7.0","battery-v0.2","","""event"",""trial"",""time""
""fullscreenenter"",""1"",""1776""
""blur"",""3"",""12512""
""focus"",""3"",""20794""
","""event"",""trial"",""time""
""blur"",""3"",""12512""
","""event"",""trial"",""time""
""focus"",""3"",""20794""
","""event"",""trial"",""time""
""fullscreenenter"",""1"",""1776""
","
","","[{""page_index"":0,""viewing_time"":25199.69999998808},{""page_index"":1,""viewing_time"":9176.599999964237},{""page_index"":2,""viewing_time"":5623.5},{""page_index"":3,""viewing_time"":5376},{""page_index"":4,""viewing_time"":5232.5},{""page_index"":5,""viewing_time"":5319.600000023842},{""page_index"":6,""viewing_time"":4696.899999976158},{""page_index"":7,""viewing_time"":7199.5},{""page_index"":8,""viewing_time"":6918.700000047684},{""page_index"":9,""viewing_time"":12512.899999976158},{""page_index"":10,""viewing_time"":6111.800000011921},{""page_index"":11,""viewing_time"":5271.899999976158},{""page_index"":12,""viewing_time"":6312.5},{""page_index"":13,""viewing_time"":6167.5},{""page_index"":14,""viewing_time"":6120.199999988079},{""page_index"":15,""viewing_time"":6063.900000035763},{""page_index"":16,""viewing_time"":6087.599999964237},{""page_index"":17,""viewing_time"":6032.700000047684}]","135424.39999997616","","","","","","","","","","","","","","","","","","","","","","","",""
"pit-trial","20","334640","0.0-2.0-8.0-0.0","battery-v0.2","","""event"",""trial"",""time""
""fullscreenenter"",""1"",""1776""
""blur"",""3"",""12512""
""focus"",""3"",""20794""
","""event"",""trial"",""time""
""blur"",""3"",""12512""
","""event"",""trial"",""time""
""focus"",""3"",""20794""
","""event"",""trial"",""time""
""fullscreenenter"",""1"",""1776""
","
","","","377.19999998807907","","","13","13358","5720","&#9776;","elianto","#3366ff99"," "," ","1","+10","[1231.5,2766.7000000476837,2975.100000023842]","3","0","1","","","","","","","",""
"pit-trial","21","337732","0.0-2.0-8.0-1.0","battery-v0.2","","""event"",""trial"",""time""
""fullscreenenter"",""1"",""1776""
""blur"",""3"",""12512""
""focus"",""3"",""20794""
","""event"",""trial"",""time""
""blur"",""3"",""12512""
","""event"",""trial"",""time""
""focus"",""3"",""20794""
","""event"",""trial"",""time""
""fullscreenenter"",""1"",""1776""
","
","","","224.5999999642372","","","13","13358","5720","&#9776;","elianto","#3366ff99"," "," ","1","+10","[1081.8999999761581]","1","0","1","","","","","","","",""
"pit-trial","22","340874","0.0-2.0-8.0-2.0","battery-v0.2","","""event"",""trial"",""time""
""fullscreenenter"",""1"",""1776""
""blur"",""3"",""12512""
""focus"",""3"",""20794""
","""event"",""trial"",""time""
""blur"",""3"",""12512""
","""event"",""trial"",""time""
""focus"",""3"",""20794""
","""event"",""trial"",""time""
""fullscreenenter"",""1"",""1776""
","
","","","263.60000002384186","","","13","13358","5720","&#9776;","elianto","#3366ff99"," "," ","1","+10","[1126.1000000238419]","1","0","1","","","","","","","",""
"pit-trial","23","344137","0.0-2.0-8.0-3.0","battery-v0.2","","""event"",""trial"",""time""
""fullscreenenter"",""1"",""1776""
""blur"",""3"",""12512""
""focus"",""3"",""20794""
","""event"",""trial"",""time""
""blur"",""3"",""12512""
","""event"",""trial"",""time""
""focus"",""3"",""20794""
","""event"",""trial"",""time""
""fullscreenenter"",""1"",""1776""
","
","","","395.0999999642372","","","13","13358","5720","&#9776;","elianto","#3366ff99"," "," ","1","0","[631.5,1247.5]","2","0","1","","","","","","","",""
"pit-trial","24","347252","0.0-2.0-8.0-4.0","battery-v0.2","","""event"",""trial"",""time""
""fullscreenenter"",""1"",""1776""
""blur"",""3"",""12512""
""focus"",""3"",""20794""
","""event"",""trial"",""time""
""blur"",""3"",""12512""
","""event"",""trial"",""time""
""focus"",""3"",""20794""
","""event"",""trial"",""time""
""fullscreenenter"",""1"",""1776""
","
","","","250","","","13","13358","5720","&#9776;","elianto","#3366ff99"," "," ","1","+10","[1103.800000011921]","1","0","1","","","","","","","",""
"pit-trial","25","350300","0.0-2.0-8.1-0.1","battery-v0.2","","""event"",""trial"",""time""
""fullscreenenter"",""1"",""1776""
""blur"",""3"",""12512""
""focus"",""3"",""20794""
","""event"",""trial"",""time""
""blur"",""3"",""12512""
","""event"",""trial"",""time""
""focus"",""3"",""20794""
","""event"",""trial"",""time""
""fullscreenenter"",""1"",""1776""
","
","","","184.79999995231628","","","13","13358","5720","&#9776;","elianto","#3366ff99"," "," ","1","+10","[1036.3999999761581]","1","0","1","","","","","","","",""
"pit-trial","26","353332","0.0-2.0-8.1-1.1","battery-v0.2","","""event"",""trial"",""time""
""fullscreenenter"",""1"",""1776""
""blur"",""3"",""12512""
""focus"",""3"",""20794""
","""event"",""trial"",""time""
""blur"",""3"",""12512""
","""event"",""trial"",""time""
""focus"",""3"",""20794""
","""event"",""trial"",""time""
""fullscreenenter"",""1"",""1776""
","
","","","176.19999998807907","","","13","13358","5720","&#9776;","elianto","#3366ff99"," "," ","1","+10","[1028.8999999761581]","1","0","1","","","","","","","",""
"pit-trial","27","356499","0.0-2.0-8.1-2.1","battery-v0.2","","""event"",""trial"",""time""
""fullscreenenter"",""1"",""1776""
""blur"",""3"",""12512""
""focus"",""3"",""20794""
","""event"",""trial"",""time""
""blur"",""3"",""12512""
","""event"",""trial"",""time""
""focus"",""3"",""20794""
","""event"",""trial"",""time""
""fullscreenenter"",""1"",""1776""
","
","","","304.69999998807907","","","13","13358","5720","&#9776;","elianto","#3366ff99"," "," ","1","+10","[1158]","1","0","1","","","","","","","",""
"pit-trial","28","359582","0.0-2.0-8.1-3.1","battery-v0.2","","""event"",""trial"",""time""
""fullscreenenter"",""1"",""1776""
""blur"",""3"",""12512""
""focus"",""3"",""20794""
","""event"",""trial"",""time""
""blur"",""3"",""12512""
","""event"",""trial"",""time""
""focus"",""3"",""20794""
","""event"",""trial"",""time""
""fullscreenenter"",""1"",""1776""
","
","","","220","","","13","13358","5720","&#9776;","elianto","#3366ff99"," "," ","1","0","[1070.0999999642372]","1","0","1","","","","","","","",""
"pit-trial","29","362836","0.0-2.0-8.1-4.1","battery-v0.2","","""event"",""trial"",""time""
""fullscreenenter"",""1"",""1776""
""blur"",""3"",""12512""
""focus"",""3"",""20794""
","""event"",""trial"",""time""
""blur"",""3"",""12512""
","""event"",""trial"",""time""
""focus"",""3"",""20794""
","""event"",""trial"",""time""
""fullscreenenter"",""1"",""1776""
","
","","","401.10000002384186","","","13","13358","5720","&#9776;","elianto","#3366ff99"," "," ","1","+10","[1251.8999999761581]","1","0","1","","","","","","","",""
"pit-trial","30","365923","0.0-2.0-8.2-0.2","battery-v0.2","","""event"",""trial"",""time""
""fullscreenenter"",""1"",""1776""
""blur"",""3"",""12512""
""focus"",""3"",""20794""
","""event"",""trial"",""time""
""blur"",""3"",""12512""
","""event"",""trial"",""time""
""focus"",""3"",""20794""
","""event"",""trial"",""time""
""fullscreenenter"",""1"",""1776""
","
","","","234","","","13","13358","5720","&#9776;","elianto","#3366ff99"," "," ","1","+10","[1084.6000000238419]","1","0","1","","","","","","","",""
"pit-trial","31","368930","0.0-2.0-8.2-1.2","battery-v0.2","","""event"",""trial"",""time""
""fullscreenenter"",""1"",""1776""
""blur"",""3"",""12512""
""focus"",""3"",""20794""
","""event"",""trial"",""time""
""blur"",""3"",""12512""
","""event"",""trial"",""time""
""focus"",""3"",""20794""
","""event"",""trial"",""time""
""fullscreenenter"",""1"",""1776""
","
","","","138.89999997615814","","","13","13358","5720","&#9776;","elianto","#3366ff99"," "," ","1","+10","[989.5999999642372]","1","0","1","","","","","","","",""
"pit-trial","32","371956","0.0-2.0-8.2-2.2","battery-v0.2","","""event"",""trial"",""time""
""fullscreenenter"",""1"",""1776""
""blur"",""3"",""12512""
""focus"",""3"",""20794""
","""event"",""trial"",""time""
""blur"",""3"",""12512""
","""event"",""trial"",""time""
""focus"",""3"",""20794""
","""event"",""trial"",""time""
""fullscreenenter"",""1"",""1776""
","
","","","171.80000001192093","","","13","13358","5720","&#9776;","elianto","#3366ff99"," "," ","1","+10","[1022.9000000357628]","1","0","1","","","","","","","",""
"pit-trial","33","375244","0.0-2.0-8.2-3.2","battery-v0.2","","""event"",""trial"",""time""
""fullscreenenter"",""1"",""1776""
""blur"",""3"",""12512""
""focus"",""3"",""20794""
","""event"",""trial"",""time""
""blur"",""3"",""12512""
","""event"",""trial"",""time""
""focus"",""3"",""20794""
","""event"",""trial"",""time""
""fullscreenenter"",""1"",""1776""
","
","","","436.10000002384186","","","13","13358","5720","&#9776;","elianto","#3366ff99"," "," ","1","0","[1286.199999988079]","1","0","1","","","","","","","",""
"pit-trial","34","378292","0.0-2.0-8.2-4.2","battery-v0.2","","""event"",""trial"",""time""
""fullscreenenter"",""1"",""1776""
""blur"",""3"",""12512""
""focus"",""3"",""20794""
","""event"",""trial"",""time""
""blur"",""3"",""12512""
","""event"",""trial"",""time""
""focus"",""3"",""20794""
","""event"",""trial"",""time""
""fullscreenenter"",""1"",""1776""
","
","","","194.9000000357628","","","13","13358","5720","&#9776;","elianto","#3366ff99"," "," ","1","+10","[1045.300000011921,2966]","2","0","1","","","","","","","",""
"call-function","35","378294","0.0-2.0-9.0","battery-v0.2","","""event"",""trial"",""time""
""fullscreenenter"",""1"",""1776""
""blur"",""3"",""12512""
""focus"",""3"",""20794""
","""event"",""trial"",""time""
""blur"",""3"",""12512""
","""event"",""trial"",""time""
""focus"",""3"",""20794""
","""event"",""trial"",""time""
""fullscreenenter"",""1"",""1776""
","
","","","","","","","","","","","","","","","","","","","","","","","","","","",""
"pit-instructions","36","418236","0.0-2.0-10.0","battery-v0.2","","""event"",""trial"",""time""
""fullscreenenter"",""1"",""1776""
""blur"",""3"",""12512""
""focus"",""3"",""20794""
","""event"",""trial"",""time""
""blur"",""3"",""12512""
","""event"",""trial"",""time""
""focus"",""3"",""20794""
","""event"",""trial"",""time""
""fullscreenenter"",""1"",""1776""
","
","","[{""page_index"":0,""viewing_time"":5203.600000023842},{""page_index"":1,""viewing_time"":9271.399999976158},{""page_index"":2,""viewing_time"":9848.5},{""page_index"":3,""viewing_time"":8217.5},{""page_index"":4,""viewing_time"":7399.300000011921}]","39940.5","","","","","","","","","","","","","","","","","","","","","","","",""
"pit-trial","37","423118","0.0-2.0-11.0-0.0","battery-v0.2","","""event"",""trial"",""time""
""fullscreenenter"",""1"",""1776""
""blur"",""3"",""12512""
""focus"",""3"",""20794""
","""event"",""trial"",""time""
""blur"",""3"",""12512""
","""event"",""trial"",""time""
""focus"",""3"",""20794""
","""event"",""trial"",""time""
""fullscreenenter"",""1"",""1776""
","
","","","-1","","","13","13358","5720","&#9761;","elianto","#3366ff99","-1","-1","1","+10","[]","0","0","2","","","","","","","",""
"pit-trial","38","427976","0.0-2.0-11.0-1.0","battery-v0.2","","""event"",""trial"",""time""
""fullscreenenter"",""1"",""1776""
""blur"",""3"",""12512""
""focus"",""3"",""20794""
","""event"",""trial"",""time""
""blur"",""3"",""12512""
","""event"",""trial"",""time""
""focus"",""3"",""20794""
","""event"",""trial"",""time""
""fullscreenenter"",""1"",""1776""
","
","","","-1","","","13","13358","5720","&#9761;","elianto","#3366ff99","-1","-1","1","+10","[]","0","0","2","","","","","","","",""
"pit-trial","39","432837","0.0-2.0-11.0-2.0","battery-v0.2","","""event"",""trial"",""time""
""fullscreenenter"",""1"",""1776""
""blur"",""3"",""12512""
""focus"",""3"",""20794""
","""event"",""trial"",""time""
""blur"",""3"",""12512""
","""event"",""trial"",""time""
""focus"",""3"",""20794""
","""event"",""trial"",""time""
""fullscreenenter"",""1"",""1776""
","
","","","-1","","","13","13358","5720","&#9761;","elianto","#3366ff99","-1","-1","1","+10","[]","0","0","2","","","","","","","",""
"pit-trial","40","437712","0.0-2.0-11.0-3.0","battery-v0.2","","""event"",""trial"",""time""
""fullscreenenter"",""1"",""1776""
""blur"",""3"",""12512""
""focus"",""3"",""20794""
","""event"",""trial"",""time""
""blur"",""3"",""12512""
","""event"",""trial"",""time""
""focus"",""3"",""20794""
","""event"",""trial"",""time""
""fullscreenenter"",""1"",""1776""
","
","","","-1","","","13","13358","5720","&#9761;","elianto","#3366ff99","-1","-1","1","0","[]","0","0","2","","","","","","","",""
"pit-trial","41","442578","0.0-2.0-11.0-4.0","battery-v0.2","","""event"",""trial"",""time""
""fullscreenenter"",""1"",""1776""
""blur"",""3"",""12512""
""focus"",""3"",""20794""
","""event"",""trial"",""time""
""blur"",""3"",""12512""
","""event"",""trial"",""time""
""focus"",""3"",""20794""
","""event"",""trial"",""time""
""fullscreenenter"",""1"",""1776""
","
","","","-1","","","13","13358","5720","&#9761;","elianto","#3366ff99","-1","-1","1","+10","[]","0","0","2","","","","","","","",""
"pit-trial","42","447438","0.0-2.0-11.1-0.1","battery-v0.2","","""event"",""trial"",""time""
""fullscreenenter"",""1"",""1776""
""blur"",""3"",""12512""
""focus"",""3"",""20794""
","""event"",""trial"",""time""
""blur"",""3"",""12512""
","""event"",""trial"",""time""
""focus"",""3"",""20794""
","""event"",""trial"",""time""
""fullscreenenter"",""1"",""1776""
","
","","","-1","","","13","13358","5720","&#9761;","elianto","#3366ff99","-1","-1","1","+10","[]","0","0","2","","","","","","","",""
"pit-trial","43","452291","0.0-2.0-11.1-1.1","battery-v0.2","","""event"",""trial"",""time""
""fullscreenenter"",""1"",""1776""
""blur"",""3"",""12512""
""focus"",""3"",""20794""
","""event"",""trial"",""time""
""blur"",""3"",""12512""
","""event"",""trial"",""time""
""focus"",""3"",""20794""
","""event"",""trial"",""time""
""fullscreenenter"",""1"",""1776""
","
","","","-1","","","13","13358","5720","&#9761;","elianto","#3366ff99","-1","-1","1","+10","[]","0","0","2","","","","","","","",""
"pit-trial","44","457143","0.0-2.0-11.1-2.1","battery-v0.2","","""event"",""trial"",""time""
""fullscreenenter"",""1"",""1776""
""blur"",""3"",""12512""
""focus"",""3"",""20794""
","""event"",""trial"",""time""
""blur"",""3"",""12512""
","""event"",""trial"",""time""
""focus"",""3"",""20794""
","""event"",""trial"",""time""
""fullscreenenter"",""1"",""1776""
","
","","","-1","","","13","13358","5720","&#9761;","elianto","#3366ff99","-1","-1","1","+10","[]","0","0","2","","","","","","","",""
"pit-trial","45","461996","0.0-2.0-11.1-3.1","battery-v0.2","","""event"",""trial"",""time""
""fullscreenenter"",""1"",""1776""
""blur"",""3"",""12512""
""focus"",""3"",""20794""
","""event"",""trial"",""time""
""blur"",""3"",""12512""
","""event"",""trial"",""time""
""focus"",""3"",""20794""
","""event"",""trial"",""time""
""fullscreenenter"",""1"",""1776""
","
","","","-1","","","13","13358","5720","&#9761;","elianto","#3366ff99","-1","-1","1","0","[]","0","0","2","","","","","","","",""
"pit-trial","46","466849","0.0-2.0-11.1-4.1","battery-v0.2","","""event"",""trial"",""time""
""fullscreenenter"",""1"",""1776""
""blur"",""3"",""12512""
""focus"",""3"",""20794""
","""event"",""trial"",""time""
""blur"",""3"",""12512""
","""event"",""trial"",""time""
""focus"",""3"",""20794""
","""event"",""trial"",""time""
""fullscreenenter"",""1"",""1776""
","
","","","-1","","","13","13358","5720","&#9761;","elianto","#3366ff99","-1","-1","1","+10","[]","0","0","2","","","","","","","",""
"pit-trial","47","471704","0.0-2.0-11.2-0.2","battery-v0.2","","""event"",""trial"",""time""
""fullscreenenter"",""1"",""1776""
""blur"",""3"",""12512""
""focus"",""3"",""20794""
","""event"",""trial"",""time""
""blur"",""3"",""12512""
","""event"",""trial"",""time""
""focus"",""3"",""20794""
","""event"",""trial"",""time""
""fullscreenenter"",""1"",""1776""
","
","","","-1","","","13","13358","5720","&#9761;","elianto","#3366ff99","-1","-1","1","+10","[]","0","0","2","","","","","","","",""
"pit-trial","48","476556","0.0-2.0-11.2-1.2","battery-v0.2","","""event"",""trial"",""time""
""fullscreenenter"",""1"",""1776""
""blur"",""3"",""12512""
""focus"",""3"",""20794""
","""event"",""trial"",""time""
""blur"",""3"",""12512""
","""event"",""trial"",""time""
""focus"",""3"",""20794""
","""event"",""trial"",""time""
""fullscreenenter"",""1"",""1776""
","
","","","-1","","","13","13358","5720","&#9761;","elianto","#3366ff99","-1","-1","1","+10","[]","0","0","2","","","","","","","",""
"pit-trial","49","481409","0.0-2.0-11.2-2.2","battery-v0.2","","""event"",""trial"",""time""
""fullscreenenter"",""1"",""1776""
""blur"",""3"",""12512""
""focus"",""3"",""20794""
","""event"",""trial"",""time""
""blur"",""3"",""12512""
","""event"",""trial"",""time""
""focus"",""3"",""20794""
","""event"",""trial"",""time""
""fullscreenenter"",""1"",""1776""
","
","","","-1","","","13","13358","5720","&#9761;","elianto","#3366ff99","-1","-1","1","+10","[]","0","0","2","","","","","","","",""
"pit-trial","50","486263","0.0-2.0-11.2-3.2","battery-v0.2","","""event"",""trial"",""time""
""fullscreenenter"",""1"",""1776""
""blur"",""3"",""12512""
""focus"",""3"",""20794""
","""event"",""trial"",""time""
""blur"",""3"",""12512""
","""event"",""trial"",""time""
""focus"",""3"",""20794""
","""event"",""trial"",""time""
""fullscreenenter"",""1"",""1776""
","
","","","-1","","","13","13358","5720","&#9761;","elianto","#3366ff99","-1","-1","1","0","[]","0","0","2","","","","","","","",""
"pit-trial","51","491116","0.0-2.0-11.2-4.2","battery-v0.2","","""event"",""trial"",""time""
""fullscreenenter"",""1"",""1776""
""blur"",""3"",""12512""
""focus"",""3"",""20794""
","""event"",""trial"",""time""
""blur"",""3"",""12512""
","""event"",""trial"",""time""
""focus"",""3"",""20794""
","""event"",""trial"",""time""
""fullscreenenter"",""1"",""1776""
","
","","","-1","","","13","13358","5720","&#9761;","elianto","#3366ff99","-1","-1","1","+10","[]","0","0","2","","","","","","","",""
"pit-trial","52","495970","0.0-2.0-11.3-0.3","battery-v0.2","","""event"",""trial"",""time""
""fullscreenenter"",""1"",""1776""
""blur"",""3"",""12512""
""focus"",""3"",""20794""
","""event"",""trial"",""time""
""blur"",""3"",""12512""
","""event"",""trial"",""time""
""focus"",""3"",""20794""
","""event"",""trial"",""time""
""fullscreenenter"",""1"",""1776""
","
","","","-1","","","13","13358","5720","&#9761;","elianto","#3366ff99","-1","-1","1","+10","[]","0","0","2","","","","","","","",""
"pit-trial","53","500823","0.0-2.0-11.3-1.3","battery-v0.2","","""event"",""trial"",""time""
""fullscreenenter"",""1"",""1776""
""blur"",""3"",""12512""
""focus"",""3"",""20794""
","""event"",""trial"",""time""
""blur"",""3"",""12512""
","""event"",""trial"",""time""
""focus"",""3"",""20794""
","""event"",""trial"",""time""
""fullscreenenter"",""1"",""1776""
","
","","","-1","","","13","13358","5720","&#9761;","elianto","#3366ff99","-1","-1","1","+10","[]","0","0","2","","","","","","","",""
"pit-trial","54","505676","0.0-2.0-11.3-2.3","battery-v0.2","","""event"",""trial"",""time""
""fullscreenenter"",""1"",""1776""
""blur"",""3"",""12512""
""focus"",""3"",""20794""
","""event"",""trial"",""time""
""blur"",""3"",""12512""
","""event"",""trial"",""time""
""focus"",""3"",""20794""
","""event"",""trial"",""time""
""fullscreenenter"",""1"",""1776""
","
","","","-1","","","13","13358","5720","&#9761;","elianto","#3366ff99","-1","-1","1","+10","[]","0","0","2","","","","","","","",""
"pit-trial","55","510529","0.0-2.0-11.3-3.3","battery-v0.2","","""event"",""trial"",""time""
""fullscreenenter"",""1"",""1776""
""blur"",""3"",""12512""
""focus"",""3"",""20794""
","""event"",""trial"",""time""
""blur"",""3"",""12512""
","""event"",""trial"",""time""
""focus"",""3"",""20794""
","""event"",""trial"",""time""
""fullscreenenter"",""1"",""1776""
","
","","","-1","","","13","13358","5720","&#9761;","elianto","#3366ff99","-1","-1","1","0","[]","0","0","2","","","","","","","",""
"pit-trial","56","515384","0.0-2.0-11.3-4.3","battery-v0.2","","""event"",""trial"",""time""
""fullscreenenter"",""1"",""1776""
""blur"",""3"",""12512""
""focus"",""3"",""20794""
","""event"",""trial"",""time""
""blur"",""3"",""12512""
","""event"",""trial"",""time""
""focus"",""3"",""20794""
","""event"",""trial"",""time""
""fullscreenenter"",""1"",""1776""
","
","","","-1","","","13","13358","5720","&#9761;","elianto","#3366ff99","-1","-1","1","+10","[]","0","0","2","","","","","","","",""
"call-function","57","515386","0.0-2.0-12.0","battery-v0.2","","""event"",""trial"",""time""
""fullscreenenter"",""1"",""1776""
""blur"",""3"",""12512""
""focus"",""3"",""20794""
""blur"",""58"",""527122""
""focus"",""58"",""547127""
","""event"",""trial"",""time""
""blur"",""3"",""12512""
""blur"",""58"",""527122""
","""event"",""trial"",""time""
""focus"",""3"",""20794""
""focus"",""58"",""547127""
","""event"",""trial"",""time""
""fullscreenenter"",""1"",""1776""
","
","","","","","","","","","","","","","","","","","","","","","","","","","","",""
"pit-instructions","58","588115","0.0-2.0-13.0","battery-v0.2","","""event"",""trial"",""time""
""fullscreenenter"",""1"",""1776""
""blur"",""3"",""12512""
""focus"",""3"",""20794""
""blur"",""58"",""527122""
""focus"",""58"",""547127""
","""event"",""trial"",""time""
""blur"",""3"",""12512""
""blur"",""58"",""527122""
","""event"",""trial"",""time""
""focus"",""3"",""20794""
""focus"",""58"",""547127""
","""event"",""trial"",""time""
""fullscreenenter"",""1"",""1776""
","
","","[{""page_index"":0,""viewing_time"":45512.40000003576},{""page_index"":1,""viewing_time"":9743.699999988079},{""page_index"":2,""viewing_time"":3168},{""page_index"":3,""viewing_time"":10040.399999976158},{""page_index"":4,""viewing_time"":4263.600000023842}]","72728.19999998808","","","","","","","","","","","","","","","","","","","","","","","",""
"pit-trial","59","592992","0.0-2.0-14.0-0.0","battery-v0.2","","""event"",""trial"",""time""
""fullscreenenter"",""1"",""1776""
""blur"",""3"",""12512""
""focus"",""3"",""20794""
""blur"",""58"",""527122""
""focus"",""58"",""547127""
","""event"",""trial"",""time""
""blur"",""3"",""12512""
""blur"",""58"",""527122""
","""event"",""trial"",""time""
""focus"",""3"",""20794""
""focus"",""58"",""547127""
","""event"",""trial"",""time""
""fullscreenenter"",""1"",""1776""
","
","","","-1","","","13","13358","5720","&#9826;","elianto","#f73b6a7A","-1","-1","1","0","[]","0","0","3","","","","","","","",""
"pit-trial","60","597858","0.0-2.0-14.0-1.0","battery-v0.2","","""event"",""trial"",""time""
""fullscreenenter"",""1"",""1776""
""blur"",""3"",""12512""
""focus"",""3"",""20794""
""blur"",""58"",""527122""
""focus"",""58"",""547127""
","""event"",""trial"",""time""
""blur"",""3"",""12512""
""blur"",""58"",""527122""
","""event"",""trial"",""time""
""focus"",""3"",""20794""
""focus"",""58"",""547127""
","""event"",""trial"",""time""
""fullscreenenter"",""1"",""1776""
","
","","","-1","","","13","13358","5720","&#9826;","elianto","#f73b6a7A","-1","-1","1","0","[]","0","0","3","","","","","","","",""
"pit-trial","61","602718","0.0-2.0-14.0-2.0","battery-v0.2","","""event"",""trial"",""time""
""fullscreenenter"",""1"",""1776""
""blur"",""3"",""12512""
""focus"",""3"",""20794""
""blur"",""58"",""527122""
""focus"",""58"",""547127""
","""event"",""trial"",""time""
""blur"",""3"",""12512""
""blur"",""58"",""527122""
","""event"",""trial"",""time""
""focus"",""3"",""20794""
""focus"",""58"",""547127""
","""event"",""trial"",""time""
""fullscreenenter"",""1"",""1776""
","
","","","-1","","","13","13358","5720","&#9826;","elianto","#f73b6a7A","-1","-1","1","0","[]","0","0","3","","","","","","","",""
"pit-trial","62","607577","0.0-2.0-14.0-3.0","battery-v0.2","","""event"",""trial"",""time""
""fullscreenenter"",""1"",""1776""
""blur"",""3"",""12512""
""focus"",""3"",""20794""
""blur"",""58"",""527122""
""focus"",""58"",""547127""
","""event"",""trial"",""time""
""blur"",""3"",""12512""
""blur"",""58"",""527122""
","""event"",""trial"",""time""
""focus"",""3"",""20794""
""focus"",""58"",""547127""
","""event"",""trial"",""time""
""fullscreenenter"",""1"",""1776""
","
","","","-1","","","13","13358","5720","&#9826;","elianto","#f73b6a7A","-1","-1","1","-10","[]","0","0","3","","","","","","","",""
"pit-trial","63","612438","0.0-2.0-14.0-4.0","battery-v0.2","","""event"",""trial"",""time""
""fullscreenenter"",""1"",""1776""
""blur"",""3"",""12512""
""focus"",""3"",""20794""
""blur"",""58"",""527122""
""focus"",""58"",""547127""
","""event"",""trial"",""time""
""blur"",""3"",""12512""
""blur"",""58"",""527122""
","""event"",""trial"",""time""
""focus"",""3"",""20794""
""focus"",""58"",""547127""
","""event"",""trial"",""time""
""fullscreenenter"",""1"",""1776""
","
","","","-1","","","13","13358","5720","&#9826;","elianto","#f73b6a7A","-1","-1","1","0","[]","0","0","3","","","","","","","",""
"pit-trial","64","617314","0.0-2.0-14.1-0.1","battery-v0.2","","""event"",""trial"",""time""
""fullscreenenter"",""1"",""1776""
""blur"",""3"",""12512""
""focus"",""3"",""20794""
""blur"",""58"",""527122""
""focus"",""58"",""547127""
","""event"",""trial"",""time""
""blur"",""3"",""12512""
""blur"",""58"",""527122""
","""event"",""trial"",""time""
""focus"",""3"",""20794""
""focus"",""58"",""547127""
","""event"",""trial"",""time""
""fullscreenenter"",""1"",""1776""
","
","","","-1","","","13","13358","5720","&#9826;","elianto","#f73b6a7A","-1","-1","1","0","[]","0","0","3","","","","","","","",""
"pit-trial","65","622167","0.0-2.0-14.1-1.1","battery-v0.2","","""event"",""trial"",""time""
""fullscreenenter"",""1"",""1776""
""blur"",""3"",""12512""
""focus"",""3"",""20794""
""blur"",""58"",""527122""
""focus"",""58"",""547127""
","""event"",""trial"",""time""
""blur"",""3"",""12512""
""blur"",""58"",""527122""
","""event"",""trial"",""time""
""focus"",""3"",""20794""
""focus"",""58"",""547127""
","""event"",""trial"",""time""
""fullscreenenter"",""1"",""1776""
","
","","","-1","","","13","13358","5720","&#9826;","elianto","#f73b6a7A","-1","-1","1","0","[]","0","0","3","","","","","","","",""
"pit-trial","66","627020","0.0-2.0-14.1-2.1","battery-v0.2","","""event"",""trial"",""time""
""fullscreenenter"",""1"",""1776""
""blur"",""3"",""12512""
""focus"",""3"",""20794""
""blur"",""58"",""527122""
""focus"",""58"",""547127""
","""event"",""trial"",""time""
""blur"",""3"",""12512""
""blur"",""58"",""527122""
","""event"",""trial"",""time""
""focus"",""3"",""20794""
""focus"",""58"",""547127""
","""event"",""trial"",""time""
""fullscreenenter"",""1"",""1776""
","
","","","-1","","","13","13358","5720","&#9826;","elianto","#f73b6a7A","-1","-1","1","0","[]","0","0","3","","","","","","","",""
"pit-trial","67","631873","0.0-2.0-14.1-3.1","battery-v0.2","","""event"",""trial"",""time""
""fullscreenenter"",""1"",""1776""
""blur"",""3"",""12512""
""focus"",""3"",""20794""
""blur"",""58"",""527122""
""focus"",""58"",""547127""
","""event"",""trial"",""time""
""blur"",""3"",""12512""
""blur"",""58"",""527122""
","""event"",""trial"",""time""
""focus"",""3"",""20794""
""focus"",""58"",""547127""
","""event"",""trial"",""time""
""fullscreenenter"",""1"",""1776""
","
","","","-1","","","13","13358","5720","&#9826;","elianto","#f73b6a7A","-1","-1","1","-10","[]","0","0","3","","","","","","","",""
"pit-trial","68","636727","0.0-2.0-14.1-4.1","battery-v0.2","","""event"",""trial"",""time""
""fullscreenenter"",""1"",""1776""
""blur"",""3"",""12512""
""focus"",""3"",""20794""
""blur"",""58"",""527122""
""focus"",""58"",""547127""
","""event"",""trial"",""time""
""blur"",""3"",""12512""
""blur"",""58"",""527122""
","""event"",""trial"",""time""
""focus"",""3"",""20794""
""focus"",""58"",""547127""
","""event"",""trial"",""time""
""fullscreenenter"",""1"",""1776""
","
","","","-1","","","13","13358","5720","&#9826;","elianto","#f73b6a7A","-1","-1","1","0","[]","0","0","3","","","","","","","",""
"pit-trial","69","641581","0.0-2.0-14.2-0.2","battery-v0.2","","""event"",""trial"",""time""
""fullscreenenter"",""1"",""1776""
""blur"",""3"",""12512""
""focus"",""3"",""20794""
""blur"",""58"",""527122""
""focus"",""58"",""547127""
","""event"",""trial"",""time""
""blur"",""3"",""12512""
""blur"",""58"",""527122""
","""event"",""trial"",""time""
""focus"",""3"",""20794""
""focus"",""58"",""547127""
","""event"",""trial"",""time""
""fullscreenenter"",""1"",""1776""
","
","","","-1","","","13","13358","5720","&#9826;","elianto","#f73b6a7A","-1","-1","1","0","[]","0","0","3","","","","","","","",""
"pit-trial","70","646434","0.0-2.0-14.2-1.2","battery-v0.2","","""event"",""trial"",""time""
""fullscreenenter"",""1"",""1776""
""blur"",""3"",""12512""
""focus"",""3"",""20794""
""blur"",""58"",""527122""
""focus"",""58"",""547127""
","""event"",""trial"",""time""
""blur"",""3"",""12512""
""blur"",""58"",""527122""
","""event"",""trial"",""time""
""focus"",""3"",""20794""
""focus"",""58"",""547127""
","""event"",""trial"",""time""
""fullscreenenter"",""1"",""1776""
","
","","","-1","","","13","13358","5720","&#9826;","elianto","#f73b6a7A","-1","-1","1","0","[]","0","0","3","","","","","","","",""
"pit-trial","71","651287","0.0-2.0-14.2-2.2","battery-v0.2","","""event"",""trial"",""time""
""fullscreenenter"",""1"",""1776""
""blur"",""3"",""12512""
""focus"",""3"",""20794""
""blur"",""58"",""527122""
""focus"",""58"",""547127""
","""event"",""trial"",""time""
""blur"",""3"",""12512""
""blur"",""58"",""527122""
","""event"",""trial"",""time""
""focus"",""3"",""20794""
""focus"",""58"",""547127""
","""event"",""trial"",""time""
""fullscreenenter"",""1"",""1776""
","
","","","-1","","","13","13358","5720","&#9826;","elianto","#f73b6a7A","-1","-1","1","0","[]","0","0","3","","","","","","","",""
"pit-trial","72","656140","0.0-2.0-14.2-3.2","battery-v0.2","","""event"",""trial"",""time""
""fullscreenenter"",""1"",""1776""
""blur"",""3"",""12512""
""focus"",""3"",""20794""
""blur"",""58"",""527122""
""focus"",""58"",""547127""
","""event"",""trial"",""time""
""blur"",""3"",""12512""
""blur"",""58"",""527122""
","""event"",""trial"",""time""
""focus"",""3"",""20794""
""focus"",""58"",""547127""
","""event"",""trial"",""time""
""fullscreenenter"",""1"",""1776""
","
","","","-1","","","13","13358","5720","&#9826;","elianto","#f73b6a7A","-1","-1","1","-10","[]","0","0","3","","","","","","","",""
"pit-trial","73","660992","0.0-2.0-14.2-4.2","battery-v0.2","","""event"",""trial"",""time""
""fullscreenenter"",""1"",""1776""
""blur"",""3"",""12512""
""focus"",""3"",""20794""
""blur"",""58"",""527122""
""focus"",""58"",""547127""
","""event"",""trial"",""time""
""blur"",""3"",""12512""
""blur"",""58"",""527122""
","""event"",""trial"",""time""
""focus"",""3"",""20794""
""focus"",""58"",""547127""
","""event"",""trial"",""time""
""fullscreenenter"",""1"",""1776""
","
","","","-1","","","13","13358","5720","&#9826;","elianto","#f73b6a7A","-1","-1","1","0","[]","0","0","3","","","","","","","",""
"pit-trial","74","665845","0.0-2.0-14.3-0.3","battery-v0.2","","""event"",""trial"",""time""
""fullscreenenter"",""1"",""1776""
""blur"",""3"",""12512""
""focus"",""3"",""20794""
""blur"",""58"",""527122""
""focus"",""58"",""547127""
","""event"",""trial"",""time""
""blur"",""3"",""12512""
""blur"",""58"",""527122""
","""event"",""trial"",""time""
""focus"",""3"",""20794""
""focus"",""58"",""547127""
","""event"",""trial"",""time""
""fullscreenenter"",""1"",""1776""
","
","","","-1","","","13","13358","5720","&#9826;","elianto","#f73b6a7A","-1","-1","1","0","[]","0","0","3","","","","","","","",""
"pit-trial","75","670708","0.0-2.0-14.3-1.3","battery-v0.2","","""event"",""trial"",""time""
""fullscreenenter"",""1"",""1776""
""blur"",""3"",""12512""
""focus"",""3"",""20794""
""blur"",""58"",""527122""
""focus"",""58"",""547127""
","""event"",""trial"",""time""
""blur"",""3"",""12512""
""blur"",""58"",""527122""
","""event"",""trial"",""time""
""focus"",""3"",""20794""
""focus"",""58"",""547127""
","""event"",""trial"",""time""
""fullscreenenter"",""1"",""1776""
","
","","","-1","","","13","13358","5720","&#9826;","elianto","#f73b6a7A","-1","-1","1","0","[]","0","0","3","","","","","","","",""
"pit-trial","76","675566","0.0-2.0-14.3-2.3","battery-v0.2","","""event"",""trial"",""time""
""fullscreenenter"",""1"",""1776""
""blur"",""3"",""12512""
""focus"",""3"",""20794""
""blur"",""58"",""527122""
""focus"",""58"",""547127""
","""event"",""trial"",""time""
""blur"",""3"",""12512""
""blur"",""58"",""527122""
","""event"",""trial"",""time""
""focus"",""3"",""20794""
""focus"",""58"",""547127""
","""event"",""trial"",""time""
""fullscreenenter"",""1"",""1776""
","
","","","-1","","","13","13358","5720","&#9826;","elianto","#f73b6a7A","-1","-1","1","0","[]","0","0","3","","","","","","","",""
"pit-trial","77","680419","0.0-2.0-14.3-3.3","battery-v0.2","","""event"",""trial"",""time""
""fullscreenenter"",""1"",""1776""
""blur"",""3"",""12512""
""focus"",""3"",""20794""
""blur"",""58"",""527122""
""focus"",""58"",""547127""
","""event"",""trial"",""time""
""blur"",""3"",""12512""
""blur"",""58"",""527122""
","""event"",""trial"",""time""
""focus"",""3"",""20794""
""focus"",""58"",""547127""
","""event"",""trial"",""time""
""fullscreenenter"",""1"",""1776""
","
","","","-1","","","13","13358","5720","&#9826;","elianto","#f73b6a7A","-1","-1","1","-10","[]","0","0","3","","","","","","","",""
"pit-trial","78","685272","0.0-2.0-14.3-4.3","battery-v0.2","","""event"",""trial"",""time""
""fullscreenenter"",""1"",""1776""
""blur"",""3"",""12512""
""focus"",""3"",""20794""
""blur"",""58"",""527122""
""focus"",""58"",""547127""
","""event"",""trial"",""time""
""blur"",""3"",""12512""
""blur"",""58"",""527122""
","""event"",""trial"",""time""
""focus"",""3"",""20794""
""focus"",""58"",""547127""
","""event"",""trial"",""time""
""fullscreenenter"",""1"",""1776""
","
","","","-1","","","13","13358","5720","&#9826;","elianto","#f73b6a7A","-1","-1","1","0","[]","0","0","3","","","","","","","",""
"call-function","79","685274","0.0-2.0-15.0","battery-v0.2","","""event"",""trial"",""time""
""fullscreenenter"",""1"",""1776""
""blur"",""3"",""12512""
""focus"",""3"",""20794""
""blur"",""58"",""527122""
""focus"",""58"",""547127""
","""event"",""trial"",""time""
""blur"",""3"",""12512""
""blur"",""58"",""527122""
","""event"",""trial"",""time""
""focus"",""3"",""20794""
""focus"",""58"",""547127""
","""event"",""trial"",""time""
""fullscreenenter"",""1"",""1776""
","
","","","","","","","","","","","","","","","","","","","","","","","","","","",""
"pit-instructions","80","713427","0.0-2.0-16.0","battery-v0.2","","""event"",""trial"",""time""
""fullscreenenter"",""1"",""1776""
""blur"",""3"",""12512""
""focus"",""3"",""20794""
""blur"",""58"",""527122""
""focus"",""58"",""547127""
","""event"",""trial"",""time""
""blur"",""3"",""12512""
""blur"",""58"",""527122""
","""event"",""trial"",""time""
""focus"",""3"",""20794""
""focus"",""58"",""547127""
","""event"",""trial"",""time""
""fullscreenenter"",""1"",""1776""
","
","","[{""page_index"":0,""viewing_time"":9401},{""page_index"":1,""viewing_time"":9800.5},{""page_index"":2,""viewing_time"":4752.199999988079},{""page_index"":3,""viewing_time"":4198.400000035763}]","28152.30000001192","","","","","","","","","","","","","","","","","","","","","","","",""
"pit-trial","81","716855","0.0-2.0-17.0-0.0","battery-v0.2","","""event"",""trial"",""time""
""fullscreenenter"",""1"",""1776""
""blur"",""3"",""12512""
""focus"",""3"",""20794""
""blur"",""58"",""527122""
""focus"",""58"",""547127""
","""event"",""trial"",""time""
""blur"",""3"",""12512""
""blur"",""58"",""527122""
","""event"",""trial"",""time""
""focus"",""3"",""20794""
""focus"",""58"",""547127""
","""event"",""trial"",""time""
""fullscreenenter"",""1"",""1776""
","
","","","557.3999999761581","","","13","13358","5720","&#9789;","elianto","#f73b6a7A"," "," ","1","0","[1416.5]","1","0","4","","","","","","","",""
"pit-trial","82","720131","0.0-2.0-17.0-1.0","battery-v0.2","","""event"",""trial"",""time""
""fullscreenenter"",""1"",""1776""
""blur"",""3"",""12512""
""focus"",""3"",""20794""
""blur"",""58"",""527122""
""focus"",""58"",""547127""
","""event"",""trial"",""time""
""blur"",""3"",""12512""
""blur"",""58"",""527122""
","""event"",""trial"",""time""
""focus"",""3"",""20794""
""focus"",""58"",""547127""
","""event"",""trial"",""time""
""fullscreenenter"",""1"",""1776""
","
","","","404.19999998807907","","","13","13358","5720","&#9789;","elianto","#f73b6a7A"," "," ","1","0","[1267.300000011921]","1","0","4","","","","","","","",""
"pit-trial","83","723361","0.0-2.0-17.0-2.0","battery-v0.2","","""event"",""trial"",""time""
""fullscreenenter"",""1"",""1776""
""blur"",""3"",""12512""
""focus"",""3"",""20794""
""blur"",""58"",""527122""
""focus"",""58"",""547127""
","""event"",""trial"",""time""
""blur"",""3"",""12512""
""blur"",""58"",""527122""
","""event"",""trial"",""time""
""focus"",""3"",""20794""
""focus"",""58"",""547127""
","""event"",""trial"",""time""
""fullscreenenter"",""1"",""1776""
","
","","","372.80000001192093","","","13","13358","5720","&#9789;","elianto","#f73b6a7A"," "," ","1","0","[1223.300000011921]","1","0","4","","","","","","","",""
"pit-trial","84","726659","0.0-2.0-17.0-3.0","battery-v0.2","","""event"",""trial"",""time""
""fullscreenenter"",""1"",""1776""
""blur"",""3"",""12512""
""focus"",""3"",""20794""
""blur"",""58"",""527122""
""focus"",""58"",""547127""
","""event"",""trial"",""time""
""blur"",""3"",""12512""
""blur"",""58"",""527122""
","""event"",""trial"",""time""
""focus"",""3"",""20794""
""focus"",""58"",""547127""
","""event"",""trial"",""time""
""fullscreenenter"",""1"",""1776""
","
","","","437.9000000357628","","","13","13358","5720","&#9789;","elianto","#f73b6a7A"," "," ","1","-10","[1289.2000000476837]","1","0","4","","","","","","","",""
"pit-trial","85","729873","0.0-2.0-17.0-4.0","battery-v0.2","","""event"",""trial"",""time""
""fullscreenenter"",""1"",""1776""
""blur"",""3"",""12512""
""focus"",""3"",""20794""
""blur"",""58"",""527122""
""focus"",""58"",""547127""
","""event"",""trial"",""time""
""blur"",""3"",""12512""
""blur"",""58"",""527122""
","""event"",""trial"",""time""
""focus"",""3"",""20794""
""focus"",""58"",""547127""
","""event"",""trial"",""time""
""fullscreenenter"",""1"",""1776""
","
","","","355.30000001192093","","","13","13358","5720","&#9789;","elianto","#f73b6a7A"," "," ","1","0","[1207.300000011921]","1","0","4","","","","","","","",""
"pit-trial","86","733069","0.0-2.0-17.1-0.1","battery-v0.2","","""event"",""trial"",""time""
""fullscreenenter"",""1"",""1776""
""blur"",""3"",""12512""
""focus"",""3"",""20794""
""blur"",""58"",""527122""
""focus"",""58"",""547127""
","""event"",""trial"",""time""
""blur"",""3"",""12512""
""blur"",""58"",""527122""
","""event"",""trial"",""time""
""focus"",""3"",""20794""
""focus"",""58"",""547127""
","""event"",""trial"",""time""
""fullscreenenter"",""1"",""1776""
","
","","","341.19999998807907","","","13","13358","5720","&#9789;","elianto","#f73b6a7A"," "," ","1","0","[1192.800000011921]","1","0","4","","","","","","","",""
"pit-trial","87","736235","0.0-2.0-17.1-1.1","battery-v0.2","","""event"",""trial"",""time""
""fullscreenenter"",""1"",""1776""
""blur"",""3"",""12512""
""focus"",""3"",""20794""
""blur"",""58"",""527122""
""focus"",""58"",""547127""
","""event"",""trial"",""time""
""blur"",""3"",""12512""
""blur"",""58"",""527122""
","""event"",""trial"",""time""
""focus"",""3"",""20794""
""focus"",""58"",""547127""
","""event"",""trial"",""time""
""fullscreenenter"",""1"",""1776""
","
","","","295.30000001192093","","","13","13358","5720","&#9789;","elianto","#f73b6a7A"," "," ","1","0","[1149.3999999761581]","1","0","4","","","","","","","",""
"pit-trial","88","739980","0.0-2.0-17.1-2.1","battery-v0.2","","""event"",""trial"",""time""
""fullscreenenter"",""1"",""1776""
""blur"",""3"",""12512""
""focus"",""3"",""20794""
""blur"",""58"",""527122""
""focus"",""58"",""547127""
","""event"",""trial"",""time""
""blur"",""3"",""12512""
""blur"",""58"",""527122""
","""event"",""trial"",""time""
""focus"",""3"",""20794""
""focus"",""58"",""547127""
","""event"",""trial"",""time""
""fullscreenenter"",""1"",""1776""
","
","","","872.8000000119209","","","13","13358","5720","&#9789;","elianto","#f73b6a7A"," "," ","1","0","[1728.5]","1","0","4","","","","","","","",""
"pit-trial","89","743701","0.0-2.0-17.1-3.1","battery-v0.2","","""event"",""trial"",""time""
""fullscreenenter"",""1"",""1776""
""blur"",""3"",""12512""
""focus"",""3"",""20794""
""blur"",""58"",""527122""
""focus"",""58"",""547127""
","""event"",""trial"",""time""
""blur"",""3"",""12512""
""blur"",""58"",""527122""
","""event"",""trial"",""time""
""focus"",""3"",""20794""
""focus"",""58"",""547127""
","""event"",""trial"",""time""
""fullscreenenter"",""1"",""1776""
","
","","","863.4000000357628","","","13","13358","5720","&#9789;","elianto","#f73b6a7A"," "," ","1","-10","[1718.800000011921]","1","0","4","","","","","","","",""
"pit-trial","90","746893","0.0-2.0-17.1-4.1","battery-v0.2","","""event"",""trial"",""time""
""fullscreenenter"",""1"",""1776""
""blur"",""3"",""12512""
""focus"",""3"",""20794""
""blur"",""58"",""527122""
""focus"",""58"",""547127""
","""event"",""trial"",""time""
""blur"",""3"",""12512""
""blur"",""58"",""527122""
","""event"",""trial"",""time""
""focus"",""3"",""20794""
""focus"",""58"",""547127""
","""event"",""trial"",""time""
""fullscreenenter"",""1"",""1776""
","
","","","338.60000002384186","","","13","13358","5720","&#9789;","elianto","#f73b6a7A"," "," ","1","0","[1188.8999999761581,1509.0999999642372]","2","0","4","","","","","","","",""
"pit-trial","91","750046","0.0-2.0-17.2-0.2","battery-v0.2","","""event"",""trial"",""time""
""fullscreenenter"",""1"",""1776""
""blur"",""3"",""12512""
""focus"",""3"",""20794""
""blur"",""58"",""527122""
""focus"",""58"",""547127""
","""event"",""trial"",""time""
""blur"",""3"",""12512""
""blur"",""58"",""527122""
","""event"",""trial"",""time""
""focus"",""3"",""20794""
""focus"",""58"",""547127""
","""event"",""trial"",""time""
""fullscreenenter"",""1"",""1776""
","
","","","298.5","","","13","13358","5720","&#9789;","elianto","#f73b6a7A"," "," ","1","0","[1149.5999999642372,1509.3999999761581]","2","0","4","","","","","","","",""
"pit-trial","92","753349","0.0-2.0-17.2-1.2","battery-v0.2","","""event"",""trial"",""time""
""fullscreenenter"",""1"",""1776""
""blur"",""3"",""12512""
""focus"",""3"",""20794""
""blur"",""58"",""527122""
""focus"",""58"",""547127""
","""event"",""trial"",""time""
""blur"",""3"",""12512""
""blur"",""58"",""527122""
","""event"",""trial"",""time""
""focus"",""3"",""20794""
""focus"",""58"",""547127""
","""event"",""trial"",""time""
""fullscreenenter"",""1"",""1776""
","
","","","450.80000001192093","","","13","13358","5720","&#9789;","elianto","#f73b6a7A"," "," ","1","0","[1301.1000000238419]","1","0","4","","","","","","","",""
"pit-trial","93","756773","0.0-2.0-17.2-2.2","battery-v0.2","","""event"",""trial"",""time""
""fullscreenenter"",""1"",""1776""
""blur"",""3"",""12512""
""focus"",""3"",""20794""
""blur"",""58"",""527122""
""focus"",""58"",""547127""
","""event"",""trial"",""time""
""blur"",""3"",""12512""
""blur"",""58"",""527122""
","""event"",""trial"",""time""
""focus"",""3"",""20794""
""focus"",""58"",""547127""
","""event"",""trial"",""time""
""fullscreenenter"",""1"",""1776""
","
","","","571.8999999761581","","","13","13358","5720","&#9789;","elianto","#f73b6a7A"," "," ","1","0","[1422.199999988079]","1","0","4","","","","","","","",""
"pit-trial","94","761626","0.0-2.0-17.2-3.2","battery-v0.2","","""event"",""trial"",""time""
""fullscreenenter"",""1"",""1776""
""blur"",""3"",""12512""
""focus"",""3"",""20794""
""blur"",""58"",""527122""
""focus"",""58"",""547127""
","""event"",""trial"",""time""
""blur"",""3"",""12512""
""blur"",""58"",""527122""
","""event"",""trial"",""time""
""focus"",""3"",""20794""
""focus"",""58"",""547127""
","""event"",""trial"",""time""
""fullscreenenter"",""1"",""1776""
","
","","","-1","","","13","13358","5720","&#9789;","elianto","#f73b6a7A"," ","-1","0","0","[4077.5,4342.600000023842,4693.199999988079]","3","0","4","","","","","","","",""
"pit-trial","95","766477","0.0-2.0-17.2-4.2","battery-v0.2","","""event"",""trial"",""time""
""fullscreenenter"",""1"",""1776""
""blur"",""3"",""12512""
""focus"",""3"",""20794""
""blur"",""58"",""527122""
""focus"",""58"",""547127""
","""event"",""trial"",""time""
""blur"",""3"",""12512""
""blur"",""58"",""527122""
","""event"",""trial"",""time""
""focus"",""3"",""20794""
""focus"",""58"",""547127""
","""event"",""trial"",""time""
""fullscreenenter"",""1"",""1776""
","
","","","1998.199999988079","","","13","13358","5720","&#9789;","elianto","#f73b6a7A"," "," ","1","0","[191.69999998807907,2848.400000035763,3071,3304]","4","0","4","","","","","","","",""
"pit-trial","96","769853","0.0-2.0-17.3-0.3","battery-v0.2","","""event"",""trial"",""time""
""fullscreenenter"",""1"",""1776""
""blur"",""3"",""12512""
""focus"",""3"",""20794""
""blur"",""58"",""527122""
""focus"",""58"",""547127""
","""event"",""trial"",""time""
""blur"",""3"",""12512""
""blur"",""58"",""527122""
","""event"",""trial"",""time""
""focus"",""3"",""20794""
""focus"",""58"",""547127""
","""event"",""trial"",""time""
""fullscreenenter"",""1"",""1776""
","
","","","523.3000000119209","","","13","13358","5720","&#9789;","elianto","#f73b6a7A"," "," ","1","0","[557.8999999761581,1374]","2","0","4","","","","","","","",""
"pit-trial","97","774005","0.0-2.0-17.3-1.3","battery-v0.2","","""event"",""trial"",""time""
""fullscreenenter"",""1"",""1776""
""blur"",""3"",""12512""
""focus"",""3"",""20794""
""blur"",""58"",""527122""
""focus"",""58"",""547127""
","""event"",""trial"",""time""
""blur"",""3"",""12512""
""blur"",""58"",""527122""
","""event"",""trial"",""time""
""focus"",""3"",""20794""
""focus"",""58"",""547127""
","""event"",""trial"",""time""
""fullscreenenter"",""1"",""1776""
","
","","","1300.0999999642372","","","13","13358","5720","&#9789;","elianto","#f73b6a7A"," "," ","1","0","[2150.399999976158,2486.5]","2","0","4","","","","","","","",""
"pit-trial","98","777397","0.0-2.0-17.3-2.3","battery-v0.2","","""event"",""trial"",""time""
""fullscreenenter"",""1"",""1776""
""blur"",""3"",""12512""
""focus"",""3"",""20794""
""blur"",""58"",""527122""
""focus"",""58"",""547127""
","""event"",""trial"",""time""
""blur"",""3"",""12512""
""blur"",""58"",""527122""
","""event"",""trial"",""time""
""focus"",""3"",""20794""
""focus"",""58"",""547127""
","""event"",""trial"",""time""
""fullscreenenter"",""1"",""1776""
","
","","","538.0999999642372","","","13","13358","5720","&#9789;","elianto","#f73b6a7A"," "," ","1","0","[1389.0999999642372,2797.599999964237]","2","0","4","","","","","","","",""
"pit-trial","99","780638","0.0-2.0-17.3-3.3","battery-v0.2","","""event"",""trial"",""time""
""fullscreenenter"",""1"",""1776""
""blur"",""3"",""12512""
""focus"",""3"",""20794""
""blur"",""58"",""527122""
""focus"",""58"",""547127""
","""event"",""trial"",""time""
""blur"",""3"",""12512""
""blur"",""58"",""527122""
","""event"",""trial"",""time""
""focus"",""3"",""20794""
""focus"",""58"",""547127""
","""event"",""trial"",""time""
""fullscreenenter"",""1"",""1776""
","
","","","387.89999997615814","","","13","13358","5720","&#9789;","elianto","#f73b6a7A"," "," ","1","-10","[485.19999998807907,1238.2999999523163,2294.099999964237,2838]","4","0","4","","","","","","","",""
"pit-trial","100","783773","0.0-2.0-17.3-4.3","battery-v0.2","","""event"",""trial"",""time""
""fullscreenenter"",""1"",""1776""
""blur"",""3"",""12512""
""focus"",""3"",""20794""
""blur"",""58"",""527122""
""focus"",""58"",""547127""
","""event"",""trial"",""time""
""blur"",""3"",""12512""
""blur"",""58"",""527122""
","""event"",""trial"",""time""
""focus"",""3"",""20794""
""focus"",""58"",""547127""
","""event"",""trial"",""time""
""fullscreenenter"",""1"",""1776""
","
","","","282.30000001192093","","","13","13358","5720","&#9789;","elianto","#f73b6a7A"," "," ","1","0","[75.80000001192093,515.6999999880791,1132.699999988079]","3","0","4","","","","","","","",""
"call-function","101","783775","0.0-2.0-18.0","battery-v0.2","","""event"",""trial"",""time""
""fullscreenenter"",""1"",""1776""
""blur"",""3"",""12512""
""focus"",""3"",""20794""
""blur"",""58"",""527122""
""focus"",""58"",""547127""
","""event"",""trial"",""time""
""blur"",""3"",""12512""
""blur"",""58"",""527122""
","""event"",""trial"",""time""
""focus"",""3"",""20794""
""focus"",""58"",""547127""
","""event"",""trial"",""time""
""fullscreenenter"",""1"",""1776""
","
","","","","","","","","","","","","","","","","","","","","","","","","","","",""
"pit-instructions","102","858124","0.0-2.0-19.0","battery-v0.2","","""event"",""trial"",""time""
""fullscreenenter"",""1"",""1776""
""blur"",""3"",""12512""
""focus"",""3"",""20794""
""blur"",""58"",""527122""
""focus"",""58"",""547127""
","""event"",""trial"",""time""
""blur"",""3"",""12512""
""blur"",""58"",""527122""
","""event"",""trial"",""time""
""focus"",""3"",""20794""
""focus"",""58"",""547127""
","""event"",""trial"",""time""
""fullscreenenter"",""1"",""1776""
","
","","[{""page_index"":0,""viewing_time"":11283.300000011921},{""page_index"":1,""viewing_time"":4864.199999988079},{""page_index"":2,""viewing_time"":12879.900000035763},{""page_index"":3,""viewing_time"":9920.199999988079},{""page_index"":4,""viewing_time"":7832.100000023842},{""page_index"":5,""viewing_time"":9519.699999988079},{""page_index"":6,""viewing_time"":8560.099999964237},{""page_index"":7,""viewing_time"":5920.100000023842},{""page_index"":8,""viewing_time"":3567.899999976158}]","74347.80000001192","","","","","","","","","","","","","","","","","","","","","","","",""
"pit-comprehension","103","865372","0.0-2.0-20.0-0.0","battery-v0.2","","""event"",""trial"",""time""
""fullscreenenter"",""1"",""1776""
""blur"",""3"",""12512""
""focus"",""3"",""20794""
""blur"",""58"",""527122""
""focus"",""58"",""547127""
","""event"",""trial"",""time""
""blur"",""3"",""12512""
""blur"",""58"",""527122""
","""event"",""trial"",""time""
""focus"",""3"",""20794""
""focus"",""58"",""547127""
","""event"",""trial"",""time""
""fullscreenenter"",""1"",""1776""
","
","","","7245.899999976158","[""SPACE""]","0","13","13358","5720","","","","","","","","","","","","","","","","","","",""
"pit-instructions","104","869804","0.0-2.0-20.0-1.0","battery-v0.2","","""event"",""trial"",""time""
""fullscreenenter"",""1"",""1776""
""blur"",""3"",""12512""
""focus"",""3"",""20794""
""blur"",""58"",""527122""
""focus"",""58"",""547127""
","""event"",""trial"",""time""
""blur"",""3"",""12512""
""blur"",""58"",""527122""
","""event"",""trial"",""time""
""focus"",""3"",""20794""
""focus"",""58"",""547127""
","""event"",""trial"",""time""
""fullscreenenter"",""1"",""1776""
","
","","[{""page_index"":0,""viewing_time"":4399.5}]","4399.600000023842","","","","","","","","","","","","","","","","","","","","","","","",""
"pit-comprehension","105","881787","0.0-2.0-21.0-0.0","battery-v0.2","","""event"",""trial"",""time""
""fullscreenenter"",""1"",""1776""
""blur"",""3"",""12512""
""focus"",""3"",""20794""
""blur"",""58"",""527122""
""focus"",""58"",""547127""
","""event"",""trial"",""time""
""blur"",""3"",""12512""
""blur"",""58"",""527122""
","""event"",""trial"",""time""
""focus"",""3"",""20794""
""focus"",""58"",""547127""
","""event"",""trial"",""time""
""fullscreenenter"",""1"",""1776""
","
","","","11981.300000011921","[""10""]","0","13","13358","5720","","","","","","","","","","","","","","","","","","",""
"pit-instructions","106","884020","0.0-2.0-21.0-1.0","battery-v0.2","","""event"",""trial"",""time""
""fullscreenenter"",""1"",""1776""
""blur"",""3"",""12512""
""focus"",""3"",""20794""
""blur"",""58"",""527122""
""focus"",""58"",""547127""
","""event"",""trial"",""time""
""blur"",""3"",""12512""
""blur"",""58"",""527122""
","""event"",""trial"",""time""
""focus"",""3"",""20794""
""focus"",""58"",""547127""
","""event"",""trial"",""time""
""fullscreenenter"",""1"",""1776""
","
","","[{""page_index"":0,""viewing_time"":2206.800000011921}]","2207","","","","","","","","","","","","","","","","","","","","","","","",""
"pit-comprehension","107","895443","0.0-2.0-22.0-0.0","battery-v0.2","","""event"",""trial"",""time""
""fullscreenenter"",""1"",""1776""
""blur"",""3"",""12512""
""focus"",""3"",""20794""
""blur"",""58"",""527122""
""focus"",""58"",""547127""
","""event"",""trial"",""time""
""blur"",""3"",""12512""
""blur"",""58"",""527122""
","""event"",""trial"",""time""
""focus"",""3"",""20794""
""focus"",""58"",""547127""
","""event"",""trial"",""time""
""fullscreenenter"",""1"",""1776""
","
","","","11422.099999964237","[""0""]","0","13","13358","5720","","","","","","","","","","","","","","","","","","",""
"pit-instructions","108","898163","0.0-2.0-22.0-1.0","battery-v0.2","","""event"",""trial"",""time""
""fullscreenenter"",""1"",""1776""
""blur"",""3"",""12512""
""focus"",""3"",""20794""
""blur"",""58"",""527122""
""focus"",""58"",""547127""
","""event"",""trial"",""time""
""blur"",""3"",""12512""
""blur"",""58"",""527122""
","""event"",""trial"",""time""
""focus"",""3"",""20794""
""focus"",""58"",""547127""
","""event"",""trial"",""time""
""fullscreenenter"",""1"",""1776""
","
","","[{""page_index"":0,""viewing_time"":2693.899999976158}]","2694.099999964237","","","","","","","","","","","","","","","","","","","","","","","",""
"pit-comprehension","109","922411","0.0-2.0-23.0-0.0","battery-v0.2","","""event"",""trial"",""time""
""fullscreenenter"",""1"",""1776""
""blur"",""3"",""12512""
""focus"",""3"",""20794""
""blur"",""58"",""527122""
""focus"",""58"",""547127""
","""event"",""trial"",""time""
""blur"",""3"",""12512""
""blur"",""58"",""527122""
","""event"",""trial"",""time""
""focus"",""3"",""20794""
""focus"",""58"",""547127""
","""event"",""trial"",""time""
""fullscreenenter"",""1"",""1776""
","
","","","24246.5","[""True""]","0","13","13358","5720","","","","","","","","","","","","","","","","","","",""
"pit-instructions","110","924420","0.0-2.0-23.0-1.0","battery-v0.2","","""event"",""trial"",""time""
""fullscreenenter"",""1"",""1776""
""blur"",""3"",""12512""
""focus"",""3"",""20794""
""blur"",""58"",""527122""
""focus"",""58"",""547127""
","""event"",""trial"",""time""
""blur"",""3"",""12512""
""blur"",""58"",""527122""
","""event"",""trial"",""time""
""focus"",""3"",""20794""
""focus"",""58"",""547127""
","""event"",""trial"",""time""
""fullscreenenter"",""1"",""1776""
","
","","[{""page_index"":0,""viewing_time"":1981.5}]","1981.6000000238419","","","","","","","","","","","","","","","","","","","","","","","",""
"pit-comprehension","111","932531","0.0-2.0-24.0-0.0","battery-v0.2","","""event"",""trial"",""time""
""fullscreenenter"",""1"",""1776""
""blur"",""3"",""12512""
""focus"",""3"",""20794""
""blur"",""58"",""527122""
""focus"",""58"",""547127""
","""event"",""trial"",""time""
""blur"",""3"",""12512""
""blur"",""58"",""527122""
","""event"",""trial"",""time""
""focus"",""3"",""20794""
""focus"",""58"",""547127""
","""event"",""trial"",""time""
""fullscreenenter"",""1"",""1776""
","
","","","8109.600000023842","[""True""]","0","13","13358","5720","","","","","","","","","","","","","","","","","","",""
"pit-instructions","112","934683","0.0-2.0-24.0-1.0","battery-v0.2","","""event"",""trial"",""time""
""fullscreenenter"",""1"",""1776""
""blur"",""3"",""12512""
""focus"",""3"",""20794""
""blur"",""58"",""527122""
""focus"",""58"",""547127""
","""event"",""trial"",""time""
""blur"",""3"",""12512""
""blur"",""58"",""527122""
","""event"",""trial"",""time""
""focus"",""3"",""20794""
""focus"",""58"",""547127""
","""event"",""trial"",""time""
""fullscreenenter"",""1"",""1776""
","
","","[{""page_index"":0,""viewing_time"":2124.800000011921}]","2125.2000000476837","","","","","","","","","","","","","","","","","","","","","","","",""
"pit-comprehension","113","949844","0.0-2.0-25.0-0.0","battery-v0.2","","""event"",""trial"",""time""
""fullscreenenter"",""1"",""1776""
""blur"",""3"",""12512""
""focus"",""3"",""20794""
""blur"",""58"",""527122""
""focus"",""58"",""547127""
","""event"",""trial"",""time""
""blur"",""3"",""12512""
""blur"",""58"",""527122""
","""event"",""trial"",""time""
""focus"",""3"",""20794""
""focus"",""58"",""547127""
","""event"",""trial"",""time""
""fullscreenenter"",""1"",""1776""
","
","","","15158.800000011921","[""True""]","0","13","13358","5720","","","","","","","","","","","","","","","","","","",""
"pit-instructions","114","958067","0.0-2.0-25.0-1.0","battery-v0.2","","""event"",""trial"",""time""
""fullscreenenter"",""1"",""1776""
""blur"",""3"",""12512""
""focus"",""3"",""20794""
""blur"",""58"",""527122""
""focus"",""58"",""547127""
","""event"",""trial"",""time""
""blur"",""3"",""12512""
""blur"",""58"",""527122""
","""event"",""trial"",""time""
""focus"",""3"",""20794""
""focus"",""58"",""547127""
","""event"",""trial"",""time""
""fullscreenenter"",""1"",""1776""
","
","","[{""page_index"":0,""viewing_time"":8195.5}]","8195.699999988079","","","","","","","","","","","","","","","","","","","","","","","",""
"pit-comprehension","115","982013","0.0-2.0-26.0-0.0","battery-v0.2","","""event"",""trial"",""time""
""fullscreenenter"",""1"",""1776""
""blur"",""3"",""12512""
""focus"",""3"",""20794""
""blur"",""58"",""527122""
""focus"",""58"",""547127""
","""event"",""trial"",""time""
""blur"",""3"",""12512""
""blur"",""58"",""527122""
","""event"",""trial"",""time""
""focus"",""3"",""20794""
""focus"",""58"",""547127""
","""event"",""trial"",""time""
""fullscreenenter"",""1"",""1776""
","
","","","23943.299999952316","[""False""]","0","13","13358","5720","","","","","","","","","","","","","","","","","","",""
"pit-instructions","116","985076","0.0-2.0-26.0-1.0","battery-v0.2","","""event"",""trial"",""time""
""fullscreenenter"",""1"",""1776""
""blur"",""3"",""12512""
""focus"",""3"",""20794""
""blur"",""58"",""527122""
""focus"",""58"",""547127""
","""event"",""trial"",""time""
""blur"",""3"",""12512""
""blur"",""58"",""527122""
","""event"",""trial"",""time""
""focus"",""3"",""20794""
""focus"",""58"",""547127""
","""event"",""trial"",""time""
""fullscreenenter"",""1"",""1776""
","
","","[{""page_index"":0,""viewing_time"":3036.600000023842}]","3036.800000011921","","","","","","","","","","","","","","","","","","","","","","","",""
"pit-instructions","117","1008804","0.0-3.0","battery-v0.2","","""event"",""trial"",""time""
""fullscreenenter"",""1"",""1776""
""blur"",""3"",""12512""
""focus"",""3"",""20794""
""blur"",""58"",""527122""
""focus"",""58"",""547127""
","""event"",""trial"",""time""
""blur"",""3"",""12512""
""blur"",""58"",""527122""
","""event"",""trial"",""time""
""focus"",""3"",""20794""
""focus"",""58"",""547127""
","""event"",""trial"",""time""
""fullscreenenter"",""1"",""1776""
","
","","[{""page_index"":0,""viewing_time"":11958.800000011921},{""page_index"":1,""viewing_time"":5408.5},{""page_index"":2,""viewing_time"":6359.400000035763}]","23726.900000035763","","","","","","","","","","","","","","","","","","","","","","","",""
"pit-trial","118","1012729","0.0-4.0","battery-v0.2","","""event"",""trial"",""time""
""fullscreenenter"",""1"",""1776""
""blur"",""3"",""12512""
""focus"",""3"",""20794""
""blur"",""58"",""527122""
""focus"",""58"",""547127""
","""event"",""trial"",""time""
""blur"",""3"",""12512""
""blur"",""58"",""527122""
","""event"",""trial"",""time""
""focus"",""3"",""20794""
""focus"",""58"",""547127""
","""event"",""trial"",""time""
""fullscreenenter"",""1"",""1776""
","
","","","1058.1000000238419","","","13","13358","5720","&#9752;","elianto","#f73b6a7A"," "," ","1","0","[1917.5]","1","1","","","13358","1","3","3","lose","go","0"
"pit-trial","119","1017594","0.0-5.0","battery-v0.2","","""event"",""trial"",""time""
""fullscreenenter"",""1"",""1776""
""blur"",""3"",""12512""
""focus"",""3"",""20794""
""blur"",""58"",""527122""
""focus"",""58"",""547127""
","""event"",""trial"",""time""
""blur"",""3"",""12512""
""blur"",""58"",""527122""
","""event"",""trial"",""time""
""focus"",""3"",""20794""
""focus"",""58"",""547127""
","""event"",""trial"",""time""
""fullscreenenter"",""1"",""1776""
","
","","","-1","","","13","13358","5720","&#9728;","elianto","#f73b6a7A","-1","-1","1","0","[]","0","1","","","13358","2","0","4","lose","no-go","0"
"pit-trial","120","1021355","0.0-6.0","battery-v0.2","","""event"",""trial"",""time""
""fullscreenenter"",""1"",""1776""
""blur"",""3"",""12512""
""focus"",""3"",""20794""
""blur"",""58"",""527122""
""focus"",""58"",""547127""
","""event"",""trial"",""time""
""blur"",""3"",""12512""
""blur"",""58"",""527122""
","""event"",""trial"",""time""
""focus"",""3"",""20794""
""focus"",""58"",""547127""
","""event"",""trial"",""time""
""fullscreenenter"",""1"",""1776""
","
","","","880.5","","","13","13358","5720","&#9733;","elianto","#3366ff99","-1"," ","0","0","[1744.6000000238419]","1","1","","","13358","3","2","2","win","no-go","0"
"pit-trial","121","1025540","0.0-7.0","battery-v0.2","","""event"",""trial"",""time""
""fullscreenenter"",""1"",""1776""
""blur"",""3"",""12512""
""focus"",""3"",""20794""
""blur"",""58"",""527122""
""focus"",""58"",""547127""
","""event"",""trial"",""time""
""blur"",""3"",""12512""
""blur"",""58"",""527122""
","""event"",""trial"",""time""
""focus"",""3"",""20794""
""focus"",""58"",""547127""
","""event"",""trial"",""time""
""fullscreenenter"",""1"",""1776""
","
","","","1324.1000000238419","","","13","13358","5720","&#9730;","elianto","#3366ff99"," "," ","1","+10","[2176]","1","1","","","13358","4","1","1","win","go","0"
"pit-trial","122","1029719","0.0-8.0","battery-v0.2","","""event"",""trial"",""time""
""fullscreenenter"",""1"",""1776""
""blur"",""3"",""12512""
""focus"",""3"",""20794""
""blur"",""58"",""527122""
""focus"",""58"",""547127""
","""event"",""trial"",""time""
""blur"",""3"",""12512""
""blur"",""58"",""527122""
","""event"",""trial"",""time""
""focus"",""3"",""20794""
""focus"",""58"",""547127""
","""event"",""trial"",""time""
""fullscreenenter"",""1"",""1776""
","
","","","1316.300000011921","","","13","13358","5720","&#9728;","elianto","#f73b6a7A","-1"," ","0","-10","[2166.699999988079]","1","1","","","13358","5","0","4","lose","no-go","0"
"pit-trial","123","1034581","0.0-9.0","battery-v0.2","","""event"",""trial"",""time""
""fullscreenenter"",""1"",""1776""
""blur"",""3"",""12512""
""focus"",""3"",""20794""
""blur"",""58"",""527122""
""focus"",""58"",""547127""
","""event"",""trial"",""time""
""blur"",""3"",""12512""
""blur"",""58"",""527122""
","""event"",""trial"",""time""
""focus"",""3"",""20794""
""focus"",""58"",""547127""
","""event"",""trial"",""time""
""fullscreenenter"",""1"",""1776""
","
","","","-1","","","13","13358","5720","&#9730;","elianto","#3366ff99"," ","-1","0","0","[]","0","1","","","13358","6","1","1","win","go","0"
"pit-trial","124","1039441","0.0-10.0","battery-v0.2","","""event"",""trial"",""time""
""fullscreenenter"",""1"",""1776""
""blur"",""3"",""12512""
""focus"",""3"",""20794""
""blur"",""58"",""527122""
""focus"",""58"",""547127""
","""event"",""trial"",""time""
""blur"",""3"",""12512""
""blur"",""58"",""527122""
","""event"",""trial"",""time""
""focus"",""3"",""20794""
""focus"",""58"",""547127""
","""event"",""trial"",""time""
""fullscreenenter"",""1"",""1776""
","
","","","-1","","","13","13358","5720","&#9752;","elianto","#f73b6a7A"," ","-1","0","-10","[]","0","1","","","13358","7","3","3","lose","go","0"
"pit-trial","125","1043101","0.0-11.0","battery-v0.2","","""event"",""trial"",""time""
""fullscreenenter"",""1"",""1776""
""blur"",""3"",""12512""
""focus"",""3"",""20794""
""blur"",""58"",""527122""
""focus"",""58"",""547127""
","""event"",""trial"",""time""
""blur"",""3"",""12512""
""blur"",""58"",""527122""
","""event"",""trial"",""time""
""focus"",""3"",""20794""
""focus"",""58"",""547127""
","""event"",""trial"",""time""
""fullscreenenter"",""1"",""1776""
","
","","","807.1999999880791","","","13","13358","5720","&#9733;","elianto","#3366ff99","-1"," ","0","0","[1658]","1","1","","","13358","8","2","2","win","no-go","0"
"pit-trial","126","1047955","0.0-12.0","battery-v0.2","","""event"",""trial"",""time""
""fullscreenenter"",""1"",""1776""
""blur"",""3"",""12512""
""focus"",""3"",""20794""
""blur"",""58"",""527122""
""focus"",""58"",""547127""
","""event"",""trial"",""time""
""blur"",""3"",""12512""
""blur"",""58"",""527122""
","""event"",""trial"",""time""
""focus"",""3"",""20794""
""focus"",""58"",""547127""
","""event"",""trial"",""time""
""fullscreenenter"",""1"",""1776""
","
","","","-1","","","13","13358","5720","&#9728;","elianto","#f73b6a7A","-1","-1","1","0","[]","0","1","","","13358","9","0","4","lose","no-go","0"
"pit-trial","127","1052005","0.0-13.0","battery-v0.2","","""event"",""trial"",""time""
""fullscreenenter"",""1"",""1776""
""blur"",""3"",""12512""
""focus"",""3"",""20794""
""blur"",""58"",""527122""
""focus"",""58"",""547127""
","""event"",""trial"",""time""
""blur"",""3"",""12512""
""blur"",""58"",""527122""
","""event"",""trial"",""time""
""focus"",""3"",""20794""
""focus"",""58"",""547127""
","""event"",""trial"",""time""
""fullscreenenter"",""1"",""1776""
","
","","","1196.1000000238419","","","13","13358","5720","&#9730;","elianto","#3366ff99"," "," ","1","+10","[2047.300000011921,2736,2951.300000011921,3143.800000011921,3984]","5","1","","","13358","10","1","1","win","go","0"
"pit-trial","128","1056629","0.0-14.0","battery-v0.2","","""event"",""trial"",""time""
""fullscreenenter"",""1"",""1776""
""blur"",""3"",""12512""
""focus"",""3"",""20794""
""blur"",""58"",""527122""
""focus"",""58"",""547127""
","""event"",""trial"",""time""
""blur"",""3"",""12512""
""blur"",""58"",""527122""
","""event"",""trial"",""time""
""focus"",""3"",""20794""
""focus"",""58"",""547127""
","""event"",""trial"",""time""
""fullscreenenter"",""1"",""1776""
","
","","","1770.300000011921","","","13","13358","5720","&#9752;","elianto","#f73b6a7A"," "," ","1","-10","[2621.900000035763,3350.199999988079,3605.5,3789.600000023842,4046,4317.600000023842,4542.400000035763]","7","1","","","13358","11","3","3","lose","go","1"
"pit-trial","129","1060631","0.0-15.0","battery-v0.2","","""event"",""trial"",""time""
""fullscreenenter"",""1"",""1776""
""blur"",""3"",""12512""
""focus"",""3"",""20794""
""blur"",""58"",""527122""
""focus"",""58"",""547127""
","""event"",""trial"",""time""
""blur"",""3"",""12512""
""blur"",""58"",""527122""
","""event"",""trial"",""time""
""focus"",""3"",""20794""
""focus"",""58"",""547127""
","""event"",""trial"",""time""
""fullscreenenter"",""1"",""1776""
","
","","","1148.699999988079","","","13","13358","5720","&#9733;","elianto","#3366ff99","-1"," ","0","0","[54,1998.800000011921]","2","1","","","13358","12","2","2","win","no-go","0"
"pit-trial","130","1065484","0.0-16.0","battery-v0.2","","""event"",""trial"",""time""
""fullscreenenter"",""1"",""1776""
""blur"",""3"",""12512""
""focus"",""3"",""20794""
""blur"",""58"",""527122""
""focus"",""58"",""547127""
","""event"",""trial"",""time""
""blur"",""3"",""12512""
""blur"",""58"",""527122""
","""event"",""trial"",""time""
""focus"",""3"",""20794""
""focus"",""58"",""547127""
","""event"",""trial"",""time""
""fullscreenenter"",""1"",""1776""
","
","","","-1","","","13","13358","5720","&#9733;","elianto","#3366ff99","-1","-1","1","+10","[]","0","1","","","13358","13","2","2","win","no-go","0"
"pit-trial","131","1070054","0.0-17.0","battery-v0.2","","""event"",""trial"",""time""
""fullscreenenter"",""1"",""1776""
""blur"",""3"",""12512""
""focus"",""3"",""20794""
""blur"",""58"",""527122""
""focus"",""58"",""547127""
","""event"",""trial"",""time""
""blur"",""3"",""12512""
""blur"",""58"",""527122""
","""event"",""trial"",""time""
""focus"",""3"",""20794""
""focus"",""58"",""547127""
","""event"",""trial"",""time""
""fullscreenenter"",""1"",""1776""
","
","","","1716.5","","","13","13358","5720","&#9752;","elianto","#f73b6a7A"," "," ","1","0","[2567.600000023842]","1","1","","","13358","14","3","3","lose","go","0"
"pit-trial","132","1074908","0.0-18.0","battery-v0.2","","""event"",""trial"",""time""
""fullscreenenter"",""1"",""1776""
""blur"",""3"",""12512""
""focus"",""3"",""20794""
""blur"",""58"",""527122""
""focus"",""58"",""547127""
","""event"",""trial"",""time""
""blur"",""3"",""12512""
""blur"",""58"",""527122""
","""event"",""trial"",""time""
""focus"",""3"",""20794""
""focus"",""58"",""547127""
","""event"",""trial"",""time""
""fullscreenenter"",""1"",""1776""
","
","","","-1","","","13","13358","5720","&#9728;","elianto","#f73b6a7A","-1","-1","1","0","[]","0","1","","","13358","15","0","4","lose","no-go","0"
"pit-trial","133","1079761","0.0-19.0","battery-v0.2","","""event"",""trial"",""time""
""fullscreenenter"",""1"",""1776""
""blur"",""3"",""12512""
""focus"",""3"",""20794""
""blur"",""58"",""527122""
""focus"",""58"",""547127""
","""event"",""trial"",""time""
""blur"",""3"",""12512""
""blur"",""58"",""527122""
","""event"",""trial"",""time""
""focus"",""3"",""20794""
""focus"",""58"",""547127""
","""event"",""trial"",""time""
""fullscreenenter"",""1"",""1776""
","
","","","-1","","","13","13358","5720","&#9730;","elianto","#3366ff99"," ","-1","0","0","[]","0","1","","","13358","16","1","1","win","go","0"
"pit-trial","134","1083140","0.0-20.0","battery-v0.2","","""event"",""trial"",""time""
""fullscreenenter"",""1"",""1776""
""blur"",""3"",""12512""
""focus"",""3"",""20794""
""blur"",""58"",""527122""
""focus"",""58"",""547127""
","""event"",""trial"",""time""
""blur"",""3"",""12512""
""blur"",""58"",""527122""
","""event"",""trial"",""time""
""focus"",""3"",""20794""
""focus"",""58"",""547127""
","""event"",""trial"",""time""
""fullscreenenter"",""1"",""1776""
","
","","","527.3000000119209","","","13","13358","5720","&#9730;","elianto","#3366ff99"," "," ","1","+10","[1377.5,2145.600000023842,2377.699999988079,2561.5,2713.899999976158,2881.699999988079]","6","1","","","13358","17","1","1","win","go","0"
"pit-trial","135","1088010","0.0-21.0","battery-v0.2","","""event"",""trial"",""time""
""fullscreenenter"",""1"",""1776""
""blur"",""3"",""12512""
""focus"",""3"",""20794""
""blur"",""58"",""527122""
""focus"",""58"",""547127""
","""event"",""trial"",""time""
""blur"",""3"",""12512""
""blur"",""58"",""527122""
","""event"",""trial"",""time""
""focus"",""3"",""20794""
""focus"",""58"",""547127""
","""event"",""trial"",""time""
""fullscreenenter"",""1"",""1776""
","
","","","-1","","","13","13358","5720","&#9752;","elianto","#f73b6a7A"," ","-1","0","0","[]","0","1","","","13358","18","3","3","lose","go","1"
"pit-trial","136","1092108","0.0-22.0","battery-v0.2","","""event"",""trial"",""time""
""fullscreenenter"",""1"",""1776""
""blur"",""3"",""12512""
""focus"",""3"",""20794""
""blur"",""58"",""527122""
""focus"",""58"",""547127""
","""event"",""trial"",""time""
""blur"",""3"",""12512""
""blur"",""58"",""527122""
","""event"",""trial"",""time""
""focus"",""3"",""20794""
""focus"",""58"",""547127""
","""event"",""trial"",""time""
""fullscreenenter"",""1"",""1776""
","
","","","1245.8999999761581","","","13","13358","5720","&#9733;","elianto","#3366ff99","-1"," ","0","0","[2096.399999976158]","1","1","","","13358","19","2","2","win","no-go","0"
"pit-trial","137","1096961","0.0-23.0","battery-v0.2","","""event"",""trial"",""time""
""fullscreenenter"",""1"",""1776""
""blur"",""3"",""12512""
""focus"",""3"",""20794""
""blur"",""58"",""527122""
""focus"",""58"",""547127""
","""event"",""trial"",""time""
""blur"",""3"",""12512""
""blur"",""58"",""527122""
","""event"",""trial"",""time""
""focus"",""3"",""20794""
""focus"",""58"",""547127""
","""event"",""trial"",""time""
""fullscreenenter"",""1"",""1776""
","
","","","-1","","","13","13358","5720","&#9728;","elianto","#f73b6a7A","-1","-1","1","0","[]","0","1","","","13358","20","0","4","lose","no-go","0"
"pit-instructions","138","1115699","0.0-24.0","battery-v0.2","","""event"",""trial"",""time""
""fullscreenenter"",""1"",""1776""
""blur"",""3"",""12512""
""focus"",""3"",""20794""
""blur"",""58"",""527122""
""focus"",""58"",""547127""
","""event"",""trial"",""time""
""blur"",""3"",""12512""
""blur"",""58"",""527122""
","""event"",""trial"",""time""
""focus"",""3"",""20794""
""focus"",""58"",""547127""
","""event"",""trial"",""time""
""fullscreenenter"",""1"",""1776""
","
","","[{""page_index"":0,""viewing_time"":8032.700000047684},{""page_index"":1,""viewing_time"":10703.699999988079}]","18736.700000047684","","","","","","","","","","","","","","","","","","","","","","","",""
"pit-trial","139","1120572","0.0-25.0","battery-v0.2","","""event"",""trial"",""time""
""fullscreenenter"",""1"",""1776""
""blur"",""3"",""12512""
""focus"",""3"",""20794""
""blur"",""58"",""527122""
""focus"",""58"",""547127""
","""event"",""trial"",""time""
""blur"",""3"",""12512""
""blur"",""58"",""527122""
","""event"",""trial"",""time""
""focus"",""3"",""20794""
""focus"",""58"",""547127""
","""event"",""trial"",""time""
""fullscreenenter"",""1"",""1776""
","
","","","-1","","","13","13358","5720","m","elianto","#f73b6a7A"," ","-1","0","0","[]","0","2","","","13358","21","0","3","lose","go","1"
"pit-trial","140","1125106","0.0-26.0","battery-v0.2","","""event"",""trial"",""time""
""fullscreenenter"",""1"",""1776""
""blur"",""3"",""12512""
""focus"",""3"",""20794""
""blur"",""58"",""527122""
""focus"",""58"",""547127""
","""event"",""trial"",""time""
""blur"",""3"",""12512""
""blur"",""58"",""527122""
","""event"",""trial"",""time""
""focus"",""3"",""20794""
""focus"",""58"",""547127""
","""event"",""trial"",""time""
""fullscreenenter"",""1"",""1776""
","
","","","1672.300000011921","","","13","13358","5720","y","elianto","#f73b6a7A"," "," ","1","0","[2527.5]","1","2","","","13358","22","2","3","lose","go","0"
"pit-trial","141","1129970","0.0-27.0","battery-v0.2","","""event"",""trial"",""time""
""fullscreenenter"",""1"",""1776""
""blur"",""3"",""12512""
""focus"",""3"",""20794""
""blur"",""58"",""527122""
""focus"",""58"",""547127""
","""event"",""trial"",""time""
""blur"",""3"",""12512""
""blur"",""58"",""527122""
","""event"",""trial"",""time""
""focus"",""3"",""20794""
""focus"",""58"",""547127""
","""event"",""trial"",""time""
""fullscreenenter"",""1"",""1776""
","
","","","-1","","","13","13358","5720","h","elianto","#f73b6a7A","-1","-1","1","-10","[]","0","2","","","13358","23","3","4","lose","no-go","1"
"pit-trial","142","1134250","0.0-28.0","battery-v0.2","","""event"",""trial"",""time""
""fullscreenenter"",""1"",""1776""
""blur"",""3"",""12512""
""focus"",""3"",""20794""
""blur"",""58"",""527122""
""focus"",""58"",""547127""
","""event"",""trial"",""time""
""blur"",""3"",""12512""
""blur"",""58"",""527122""
","""event"",""trial"",""time""
""focus"",""3"",""20794""
""focus"",""58"",""547127""
","""event"",""trial"",""time""
""fullscreenenter"",""1"",""1776""
","
","","","1421.6000000238419","","","13","13358","5720","r","elianto","#3366ff99","-1"," ","0","0","[2272.699999988079,2952.099999964237,3231.899999976158,3448.199999988079,3631.899999976158,3855.7999999523163]","6","2","","","13358","24","1","2","win","no-go","0"
"pit-trial","143","1139110","0.0-29.0","battery-v0.2","","""event"",""trial"",""time""
""fullscreenenter"",""1"",""1776""
""blur"",""3"",""12512""
""focus"",""3"",""20794""
""blur"",""58"",""527122""
""focus"",""58"",""547127""
","""event"",""trial"",""time""
""blur"",""3"",""12512""
""blur"",""58"",""527122""
","""event"",""trial"",""time""
""focus"",""3"",""20794""
""focus"",""58"",""547127""
","""event"",""trial"",""time""
""fullscreenenter"",""1"",""1776""
","
","","","-1","","","13","13358","5720","y","elianto","#f73b6a7A"," ","-1","0","0","[]","0","2","","","13358","25","2","3","lose","go","1"
"pit-trial","144","1143661","0.0-30.0","battery-v0.2","","""event"",""trial"",""time""
""fullscreenenter"",""1"",""1776""
""blur"",""3"",""12512""
""focus"",""3"",""20794""
""blur"",""58"",""527122""
""focus"",""58"",""547127""
","""event"",""trial"",""time""
""blur"",""3"",""12512""
""blur"",""58"",""527122""
","""event"",""trial"",""time""
""focus"",""3"",""20794""
""focus"",""58"",""547127""
","""event"",""trial"",""time""
""fullscreenenter"",""1"",""1776""
","
","","","1693.3999999761581","","","13","13358","5720","h","elianto","#f73b6a7A","-1"," ","0","-10","[2548.699999988079]","1","2","","","13358","26","3","4","lose","no-go","0"
"pit-trial","145","1147244","0.0-31.0","battery-v0.2","","""event"",""trial"",""time""
""fullscreenenter"",""1"",""1776""
""blur"",""3"",""12512""
""focus"",""3"",""20794""
""blur"",""58"",""527122""
""focus"",""58"",""547127""
","""event"",""trial"",""time""
""blur"",""3"",""12512""
""blur"",""58"",""527122""
","""event"",""trial"",""time""
""focus"",""3"",""20794""
""focus"",""58"",""547127""
","""event"",""trial"",""time""
""fullscreenenter"",""1"",""1776""
","
","","","729.6000000238419","","","13","13358","5720","r","elianto","#3366ff99","-1"," ","0","+10","[1580.800000011921,2053,2341.099999964237]","3","2","","","13358","27","1","2","win","no-go","1"
"pit-trial","146","1152097","0.0-32.0","battery-v0.2","","""event"",""trial"",""time""
""fullscreenenter"",""1"",""1776""
""blur"",""3"",""12512""
""focus"",""3"",""20794""
""blur"",""58"",""527122""
""focus"",""58"",""547127""
","""event"",""trial"",""time""
""blur"",""3"",""12512""
""blur"",""58"",""527122""
","""event"",""trial"",""time""
""focus"",""3"",""20794""
""focus"",""58"",""547127""
","""event"",""trial"",""time""
""fullscreenenter"",""1"",""1776""
","
","","","-1","","","13","13358","5720","m","elianto","#f73b6a7A"," ","-1","0","-10","[4470.299999952316]","1","2","","","13358","28","0","3","lose","go","0"
"pit-trial","147","1156950","0.0-33.0","battery-v0.2","","""event"",""trial"",""time""
""fullscreenenter"",""1"",""1776""
""blur"",""3"",""12512""
""focus"",""3"",""20794""
""blur"",""58"",""527122""
""focus"",""58"",""547127""
","""event"",""trial"",""time""
""blur"",""3"",""12512""
""blur"",""58"",""527122""
","""event"",""trial"",""time""
""focus"",""3"",""20794""
""focus"",""58"",""547127""
","""event"",""trial"",""time""
""fullscreenenter"",""1"",""1776""
","
","","","-1","","","13","13358","5720","h","elianto","#f73b6a7A","-1","-1","1","-10","[3641.699999988079,3961.099999964237]","2","2","","","13358","29","3","4","lose","no-go","1"
"pit-trial","148","1160684","0.0-34.0","battery-v0.2","","""event"",""trial"",""time""
""fullscreenenter"",""1"",""1776""
""blur"",""3"",""12512""
""focus"",""3"",""20794""
""blur"",""58"",""527122""
""focus"",""58"",""547127""
","""event"",""trial"",""time""
""blur"",""3"",""12512""
""blur"",""58"",""527122""
","""event"",""trial"",""time""
""focus"",""3"",""20794""
""focus"",""58"",""547127""
","""event"",""trial"",""time""
""fullscreenenter"",""1"",""1776""
","
","","","881.3000000119209","","","13","13358","5720","r","elianto","#3366ff99","-1"," ","0","0","[1732]","1","2","","","13358","30","1","2","win","no-go","0"
"pit-trial","149","1165538","0.0-35.0","battery-v0.2","","""event"",""trial"",""time""
""fullscreenenter"",""1"",""1776""
""blur"",""3"",""12512""
""focus"",""3"",""20794""
""blur"",""58"",""527122""
""focus"",""58"",""547127""
","""event"",""trial"",""time""
""blur"",""3"",""12512""
""blur"",""58"",""527122""
","""event"",""trial"",""time""
""focus"",""3"",""20794""
""focus"",""58"",""547127""
","""event"",""trial"",""time""
""fullscreenenter"",""1"",""1776""
","
","","","-1","","","13","13358","5720","m","elianto","#f73b6a7A"," ","-1","0","-10","[]","0","2","","","13358","31","0","3","lose","go","0"
"pit-trial","150","1169269","0.0-36.0","battery-v0.2","","""event"",""trial"",""time""
""fullscreenenter"",""1"",""1776""
""blur"",""3"",""12512""
""focus"",""3"",""20794""
""blur"",""58"",""527122""
""focus"",""58"",""547127""
","""event"",""trial"",""time""
""blur"",""3"",""12512""
""blur"",""58"",""527122""
","""event"",""trial"",""time""
""focus"",""3"",""20794""
""focus"",""58"",""547127""
","""event"",""trial"",""time""
""fullscreenenter"",""1"",""1776""
","
","","","877.4000000357628","","","13","13358","5720","y","elianto","#f73b6a7A"," "," ","1","0","[1728.1000000238419]","1","2","","","13358","32","2","3","lose","go","0"
"pit-trial","151","1173038","0.0-37.0","battery-v0.2","","""event"",""trial"",""time""
""fullscreenenter"",""1"",""1776""
""blur"",""3"",""12512""
""focus"",""3"",""20794""
""blur"",""58"",""527122""
""focus"",""58"",""547127""
","""event"",""trial"",""time""
""blur"",""3"",""12512""
""blur"",""58"",""527122""
","""event"",""trial"",""time""
""focus"",""3"",""20794""
""focus"",""58"",""547127""
","""event"",""trial"",""time""
""fullscreenenter"",""1"",""1776""
","
","","","915","","","13","13358","5720","h","elianto","#f73b6a7A","-1"," ","0","-10","[1765.2999999523163]","1","2","","","13358","33","3","4","lose","no-go","0"
"pit-trial","152","1176917","0.0-38.0","battery-v0.2","","""event"",""trial"",""time""
""fullscreenenter"",""1"",""1776""
""blur"",""3"",""12512""
""focus"",""3"",""20794""
""blur"",""58"",""527122""
""focus"",""58"",""547127""
","""event"",""trial"",""time""
""blur"",""3"",""12512""
""blur"",""58"",""527122""
","""event"",""trial"",""time""
""focus"",""3"",""20794""
""focus"",""58"",""547127""
","""event"",""trial"",""time""
""fullscreenenter"",""1"",""1776""
","
","","","1026.5999999642372","","","13","13358","5720","r","elianto","#3366ff99","-1"," ","0","+10","[1876.7999999523163]","1","2","","","13358","34","1","2","win","no-go","1"
"pit-trial","153","1181612","0.0-39.0","battery-v0.2","","""event"",""trial"",""time""
""fullscreenenter"",""1"",""1776""
""blur"",""3"",""12512""
""focus"",""3"",""20794""
""blur"",""58"",""527122""
""focus"",""58"",""547127""
","""event"",""trial"",""time""
""blur"",""3"",""12512""
""blur"",""58"",""527122""
","""event"",""trial"",""time""
""focus"",""3"",""20794""
""focus"",""58"",""547127""
","""event"",""trial"",""time""
""fullscreenenter"",""1"",""1776""
","
","","","1842.199999988079","","","13","13358","5720","m","elianto","#f73b6a7A"," "," ","1","0","[2692.900000035763]","1","2","","","13358","35","0","3","lose","go","0"
"pit-trial","154","1186465","0.0-40.0","battery-v0.2","","""event"",""trial"",""time""
""fullscreenenter"",""1"",""1776""
""blur"",""3"",""12512""
""focus"",""3"",""20794""
""blur"",""58"",""527122""
""focus"",""58"",""547127""
","""event"",""trial"",""time""
""blur"",""3"",""12512""
""blur"",""58"",""527122""
","""event"",""trial"",""time""
""focus"",""3"",""20794""
""focus"",""58"",""547127""
","""event"",""trial"",""time""
""fullscreenenter"",""1"",""1776""
","
","","","-1","","","13","13358","5720","y","elianto","#f73b6a7A"," ","-1","0","-10","[]","0","2","","","13358","36","2","3","lose","go","0"
"pit-trial","155","1190582","0.0-41.0","battery-v0.2","","""event"",""trial"",""time""
""fullscreenenter"",""1"",""1776""
""blur"",""3"",""12512""
""focus"",""3"",""20794""
""blur"",""58"",""527122""
""focus"",""58"",""547127""
","""event"",""trial"",""time""
""blur"",""3"",""12512""
""blur"",""58"",""527122""
","""event"",""trial"",""time""
""focus"",""3"",""20794""
""focus"",""58"",""547127""
","""event"",""trial"",""time""
""fullscreenenter"",""1"",""1776""
","
","","","1263.0999999642372","","","13","13358","5720","y","elianto","#f73b6a7A"," "," ","1","0","[2113.699999988079]","1","2","","","13358","37","2","3","lose","go","0"
"pit-trial","156","1194645","0.0-42.0","battery-v0.2","","""event"",""trial"",""time""
""fullscreenenter"",""1"",""1776""
""blur"",""3"",""12512""
""focus"",""3"",""20794""
""blur"",""58"",""527122""
""focus"",""58"",""547127""
","""event"",""trial"",""time""
""blur"",""3"",""12512""
""blur"",""58"",""527122""
","""event"",""trial"",""time""
""focus"",""3"",""20794""
""focus"",""58"",""547127""
","""event"",""trial"",""time""
""fullscreenenter"",""1"",""1776""
","
","","","1209.9000000357628","","","13","13358","5720","r","elianto","#3366ff99","-1"," ","0","0","[2060.800000011921]","1","2","","","13358","38","1","2","win","no-go","0"
"pit-trial","157","1199497","0.0-43.0","battery-v0.2","","""event"",""trial"",""time""
""fullscreenenter"",""1"",""1776""
""blur"",""3"",""12512""
""focus"",""3"",""20794""
""blur"",""58"",""527122""
""focus"",""58"",""547127""
","""event"",""trial"",""time""
""blur"",""3"",""12512""
""blur"",""58"",""527122""
","""event"",""trial"",""time""
""focus"",""3"",""20794""
""focus"",""58"",""547127""
","""event"",""trial"",""time""
""fullscreenenter"",""1"",""1776""
","
","","","-1","","","13","13358","5720","h","elianto","#f73b6a7A","-1","-1","1","0","[]","0","2","","","13358","39","3","4","lose","no-go","0"
"pit-trial","158","1203348","0.0-44.0","battery-v0.2","","""event"",""trial"",""time""
""fullscreenenter"",""1"",""1776""
""blur"",""3"",""12512""
""focus"",""3"",""20794""
""blur"",""58"",""527122""
""focus"",""58"",""547127""
","""event"",""trial"",""time""
""blur"",""3"",""12512""
""blur"",""58"",""527122""
","""event"",""trial"",""time""
""focus"",""3"",""20794""
""focus"",""58"",""547127""
","""event"",""trial"",""time""
""fullscreenenter"",""1"",""1776""
","
","","","997.0999999642372","","","13","13358","5720","m","elianto","#f73b6a7A"," "," ","1","0","[1848.2999999523163]","1","2","","","13358","40","0","3","lose","go","0"
"pit-trial","159","1208201","0.0-45.0","battery-v0.2","","""event"",""trial"",""time""
""fullscreenenter"",""1"",""1776""
""blur"",""3"",""12512""
""focus"",""3"",""20794""
""blur"",""58"",""527122""
""focus"",""58"",""547127""
","""event"",""trial"",""time""
""blur"",""3"",""12512""
""blur"",""58"",""527122""
","""event"",""trial"",""time""
""focus"",""3"",""20794""
""focus"",""58"",""547127""
","""event"",""trial"",""time""
""fullscreenenter"",""1"",""1776""
","
","","","-1","","","13","13358","5720","h","elianto","#f73b6a7A","-1","-1","1","0","[]","0","2","","","13358","41","3","4","lose","no-go","0"
"pit-trial","160","1212045","0.0-46.0","battery-v0.2","","""event"",""trial"",""time""
""fullscreenenter"",""1"",""1776""
""blur"",""3"",""12512""
""focus"",""3"",""20794""
""blur"",""58"",""527122""
""focus"",""58"",""547127""
","""event"",""trial"",""time""
""blur"",""3"",""12512""
""blur"",""58"",""527122""
","""event"",""trial"",""time""
""focus"",""3"",""20794""
""focus"",""58"",""547127""
","""event"",""trial"",""time""
""fullscreenenter"",""1"",""1776""
","
","","","990.8999999761581","","","13","13358","5720","y","elianto","#f73b6a7A"," "," ","1","0","[1841.8999999761581]","1","2","","","13358","42","2","3","lose","go","0"
"pit-trial","161","1215774","0.0-47.0","battery-v0.2","","""event"",""trial"",""time""
