"trial_type","trial_index","time_elapsed","internal_node_id","task_version","subject_id","interactions","blur_events","focus_events","fullscreenenter_events","fullscreenexit_events","success","view_history","rt","responses","num_errors","age","subject","participantId","rune","rune_set","hex","correct","choice","accuracy","outcome","keys","total_keys","block","practice","value","sub","trial","stimulus","robot","valence","action","sham"
"pavlovia","0","7","0.0-0.0","battery-v0.2","","""event"",""trial"",""time""
""fullscreenenter"",""1"",""1418""
","
","
","""event"",""trial"",""time""
""fullscreenenter"",""1"",""1418""
","
","","","","","","","","","","","","","","","","","","","","","","","","","","",""
"fullscreen","1","2420","0.0-1.0","battery-v0.2","","""event"",""trial"",""time""
""fullscreenenter"",""1"",""1418""
","
","
","""event"",""trial"",""time""
""fullscreenenter"",""1"",""1418""
","
","true","","","","","","","","","","","","","","","","","","","","","","","","","",""
"pit-instructions","2","8539","0.0-2.0-0.0","battery-v0.2","","""event"",""trial"",""time""
""fullscreenenter"",""1"",""1418""
","
","
","""event"",""trial"",""time""
""fullscreenenter"",""1"",""1418""
","
","","[{""page_index"":0,""viewing_time"":6116}]","6116.599999904633","","","","","","","","","","","","","","","","","","","","","","","",""
"pit-comprehension","3","10910","0.0-2.0-1.0-0.0","battery-v0.2","","""event"",""trial"",""time""
""fullscreenenter"",""1"",""1418""
","
","
","""event"",""trial"",""time""
""fullscreenenter"",""1"",""1418""
","
","","","2367.5999999046326","[""shark""]","0","18","4936","2406","","","","","","","","","","","","","","","","","","",""
"pit-instructions","4","12958","0.0-2.0-1.0-1.0","battery-v0.2","","""event"",""trial"",""time""
""fullscreenenter"",""1"",""1418""
","
","
","""event"",""trial"",""time""
""fullscreenenter"",""1"",""1418""
","
","","[{""page_index"":0,""viewing_time"":2040.4000000953674}]","2040.6999998092651","","","","","","","","","","","","","","","","","","","","","","","",""
"pit-comprehension","5","15064","0.0-2.0-2.0-0.0","battery-v0.2","","""event"",""trial"",""time""
""fullscreenenter"",""1"",""1418""
","
","
","""event"",""trial"",""time""
""fullscreenenter"",""1"",""1418""
","
","","","2101.300000190735","[""tiger""]","0","18","4936","2406","","","","","","","","","","","","","","","","","","",""
"pit-instructions","6","15831","0.0-2.0-2.0-1.0","battery-v0.2","","""event"",""trial"",""time""
""fullscreenenter"",""1"",""1418""
","
","
","""event"",""trial"",""time""
""fullscreenenter"",""1"",""1418""
","
","","[{""page_index"":0,""viewing_time"":764.6999998092651}]","765","","","","","","","","","","","","","","","","","","","","","","","",""
"pit-instructions","7","111374","0.0-2.0-3.0","battery-v0.2","","""event"",""trial"",""time""
""fullscreenenter"",""1"",""1418""
","
","
","""event"",""trial"",""time""
""fullscreenenter"",""1"",""1418""
","
","","[{""page_index"":0,""viewing_time"":9959.699999809265},{""page_index"":1,""viewing_time"":6025},{""page_index"":2,""viewing_time"":7092.200000286102},{""page_index"":3,""viewing_time"":5565.5},{""page_index"":4,""viewing_time"":5988},{""page_index"":5,""viewing_time"":6259.799999713898},{""page_index"":6,""viewing_time"":7237.400000095367},{""page_index"":7,""viewing_time"":6174.699999809265},{""page_index"":8,""viewing_time"":6638.400000095367},{""page_index"":9,""viewing_time"":7684},{""page_index"":10,""viewing_time"":7436.700000286102},{""page_index"":11,""viewing_time"":8072.89999961853},{""page_index"":12,""viewing_time"":6625.900000095367},{""page_index"":13,""viewing_time"":4774.900000095367}]","95535.69999980927","","","","","","","","","","","","","","","","","","","","","","","",""
"pit-trial","8","115085","0.0-2.0-4.0-0.0","battery-v0.2","","""event"",""trial"",""time""
""fullscreenenter"",""1"",""1418""
","
","
","""event"",""trial"",""time""
""fullscreenenter"",""1"",""1418""
","
","","","847","","","18","4936","2406","&#9784;","elianto","#FFFFF080"," "," ","1","&#10004","[1697.6999998092651]","1","0","0","","","","","","","",""
"pit-trial","9","118754","0.0-2.0-4.1-0.1","battery-v0.2","","""event"",""trial"",""time""
""fullscreenenter"",""1"",""1418""
","
","
","""event"",""trial"",""time""
""fullscreenenter"",""1"",""1418""
","
","","","798.4000000953674","","","18","4936","2406","&#9784;","elianto","#FFFFF080"," "," ","1","&#10004","[1653.2999997138977]","1","0","0","","","","","","","",""
"pit-trial","10","122371","0.0-2.0-4.2-0.2","battery-v0.2","","""event"",""trial"",""time""
""fullscreenenter"",""1"",""1418""
","
","
","""event"",""trial"",""time""
""fullscreenenter"",""1"",""1418""
","
","","","743.5999999046326","","","18","4936","2406","&#9784;","elianto","#FFFFF080"," "," ","1","&#10004","[1594.8000001907349]","1","0","0","","","","","","","",""
"pit-trial","11","125905","0.0-2.0-4.3-0.3","battery-v0.2","","""event"",""trial"",""time""
""fullscreenenter"",""1"",""1418""
","
","
","""event"",""trial"",""time""
""fullscreenenter"",""1"",""1418""
","
","","","664.9000000953674","","","18","4936","2406","&#9784;","elianto","#FFFFF080"," "," ","1","&#10004","[1517.1000003814697]","1","0","0","","","","","","","",""
"pit-trial","12","129273","0.0-2.0-4.4-0.4","battery-v0.2","","""event"",""trial"",""time""
""fullscreenenter"",""1"",""1418""
","
","
","""event"",""trial"",""time""
""fullscreenenter"",""1"",""1418""
","
","","","501.30000019073486","","","18","4936","2406","&#9784;","elianto","#FFFFF080"," "," ","1","&#10004","[1353.4000000953674]","1","0","0","","","","","","","",""
"pit-instructions","13","149294","0.0-2.0-5.0","battery-v0.2","","""event"",""trial"",""time""
""fullscreenenter"",""1"",""1418""
","
","
","""event"",""trial"",""time""
""fullscreenenter"",""1"",""1418""
","
","","[{""page_index"":0,""viewing_time"":4969.39999961853},{""page_index"":1,""viewing_time"":5086.700000286102},{""page_index"":2,""viewing_time"":4777},{""page_index"":3,""viewing_time"":5181.099999904633}]","20015","","","","","","","","","","","","","","","","","","","","","","","",""
"pit-trial","14","154167","0.0-2.0-6.0-0.0","battery-v0.2","","""event"",""trial"",""time""
""fullscreenenter"",""1"",""1418""
","
","
","""event"",""trial"",""time""
""fullscreenenter"",""1"",""1418""
","
","","","-1","","","18","4936","2406","&#9854;","elianto","#FFFFF080","-1","-1","1","&#10004","[]","0","0","1","","","","","","","",""
"pit-trial","15","159038","0.0-2.0-6.1-0.1","battery-v0.2","","""event"",""trial"",""time""
""fullscreenenter"",""1"",""1418""
","
","
","""event"",""trial"",""time""
""fullscreenenter"",""1"",""1418""
","
","","","-1","","","18","4936","2406","&#9854;","elianto","#FFFFF080","-1","-1","1","&#10004","[]","0","0","1","","","","","","","",""
"pit-trial","16","163912","0.0-2.0-6.2-0.2","battery-v0.2","","""event"",""trial"",""time""
""fullscreenenter"",""1"",""1418""
","
","
","""event"",""trial"",""time""
""fullscreenenter"",""1"",""1418""
","
","","","-1","","","18","4936","2406","&#9854;","elianto","#FFFFF080","-1","-1","1","&#10004","[]","0","0","1","","","","","","","",""
"pit-trial","17","168782","0.0-2.0-6.3-0.3","battery-v0.2","","""event"",""trial"",""time""
""fullscreenenter"",""1"",""1418""
","
","
","""event"",""trial"",""time""
""fullscreenenter"",""1"",""1418""
","
","","","-1","","","18","4936","2406","&#9854;","elianto","#FFFFF080","-1","-1","1","&#10004","[]","0","0","1","","","","","","","",""
"pit-trial","18","173656","0.0-2.0-6.4-0.4","battery-v0.2","","""event"",""trial"",""time""
""fullscreenenter"",""1"",""1418""
","
","
","""event"",""trial"",""time""
""fullscreenenter"",""1"",""1418""
","
","","","-1","","","18","4936","2406","&#9854;","elianto","#FFFFF080","-1","-1","1","&#10004","[]","0","0","1","","","","","","","",""
"pit-instructions","19","305238","0.0-2.0-7.0","battery-v0.2","","""event"",""trial"",""time""
""fullscreenenter"",""1"",""1418""
","
","
","""event"",""trial"",""time""
""fullscreenenter"",""1"",""1418""
","
","","[{""page_index"":0,""viewing_time"":6368.800000190735},{""page_index"":1,""viewing_time"":7178.5},{""page_index"":2,""viewing_time"":6764.699999809265},{""page_index"":3,""viewing_time"":7346.099999904633},{""page_index"":4,""viewing_time"":5455.099999904633},{""page_index"":5,""viewing_time"":5711.400000095367},{""page_index"":6,""viewing_time"":6167.700000286102},{""page_index"":7,""viewing_time"":8493.89999961853},{""page_index"":8,""viewing_time"":7038.10000038147},{""page_index"":9,""viewing_time"":6520.39999961853},{""page_index"":10,""viewing_time"":6674.800000190735},{""page_index"":11,""viewing_time"":5003},{""page_index"":12,""viewing_time"":9164.900000095367},{""page_index"":13,""viewing_time"":10883.699999809265},{""page_index"":14,""viewing_time"":11022.300000190735},{""page_index"":15,""viewing_time"":6635.099999904633},{""page_index"":16,""viewing_time"":7242.699999809265},{""page_index"":17,""viewing_time"":7902.200000286102}]","131574.80000019073","","","","","","","","","","","","","","","","","","","","","","","",""
"pit-trial","20","308896","0.0-2.0-8.0-0.0","battery-v0.2","","""event"",""trial"",""time""
""fullscreenenter"",""1"",""1418""
","
","
","""event"",""trial"",""time""
""fullscreenenter"",""1"",""1418""
","
","","","793.6999998092651","","","18","4936","2406","&#9776;","elianto","#3366ff99"," "," ","1","+10","[1644.7999997138977]","1","0","1","","","","","","","",""
"pit-trial","21","312414","0.0-2.0-8.0-1.0","battery-v0.2","","""event"",""trial"",""time""
""fullscreenenter"",""1"",""1418""
","
","
","""event"",""trial"",""time""
""fullscreenenter"",""1"",""1418""
","
","","","654.5","","","18","4936","2406","&#9776;","elianto","#3366ff99"," "," ","1","+10","[1509.5]","1","0","1","","","","","","","",""
"pit-trial","22","315682","0.0-2.0-8.0-2.0","battery-v0.2","","""event"",""trial"",""time""
""fullscreenenter"",""1"",""1418""
","
","
","""event"",""trial"",""time""
""fullscreenenter"",""1"",""1418""
","
","","","395.7000002861023","","","18","4936","2406","&#9776;","elianto","#3366ff99"," "," ","1","+10","[1250.5999999046326]","1","0","1","","","","","","","",""
"pit-trial","23","319270","0.0-2.0-8.0-3.0","battery-v0.2","","""event"",""trial"",""time""
""fullscreenenter"",""1"",""1418""
","
","
","""event"",""trial"",""time""
""fullscreenenter"",""1"",""1418""
","
","","","724.5999999046326","","","18","4936","2406","&#9776;","elianto","#3366ff99"," "," ","1","0","[1577.6999998092651]","1","0","1","","","","","","","",""
"pit-trial","24","322584","0.0-2.0-8.0-4.0","battery-v0.2","","""event"",""trial"",""time""
""fullscreenenter"",""1"",""1418""
","
","
","""event"",""trial"",""time""
""fullscreenenter"",""1"",""1418""
","
","","","444.69999980926514","","","18","4936","2406","&#9776;","elianto","#3366ff99"," "," ","1","+10","[1300.3000001907349]","1","0","1","","","","","","","",""
"pit-trial","25","325847","0.0-2.0-8.1-0.1","battery-v0.2","","""event"",""trial"",""time""
""fullscreenenter"",""1"",""1418""
","
","
","""event"",""trial"",""time""
""fullscreenenter"",""1"",""1418""
","
","","","399","","","18","4936","2406","&#9776;","elianto","#3366ff99"," "," ","1","+10","[1252.3000001907349]","1","0","1","","","","","","","",""
"pit-trial","26","329266","0.0-2.0-8.1-1.1","battery-v0.2","","""event"",""trial"",""time""
""fullscreenenter"",""1"",""1418""
","
","
","""event"",""trial"",""time""
""fullscreenenter"",""1"",""1418""
","
","","","545.5","","","18","4936","2406","&#9776;","elianto","#3366ff99"," "," ","1","+10","[1400.5]","1","0","1","","","","","","","",""
"pit-trial","27","332622","0.0-2.0-8.1-2.1","battery-v0.2","","""event"",""trial"",""time""
""fullscreenenter"",""1"",""1418""
","
","
","""event"",""trial"",""time""
""fullscreenenter"",""1"",""1418""
","
","","","493","","","18","4936","2406","&#9776;","elianto","#3366ff99"," "," ","1","+10","[1344.7999997138977]","1","0","1","","","","","","","",""
"pit-trial","28","336354","0.0-2.0-8.1-3.1","battery-v0.2","","""event"",""trial"",""time""
""fullscreenenter"",""1"",""1418""
","
","
","""event"",""trial"",""time""
""fullscreenenter"",""1"",""1418""
","
","","","863.0999999046326","","","18","4936","2406","&#9776;","elianto","#3366ff99"," "," ","1","0","[1713.9000000953674]","1","0","1","","","","","","","",""
"pit-trial","29","339838","0.0-2.0-8.1-4.1","battery-v0.2","","""event"",""trial"",""time""
""fullscreenenter"",""1"",""1418""
","
","
","""event"",""trial"",""time""
""fullscreenenter"",""1"",""1418""
","
","","","616.8000001907349","","","18","4936","2406","&#9776;","elianto","#3366ff99"," "," ","1","+10","[1468.8000001907349]","1","0","1","","","","","","","",""
"pit-trial","30","343197","0.0-2.0-8.2-0.2","battery-v0.2","","""event"",""trial"",""time""
""fullscreenenter"",""1"",""1418""
","
","
","""event"",""trial"",""time""
""fullscreenenter"",""1"",""1418""
","
","","","490.19999980926514","","","18","4936","2406","&#9776;","elianto","#3366ff99"," "," ","1","+10","[1346.2999997138977]","1","0","1","","","","","","","",""
"pit-trial","31","346466","0.0-2.0-8.2-1.2","battery-v0.2","","""event"",""trial"",""time""
""fullscreenenter"",""1"",""1418""
","
","
","""event"",""trial"",""time""
""fullscreenenter"",""1"",""1418""
","
","","","398.5","","","18","4936","2406","&#9776;","elianto","#3366ff99"," "," ","1","+10","[1253.5999999046326]","1","0","1","","","","","","","",""
"pit-trial","32","349751","0.0-2.0-8.2-2.2","battery-v0.2","","""event"",""trial"",""time""
""fullscreenenter"",""1"",""1418""
","
","
","""event"",""trial"",""time""
""fullscreenenter"",""1"",""1418""
","
","","","419.90000009536743","","","18","4936","2406","&#9776;","elianto","#3366ff99"," "," ","1","+10","[1272.0999999046326]","1","0","1","","","","","","","",""
"pit-trial","33","353414","0.0-2.0-8.2-3.2","battery-v0.2","","""event"",""trial"",""time""
""fullscreenenter"",""1"",""1418""
","
","
","""event"",""trial"",""time""
""fullscreenenter"",""1"",""1418""
","
","","","795.4000000953674","","","18","4936","2406","&#9776;","elianto","#3366ff99"," "," ","1","0","[1647]","1","0","1","","","","","","","",""
"pit-trial","34","356793","0.0-2.0-8.2-4.2","battery-v0.2","","""event"",""trial"",""time""
""fullscreenenter"",""1"",""1418""
","
","
","""event"",""trial"",""time""
""fullscreenenter"",""1"",""1418""
","
","","","508.09999990463257","","","18","4936","2406","&#9776;","elianto","#3366ff99"," "," ","1","+10","[1364.5]","1","0","1","","","","","","","",""
"call-function","35","356798","0.0-2.0-9.0","battery-v0.2","","""event"",""trial"",""time""
""fullscreenenter"",""1"",""1418""
","
","
","""event"",""trial"",""time""
""fullscreenenter"",""1"",""1418""
","
","","","","","","","","","","","","","","","","","","","","","","","","","","",""
"pit-instructions","36","399273","0.0-2.0-10.0","battery-v0.2","","""event"",""trial"",""time""
""fullscreenenter"",""1"",""1418""
","
","
","""event"",""trial"",""time""
""fullscreenenter"",""1"",""1418""
","
","","[{""page_index"":0,""viewing_time"":6724.900000095367},{""page_index"":1,""viewing_time"":7967.800000190735},{""page_index"":2,""viewing_time"":11577.299999713898},{""page_index"":3,""viewing_time"":9023.200000286102},{""page_index"":4,""viewing_time"":7179.699999809265}]","42473.5","","","","","","","","","","","","","","","","","","","","","","","",""
"pit-trial","37","404145","0.0-2.0-11.0-0.0","battery-v0.2","","""event"",""trial"",""time""
""fullscreenenter"",""1"",""1418""
","
","
","""event"",""trial"",""time""
""fullscreenenter"",""1"",""1418""
","
","","","-1","","","18","4936","2406","&#9761;","elianto","#3366ff99","-1","-1","1","+10","[]","0","0","2","","","","","","","",""
"pit-trial","38","409015","0.0-2.0-11.0-1.0","battery-v0.2","","""event"",""trial"",""time""
""fullscreenenter"",""1"",""1418""
","
","
","""event"",""trial"",""time""
""fullscreenenter"",""1"",""1418""
","
","","","-1","","","18","4936","2406","&#9761;","elianto","#3366ff99","-1","-1","1","+10","[]","0","0","2","","","","","","","",""
"pit-trial","39","413887","0.0-2.0-11.0-2.0","battery-v0.2","","""event"",""trial"",""time""
""fullscreenenter"",""1"",""1418""
","
","
","""event"",""trial"",""time""
""fullscreenenter"",""1"",""1418""
","
","","","-1","","","18","4936","2406","&#9761;","elianto","#3366ff99","-1","-1","1","+10","[]","0","0","2","","","","","","","",""
"pit-trial","40","418762","0.0-2.0-11.0-3.0","battery-v0.2","","""event"",""trial"",""time""
""fullscreenenter"",""1"",""1418""
","
","
","""event"",""trial"",""time""
""fullscreenenter"",""1"",""1418""
","
","","","-1","","","18","4936","2406","&#9761;","elianto","#3366ff99","-1","-1","1","0","[]","0","0","2","","","","","","","",""
"pit-trial","41","423635","0.0-2.0-11.0-4.0","battery-v0.2","","""event"",""trial"",""time""
""fullscreenenter"",""1"",""1418""
","
","
","""event"",""trial"",""time""
""fullscreenenter"",""1"",""1418""
","
","","","-1","","","18","4936","2406","&#9761;","elianto","#3366ff99","-1","-1","1","+10","[]","0","0","2","","","","","","","",""
"pit-trial","42","428502","0.0-2.0-11.1-0.1","battery-v0.2","","""event"",""trial"",""time""
""fullscreenenter"",""1"",""1418""
","
","
","""event"",""trial"",""time""
""fullscreenenter"",""1"",""1418""
","
","","","-1","","","18","4936","2406","&#9761;","elianto","#3366ff99","-1","-1","1","+10","[]","0","0","2","","","","","","","",""
"pit-trial","43","433368","0.0-2.0-11.1-1.1","battery-v0.2","","""event"",""trial"",""time""
""fullscreenenter"",""1"",""1418""
","
","
","""event"",""trial"",""time""
""fullscreenenter"",""1"",""1418""
","
","","","-1","","","18","4936","2406","&#9761;","elianto","#3366ff99","-1","-1","1","+10","[]","0","0","2","","","","","","","",""
"pit-trial","44","438243","0.0-2.0-11.1-2.1","battery-v0.2","","""event"",""trial"",""time""
""fullscreenenter"",""1"",""1418""
","
","
","""event"",""trial"",""time""
""fullscreenenter"",""1"",""1418""
","
","","","-1","","","18","4936","2406","&#9761;","elianto","#3366ff99","-1","-1","1","+10","[]","0","0","2","","","","","","","",""
"pit-trial","45","443114","0.0-2.0-11.1-3.1","battery-v0.2","","""event"",""trial"",""time""
""fullscreenenter"",""1"",""1418""
","
","
","""event"",""trial"",""time""
""fullscreenenter"",""1"",""1418""
","
","","","-1","","","18","4936","2406","&#9761;","elianto","#3366ff99","-1","-1","1","0","[]","0","0","2","","","","","","","",""
"pit-trial","46","447987","0.0-2.0-11.1-4.1","battery-v0.2","","""event"",""trial"",""time""
""fullscreenenter"",""1"",""1418""
","
","
","""event"",""trial"",""time""
""fullscreenenter"",""1"",""1418""
","
","","","-1","","","18","4936","2406","&#9761;","elianto","#3366ff99","-1","-1","1","+10","[]","0","0","2","","","","","","","",""
"pit-trial","47","452857","0.0-2.0-11.2-0.2","battery-v0.2","","""event"",""trial"",""time""
""fullscreenenter"",""1"",""1418""
","
","
","""event"",""trial"",""time""
""fullscreenenter"",""1"",""1418""
","
","","","-1","","","18","4936","2406","&#9761;","elianto","#3366ff99","-1","-1","1","+10","[]","0","0","2","","","","","","","",""
"pit-trial","48","457731","0.0-2.0-11.2-1.2","battery-v0.2","","""event"",""trial"",""time""
""fullscreenenter"",""1"",""1418""
","
","
","""event"",""trial"",""time""
""fullscreenenter"",""1"",""1418""
","
","","","-1","","","18","4936","2406","&#9761;","elianto","#3366ff99","-1","-1","1","+10","[]","0","0","2","","","","","","","",""
"pit-trial","49","462601","0.0-2.0-11.2-2.2","battery-v0.2","","""event"",""trial"",""time""
""fullscreenenter"",""1"",""1418""
","
","
","""event"",""trial"",""time""
""fullscreenenter"",""1"",""1418""
","
","","","-1","","","18","4936","2406","&#9761;","elianto","#3366ff99","-1","-1","1","+10","[]","0","0","2","","","","","","","",""
"pit-trial","50","467475","0.0-2.0-11.2-3.2","battery-v0.2","","""event"",""trial"",""time""
""fullscreenenter"",""1"",""1418""
","
","
","""event"",""trial"",""time""
""fullscreenenter"",""1"",""1418""
","
","","","-1","","","18","4936","2406","&#9761;","elianto","#3366ff99","-1","-1","1","0","[]","0","0","2","","","","","","","",""
"pit-trial","51","472342","0.0-2.0-11.2-4.2","battery-v0.2","","""event"",""trial"",""time""
""fullscreenenter"",""1"",""1418""
","
","
","""event"",""trial"",""time""
""fullscreenenter"",""1"",""1418""
","
","","","-1","","","18","4936","2406","&#9761;","elianto","#3366ff99","-1","-1","1","+10","[]","0","0","2","","","","","","","",""
"pit-trial","52","477207","0.0-2.0-11.3-0.3","battery-v0.2","","""event"",""trial"",""time""
""fullscreenenter"",""1"",""1418""
","
","
","""event"",""trial"",""time""
""fullscreenenter"",""1"",""1418""
","
","","","-1","","","18","4936","2406","&#9761;","elianto","#3366ff99","-1","-1","1","+10","[]","0","0","2","","","","","","","",""
"pit-trial","53","482083","0.0-2.0-11.3-1.3","battery-v0.2","","""event"",""trial"",""time""
""fullscreenenter"",""1"",""1418""
","
","
","""event"",""trial"",""time""
""fullscreenenter"",""1"",""1418""
","
","","","-1","","","18","4936","2406","&#9761;","elianto","#3366ff99","-1","-1","1","+10","[]","0","0","2","","","","","","","",""
"pit-trial","54","486954","0.0-2.0-11.3-2.3","battery-v0.2","","""event"",""trial"",""time""
""fullscreenenter"",""1"",""1418""
","
","
","""event"",""trial"",""time""
""fullscreenenter"",""1"",""1418""
","
","","","-1","","","18","4936","2406","&#9761;","elianto","#3366ff99","-1","-1","1","+10","[]","0","0","2","","","","","","","",""
"pit-trial","55","491826","0.0-2.0-11.3-3.3","battery-v0.2","","""event"",""trial"",""time""
""fullscreenenter"",""1"",""1418""
","
","
","""event"",""trial"",""time""
""fullscreenenter"",""1"",""1418""
","
","","","-1","","","18","4936","2406","&#9761;","elianto","#3366ff99","-1","-1","1","0","[]","0","0","2","","","","","","","",""
"pit-trial","56","496700","0.0-2.0-11.3-4.3","battery-v0.2","","""event"",""trial"",""time""
""fullscreenenter"",""1"",""1418""
","
","
","""event"",""trial"",""time""
""fullscreenenter"",""1"",""1418""
","
","","","-1","","","18","4936","2406","&#9761;","elianto","#3366ff99","-1","-1","1","+10","[]","0","0","2","","","","","","","",""
"call-function","57","496705","0.0-2.0-12.0","battery-v0.2","","""event"",""trial"",""time""
""fullscreenenter"",""1"",""1418""
","
","
","""event"",""trial"",""time""
""fullscreenenter"",""1"",""1418""
","
","","","","","","","","","","","","","","","","","","","","","","","","","","",""
"pit-instructions","58","530344","0.0-2.0-13.0","battery-v0.2","","""event"",""trial"",""time""
""fullscreenenter"",""1"",""1418""
","
","
","""event"",""trial"",""time""
""fullscreenenter"",""1"",""1418""
","
","","[{""page_index"":0,""viewing_time"":7049.5},{""page_index"":1,""viewing_time"":8004.300000190735},{""page_index"":2,""viewing_time"":3700.0999999046326},{""page_index"":3,""viewing_time"":10144},{""page_index"":4,""viewing_time"":4738.5}]","33637.2000002861","","","","","","","","","","","","","","","","","","","","","","","",""
"pit-trial","59","533523","0.0-2.0-14.0-0.0","battery-v0.2","","""event"",""trial"",""time""
""fullscreenenter"",""1"",""1418""
","
","
","""event"",""trial"",""time""
""fullscreenenter"",""1"",""1418""
","
","","","319.19999980926514","","","18","4936","2406","&#9826;","elianto","#f73b6a7A","-1"," ","0","-10","[1169.1999998092651]","1","0","3","","","","","","","",""
"pit-trial","60","536827","0.0-2.0-14.0-1.0","battery-v0.2","","""event"",""trial"",""time""
""fullscreenenter"",""1"",""1418""
","
","
","""event"",""trial"",""time""
""fullscreenenter"",""1"",""1418""
","
","","","433.69999980926514","","","18","4936","2406","&#9826;","elianto","#f73b6a7A","-1"," ","0","-10","[1284.3000001907349]","1","0","3","","","","","","","",""
"pit-trial","61","541695","0.0-2.0-14.0-2.0","battery-v0.2","","""event"",""trial"",""time""
""fullscreenenter"",""1"",""1418""
","
","
","""event"",""trial"",""time""
""fullscreenenter"",""1"",""1418""
","
","","","-1","","","18","4936","2406","&#9826;","elianto","#f73b6a7A","-1","-1","1","0","[]","0","0","3","","","","","","","",""
"pit-trial","62","546571","0.0-2.0-14.0-3.0","battery-v0.2","","""event"",""trial"",""time""
""fullscreenenter"",""1"",""1418""
","
","
","""event"",""trial"",""time""
""fullscreenenter"",""1"",""1418""
","
","","","-1","","","18","4936","2406","&#9826;","elianto","#f73b6a7A","-1","-1","1","-10","[]","0","0","3","","","","","","","",""
"pit-trial","63","551442","0.0-2.0-14.0-4.0","battery-v0.2","","""event"",""trial"",""time""
""fullscreenenter"",""1"",""1418""
","
","
","""event"",""trial"",""time""
""fullscreenenter"",""1"",""1418""
","
","","","-1","","","18","4936","2406","&#9826;","elianto","#f73b6a7A","-1","-1","1","0","[]","0","0","3","","","","","","","",""
"pit-trial","64","556315","0.0-2.0-14.1-0.1","battery-v0.2","","""event"",""trial"",""time""
""fullscreenenter"",""1"",""1418""
","
","
","""event"",""trial"",""time""
""fullscreenenter"",""1"",""1418""
","
","","","-1","","","18","4936","2406","&#9826;","elianto","#f73b6a7A","-1","-1","1","0","[]","0","0","3","","","","","","","",""
"pit-trial","65","561186","0.0-2.0-14.1-1.1","battery-v0.2","","""event"",""trial"",""time""
""fullscreenenter"",""1"",""1418""
","
","
","""event"",""trial"",""time""
""fullscreenenter"",""1"",""1418""
","
","","","-1","","","18","4936","2406","&#9826;","elianto","#f73b6a7A","-1","-1","1","0","[]","0","0","3","","","","","","","",""
"pit-trial","66","566058","0.0-2.0-14.1-2.1","battery-v0.2","","""event"",""trial"",""time""
""fullscreenenter"",""1"",""1418""
","
","
","""event"",""trial"",""time""
""fullscreenenter"",""1"",""1418""
","
","","","-1","","","18","4936","2406","&#9826;","elianto","#f73b6a7A","-1","-1","1","0","[]","0","0","3","","","","","","","",""
"pit-trial","67","570930","0.0-2.0-14.1-3.1","battery-v0.2","","""event"",""trial"",""time""
""fullscreenenter"",""1"",""1418""
","
","
","""event"",""trial"",""time""
""fullscreenenter"",""1"",""1418""
","
","","","-1","","","18","4936","2406","&#9826;","elianto","#f73b6a7A","-1","-1","1","-10","[]","0","0","3","","","","","","","",""
"pit-trial","68","575799","0.0-2.0-14.1-4.1","battery-v0.2","","""event"",""trial"",""time""
""fullscreenenter"",""1"",""1418""
","
","
","""event"",""trial"",""time""
""fullscreenenter"",""1"",""1418""
","
","","","-1","","","18","4936","2406","&#9826;","elianto","#f73b6a7A","-1","-1","1","0","[]","0","0","3","","","","","","","",""
"pit-trial","69","580666","0.0-2.0-14.2-0.2","battery-v0.2","","""event"",""trial"",""time""
""fullscreenenter"",""1"",""1418""
","
","
","""event"",""trial"",""time""
""fullscreenenter"",""1"",""1418""
","
","","","-1","","","18","4936","2406","&#9826;","elianto","#f73b6a7A","-1","-1","1","0","[]","0","0","3","","","","","","","",""
"pit-trial","70","585537","0.0-2.0-14.2-1.2","battery-v0.2","","""event"",""trial"",""time""
""fullscreenenter"",""1"",""1418""
","
","
","""event"",""trial"",""time""
""fullscreenenter"",""1"",""1418""
","
","","","-1","","","18","4936","2406","&#9826;","elianto","#f73b6a7A","-1","-1","1","0","[]","0","0","3","","","","","","","",""
"pit-trial","71","590412","0.0-2.0-14.2-2.2","battery-v0.2","","""event"",""trial"",""time""
""fullscreenenter"",""1"",""1418""
","
","
","""event"",""trial"",""time""
""fullscreenenter"",""1"",""1418""
","
","","","-1","","","18","4936","2406","&#9826;","elianto","#f73b6a7A","-1","-1","1","0","[]","0","0","3","","","","","","","",""
"pit-trial","72","595284","0.0-2.0-14.2-3.2","battery-v0.2","","""event"",""trial"",""time""
""fullscreenenter"",""1"",""1418""
","
","
","""event"",""trial"",""time""
""fullscreenenter"",""1"",""1418""
","
","","","-1","","","18","4936","2406","&#9826;","elianto","#f73b6a7A","-1","-1","1","-10","[]","0","0","3","","","","","","","",""
"pit-trial","73","600152","0.0-2.0-14.2-4.2","battery-v0.2","","""event"",""trial"",""time""
""fullscreenenter"",""1"",""1418""
","
","
","""event"",""trial"",""time""
""fullscreenenter"",""1"",""1418""
","
","","","-1","","","18","4936","2406","&#9826;","elianto","#f73b6a7A","-1","-1","1","0","[]","0","0","3","","","","","","","",""
"pit-trial","74","605027","0.0-2.0-14.3-0.3","battery-v0.2","","""event"",""trial"",""time""
""fullscreenenter"",""1"",""1418""
","
","
","""event"",""trial"",""time""
""fullscreenenter"",""1"",""1418""
","
","","","-1","","","18","4936","2406","&#9826;","elianto","#f73b6a7A","-1","-1","1","0","[]","0","0","3","","","","","","","",""
"pit-trial","75","609900","0.0-2.0-14.3-1.3","battery-v0.2","","""event"",""trial"",""time""
""fullscreenenter"",""1"",""1418""
","
","
","""event"",""trial"",""time""
""fullscreenenter"",""1"",""1418""
","
","","","-1","","","18","4936","2406","&#9826;","elianto","#f73b6a7A","-1","-1","1","0","[]","0","0","3","","","","","","","",""
"pit-trial","76","614769","0.0-2.0-14.3-2.3","battery-v0.2","","""event"",""trial"",""time""
""fullscreenenter"",""1"",""1418""
","
","
","""event"",""trial"",""time""
""fullscreenenter"",""1"",""1418""
","
","","","-1","","","18","4936","2406","&#9826;","elianto","#f73b6a7A","-1","-1","1","0","[]","0","0","3","","","","","","","",""
"pit-trial","77","619643","0.0-2.0-14.3-3.3","battery-v0.2","","""event"",""trial"",""time""
""fullscreenenter"",""1"",""1418""
","
","
","""event"",""trial"",""time""
""fullscreenenter"",""1"",""1418""
","
","","","-1","","","18","4936","2406","&#9826;","elianto","#f73b6a7A","-1","-1","1","-10","[]","0","0","3","","","","","","","",""
"pit-trial","78","624515","0.0-2.0-14.3-4.3","battery-v0.2","","""event"",""trial"",""time""
""fullscreenenter"",""1"",""1418""
","
","
","""event"",""trial"",""time""
""fullscreenenter"",""1"",""1418""
","
","","","-1","","","18","4936","2406","&#9826;","elianto","#f73b6a7A","-1","-1","1","0","[]","0","0","3","","","","","","","",""
"call-function","79","624519","0.0-2.0-15.0","battery-v0.2","","""event"",""trial"",""time""
""fullscreenenter"",""1"",""1418""
","
","
","""event"",""trial"",""time""
""fullscreenenter"",""1"",""1418""
","
","","","","","","","","","","","","","","","","","","","","","","","","","","",""
"pit-instructions","80","651902","0.0-2.0-16.0","battery-v0.2","","""event"",""trial"",""time""
""fullscreenenter"",""1"",""1418""
","
","
","""event"",""trial"",""time""
""fullscreenenter"",""1"",""1418""
","
","","[{""page_index"":0,""viewing_time"":6030.5},{""page_index"":1,""viewing_time"":8365.60000038147},{""page_index"":2,""viewing_time"":5135.799999713898},{""page_index"":3,""viewing_time"":7849.900000095367}]","27382.200000286102","","","","","","","","","","","","","","","","","","","","","","","",""
"pit-trial","81","655306","0.0-2.0-17.0-0.0","battery-v0.2","","""event"",""trial"",""time""
""fullscreenenter"",""1"",""1418""
","
","
","""event"",""trial"",""time""
""fullscreenenter"",""1"",""1418""
","
","","","545","","","18","4936","2406","&#9789;","elianto","#f73b6a7A"," "," ","1","0","[1396.6999998092651]","1","0","4","","","","","","","",""
"pit-trial","82","658331","0.0-2.0-17.0-1.0","battery-v0.2","","""event"",""trial"",""time""
""fullscreenenter"",""1"",""1418""
","
","
","""event"",""trial"",""time""
""fullscreenenter"",""1"",""1418""
","
","","","168.09999990463257","","","18","4936","2406","&#9789;","elianto","#f73b6a7A"," "," ","1","0","[1018.4000000953674]","1","0","4","","","","","","","",""
"pit-trial","83","661604","0.0-2.0-17.0-2.0","battery-v0.2","","""event"",""trial"",""time""
""fullscreenenter"",""1"",""1418""
","
","
","""event"",""trial"",""time""
""fullscreenenter"",""1"",""1418""
","
","","","409.59999990463257","","","18","4936","2406","&#9789;","elianto","#f73b6a7A"," "," ","1","0","[1259.6000003814697]","1","0","4","","","","","","","",""
"pit-trial","84","664833","0.0-2.0-17.0-3.0","battery-v0.2","","""event"",""trial"",""time""
""fullscreenenter"",""1"",""1418""
","
","
","""event"",""trial"",""time""
""fullscreenenter"",""1"",""1418""
","
","","","368.40000009536743","","","18","4936","2406","&#9789;","elianto","#f73b6a7A"," "," ","1","-10","[1218.4000000953674]","1","0","4","","","","","","","",""
"pit-trial","85","667932","0.0-2.0-17.0-4.0","battery-v0.2","","""event"",""trial"",""time""
""fullscreenenter"",""1"",""1418""
","
","
","""event"",""trial"",""time""
""fullscreenenter"",""1"",""1418""
","
","","","228.40000009536743","","","18","4936","2406","&#9789;","elianto","#f73b6a7A"," "," ","1","0","[1082.9000000953674]","1","0","4","","","","","","","",""
"pit-trial","86","671444","0.0-2.0-17.1-0.1","battery-v0.2","","""event"",""trial"",""time""
""fullscreenenter"",""1"",""1418""
","
","
","""event"",""trial"",""time""
""fullscreenenter"",""1"",""1418""
","
","","","641.6999998092651","","","18","4936","2406","&#9789;","elianto","#f73b6a7A"," "," ","1","0","[1493.0999999046326]","1","0","4","","","","","","","",""
"pit-trial","87","674688","0.0-2.0-17.1-1.1","battery-v0.2","","""event"",""trial"",""time""
""fullscreenenter"",""1"",""1418""
","
","
","""event"",""trial"",""time""
""fullscreenenter"",""1"",""1418""
","
","","","379.6000003814697","","","18","4936","2406","&#9789;","elianto","#f73b6a7A"," "," ","1","0","[1232]","1","0","4","","","","","","","",""
"pit-trial","88","677737","0.0-2.0-17.1-2.1","battery-v0.2","","""event"",""trial"",""time""
""fullscreenenter"",""1"",""1418""
","
","
","""event"",""trial"",""time""
""fullscreenenter"",""1"",""1418""
","
","","","192.09999990463257","","","18","4936","2406","&#9789;","elianto","#f73b6a7A"," "," ","1","0","[1042.9000000953674]","1","0","4","","","","","","","",""
"pit-trial","89","681392","0.0-2.0-17.1-3.1","battery-v0.2","","""event"",""trial"",""time""
""fullscreenenter"",""1"",""1418""
","
","
","""event"",""trial"",""time""
""fullscreenenter"",""1"",""1418""
","
","","","790.6999998092651","","","18","4936","2406","&#9789;","elianto","#f73b6a7A"," "," ","1","-10","[1645.6999998092651]","1","0","4","","","","","","","",""
"pit-trial","90","684749","0.0-2.0-17.1-4.1","battery-v0.2","","""event"",""trial"",""time""
""fullscreenenter"",""1"",""1418""
","
","
","""event"",""trial"",""time""
""fullscreenenter"",""1"",""1418""
","
","","","489.59999990463257","","","18","4936","2406","&#9789;","elianto","#f73b6a7A"," "," ","1","0","[1343.5]","1","0","4","","","","","","","",""
"pit-trial","91","688126","0.0-2.0-17.2-0.2","battery-v0.2","","""event"",""trial"",""time""
""fullscreenenter"",""1"",""1418""
","
","
","""event"",""trial"",""time""
""fullscreenenter"",""1"",""1418""
","
","","","506.59999990463257","","","18","4936","2406","&#9789;","elianto","#f73b6a7A"," "," ","1","0","[1357.2000002861023]","1","0","4","","","","","","","",""
"pit-trial","92","691801","0.0-2.0-17.2-1.2","battery-v0.2","","""event"",""trial"",""time""
""fullscreenenter"",""1"",""1418""
","
","
","""event"",""trial"",""time""
""fullscreenenter"",""1"",""1418""
","
","","","809.8999996185303","","","18","4936","2406","&#9789;","elianto","#f73b6a7A"," "," ","1","0","[1660.6999998092651]","1","0","4","","","","","","","",""
"pit-trial","93","695027","0.0-2.0-17.2-2.2","battery-v0.2","","""event"",""trial"",""time""
""fullscreenenter"",""1"",""1418""
","
","
","""event"",""trial"",""time""
""fullscreenenter"",""1"",""1418""
","
","","","367.40000009536743","","","18","4936","2406","&#9789;","elianto","#f73b6a7A"," "," ","1","0","[1219.8000001907349]","1","0","4","","","","","","","",""
"pit-trial","94","698675","0.0-2.0-17.2-3.2","battery-v0.2","","""event"",""trial"",""time""
""fullscreenenter"",""1"",""1418""
","
","
","""event"",""trial"",""time""
""fullscreenenter"",""1"",""1418""
","
","","","786.4000000953674","","","18","4936","2406","&#9789;","elianto","#f73b6a7A"," "," ","1","-10","[1637.1999998092651]","1","0","4","","","","","","","",""
"pit-trial","95","703545","0.0-2.0-17.2-4.2","battery-v0.2","","""event"",""trial"",""time""
""fullscreenenter"",""1"",""1418""
","
","
","""event"",""trial"",""time""
""fullscreenenter"",""1"",""1418""
","
","","","-1","","","18","4936","2406","&#9789;","elianto","#f73b6a7A"," ","-1","0","-10","[]","0","0","4","","","","","","","",""
"pit-trial","96","706953","0.0-2.0-17.3-0.3","battery-v0.2","","""event"",""trial"",""time""
""fullscreenenter"",""1"",""1418""
","
","
","""event"",""trial"",""time""
""fullscreenenter"",""1"",""1418""
","
","","","543.4000000953674","","","18","4936","2406","&#9789;","elianto","#f73b6a7A"," "," ","1","0","[1398]","1","0","4","","","","","","","",""
"pit-trial","97","710669","0.0-2.0-17.3-1.3","battery-v0.2","","""event"",""trial"",""time""
""fullscreenenter"",""1"",""1418""
","
","
","""event"",""trial"",""time""
""fullscreenenter"",""1"",""1418""
","
","","","849.8000001907349","","","18","4936","2406","&#9789;","elianto","#f73b6a7A"," "," ","1","0","[1701.6999998092651]","1","0","4","","","","","","","",""
"pit-trial","98","714436","0.0-2.0-17.3-2.3","battery-v0.2","","""event"",""trial"",""time""
""fullscreenenter"",""1"",""1418""
","
","
","""event"",""trial"",""time""
""fullscreenenter"",""1"",""1418""
","
","","","898.1000003814697","","","18","4936","2406","&#9789;","elianto","#f73b6a7A"," "," ","1","0","[1751.0999999046326]","1","0","4","","","","","","","",""
"pit-trial","99","719122","0.0-2.0-17.3-3.3","battery-v0.2","","""event"",""trial"",""time""
""fullscreenenter"",""1"",""1418""
","
","
","""event"",""trial"",""time""
""fullscreenenter"",""1"",""1418""
","
","","","1818.9000000953674","","","18","4936","2406","&#9789;","elianto","#f73b6a7A"," "," ","1","-10","[2671.2000002861023]","1","0","4","","","","","","","",""
"pit-trial","100","722401","0.0-2.0-17.3-4.3","battery-v0.2","","""event"",""trial"",""time""
""fullscreenenter"",""1"",""1418""
","
","
","""event"",""trial"",""time""
""fullscreenenter"",""1"",""1418""
","
","","","410.30000019073486","","","18","4936","2406","&#9789;","elianto","#f73b6a7A"," "," ","1","0","[1264.2999997138977]","1","0","4","","","","","","","",""
"call-function","101","722407","0.0-2.0-18.0","battery-v0.2","","""event"",""trial"",""time""
""fullscreenenter"",""1"",""1418""
","
","
","""event"",""trial"",""time""
""fullscreenenter"",""1"",""1418""
","
","","","","","","","","","","","","","","","","","","","","","","","","","","",""
"pit-instructions","102","787340","0.0-2.0-19.0","battery-v0.2","","""event"",""trial"",""time""
""fullscreenenter"",""1"",""1418""
","
","
","""event"",""trial"",""time""
""fullscreenenter"",""1"",""1418""
","
","","[{""page_index"":0,""viewing_time"":6496.89999961853},{""page_index"":1,""viewing_time"":6608.60000038147},{""page_index"":2,""viewing_time"":8057.699999809265},{""page_index"":3,""viewing_time"":7820.599999904633},{""page_index"":4,""viewing_time"":8546.099999904633},{""page_index"":5,""viewing_time"":8362.60000038147},{""page_index"":6,""viewing_time"":9492.5},{""page_index"":7,""viewing_time"":5724},{""page_index"":8,""viewing_time"":3821}]","64930.89999961853","","","","","","","","","","","","","","","","","","","","","","","",""
"pit-comprehension","103","791581","0.0-2.0-20.0-0.0","battery-v0.2","","""event"",""trial"",""time""
""fullscreenenter"",""1"",""1418""
","
","
","""event"",""trial"",""time""
""fullscreenenter"",""1"",""1418""
","
","","","4235.099999904633","[""SPACE""]","0","18","4936","2406","","","","","","","","","","","","","","","","","","",""
"pit-instructions","104","794987","0.0-2.0-20.0-1.0","battery-v0.2","","""event"",""trial"",""time""
""fullscreenenter"",""1"",""1418""
","
","
","""event"",""trial"",""time""
""fullscreenenter"",""1"",""1418""
","
","","[{""page_index"":0,""viewing_time"":3381.199999809265}]","3381.9000000953674","","","","","","","","","","","","","","","","","","","","","","","",""
"pit-comprehension","105","799736","0.0-2.0-21.0-0.0","battery-v0.2","","""event"",""trial"",""time""
""fullscreenenter"",""1"",""1418""
","
","
","""event"",""trial"",""time""
""fullscreenenter"",""1"",""1418""
","
","","","4743.299999713898","[""10""]","0","18","4936","2406","","","","","","","","","","","","","","","","","","",""
"pit-instructions","106","802152","0.0-2.0-21.0-1.0","battery-v0.2","","""event"",""trial"",""time""
""fullscreenenter"",""1"",""1418""
","
","
","""event"",""trial"",""time""
""fullscreenenter"",""1"",""1418""
","
","","[{""page_index"":0,""viewing_time"":2398.9000000953674}]","2399.2000002861023","","","","","","","","","","","","","","","","","","","","","","","",""
"pit-comprehension","107","808917","0.0-2.0-22.0-0.0","battery-v0.2","","""event"",""trial"",""time""
""fullscreenenter"",""1"",""1418""
","
","
","""event"",""trial"",""time""
""fullscreenenter"",""1"",""1418""
","
","","","6760.599999904633","[""0""]","0","18","4936","2406","","","","","","","","","","","","","","","","","","",""
"pit-instructions","108","813034","0.0-2.0-22.0-1.0","battery-v0.2","","""event"",""trial"",""time""
""fullscreenenter"",""1"",""1418""
","
","
","""event"",""trial"",""time""
""fullscreenenter"",""1"",""1418""
","
","","[{""page_index"":0,""viewing_time"":4095.4000000953674}]","4095.5999999046326","","","","","","","","","","","","","","","","","","","","","","","",""
"pit-comprehension","109","823319","0.0-2.0-23.0-0.0","battery-v0.2","","""event"",""trial"",""time""
""fullscreenenter"",""1"",""1418""
","
","
","""event"",""trial"",""time""
""fullscreenenter"",""1"",""1418""
","
","","","10281.099999904633","[""True""]","0","18","4936","2406","","","","","","","","","","","","","","","","","","",""
"pit-instructions","110","826084","0.0-2.0-23.0-1.0","battery-v0.2","","""event"",""trial"",""time""
""fullscreenenter"",""1"",""1418""
","
","
","""event"",""trial"",""time""
""fullscreenenter"",""1"",""1418""
","
","","[{""page_index"":0,""viewing_time"":2745.8999996185303}]","2746.0999999046326","","","","","","","","","","","","","","","","","","","","","","","",""
"pit-comprehension","111","833153","0.0-2.0-24.0-0.0","battery-v0.2","","""event"",""trial"",""time""
""fullscreenenter"",""1"",""1418""
","
","
","""event"",""trial"",""time""
""fullscreenenter"",""1"",""1418""
","
","","","7065.400000095367","[""True""]","0","18","4936","2406","","","","","","","","","","","","","","","","","","",""
"pit-instructions","112","834844","0.0-2.0-24.0-1.0","battery-v0.2","","""event"",""trial"",""time""
""fullscreenenter"",""1"",""1418""
","
","
","""event"",""trial"",""time""
""fullscreenenter"",""1"",""1418""
","
","","[{""page_index"":0,""viewing_time"":1672.4000000953674}]","1672.5999999046326","","","","","","","","","","","","","","","","","","","","","","","",""
"pit-comprehension","113","841273","0.0-2.0-25.0-0.0","battery-v0.2","","""event"",""trial"",""time""
""fullscreenenter"",""1"",""1418""
","
","
","""event"",""trial"",""time""
""fullscreenenter"",""1"",""1418""
","
","","","6426.199999809265","[""True""]","0","18","4936","2406","","","","","","","","","","","","","","","","","","",""
"pit-instructions","114","842794","0.0-2.0-25.0-1.0","battery-v0.2","","""event"",""trial"",""time""
""fullscreenenter"",""1"",""1418""
","
","
","""event"",""trial"",""time""
""fullscreenenter"",""1"",""1418""
","
","","[{""page_index"":0,""viewing_time"":1500.5}]","1500.7000002861023","","","","","","","","","","","","","","","","","","","","","","","",""
"pit-comprehension","115","848964","0.0-2.0-26.0-0.0","battery-v0.2","","""event"",""trial"",""time""
""fullscreenenter"",""1"",""1418""
","
","
","""event"",""trial"",""time""
""fullscreenenter"",""1"",""1418""
","
","","","6166.60000038147","[""False""]","0","18","4936","2406","","","","","","","","","","","","","","","","","","",""
"pit-instructions","116","850985","0.0-2.0-26.0-1.0","battery-v0.2","","""event"",""trial"",""time""
""fullscreenenter"",""1"",""1418""
","
","
","""event"",""trial"",""time""
""fullscreenenter"",""1"",""1418""
","
","","[{""page_index"":0,""viewing_time"":2000.4000000953674}]","2000.5999999046326","","","","","","","","","","","","","","","","","","","","","","","",""
"pit-instructions","117","868863","0.0-3.0","battery-v0.2","","""event"",""trial"",""time""
""fullscreenenter"",""1"",""1418""
","
","
","""event"",""trial"",""time""
""fullscreenenter"",""1"",""1418""
","
","","[{""page_index"":0,""viewing_time"":5202.300000190735},{""page_index"":1,""viewing_time"":6125.599999904633},{""page_index"":2,""viewing_time"":6548.400000095367}]","17876.700000286102","","","","","","","","","","","","","","","","","","","","","","","",""
"pit-trial","118","872582","0.0-4.0","battery-v0.2","","""event"",""trial"",""time""
""fullscreenenter"",""1"",""1418""
","
","
","""event"",""trial"",""time""
""fullscreenenter"",""1"",""1418""
","
","","","846.4000000953674","","","18","4936","2406","&#9730;","elianto","#3366ff99"," "," ","1","+10","[1699.8999996185303]","1","1","","","4936","1","1","1","win","go","0"
"pit-trial","119","876292","0.0-5.0","battery-v0.2","","""event"",""trial"",""time""
""fullscreenenter"",""1"",""1418""
","
","
","""event"",""trial"",""time""
""fullscreenenter"",""1"",""1418""
","
","","","841","","","18","4936","2406","&#9752;","elianto","#f73b6a7A"," "," ","1","0","[1694.6999998092651]","1","1","","","4936","2","3","3","lose","go","0"
"pit-trial","120","879700","0.0-6.0","battery-v0.2","","""event"",""trial"",""time""
""fullscreenenter"",""1"",""1418""
","
","
","""event"",""trial"",""time""
""fullscreenenter"",""1"",""1418""
","
","","","541.6999998092651","","","18","4936","2406","&#9733;","elianto","#3366ff99","-1"," ","0","0","[1393.8000001907349]","1","1","","","4936","3","2","2","win","no-go","0"
"pit-trial","121","883107","0.0-7.0","battery-v0.2","","""event"",""trial"",""time""
""fullscreenenter"",""1"",""1418""
","
","
","""event"",""trial"",""time""
""fullscreenenter"",""1"",""1418""
","
","","","538.9000000953674","","","18","4936","2406","&#9728;","elianto","#f73b6a7A","-1"," ","0","-10","[1394.5]","1","1","","","4936","4","0","4","lose","no-go","0"
"pit-trial","122","887979","0.0-8.0","battery-v0.2","","""event"",""trial"",""time""
""fullscreenenter"",""1"",""1418""
","
","
","""event"",""trial"",""time""
""fullscreenenter"",""1"",""1418""
","
","","","-1","","","18","4936","2406","&#9728;","elianto","#f73b6a7A","-1","-1","1","0","[]","0","1","","","4936","5","0","4","lose","no-go","0"
"pit-trial","123","891734","0.0-9.0","battery-v0.2","","""event"",""trial"",""time""
""fullscreenenter"",""1"",""1418""
","
","
","""event"",""trial"",""time""
""fullscreenenter"",""1"",""1418""
","
","","","892.5","","","18","4936","2406","&#9752;","elianto","#f73b6a7A"," "," ","1","0","[1743.2000002861023]","1","1","","","4936","6","3","3","lose","go","0"
"pit-trial","124","895286","0.0-10.0","battery-v0.2","","""event"",""trial"",""time""
""fullscreenenter"",""1"",""1418""
","
","
","""event"",""trial"",""time""
""fullscreenenter"",""1"",""1418""
","
","","","689.4000000953674","","","18","4936","2406","&#9733;","elianto","#3366ff99","-1"," ","0","+10","[1539.8000001907349]","1","1","","","4936","7","2","2","win","no-go","1"
"pit-trial","125","898671","0.0-11.0","battery-v0.2","","""event"",""trial"",""time""
""fullscreenenter"",""1"",""1418""
","
","
","""event"",""trial"",""time""
""fullscreenenter"",""1"",""1418""
","
","","","510.59999990463257","","","18","4936","2406","&#9730;","elianto","#3366ff99"," "," ","1","0","[1364.7999997138977]","1","1","","","4936","8","1","1","win","go","1"
"pit-trial","126","903540","0.0-12.0","battery-v0.2","","""event"",""trial"",""time""
""fullscreenenter"",""1"",""1418""
","
","
","""event"",""trial"",""time""
""fullscreenenter"",""1"",""1418""
","
","","","-1","","","18","4936","2406","&#9728;","elianto","#f73b6a7A","-1","-1","1","0","[]","0","1","","","4936","9","0","4","lose","no-go","0"
"pit-trial","127","907535","0.0-13.0","battery-v0.2","","""event"",""trial"",""time""
""fullscreenenter"",""1"",""1418""
","
","
","""event"",""trial"",""time""
""fullscreenenter"",""1"",""1418""
","
","","","1129.4000000953674","","","18","4936","2406","&#9730;","elianto","#3366ff99"," "," ","1","0","[1979.9000000953674]","1","1","","","4936","10","1","1","win","go","1"
"pit-trial","128","911355","0.0-14.0","battery-v0.2","","""event"",""trial"",""time""
""fullscreenenter"",""1"",""1418""
","
","
","""event"",""trial"",""time""
""fullscreenenter"",""1"",""1418""
","
","","","953.1999998092651","","","18","4936","2406","&#9733;","elianto","#3366ff99","-1"," ","0","0","[1808.5]","1","1","","","4936","11","2","2","win","no-go","0"
"pit-trial","129","915580","0.0-15.0","battery-v0.2","","""event"",""trial"",""time""
""fullscreenenter"",""1"",""1418""
","
","
","""event"",""trial"",""time""
""fullscreenenter"",""1"",""1418""
","
","","","1360.2999997138977","","","18","4936","2406","&#9752;","elianto","#f73b6a7A"," "," ","1","0","[2211.0999999046326]","1","1","","","4936","12","3","3","lose","go","0"
"pit-trial","130","920144","0.0-16.0","battery-v0.2","","""event"",""trial"",""time""
""fullscreenenter"",""1"",""1418""
","
","
","""event"",""trial"",""time""
""fullscreenenter"",""1"",""1418""
","
","","","1698.7000002861023","","","18","4936","2406","&#9733;","elianto","#3366ff99","-1"," ","0","0","[2549.5]","1","1","","","4936","13","2","2","win","no-go","0"
"pit-trial","131","924470","0.0-17.0","battery-v0.2","","""event"",""trial"",""time""
""fullscreenenter"",""1"",""1418""
","
","
","""event"",""trial"",""time""
""fullscreenenter"",""1"",""1418""
","
","","","1457.7000002861023","","","18","4936","2406","&#9730;","elianto","#3366ff99"," "," ","1","0","[2310.5]","1","1","","","4936","14","1","1","win","go","1"
"pit-trial","132","928573","0.0-18.0","battery-v0.2","","""event"",""trial"",""time""
""fullscreenenter"",""1"",""1418""
","
","
","""event"",""trial"",""time""
""fullscreenenter"",""1"",""1418""
","
","","","1235.4000000953674","","","18","4936","2406","&#9752;","elianto","#f73b6a7A"," "," ","1","0","[2087.7999997138977]","1","1","","","4936","15","3","3","lose","go","0"
"pit-trial","133","933445","0.0-19.0","battery-v0.2","","""event"",""trial"",""time""
""fullscreenenter"",""1"",""1418""
","
","
","""event"",""trial"",""time""
""fullscreenenter"",""1"",""1418""
","
","","","-1","","","18","4936","2406","&#9728;","elianto","#f73b6a7A","-1","-1","1","0","[]","0","1","","","4936","16","0","4","lose","no-go","0"
"pit-trial","134","938319","0.0-20.0","battery-v0.2","","""event"",""trial"",""time""
""fullscreenenter"",""1"",""1418""
","
","
","""event"",""trial"",""time""
""fullscreenenter"",""1"",""1418""
","
","","","-1","","","18","4936","2406","&#9733;","elianto","#3366ff99","-1","-1","1","+10","[]","0","1","","","4936","17","2","2","win","no-go","0"
"pit-trial","135","943190","0.0-21.0","battery-v0.2","","""event"",""trial"",""time""
""fullscreenenter"",""1"",""1418""
","
","
","""event"",""trial"",""time""
""fullscreenenter"",""1"",""1418""
","
","","","-1","","","18","4936","2406","&#9728;","elianto","#f73b6a7A","-1","-1","1","0","[]","0","1","","","4936","18","0","4","lose","no-go","0"
"pit-trial","136","948062","0.0-22.0","battery-v0.2","","""event"",""trial"",""time""
""fullscreenenter"",""1"",""1418""
","
","
","""event"",""trial"",""time""
""fullscreenenter"",""1"",""1418""
","
","","","-1","","","18","4936","2406","&#9730;","elianto","#3366ff99"," ","-1","0","0","[]","0","1","","","4936","19","1","1","win","go","0"
"pit-trial","137","952269","0.0-23.0","battery-v0.2","","""event"",""trial"",""time""
""fullscreenenter"",""1"",""1418""
","
","
","""event"",""trial"",""time""
""fullscreenenter"",""1"",""1418""
","
","","","1344.1999998092651","","","18","4936","2406","&#9752;","elianto","#f73b6a7A"," "," ","1","-10","[2197.800000190735]","1","1","","","4936","20","3","3","lose","go","1"
"pit-instructions","138","964318","0.0-24.0","battery-v0.2","","""event"",""trial"",""time""
""fullscreenenter"",""1"",""1418""
","
","
","""event"",""trial"",""time""
""fullscreenenter"",""1"",""1418""
","
","","[{""page_index"":0,""viewing_time"":5477.599999904633},{""page_index"":1,""viewing_time"":6564.60000038147}]","12042.5","","","","","","","","","","","","","","","","","","","","","","","",""
"pit-trial","139","968581","0.0-25.0","battery-v0.2","","""event"",""trial"",""time""
""fullscreenenter"",""1"",""1418""
","
","
","""event"",""trial"",""time""
""fullscreenenter"",""1"",""1418""
","
","","","1401.1999998092651","","","18","4936","2406","h","elianto","#f73b6a7A","-1"," ","0","-10","[2253.5]","1","2","","","4936","21","3","4","lose","no-go","0"
"pit-trial","140","972807","0.0-26.0","battery-v0.2","","""event"",""trial"",""time""
""fullscreenenter"",""1"",""1418""
","
","
","""event"",""trial"",""time""
""fullscreenenter"",""1"",""1418""
","
","","","1353.9000000953674","","","18","4936","2406","r","elianto","#3366ff99","-1"," ","0","+10","[2208.4000000953674]","1","2","","","4936","22","1","2","win","no-go","1"
"pit-trial","141","976663","0.0-27.0","battery-v0.2","","""event"",""trial"",""time""
""fullscreenenter"",""1"",""1418""
","
","
","""event"",""trial"",""time""
""fullscreenenter"",""1"",""1418""
","
","","","988","","","18","4936","2406","m","elianto","#f73b6a7A"," "," ","1","0","[1840.6000003814697]","1","2","","","4936","23","0","3","lose","go","0"
"pit-trial","142","980604","0.0-28.0","battery-v0.2","","""event"",""trial"",""time""
""fullscreenenter"",""1"",""1418""
","
","
","""event"",""trial"",""time""
""fullscreenenter"",""1"",""1418""
","
","","","1071.3000001907349","","","18","4936","2406","y","elianto","#f73b6a7A"," "," ","1","0","[1926.0999999046326]","1","2","","","4936","24","2","3","lose","go","0"
"pit-trial","143","984367","0.0-29.0","battery-v0.2","","""event"",""trial"",""time""
""fullscreenenter"",""1"",""1418""
","
","
","""event"",""trial"",""time""
""fullscreenenter"",""1"",""1418""
","
","","","891.0999999046326","","","18","4936","2406","y","elianto","#f73b6a7A"," "," ","1","0","[1746.7000002861023]","1","2","","","4936","25","2","3","lose","go","0"
"pit-trial","144","987966","0.0-30.0","battery-v0.2","","""event"",""trial"",""time""
""fullscreenenter"",""1"",""1418""
","
","
","""event"",""trial"",""time""
""fullscreenenter"",""1"",""1418""
","
","","","734.1999998092651","","","18","4936","2406","m","elianto","#f73b6a7A"," "," ","1","-10","[1584.5999999046326]","1","2","","","4936","26","0","3","lose","go","1"
"pit-trial","145","991575","0.0-31.0","battery-v0.2","","""event"",""trial"",""time""
""fullscreenenter"",""1"",""1418""
","
","
","""event"",""trial"",""time""
""fullscreenenter"",""1"",""1418""
","
","","","737.2999997138977","","","18","4936","2406","h","elianto","#f73b6a7A","-1"," ","0","0","[1590.5]","1","2","","","4936","27","3","4","lose","no-go","1"
"pit-trial","146","995848","0.0-32.0","battery-v0.2","","""event"",""trial"",""time""
""fullscreenenter"",""1"",""1418""
","
","
","""event"",""trial"",""time""
""fullscreenenter"",""1"",""1418""
","
","","","1405.0999999046326","","","18","4936","2406","r","elianto","#3366ff99","-1"," ","0","0","[2258.800000190735]","1","2","","","4936","28","1","2","win","no-go","0"
"pit-trial","147","1000464","0.0-33.0","battery-v0.2","","""event"",""trial"",""time""
""fullscreenenter"",""1"",""1418""
","
","
","""event"",""trial"",""time""
""fullscreenenter"",""1"",""1418""
","
","","","1747.9000000953674","","","18","4936","2406","m","elianto","#f73b6a7A"," "," ","1","0","[2601.7999997138977]","1","2","","","4936","29","0","3","lose","go","0"
"pit-trial","148","1004831","0.0-34.0","battery-v0.2","","""event"",""trial"",""time""
""fullscreenenter"",""1"",""1418""
","
","
","""event"",""trial"",""time""
""fullscreenenter"",""1"",""1418""
","
","","","1494.8999996185303","","","18","4936","2406","r","elianto","#3366ff99","-1"," ","0","0","[2348.4000000953674]","1","2","","","4936","30","1","2","win","no-go","0"
"pit-trial","149","1009136","0.0-35.0","battery-v0.2","","""event"",""trial"",""time""
""fullscreenenter"",""1"",""1418""
","
","
","""event"",""trial"",""time""
""fullscreenenter"",""1"",""1418""
","
","","","1433.8000001907349","","","18","4936","2406","y","elianto","#f73b6a7A"," "," ","1","0","[2287.8999996185303]","1","2","","","4936","31","2","3","lose","go","0"
"pit-trial","150","1013438","0.0-36.0","battery-v0.2","","""event"",""trial"",""time""
""fullscreenenter"",""1"",""1418""
","
","
","""event"",""trial"",""time""
""fullscreenenter"",""1"",""1418""
","
","","","1431.3000001907349","","","18","4936","2406","h","elianto","#f73b6a7A","-1"," ","0","-10","[2284.8999996185303]","1","2","","","4936","32","3","4","lose","no-go","0"
"pit-trial","151","1017669","0.0-37.0","battery-v0.2","","""event"",""trial"",""time""
""fullscreenenter"",""1"",""1418""
","
","
","""event"",""trial"",""time""
""fullscreenenter"",""1"",""1418""
","
","","","1364.9000000953674","","","18","4936","2406","m","elianto","#f73b6a7A"," "," ","1","0","[2218.5]","1","2","","","4936","33","0","3","lose","go","0"
"pit-trial","152","1022052","0.0-38.0","battery-v0.2","","""event"",""trial"",""time""
""fullscreenenter"",""1"",""1418""
","
","
","""event"",""trial"",""time""
""fullscreenenter"",""1"",""1418""
","
","","","1517","","","18","4936","2406","y","elianto","#f73b6a7A"," "," ","1","-10","[2371.199999809265]","1","2","","","4936","34","2","3","lose","go","1"
"pit-trial","153","1026927","0.0-39.0","battery-v0.2","","""event"",""trial"",""time""
""fullscreenenter"",""1"",""1418""
","
","
","""event"",""trial"",""time""
""fullscreenenter"",""1"",""1418""
","
","","","-1","","","18","4936","2406","r","elianto","#3366ff99","-1","-1","1","+10","[]","0","2","","","4936","35","1","2","win","no-go","0"
"pit-trial","154","1031589","0.0-40.0","battery-v0.2","","""event"",""trial"",""time""
""fullscreenenter"",""1"",""1418""
","
","
","""event"",""trial"",""time""
""fullscreenenter"",""1"",""1418""
","
","","","1800.2000002861023","","","18","4936","2406","h","elianto","#f73b6a7A","-1"," ","0","-10","[2650.7000002861023]","1","2","","","4936","36","3","4","lose","no-go","0"
"pit-trial","155","1036463","0.0-41.0","battery-v0.2","","""event"",""trial"",""time""
""fullscreenenter"",""1"",""1418""
","
","
","""event"",""trial"",""time""
""fullscreenenter"",""1"",""1418""
","
","","","-1","","","18","4936","2406","r","elianto","#3366ff99","-1","-1","1","+10","[]","0","2","","","4936","37","1","2","win","no-go","0"
"pit-trial","156","1041337","0.0-42.0","battery-v0.2","","""event"",""trial"",""time""
""fullscreenenter"",""1"",""1418""
","
","
","""event"",""trial"",""time""
""fullscreenenter"",""1"",""1418""
","
","","","-1","","","18","4936","2406","h","elianto","#f73b6a7A","-1","-1","1","0","[]","0","2","","","4936","38","3","4","lose","no-go","0"
"pit-trial","157","1045470","0.0-43.0","battery-v0.2","","""event"",""trial"",""time""
""fullscreenenter"",""1"",""1418""
","
","
","""event"",""trial"",""time""
""fullscreenenter"",""1"",""1418""
","
","","","1266.7999997138977","","","18","4936","2406","y","elianto","#f73b6a7A"," "," ","1","0","[2117.199999809265]","1","2","","","4936","39","2","3","lose","go","0"
"pit-trial","158","1049781","0.0-44.0","battery-v0.2","","""event"",""trial"",""time""
""fullscreenenter"",""1"",""1418""
","
","
","""event"",""trial"",""time""
""fullscreenenter"",""1"",""1418""
","
","","","1441.5","","","18","4936","2406","m","elianto","#f73b6a7A"," "," ","1","0","[2296.7000002861023]","1","2","","","4936","40","0","3","lose","go","0"
"pit-trial","159","1053822","0.0-45.0","battery-v0.2","","""event"",""trial"",""time""
""fullscreenenter"",""1"",""1418""
","
","
","""event"",""trial"",""time""
""fullscreenenter"",""1"",""1418""
","
","","","1180.8000001907349","","","18","4936","2406","m","elianto","#f73b6a7A"," "," ","1","0","[2031.5]","1","2","","","4936","41","0","3","lose","go","0"
"pit-trial","160","1057589","0.0-46.0","battery-v0.2","","""event"",""trial"",""time""
""fullscreenenter"",""1"",""1418""
","
","
","""event"",""trial"",""time""
""fullscreenenter"",""1"",""1418""
","
","","","900.0999999046326","","","18","4936","2406","h","elianto","#f73b6a7A","-1"," ","0","-10","[1752.5999999046326]","1","2","","","4936","42","3","4","lose","no-go","0"
"pit-trial","161","1062464","0.0-47.0","battery-v0.2","","""event"",""trial"",""time""
""fullscreenenter"",""1"",""1418""
","
","
","""event"",""trial"",""time""
""fullscreenenter"",""1"",""1418""
","
","","","-1","","","18","4936","2406","r","elianto","#3366ff99","-1","-1","1","+10","[]","0","2","","","4936","43","1","2","win","no-go","0"
"pit-trial","162","1067006","0.0-48.0","battery-v0.2","","""event"",""trial"",""time""
""fullscreenenter"",""1"",""1418""
","
","
","""event"",""trial"",""time""
""fullscreenenter"",""1"",""1418""
","
","","","1676.4000000953674","","","18","4936","2406","y","elianto","#f73b6a7A"," "," ","1","-10","[2531]","1","2","","","4936","44","2","3","lose","go","1"
"pit-trial","163","1070757","0.0-49.0","battery-v0.2","","""event"",""trial"",""time""
""fullscreenenter"",""1"",""1418""
","
","
","""event"",""trial"",""time""
""fullscreenenter"",""1"",""1418""
","
","","","884.7000002861023","","","18","4936","2406","m","elianto","#f73b6a7A"," "," ","1","0","[1741.4000000953674]","1","2","","","4936","45","0","3","lose","go","0"
"pit-trial","164","1074605","0.0-50.0","battery-v0.2","","""event"",""trial"",""time""
""fullscreenenter"",""1"",""1418""
","
","
","""event"",""trial"",""time""
""fullscreenenter"",""1"",""1418""
","
","","","980.3999996185303","","","18","4936","2406","y","elianto","#f73b6a7A"," "," ","1","0","[1836.6999998092651]","1","2","","","4936","46","2","3","lose","go","0"
"pit-trial","165","1079471","0.0-51.0","battery-v0.2","","""event"",""trial"",""time""
""fullscreenenter"",""1"",""1418""
","
","
","""event"",""trial"",""time""
""fullscreenenter"",""1"",""1418""
","
","","","-1","","","18","4936","2406","r","elianto","#3366ff99","-1","-1","1","+10","[]","0","2","","","4936","47","1","2","win","no-go","0"
"pit-trial","166","1084344","0.0-52.0","battery-v0.2","","""event"",""trial"",""time""
""fullscreenenter"",""1"",""1418""
","
","
","""event"",""trial"",""time""
""fullscreenenter"",""1"",""1418""
","
","","","-1","","","18","4936","2406","h","elianto","#f73b6a7A","-1","-1","1","0","[]","0","2","","","4936","48","3","4","lose","no-go","0"
"pit-trial","167","1088320","0.0-53.0","battery-v0.2","","""event"",""trial"",""time""
""fullscreenenter"",""1"",""1418""
","
","
","""event"",""trial"",""time""
""fullscreenenter"",""1"",""1418""
","
","","","1104.6999998092651","","","18","4936","2406","m","elianto","#f73b6a7A"," "," ","1","0","[1956]","1","2","","","4936","49","0","3","lose","go","0"
"pit-trial","168","1092390","0.0-54.0","battery-v0.2","","""event"",""trial"",""time""
""fullscreenenter"",""1"",""1418""
","
","
","""event"",""trial"",""time""
""fullscreenenter"",""1"",""1418""
","
","","","1203.6999998092651","","","18","4936","2406","y","elianto","#f73b6a7A"," "," ","1","-10","[2056.4000000953674]","1","2","","","4936","50","2","3","lose","go","1"
"pit-trial","169","1097267","0.0-55.0","battery-v0.2","","""event"",""trial"",""time""
""fullscreenenter"",""1"",""1418""
","
","
","""event"",""trial"",""time""
""fullscreenenter"",""1"",""1418""
","
","","","-1","","","18","4936","2406","r","elianto","#3366ff99","-1","-1","1","0","[]","0","2","","","4936","51","1","2","win","no-go","1"
"pit-trial","170","1102133","0.0-56.0","battery-v0.2","","""event"",""trial"",""time""
""fullscreenenter"",""1"",""1418""
","
","
","""event"",""trial"",""time""
""fullscreenenter"",""1"",""1418""
","
","","","-1","","","18","4936","2406","h","elianto","#f73b6a7A","-1","-1","1","0","[]","0","2","","","4936","52","3","4","lose","no-go","0"
"pit-trial","171","1106232","0.0-57.0","battery-v0.2","","""event"",""trial"",""time""
""fullscreenenter"",""1"",""1418""
","
","
","""event"",""trial"",""time""
""fullscreenenter"",""1"",""1418""
","
","","","1223.5999999046326","","","18","4936","2406","m","elianto","#f73b6a7A"," "," ","1","0","[2080.4000000953674]","1","2","","","4936","53","0","3","lose","go","0"
"pit-trial","172","1111101","0.0-58.0","battery-v0.2","","""event"",""trial"",""time""
""fullscreenenter"",""1"",""1418""
","
","
","""event"",""trial"",""time""
""fullscreenenter"",""1"",""1418""
","
","","","-1","","","18","4936","2406","r","elianto","#3366ff99","-1","-1","1","+10","[]","0","2","","","4936","54","1","2","win","no-go","0"
"pit-trial","173","1115977","0.0-59.0","battery-v0.2","","""event"",""trial"",""time""
""fullscreenenter"",""1"",""1418""
","
","
","""event"",""trial"",""time""
""fullscreenenter"",""1"",""1418""
","
","","","-1","","","18","4936","2406","h","elianto","#f73b6a7A","-1","-1","1","0","[]","0","2","","","4936","55","3","4","lose","no-go","0"
"pit-trial","174","1120847","0.0-60.0","battery-v0.2","","""event"",""trial"",""time""
""fullscreenenter"",""1"",""1418""
","
","
","""event"",""trial"",""time""
""fullscreenenter"",""1"",""1418""
","
","","","-1","","","18","4936","2406","y","elianto","#f73b6a7A"," ","-1","0","-10","[]","0","2","","","4936","56","2","3","lose","go","0"
"pit-trial","175","1125398","0.0-61.0","battery-v0.2","","""event"",""trial"",""time""
""fullscreenenter"",""1"",""1418""
","
","
","""event"",""trial"",""time""
""fullscreenenter"",""1"",""1418""
","
","","","1690","","","18","4936","2406","z","elianto","#3366ff99"," "," ","1","+10","[2542.4000000953674]","1","2","","","4936","57","4","1","win","go","0"
"pit-trial","176","1130121","0.0-62.0","battery-v0.2","","""event"",""trial"",""time""
""fullscreenenter"",""1"",""1418""
","
","
","""event"",""trial"",""time""
""fullscreenenter"",""1"",""1418""
","
","","","1855.6999998092651","","","18","4936","2406","m","elianto","#f73b6a7A"," "," ","1","0","[2705.7999997138977]","1","2","","","4936","58","0","3","lose","go","0"
"pit-trial","177","1134391","0.0-63.0","battery-v0.2","","""event"",""trial"",""time""
""fullscreenenter"",""1"",""1418""
","
","
","""event"",""trial"",""time""
""fullscreenenter"",""1"",""1418""
","
","","","1403.8000001907349","","","18","4936","2406","y","elianto","#f73b6a7A"," "," ","1","-10","[2255.300000190735]","1","2","","","4936","59","2","3","lose","go","1"
"pit-trial","178","1139267","0.0-64.0","battery-v0.2","","""event"",""trial"",""time""
""fullscreenenter"",""1"",""1418""
","
","
","""event"",""trial"",""time""
""fullscreenenter"",""1"",""1418""
","
","","","-1","","","18","4936","2406","h","elianto","#f73b6a7A","-1","-1","1","0","[]","0","2","","","4936","60","3","4","lose","no-go","0"
"pit-trial","179","1143232","0.0-65.0","battery-v0.2","","""event"",""trial"",""time""
""fullscreenenter"",""1"",""1418""
","
","
","""event"",""trial"",""time""
""fullscreenenter"",""1"",""1418""
","
","","","1101.4000000953674","","","18","4936","2406","z","elianto","#3366ff99"," "," ","1","+10","[1952.9000000953674]","1","2","","","4936","61","4","1","win","go","0"
"pit-trial","180","1148102","0.0-66.0","battery-v0.2","","""event"",""trial"",""time""
""fullscreenenter"",""1"",""1418""
","
","
","""event"",""trial"",""time""
""fullscreenenter"",""1"",""1418""
","
","","","-1","","","18","4936","2406","y","elianto","#f73b6a7A"," ","-1","0","0","[]","0","2","","","4936","62","2","3","lose","go","1"
"pit-trial","181","1152975","0.0-67.0","battery-v0.2","","""event"",""trial"",""time""
""fullscreenenter"",""1"",""1418""
","
","
","""event"",""trial"",""time""
""fullscreenenter"",""1"",""1418""
","
","","","-1","","","18","4936","2406","h","elianto","#f73b6a7A","-1","-1","1","0","[]","0","2","","","4936","63","3","4","lose","no-go","0"
"pit-trial","182","1157847","0.0-68.0","battery-v0.2","","""event"",""trial"",""time""
""fullscreenenter"",""1"",""1418""
","
","
","""event"",""trial"",""time""
""fullscreenenter"",""1"",""1418""
","
","","","-1","","","18","4936","2406","r","elianto","#3366ff99","-1","-1","1","+10","[]","0","2","","","4936","64","1","2","win","no-go","0"
"pit-trial","183","1162721","0.0-69.0","battery-v0.2","","""event"",""trial"",""time""
""fullscreenenter"",""1"",""1418""
","
","
","""event"",""trial"",""time""
""fullscreenenter"",""1"",""1418""
","
","","","-1","","","18","4936","2406","c","elianto","#3366ff99","-1","-1","1","+10","[]","0","2","","","4936","65","5","2","win","no-go","0"
"pit-trial","184","1167593","0.0-70.0","battery-v0.2","","""event"",""trial"",""time""
""fullscreenenter"",""1"",""1418""
","
","
","""event"",""trial"",""time""
""fullscreenenter"",""1"",""1418""
","
","","","-1","","","18","4936","2406","r","elianto","#3366ff99","-1","-1","1","+10","[]","0","2","","","4936","66","1","2","win","no-go","0"
"pit-trial","185","1172465","0.0-71.0","battery-v0.2","","""event"",""trial"",""time""
""fullscreenenter"",""1"",""1418""
","
","
","""event"",""trial"",""time""
""fullscreenenter"",""1"",""1418""
","
","","","-1","","","18","4936","2406","h","elianto","#f73b6a7A","-1","-1","1","0","[]","0","2","","","4936","67","3","4","lose","no-go","0"
"pit-trial","186","1176593","0.0-72.0","battery-v0.2","","""event"",""trial"",""time""
""fullscreenenter"",""1"",""1418""
","
","
","""event"",""trial"",""time""
""fullscreenenter"",""1"",""1418""
","
","","","1257.5","","","18","4936","2406","z","elianto","#3366ff99"," "," ","1","+10","[2111.0999999046326]","1","2","","","4936","68","4","1","win","go","0"
"pit-trial","187","1181465","0.0-73.0","battery-v0.2","","""event"",""trial"",""time""
""fullscreenenter"",""1"",""1418""
","
","
","""event"",""trial"",""time""
""fullscreenenter"",""1"",""1418""
","
","","","-1","","","18","4936","2406","r","elianto","#3366ff99","-1","-1","1","+10","[]","0","2","","","4936","69","1","2","win","no-go","0"
"pit-trial","188","1186335","0.0-74.0","battery-v0.2","","""event"",""trial"",""time""
""fullscreenenter"",""1"",""1418""
","
","
","""event"",""trial"",""time""
""fullscreenenter"",""1"",""1418""
","
","","","-1","","","18","4936","2406","y","elianto","#f73b6a7A"," ","-1","0","-10","[]","0","2","","","4936","70","2","3","lose","go","0"
"pit-trial","189","1191210","0.0-75.0","battery-v0.2","","""event"",""trial"",""time""
""fullscreenenter"",""1"",""1418""
","
","
","""event"",""trial"",""time""
""fullscreenenter"",""1"",""1418""
","
","","","-1","","","18","4936","2406","c","elianto","#3366ff99","-1","-1","1","+10","[]","0","2","","","4936","71","5","2","win","no-go","0"
"pit-trial","190","1195574","0.0-76.0","battery-v0.2","","""event"",""trial"",""time""
""fullscreenenter"",""1"",""1418""
","
","
","""event"",""trial"",""time""
""fullscreenenter"",""1"",""1418""
","
","","","1498.8000001907349","","","18","4936","2406","z","elianto","#3366ff99"," "," ","1","+10","[2352.5]","1","2","","","4936","72","4","1","win","go","0"
"pit-trial","191","1200441","0.0-77.0","battery-v0.2","","""event"",""trial"",""time""
""fullscreenenter"",""1"",""1418""
","
","
","""event"",""trial"",""time""
""fullscreenenter"",""1"",""1418""
","
","","","-1","","","18","4936","2406","r","elianto","#3366ff99","-1","-1","1","+10","[]","0","2","","","4936","73","1","2","win","no-go","0"
"pit-trial","192","1205309","0.0-78.0","battery-v0.2","","""event"",""trial"",""time""
""fullscreenenter"",""1"",""1418""
","
","
","""event"",""trial"",""time""
""fullscreenenter"",""1"",""1418""
","
","","","-1","","","18","4936","2406","h","elianto","#f73b6a7A","-1","-1","1","0","[]","0","2","","","4936","74","3","4","lose","no-go","0"
"pit-trial","193","1210176","0.0-79.0","battery-v0.2","","""event"",""trial"",""time""
""fullscreenenter"",""1"",""1418""
","
","
","""event"",""trial"",""time""
""fullscreenenter"",""1"",""1418""
","
","","","-1","","","18","4936","2406","c","elianto","#3366ff99","-1","-1","1","0","[]","0","2","","","4936","75","5","2","win","no-go","1"
"pit-trial","194","1214536","0.0-80.0","battery-v0.2","","""event"",""trial"",""time""
""fullscreenenter"",""1"",""1418""
","
","
","""event"",""trial"",""time""
""fullscreenenter"",""1"",""1418""
","
","","","1487.8000001907349","","","18","4936","2406","z","elianto","#3366ff99"," "," ","1","+10","[2342.6000003814697]","1","2","","","4936","76","4","1","win","go","0"
"pit-trial","195","1219407","0.0-81.0","battery-v0.2","","""event"",""trial"",""time""
""fullscreenenter"",""1"",""1418""
","
","
","""event"",""trial"",""time""
""fullscreenenter"",""1"",""1418""
","
","","","-1","","","18","4936","2406","c","elianto","#3366ff99","-1","-1","1","+10","[]","0","2","","","4936","77","5","2","win","no-go","0"
"pit-trial","196","1223640","0.0-82.0","battery-v0.2","","""event"",""trial"",""time""
""fullscreenenter"",""1"",""1418""
","
","
","""event"",""trial"",""time""
""fullscreenenter"",""1"",""1418""
","
","","","1366.2999997138977","","","18","4936","2406","z","elianto","#3366ff99"," "," ","1","+10","[2221.5]","1","2","","","4936","78","4","1","win","go","0"
"pit-trial","197","1228513","0.0-83.0","battery-v0.2","","""event"",""trial"",""time""
""fullscreenenter"",""1"",""1418""
","
","
","""event"",""trial"",""time""
""fullscreenenter"",""1"",""1418""
","
","","","-1","","","18","4936","2406","h","elianto","#f73b6a7A","-1","-1","1","0","[]","0","2","","","4936","79","3","4","lose","no-go","0"
"pit-trial","198","1232720","0.0-84.0","battery-v0.2","","""event"",""trial"",""time""
""fullscreenenter"",""1"",""1418""
","
","
","""event"",""trial"",""time""
""fullscreenenter"",""1"",""1418""
","
","","","1341.0999999046326","","","18","4936","2406","z","elianto","#3366ff99"," "," ","1","+10","[2193.7999997138977]","1","2","","","4936","80","4","1","win","go","0"
"pit-trial","199","1236871","0.0-85.0","battery-v0.2","","""event"",""trial"",""time""
""fullscreenenter"",""1"",""1418""
","
","
","""event"",""trial"",""time""
""fullscreenenter"",""1"",""1418""
","
","","","1280.5","","","18","4936","2406","z","elianto","#3366ff99"," "," ","1","+10","[2137.2000002861023]","1","2","","","4936","81","4","1","win","go","0"
"pit-trial","200","1241737","0.0-86.0","battery-v0.2","","""event"",""trial"",""time""
""fullscreenenter"",""1"",""1418""
","
","
","""event"",""trial"",""time""
""fullscreenenter"",""1"",""1418""
","
","","","-1","","","18","4936","2406","c","elianto","#3366ff99","-1","-1","1","+10","[]","0","2","","","4936","82","5","2","win","no-go","0"
"pit-trial","201","1246608","0.0-87.0","battery-v0.2","","""event"",""trial"",""time""
""fullscreenenter"",""1"",""1418""
","
","
","""event"",""trial"",""time""
""fullscreenenter"",""1"",""1418""
","
","","","-1","","","18","4936","2406","h","elianto","#f73b6a7A","-1","-1","1","0","[]","0","2","","","4936","83","3","4","lose","no-go","0"
"pit-trial","202","1251483","0.0-88.0","battery-v0.2","","""event"",""trial"",""time""
""fullscreenenter"",""1"",""1418""
","
","
","""event"",""trial"",""time""
""fullscreenenter"",""1"",""1418""
","
","","","-1","","","18","4936","2406","t","elianto","#f73b6a7A","-1","-1","1","0","[]","0","2","","","4936","84","7","4","lose","no-go","0"
"pit-trial","203","1256354","0.0-89.0","battery-v0.2","","""event"",""trial"",""time""
""fullscreenenter"",""1"",""1418""
","
","
","""event"",""trial"",""time""
""fullscreenenter"",""1"",""1418""
","
","","","-1","","","18","4936","2406","c","elianto","#3366ff99","-1","-1","1","0","[]","0","2","","","4936","85","5","2","win","no-go","1"
"pit-trial","204","1261225","0.0-90.0","battery-v0.2","","""event"",""trial"",""time""
""fullscreenenter"",""1"",""1418""
","
","
","""event"",""trial"",""time""
""fullscreenenter"",""1"",""1418""
","
","","","-1","","","18","4936","2406","t","elianto","#f73b6a7A","-1","-1","1","0","[]","0","2","","","4936","86","7","4","lose","no-go","0"
"pit-trial","205","1265840","0.0-91.0","battery-v0.2","","""event"",""trial"",""time""
""fullscreenenter"",""1"",""1418""
","
","
","""event"",""trial"",""time""
""fullscreenenter"",""1"",""1418""
","
","","","1750.4000000953674","","","18","4936","2406","b","elianto","#f73b6a7A"," "," ","1","0","[2603.699999809265]","1","2","","","4936","87","6","3","lose","go","0"
"pit-trial","206","1269800","0.0-92.0","battery-v0.2","","""event"",""trial"",""time""
""fullscreenenter"",""1"",""1418""
","
","
","""event"",""trial"",""time""
""fullscreenenter"",""1"",""1418""
","
","","","1092.0999999046326","","","18","4936","2406","z","elianto","#3366ff99"," "," ","1","+10","[1942.4000000953674]","1","2","","","4936","88","4","1","win","go","0"
"pit-trial","207","1273787","0.0-93.0","battery-v0.2","","""event"",""trial"",""time""
""fullscreenenter"",""1"",""1418""
","
","
","""event"",""trial"",""time""
""fullscreenenter"",""1"",""1418""
","
","","","1115.8999996185303","","","18","4936","2406","z","elianto","#3366ff99"," "," ","1","0","[1971.1999998092651]","1","2","","","4936","89","4","1","win","go","1"
"pit-trial","208","1278657","0.0-94.0","battery-v0.2","","""event"",""trial"",""time""
""fullscreenenter"",""1"",""1418""
","
","
","""event"",""trial"",""time""
""fullscreenenter"",""1"",""1418""
","
","","","-1","","","18","4936","2406","t","elianto","#f73b6a7A","-1","-1","1","0","[]","0","2","","","4936","90","7","4","lose","no-go","0"
"pit-trial","209","1283528","0.0-95.0","battery-v0.2","","""event"",""trial"",""time""
""fullscreenenter"",""1"",""1418""
","
","
","""event"",""trial"",""time""
""fullscreenenter"",""1"",""1418""
","
","","","-1","","","18","4936","2406","c","elianto","#3366ff99","-1","-1","1","+10","[]","0","2","","","4936","91","5","2","win","no-go","0"
"pit-trial","210","1287616","0.0-96.0","battery-v0.2","","""event"",""trial"",""time""
""fullscreenenter"",""1"",""1418""
","
","
","""event"",""trial"",""time""
""fullscreenenter"",""1"",""1418""
","
","","","1222.0999999046326","","","18","4936","2406","b","elianto","#f73b6a7A"," "," ","1","0","[2073.9000000953674]","1","2","","","4936","92","6","3","lose","go","0"
"pit-trial","211","1292490","0.0-97.0","battery-v0.2","","""event"",""trial"",""time""
""fullscreenenter"",""1"",""1418""
","
","
","""event"",""trial"",""time""
""fullscreenenter"",""1"",""1418""
","
","","","-1","","","18","4936","2406","f","elianto","#3366ff99"," ","-1","0","0","[]","0","2","","","4936","93","8","1","win","go","0"
"pit-trial","212","1297361","0.0-98.0","battery-v0.2","","""event"",""trial"",""time""
""fullscreenenter"",""1"",""1418""
","
","
","""event"",""trial"",""time""
""fullscreenenter"",""1"",""1418""
","
","","","-1","","","18","4936","2406","c","elianto","#3366ff99","-1","-1","1","+10","[]","0","2","","","4936","94","5","2","win","no-go","0"
"pit-trial","213","1301769","0.0-99.0","battery-v0.2","","""event"",""trial"",""time""
""fullscreenenter"",""1"",""1418""
","
","
","""event"",""trial"",""time""
""fullscreenenter"",""1"",""1418""
","
","","","1537.6000003814697","","","18","4936","2406","b","elianto","#f73b6a7A"," "," ","1","-10","[2391.699999809265]","1","2","","","4936","95","6","3","lose","go","1"
"pit-trial","214","1306643","0.0-100.0","battery-v0.2","","""event"",""trial"",""time""
""fullscreenenter"",""1"",""1418""
","
","
","""event"",""trial"",""time""
""fullscreenenter"",""1"",""1418""
","
","","","-1","","","18","4936","2406","t","elianto","#f73b6a7A","-1","-1","1","0","[]","0","2","","","4936","96","7","4","lose","no-go","0"
"pit-trial","215","1311054","0.0-101.0","battery-v0.2","","""event"",""trial"",""time""
""fullscreenenter"",""1"",""1418""
","
","
","""event"",""trial"",""time""
""fullscreenenter"",""1"",""1418""
","
","","","1544.9000000953674","","","18","4936","2406","f","elianto","#3366ff99"," "," ","1","0","[2397.7000002861023]","1","2","","","4936","97","8","1","win","go","1"
"pit-trial","216","1315923","0.0-102.0","battery-v0.2","","""event"",""trial"",""time""
""fullscreenenter"",""1"",""1418""
","
","
","""event"",""trial"",""time""
""fullscreenenter"",""1"",""1418""
","
","","","-1","","","18","4936","2406","t","elianto","#f73b6a7A","-1","-1","1","0","[2966]","1","2","","","4936","98","7","4","lose","no-go","0"
"pit-trial","217","1320560","0.0-103.0","battery-v0.2","","""event"",""trial"",""time""
""fullscreenenter"",""1"",""1418""
","
","
","""event"",""trial"",""time""
""fullscreenenter"",""1"",""1418""
","
","","","1767.4000000953674","","","18","4936","2406","b","elianto","#f73b6a7A"," "," ","1","0","[2619.199999809265]","1","2","","","4936","99","6","3","lose","go","0"
"pit-trial","218","1325434","0.0-104.0","battery-v0.2","","""event"",""trial"",""time""
""fullscreenenter"",""1"",""1418""
","
","
","""event"",""trial"",""time""
""fullscreenenter"",""1"",""1418""
","
","","","-1","","","18","4936","2406","c","elianto","#3366ff99","-1","-1","1","+10","[]","0","2","","","4936","100","5","2","win","no-go","0"
"pit-trial","219","1330305","0.0-105.0","battery-v0.2","","""event"",""trial"",""time""
""fullscreenenter"",""1"",""1418""
","
","
","""event"",""trial"",""time""
""fullscreenenter"",""1"",""1418""
","
","","","-1","","","18","4936","2406","c","elianto","#3366ff99","-1","-1","1","+10","[]","0","2","","","4936","101","5","2","win","no-go","0"
"pit-trial","220","1334490","0.0-106.0","battery-v0.2","","""event"",""trial"",""time""
""fullscreenenter"",""1"",""1418""
","
","
","""event"",""trial"",""time""
""fullscreenenter"",""1"",""1418""
","
","","","1314.1999998092651","","","18","4936","2406","n","elianto","#3366ff99"," "," ","1","+10","[2168]","1","2","","","4936","102","9","1","win","go","0"
"pit-trial","221","1339361","0.0-107.0","battery-v0.2","","""event"",""trial"",""time""
""fullscreenenter"",""1"",""1418""
","
","
","""event"",""trial"",""time""
""fullscreenenter"",""1"",""1418""
","
","","","-1","","","18","4936","2406","f","elianto","#3366ff99"," ","-1","0","0","[]","0","2","","","4936","103","8","1","win","go","0"
"pit-trial","222","1344235","0.0-108.0","battery-v0.2","","""event"",""trial"",""time""
""fullscreenenter"",""1"",""1418""
","
","
","""event"",""trial"",""time""
""fullscreenenter"",""1"",""1418""
","
","","","-1","","","18","4936","2406","t","elianto","#f73b6a7A","-1","-1","1","0","[]","0","2","","","4936","104","7","4","lose","no-go","0"
"pit-trial","223","1348409","0.0-109.0","battery-v0.2","","""event"",""trial"",""time""
""fullscreenenter"",""1"",""1418""
","
","
","""event"",""trial"",""time""
""fullscreenenter"",""1"",""1418""
","
","","","1304.4000000953674","","","18","4936","2406","f","elianto","#3366ff99"," "," ","1","0","[2157.0999999046326]","1","2","","","4936","105","8","1","win","go","1"
"pit-trial","224","1352656","0.0-110.0","battery-v0.2","","""event"",""trial"",""time""
""fullscreenenter"",""1"",""1418""
","
","
","""event"",""trial"",""time""
""fullscreenenter"",""1"",""1418""
","
","","","1389.1999998092651","","","18","4936","2406","n","elianto","#3366ff99"," "," ","1","+10","[2240.199999809265]","1","2","","","4936","106","9","1","win","go","0"
"pit-trial","225","1357048","0.0-111.0","battery-v0.2","","""event"",""trial"",""time""
""fullscreenenter"",""1"",""1418""
","
","
","""event"",""trial"",""time""
""fullscreenenter"",""1"",""1418""
","
","","","1522.7999997138977","","","18","4936","2406","z","elianto","#3366ff99"," "," ","1","+10","[2379.199999809265]","1","2","","","4936","107","4","1","win","go","0"
"pit-trial","226","1361751","0.0-112.0","battery-v0.2","","""event"",""trial"",""time""
""fullscreenenter"",""1"",""1418""
","
","
","""event"",""trial"",""time""
""fullscreenenter"",""1"",""1418""
","
","","","1832.1000003814697","","","18","4936","2406","b","elianto","#f73b6a7A"," "," ","1","0","[2689.800000190735]","1","2","","","4936","108","6","3","lose","go","0"
"pit-trial","227","1365995","0.0-113.0","battery-v0.2","","""event"",""trial"",""time""
""fullscreenenter"",""1"",""1418""
","
","
","""event"",""trial"",""time""
""fullscreenenter"",""1"",""1418""
","
","","","1379.5999999046326","","","18","4936","2406","n","elianto","#3366ff99"," "," ","1","+10","[2231.5999999046326]","1","2","","","4936","109","9","1","win","go","0"
"pit-trial","228","1370866","0.0-114.0","battery-v0.2","","""event"",""trial"",""time""
""fullscreenenter"",""1"",""1418""
","
","
","""event"",""trial"",""time""
""fullscreenenter"",""1"",""1418""
","
","","","-1","","","18","4936","2406","c","elianto","#3366ff99","-1","-1","1","+10","[]","0","2","","","4936","110","5","2","win","no-go","0"
"pit-trial","229","1375736","0.0-115.0","battery-v0.2","","""event"",""trial"",""time""
""fullscreenenter"",""1"",""1418""
","
","
","""event"",""trial"",""time""
""fullscreenenter"",""1"",""1418""
","
","","","-1","","","18","4936","2406","f","elianto","#3366ff99"," ","-1","0","0","[]","0","2","","","4936","111","8","1","win","go","0"
"pit-trial","230","1380393","0.0-116.0","battery-v0.2","","""event"",""trial"",""time""
""fullscreenenter"",""1"",""1418""
","
","
","""event"",""trial"",""time""
""fullscreenenter"",""1"",""1418""
","
","","","1789.2000002861023","","","18","4936","2406","b","elianto","#f73b6a7A"," "," ","1","0","[2640.7000002861023]","1","2","","","4936","112","6","3","lose","go","0"
"pit-trial","231","1384656","0.0-117.0","battery-v0.2","","""event"",""trial"",""time""
""fullscreenenter"",""1"",""1418""
","
","
","""event"",""trial"",""time""
""fullscreenenter"",""1"",""1418""
","
","","","1397.0999999046326","","","18","4936","2406","b","elianto","#f73b6a7A"," "," ","1","-10","[2249.699999809265]","1","2","","","4936","113","6","3","lose","go","1"
"pit-trial","232","1389524","0.0-118.0","battery-v0.2","","""event"",""trial"",""time""
""fullscreenenter"",""1"",""1418""
","
","
","""event"",""trial"",""time""
""fullscreenenter"",""1"",""1418""
","
","","","-1","","","18","4936","2406","c","elianto","#3366ff99","-1","-1","1","+10","[]","0","2","","","4936","114","5","2","win","no-go","0"
"pit-trial","233","1393986","0.0-119.0","battery-v0.2","","""event"",""trial"",""time""
""fullscreenenter"",""1"",""1418""
","
","
","""event"",""trial"",""time""
""fullscreenenter"",""1"",""1418""
","
","","","1598.5","","","18","4936","2406","f","elianto","#3366ff99"," "," ","1","+10","[2449.4000000953674]","1","2","","","4936","115","8","1","win","go","0"
"pit-trial","234","1398305","0.0-120.0","battery-v0.2","","""event"",""trial"",""time""
""fullscreenenter"",""1"",""1418""
","
","
","""event"",""trial"",""time""
""fullscreenenter"",""1"",""1418""
","
","","","1455.2000002861023","","","18","4936","2406","n","elianto","#3366ff99"," "," ","1","+10","[2305.4000000953674]","1","2","","","4936","116","9","1","win","go","0"
"pit-trial","235","1403176","0.0-121.0","battery-v0.2","","""event"",""trial"",""time""
""fullscreenenter"",""1"",""1418""
","
","
","""event"",""trial"",""time""
""fullscreenenter"",""1"",""1418""
","
","","","-1","","","18","4936","2406","c","elianto","#3366ff99","-1","-1","1","+10","[]","0","2","","","4936","117","5","2","win","no-go","0"
"pit-trial","236","1407628","0.0-122.0","battery-v0.2","","""event"",""trial"",""time""
""fullscreenenter"",""1"",""1418""
","
","
","""event"",""trial"",""time""
""fullscreenenter"",""1"",""1418""
","
","","","1582.8000001907349","","","18","4936","2406","n","elianto","#3366ff99"," "," ","1","+10","[2434.199999809265]","1","2","","","4936","118","9","1","win","go","0"
"pit-trial","237","1411954","0.0-123.0","battery-v0.2","","""event"",""trial"",""time""
""fullscreenenter"",""1"",""1418""
","
","
","""event"",""trial"",""time""
""fullscreenenter"",""1"",""1418""
","
","","","1461.5999999046326","","","18","4936","2406","b","elianto","#f73b6a7A"," "," ","1","0","[2313.699999809265]","1","2","","","4936","119","6","3","lose","go","0"
"pit-trial","238","1416268","0.0-124.0","battery-v0.2","","""event"",""trial"",""time""
""fullscreenenter"",""1"",""1418""
","
","
","""event"",""trial"",""time""
""fullscreenenter"",""1"",""1418""
","
","","","1450.5","","","18","4936","2406","f","elianto","#3366ff99"," "," ","1","+10","[2301.9000000953674]","1","2","","","4936","120","8","1","win","go","0"
"pit-trial","239","1420493","0.0-125.0","battery-v0.2","","""event"",""trial"",""time""
""fullscreenenter"",""1"",""1418""
","
","
","""event"",""trial"",""time""
""fullscreenenter"",""1"",""1418""
","
","","","1352.1999998092651","","","18","4936","2406","b","elianto","#f73b6a7A"," "," ","1","0","[2206.2999997138977]","1","2","","","4936","121","6","3","lose","go","0"
"pit-trial","240","1424450","0.0-126.0","battery-v0.2","","""event"",""trial"",""time""
""fullscreenenter"",""1"",""1418""
","
","
","""event"",""trial"",""time""
""fullscreenenter"",""1"",""1418""
","
","","","1092.3000001907349","","","18","4936","2406","n","elianto","#3366ff99"," "," ","1","0","[1943.9000000953674]","1","2","","","4936","122","9","1","win","go","1"
"pit-trial","241","1429323","0.0-127.0","battery-v0.2","","""event"",""trial"",""time""
""fullscreenenter"",""1"",""1418""
","
","
","""event"",""trial"",""time""
""fullscreenenter"",""1"",""1418""
","
","","","-1","","","18","4936","2406","t","elianto","#f73b6a7A","-1","-1","1","0","[]","0","2","","","4936","123","7","4","lose","no-go","0"
"pit-trial","242","1433338","0.0-128.0","battery-v0.2","","""event"",""trial"",""time""
""fullscreenenter"",""1"",""1418""
","
","
","""event"",""trial"",""time""
""fullscreenenter"",""1"",""1418""
","
","","","1146.4000000953674","","","18","4936","2406","f","elianto","#3366ff99"," "," ","1","+10","[1999.7000002861023]","1","2","","","4936","124","8","1","win","go","0"
"pit-trial","243","1437434","0.0-129.0","battery-v0.2","","""event"",""trial"",""time""
""fullscreenenter"",""1"",""1418""
","
","
","""event"",""trial"",""time""
""fullscreenenter"",""1"",""1418""
","
","","","1224.0999999046326","","","18","4936","2406","b","elianto","#f73b6a7A"," "," ","1","0","[2077.300000190735]","1","2","","","4936","125","6","3","lose","go","0"
"pit-trial","244","1441587","0.0-130.0","battery-v0.2","","""event"",""trial"",""time""
""fullscreenenter"",""1"",""1418""
","
","
","""event"",""trial"",""time""
""fullscreenenter"",""1"",""1418""
","
","","","1282","","","18","4936","2406","n","elianto","#3366ff99"," "," ","1","0","[2138]","1","2","","","4936","126","9","1","win","go","1"
"pit-trial","245","1446458","0.0-131.0","battery-v0.2","","""event"",""trial"",""time""
""fullscreenenter"",""1"",""1418""
","
","
","""event"",""trial"",""time""
""fullscreenenter"",""1"",""1418""
","
","","","-1","","","18","4936","2406","t","elianto","#f73b6a7A","-1","-1","1","0","[]","0","2","","","4936","127","7","4","lose","no-go","0"
"pit-trial","246","1450243","0.0-132.0","battery-v0.2","","""event"",""trial"",""time""
""fullscreenenter"",""1"",""1418""
","
","
","""event"",""trial"",""time""
""fullscreenenter"",""1"",""1418""
","
","","","911.7999997138977","","","18","4936","2406","f","elianto","#3366ff99"," "," ","1","+10","[1766.5999999046326]","1","2","","","4936","128","8","1","win","go","0"
"pit-trial","247","1454435","0.0-133.0","battery-v0.2","","""event"",""trial"",""time""
""fullscreenenter"",""1"",""1418""
","
","
","""event"",""trial"",""time""
""fullscreenenter"",""1"",""1418""
","
","","","1325.8000001907349","","","18","4936","2406","f","elianto","#3366ff99"," "," ","1","0","[2177.9000000953674]","1","2","","","4936","129","8","1","win","go","1"
"pit-trial","248","1458313","0.0-134.0","battery-v0.2","","""event"",""trial"",""time""
""fullscreenenter"",""1"",""1418""
","
","
","""event"",""trial"",""time""
""fullscreenenter"",""1"",""1418""
","
","","","1008.8000001907349","","","18","4936","2406","n","elianto","#3366ff99"," "," ","1","+10","[1862.8000001907349]","1","2","","","4936","130","9","1","win","go","0"
"pit-trial","249","1462509","0.0-135.0","battery-v0.2","","""event"",""trial"",""time""
""fullscreenenter"",""1"",""1418""
","
","
","""event"",""trial"",""time""
""fullscreenenter"",""1"",""1418""
","
","","","1323.7000002861023","","","18","4936","2406","b","elianto","#f73b6a7A"," "," ","1","0","[2177.699999809265]","1","2","","","4936","131","6","3","lose","go","0"
"pit-trial","250","1467380","0.0-136.0","battery-v0.2","","""event"",""trial"",""time""
""fullscreenenter"",""1"",""1418""
","
","
","""event"",""trial"",""time""
""fullscreenenter"",""1"",""1418""
","
","","","-1","","","18","4936","2406","t","elianto","#f73b6a7A","-1","-1","1","0","[]","0","2","","","4936","132","7","4","lose","no-go","0"
"pit-trial","251","1471211","0.0-137.0","battery-v0.2","","""event"",""trial"",""time""
""fullscreenenter"",""1"",""1418""
","
","
","""event"",""trial"",""time""
""fullscreenenter"",""1"",""1418""
","
","","","965.5","","","18","4936","2406","f","elianto","#3366ff99"," "," ","1","0","[1820]","1","2","","","4936","133","8","1","win","go","1"
"pit-trial","252","1476081","0.0-138.0","battery-v0.2","","""event"",""trial"",""time""
""fullscreenenter"",""1"",""1418""
","
","
","""event"",""trial"",""time""
""fullscreenenter"",""1"",""1418""
","
","","","-1","","","18","4936","2406","t","elianto","#f73b6a7A","-1","-1","1","0","[]","0","2","","","4936","134","7","4","lose","no-go","0"
"pit-trial","253","1480018","0.0-139.0","battery-v0.2","","""event"",""trial"",""time""
""fullscreenenter"",""1"",""1418""
","
","
","""event"",""trial"",""time""
""fullscreenenter"",""1"",""1418""
","
","","","1073","","","18","4936","2406","b","elianto","#f73b6a7A"," "," ","1","0","[1923.9000000953674]","1","2","","","4936","135","6","3","lose","go","0"
"pit-trial","254","1484036","0.0-140.0","battery-v0.2","","""event"",""trial"",""time""
""fullscreenenter"",""1"",""1418""
","
","
","""event"",""trial"",""time""
""fullscreenenter"",""1"",""1418""
","
","","","1145.0999999046326","","","18","4936","2406","n","elianto","#3366ff99"," "," ","1","+10","[1998.2999997138977]","1","2","","","4936","136","9","1","win","go","0"
"pit-trial","255","1488088","0.0-141.0","battery-v0.2","","""event"",""trial"",""time""
""fullscreenenter"",""1"",""1418""
","
","
","""event"",""trial"",""time""
""fullscreenenter"",""1"",""1418""
","
","","","1191.0999999046326","","","18","4936","2406","n","elianto","#3366ff99"," "," ","1","+10","[2041.1999998092651]","1","2","","","4936","137","9","1","win","go","0"
"pit-trial","256","1492050","0.0-142.0","battery-v0.2","","""event"",""trial"",""time""
""fullscreenenter"",""1"",""1418""
","
","
","""event"",""trial"",""time""
""fullscreenenter"",""1"",""1418""
","
","","","1096","","","18","4936","2406","f","elianto","#3366ff99"," "," ","1","+10","[1946.8000001907349]","1","2","","","4936","138","8","1","win","go","0"
"pit-trial","257","1496924","0.0-143.0","battery-v0.2","","""event"",""trial"",""time""
""fullscreenenter"",""1"",""1418""
","
","
","""event"",""trial"",""time""
""fullscreenenter"",""1"",""1418""
","
","","","-1","","","18","4936","2406","t","elianto","#f73b6a7A","-1","-1","1","-10","[]","0","2","","","4936","139","7","4","lose","no-go","1"
"pit-trial","258","1500881","0.0-144.0","battery-v0.2","","""event"",""trial"",""time""
""fullscreenenter"",""1"",""1418""
","
","
","""event"",""trial"",""time""
""fullscreenenter"",""1"",""1418""
","
","","","1091.1000003814697","","","18","4936","2406","b","elianto","#f73b6a7A"," "," ","1","0","[1942]","1","2","","","4936","140","6","3","lose","go","0"
"pit-instructions","259","1514930","0.0-145.0","battery-v0.2","","""event"",""trial"",""time""
""fullscreenenter"",""1"",""1418""
","
","
","""event"",""trial"",""time""
""fullscreenenter"",""1"",""1418""
","
","","[{""page_index"":0,""viewing_time"":5893.599999904633},{""page_index"":1,""viewing_time"":8150.200000286102}]","14044.199999809265","","","","","","","","","","","","","","","","","","","","","","","",""
"pit-trial","260","1519305","0.0-146.0","battery-v0.2","","""event"",""trial"",""time""
""fullscreenenter"",""1"",""1418""
","
","
","""event"",""trial"",""time""
""fullscreenenter"",""1"",""1418""
","
","","","1516.4000000953674","","","18","4936","2406","j","elianto","#f73b6a7A","-1"," ","0","0","[2366.800000190735]","1","3","","","4936","141","0","4","lose","no-go","1"
"pit-trial","261","1523772","0.0-147.0","battery-v0.2","","""event"",""trial"",""time""
""fullscreenenter"",""1"",""1418""
","
","
","""event"",""trial"",""time""
""fullscreenenter"",""1"",""1418""
","
","","","1602.0999999046326","","","18","4936","2406","e","elianto","#f73b6a7A","-1"," ","0","-10","[2452.199999809265]","1","3","","","4936","142","2","4","lose","no-go","0"
"pit-trial","262","1528642","0.0-148.0","battery-v0.2","","""event"",""trial"",""time""
""fullscreenenter"",""1"",""1418""
","
","
","""event"",""trial"",""time""
""fullscreenenter"",""1"",""1418""
","
","","","-1","","","18","4936","2406","d","elianto","#3366ff99"," ","-1","0","0","[2871.300000190735]","1","3","","","4936","143","1","1","win","go","0"
"pit-trial","263","1533435","0.0-149.0","battery-v0.2","","""event"",""trial"",""time""
""fullscreenenter"",""1"",""1418""
","
","
","""event"",""trial"",""time""
""fullscreenenter"",""1"",""1418""
","
","","","1926.5","","","18","4936","2406","w","elianto","#f73b6a7A"," "," ","1","0","[2781.699999809265]","1","3","","","4936","144","3","3","lose","go","0"
"pit-trial","264","1537162","0.0-150.0","battery-v0.2","","""event"",""trial"",""time""
""fullscreenenter"",""1"",""1418""
","
","
","""event"",""trial"",""time""
""fullscreenenter"",""1"",""1418""
","
","","","862.0999999046326","","","18","4936","2406","j","elianto","#f73b6a7A","-1"," ","0","-10","[1717.0999999046326]","1","3","","","4936","145","0","4","lose","no-go","0"
"pit-trial","265","1541597","0.0-151.0","battery-v0.2","","""event"",""trial"",""time""
""fullscreenenter"",""1"",""1418""
","
","
","""event"",""trial"",""time""
""fullscreenenter"",""1"",""1418""
","
","","","1561.1000003814697","","","18","4936","2406","d","elianto","#3366ff99"," "," ","1","+10","[2417.5999999046326]","1","3","","","4936","146","1","1","win","go","0"
"pit-trial","266","1546469","0.0-152.0","battery-v0.2","","""event"",""trial"",""time""
""fullscreenenter"",""1"",""1418""
","
","
","""event"",""trial"",""time""
""fullscreenenter"",""1"",""1418""
","
","","","-1","","","18","4936","2406","e","elianto","#f73b6a7A","-1","-1","1","-10","[]","0","3","","","4936","147","2","4","lose","no-go","1"
"pit-trial","267","1550628","0.0-153.0","battery-v0.2","","""event"",""trial"",""time""
""fullscreenenter"",""1"",""1418""
","
","
","""event"",""trial"",""time""
""fullscreenenter"",""1"",""1418""
