"trial_type","trial_index","time_elapsed","internal_node_id","task_version","subject_id","interactions","blur_events","focus_events","fullscreenenter_events","fullscreenexit_events","success","view_history","rt","responses","num_errors","age","subject","participantId","rune","rune_set","hex","correct","choice","accuracy","outcome","keys","total_keys","block","practice","value","sub","trial","stimulus","robot","valence","action","sham"
"pavlovia","0","5","0.0-0.0","battery-v0.2","","""event"",""trial"",""time""
""fullscreenenter"",""1"",""1566""
","
","
","""event"",""trial"",""time""
""fullscreenenter"",""1"",""1566""
","
","","","","","","","","","","","","","","","","","","","","","","","","","","",""
"fullscreen","1","2542","0.0-1.0","battery-v0.2","","""event"",""trial"",""time""
""fullscreenenter"",""1"",""1566""
","
","
","""event"",""trial"",""time""
""fullscreenenter"",""1"",""1566""
","
","true","","","","","","","","","","","","","","","","","","","","","","","","","",""
"pit-instructions","2","8243","0.0-2.0-0.0","battery-v0.2","","""event"",""trial"",""time""
""fullscreenenter"",""1"",""1566""
","
","
","""event"",""trial"",""time""
""fullscreenenter"",""1"",""1566""
","
","","[{""page_index"":0,""viewing_time"":5697.199999988079}]","5697.5","","","","","","","","","","","","","","","","","","","","","","","",""
"pit-comprehension","3","14405","0.0-2.0-1.0-0.0","battery-v0.2","","""event"",""trial"",""time""
""fullscreenenter"",""1"",""1566""
","
","
","""event"",""trial"",""time""
""fullscreenenter"",""1"",""1566""
","
","","","6159.899999976158","[""shark""]","0","19","10846","5254","","","","","","","","","","","","","","","","","","",""
"pit-instructions","4","16384","0.0-2.0-1.0-1.0","battery-v0.2","","""event"",""trial"",""time""
""fullscreenenter"",""1"",""1566""
","
","
","""event"",""trial"",""time""
""fullscreenenter"",""1"",""1566""
","
","","[{""page_index"":0,""viewing_time"":1974.300000011921}]","1974.699999988079","","","","","","","","","","","","","","","","","","","","","","","",""
"pit-comprehension","5","20122","0.0-2.0-2.0-0.0","battery-v0.2","","""event"",""trial"",""time""
""fullscreenenter"",""1"",""1566""
","
","
","""event"",""trial"",""time""
""fullscreenenter"",""1"",""1566""
","
","","","3735.800000011921","[""tiger""]","0","19","10846","5254","","","","","","","","","","","","","","","","","","",""
"pit-instructions","6","21364","0.0-2.0-2.0-1.0","battery-v0.2","","""event"",""trial"",""time""
""fullscreenenter"",""1"",""1566""
","
","
","""event"",""trial"",""time""
""fullscreenenter"",""1"",""1566""
","
","","[{""page_index"":0,""viewing_time"":1240.300000011921}]","1240.5999999642372","","","","","","","","","","","","","","","","","","","","","","","",""
"pit-instructions","7","141872","0.0-2.0-3.0","battery-v0.2","","""event"",""trial"",""time""
""fullscreenenter"",""1"",""1566""
","
","
","""event"",""trial"",""time""
""fullscreenenter"",""1"",""1566""
","
","","[{""page_index"":0,""viewing_time"":11013.699999988079},{""page_index"":1,""viewing_time"":7183.400000035763},{""page_index"":0,""viewing_time"":8954.599999964237},{""page_index"":1,""viewing_time"":6122.600000023842},{""page_index"":2,""viewing_time"":6539.800000011921},{""page_index"":3,""viewing_time"":7952.5},{""page_index"":4,""viewing_time"":6346.599999964237},{""page_index"":5,""viewing_time"":5619.800000011921},{""page_index"":6,""viewing_time"":8220.199999988079},{""page_index"":7,""viewing_time"":6924.800000011921},{""page_index"":8,""viewing_time"":8042},{""page_index"":9,""viewing_time"":8115.100000023842},{""page_index"":10,""viewing_time"":10932.099999964237},{""page_index"":11,""viewing_time"":7212.900000035763},{""page_index"":12,""viewing_time"":6540.5},{""page_index"":13,""viewing_time"":4783.799999952316}]","120505.60000002384","","","","","","","","","","","","","","","","","","","","","","","",""
"pit-trial","8","145377","0.0-2.0-4.0-0.0","battery-v0.2","","""event"",""trial"",""time""
""fullscreenenter"",""1"",""1566""
","
","
","""event"",""trial"",""time""
""fullscreenenter"",""1"",""1566""
","
","","","636.4000000357628","","","19","10846","5254","&#9784;","elianto","#FFFFF080"," "," ","1","&#10004","[1493.6000000238419]","1","0","0","","","","","","","",""
"pit-trial","9","148883","0.0-2.0-4.1-0.1","battery-v0.2","","""event"",""trial"",""time""
""fullscreenenter"",""1"",""1566""
","
","
","""event"",""trial"",""time""
""fullscreenenter"",""1"",""1566""
","
","","","634.6999999880791","","","19","10846","5254","&#9784;","elianto","#FFFFF080"," "," ","1","&#10004","[1493.1000000238419]","1","0","0","","","","","","","",""
"pit-trial","10","152463","0.0-2.0-4.2-0.2","battery-v0.2","","""event"",""trial"",""time""
""fullscreenenter"",""1"",""1566""
","
","
","""event"",""trial"",""time""
""fullscreenenter"",""1"",""1566""
","
","","","713.2000000476837","","","19","10846","5254","&#9784;","elianto","#FFFFF080"," "," ","1","&#10004","[1568.8999999761581]","1","0","0","","","","","","","",""
"pit-trial","11","155940","0.0-2.0-4.3-0.3","battery-v0.2","","""event"",""trial"",""time""
""fullscreenenter"",""1"",""1566""
","
","
","""event"",""trial"",""time""
""fullscreenenter"",""1"",""1566""
","
","","","607.7999999523163","","","19","10846","5254","&#9784;","elianto","#FFFFF080"," "," ","1","&#10004","[1464.300000011921]","1","0","0","","","","","","","",""
"pit-trial","12","159373","0.0-2.0-4.4-0.4","battery-v0.2","","""event"",""trial"",""time""
""fullscreenenter"",""1"",""1566""
","
","
","""event"",""trial"",""time""
""fullscreenenter"",""1"",""1566""
","
","","","563.1000000238419","","","19","10846","5254","&#9784;","elianto","#FFFFF080"," "," ","1","&#10004","[1420.800000011921]","1","0","0","","","","","","","",""
"pit-instructions","13","180612","0.0-2.0-5.0","battery-v0.2","","""event"",""trial"",""time""
""fullscreenenter"",""1"",""1566""
","
","
","""event"",""trial"",""time""
""fullscreenenter"",""1"",""1566""
","
","","[{""page_index"":0,""viewing_time"":5372.199999988079},{""page_index"":1,""viewing_time"":5400.399999976158},{""page_index"":2,""viewing_time"":5125.5},{""page_index"":3,""viewing_time"":5334.5}]","21233.19999998808","","","","","","","","","","","","","","","","","","","","","","","",""
"pit-trial","14","185482","0.0-2.0-6.0-0.0","battery-v0.2","","""event"",""trial"",""time""
""fullscreenenter"",""1"",""1566""
","
","
","""event"",""trial"",""time""
""fullscreenenter"",""1"",""1566""
","
","","","-1","","","19","10846","5254","&#9854;","elianto","#FFFFF080","-1","-1","1","&#10004","[]","0","0","1","","","","","","","",""
"pit-trial","15","190355","0.0-2.0-6.1-0.1","battery-v0.2","","""event"",""trial"",""time""
""fullscreenenter"",""1"",""1566""
","
","
","""event"",""trial"",""time""
""fullscreenenter"",""1"",""1566""
","
","","","-1","","","19","10846","5254","&#9854;","elianto","#FFFFF080","-1","-1","1","&#10004","[]","0","0","1","","","","","","","",""
"pit-trial","16","195224","0.0-2.0-6.2-0.2","battery-v0.2","","""event"",""trial"",""time""
""fullscreenenter"",""1"",""1566""
","
","
","""event"",""trial"",""time""
""fullscreenenter"",""1"",""1566""
","
","","","-1","","","19","10846","5254","&#9854;","elianto","#FFFFF080","-1","-1","1","&#10004","[]","0","0","1","","","","","","","",""
"pit-trial","17","200096","0.0-2.0-6.3-0.3","battery-v0.2","","""event"",""trial"",""time""
""fullscreenenter"",""1"",""1566""
","
","
","""event"",""trial"",""time""
""fullscreenenter"",""1"",""1566""
","
","","","-1","","","19","10846","5254","&#9854;","elianto","#FFFFF080","-1","-1","1","&#10004","[]","0","0","1","","","","","","","",""
"pit-trial","18","204967","0.0-2.0-6.4-0.4","battery-v0.2","","""event"",""trial"",""time""
""fullscreenenter"",""1"",""1566""
","
","
","""event"",""trial"",""time""
""fullscreenenter"",""1"",""1566""
","
","","","-1","","","19","10846","5254","&#9854;","elianto","#FFFFF080","-1","-1","1","&#10004","[]","0","0","1","","","","","","","",""
"pit-instructions","19","433201","0.0-2.0-7.0","battery-v0.2","","""event"",""trial"",""time""
""fullscreenenter"",""1"",""1566""
","
","
","""event"",""trial"",""time""
""fullscreenenter"",""1"",""1566""
","
","","[{""page_index"":0,""viewing_time"":6353.100000023842},{""page_index"":1,""viewing_time"":8103.799999952316},{""page_index"":2,""viewing_time"":6027.300000011921},{""page_index"":3,""viewing_time"":6129.300000011921},{""page_index"":4,""viewing_time"":5542},{""page_index"":5,""viewing_time"":5336.899999976158},{""page_index"":6,""viewing_time"":11582},{""page_index"":7,""viewing_time"":36492.30000001192},{""page_index"":8,""viewing_time"":6751.900000035763},{""page_index"":9,""viewing_time"":6378.5},{""page_index"":10,""viewing_time"":11934.899999976158},{""page_index"":9,""viewing_time"":5075.100000023842},{""page_index"":10,""viewing_time"":7383.399999976158},{""page_index"":11,""viewing_time"":5496.600000023842},{""page_index"":12,""viewing_time"":6642.5},{""page_index"":13,""viewing_time"":9408.099999964237},{""page_index"":14,""viewing_time"":6962.199999988079},{""page_index"":15,""viewing_time"":55994.40000003576},{""page_index"":16,""viewing_time"":9722.599999964237},{""page_index"":17,""viewing_time"":10910.600000023842}]","228228.19999998808","","","","","","","","","","","","","","","","","","","","","","","",""
"pit-trial","20","436591","0.0-2.0-8.0-0.0","battery-v0.2","","""event"",""trial"",""time""
""fullscreenenter"",""1"",""1566""
","
","
","""event"",""trial"",""time""
""fullscreenenter"",""1"",""1566""
","
","","","520.6000000238419","","","19","10846","5254","&#9776;","elianto","#3366ff99"," "," ","1","+10","[1378.7999999523163]","1","0","1","","","","","","","",""
"pit-trial","21","439993","0.0-2.0-8.0-1.0","battery-v0.2","","""event"",""trial"",""time""
""fullscreenenter"",""1"",""1566""
","
","
","""event"",""trial"",""time""
""fullscreenenter"",""1"",""1566""
","
","","","534.1000000238419","","","19","10846","5254","&#9776;","elianto","#3366ff99"," "," ","1","+10","[1393]","1","0","1","","","","","","","",""
"pit-trial","22","443433","0.0-2.0-8.0-2.0","battery-v0.2","","""event"",""trial"",""time""
""fullscreenenter"",""1"",""1566""
","
","
","""event"",""trial"",""time""
""fullscreenenter"",""1"",""1566""
","
","","","572.5999999642372","","","19","10846","5254","&#9776;","elianto","#3366ff99"," "," ","1","+10","[1430.8999999761581]","1","0","1","","","","","","","",""
"pit-trial","23","447788","0.0-2.0-8.0-3.0","battery-v0.2","","""event"",""trial"",""time""
""fullscreenenter"",""1"",""1566""
","
","
","""event"",""trial"",""time""
""fullscreenenter"",""1"",""1566""
","
","","","1485.5999999642372","","","19","10846","5254","&#9776;","elianto","#3366ff99"," "," ","1","0","[2342.300000011921]","1","0","1","","","","","","","",""
"pit-trial","24","451152","0.0-2.0-8.0-4.0","battery-v0.2","","""event"",""trial"",""time""
""fullscreenenter"",""1"",""1566""
","
","
","""event"",""trial"",""time""
""fullscreenenter"",""1"",""1566""
","
","","","494.4000000357628","","","19","10846","5254","&#9776;","elianto","#3366ff99"," "," ","1","+10","[1352.300000011921]","1","0","1","","","","","","","",""
"pit-trial","25","454522","0.0-2.0-8.1-0.1","battery-v0.2","","""event"",""trial"",""time""
""fullscreenenter"",""1"",""1566""
","
","
","""event"",""trial"",""time""
""fullscreenenter"",""1"",""1566""
","
","","","499.69999998807907","","","19","10846","5254","&#9776;","elianto","#3366ff99"," "," ","1","+10","[1357.1000000238419]","1","0","1","","","","","","","",""
"pit-trial","26","458052","0.0-2.0-8.1-1.1","battery-v0.2","","""event"",""trial"",""time""
""fullscreenenter"",""1"",""1566""
","
","
","""event"",""trial"",""time""
""fullscreenenter"",""1"",""1566""
","
","","","659.4000000357628","","","19","10846","5254","&#9776;","elianto","#3366ff99"," "," ","1","+10","[1517.6000000238419]","1","0","1","","","","","","","",""
"pit-trial","27","462168","0.0-2.0-8.1-2.1","battery-v0.2","","""event"",""trial"",""time""
""fullscreenenter"",""1"",""1566""
","
","
","""event"",""trial"",""time""
""fullscreenenter"",""1"",""1566""
","
","","","1244.3999999761581","","","19","10846","5254","&#9776;","elianto","#3366ff99"," "," ","1","+10","[2104.400000035763]","1","0","1","","","","","","","",""
"pit-trial","28","465619","0.0-2.0-8.1-3.1","battery-v0.2","","""event"",""trial"",""time""
""fullscreenenter"",""1"",""1566""
","
","
","""event"",""trial"",""time""
""fullscreenenter"",""1"",""1566""
","
","","","580.7000000476837","","","19","10846","5254","&#9776;","elianto","#3366ff99"," "," ","1","0","[1440.0999999642372]","1","0","1","","","","","","","",""
"pit-trial","29","468996","0.0-2.0-8.1-4.1","battery-v0.2","","""event"",""trial"",""time""
""fullscreenenter"",""1"",""1566""
","
","
","""event"",""trial"",""time""
""fullscreenenter"",""1"",""1566""
","
","","","506.5999999642372","","","19","10846","5254","&#9776;","elianto","#3366ff99"," "," ","1","+10","[1366.300000011921]","1","0","1","","","","","","","",""
"pit-trial","30","472539","0.0-2.0-8.2-0.2","battery-v0.2","","""event"",""trial"",""time""
""fullscreenenter"",""1"",""1566""
","
","
","""event"",""trial"",""time""
""fullscreenenter"",""1"",""1566""
","
","","","672.1000000238419","","","19","10846","5254","&#9776;","elianto","#3366ff99"," "," ","1","+10","[1530.300000011921]","1","0","1","","","","","","","",""
"pit-trial","31","475829","0.0-2.0-8.2-1.2","battery-v0.2","","""event"",""trial"",""time""
""fullscreenenter"",""1"",""1566""
""fullscreenexit"",""32"",""476819""
""blur"",""32"",""477344""
""focus"",""32"",""478540""
","""event"",""trial"",""time""
""blur"",""32"",""477344""
","""event"",""trial"",""time""
""focus"",""32"",""478540""
","""event"",""trial"",""time""
""fullscreenenter"",""1"",""1566""
","""event"",""trial"",""time""
""fullscreenexit"",""32"",""476819""
","","","420.10000002384186","","","19","10846","5254","&#9776;","elianto","#3366ff99"," "," ","1","+10","[1278.6000000238419]","1","0","1","","","","","","","",""
"pit-trial","32","480699","0.0-2.0-8.2-2.2","battery-v0.2","","""event"",""trial"",""time""
""fullscreenenter"",""1"",""1566""
""fullscreenexit"",""32"",""476819""
""blur"",""32"",""477344""
""focus"",""32"",""478540""
","""event"",""trial"",""time""
""blur"",""32"",""477344""
","""event"",""trial"",""time""
""focus"",""32"",""478540""
","""event"",""trial"",""time""
""fullscreenenter"",""1"",""1566""
","""event"",""trial"",""time""
""fullscreenexit"",""32"",""476819""
","","","-1","","","19","10846","5254","&#9776;","elianto","#3366ff99"," ","-1","0","0","[3156.5]","1","0","1","","","","","","","",""
"pit-trial","33","483934","0.0-2.0-8.2-3.2","battery-v0.2","","""event"",""trial"",""time""
""fullscreenenter"",""1"",""1566""
""fullscreenexit"",""32"",""476819""
""blur"",""32"",""477344""
""focus"",""32"",""478540""
","""event"",""trial"",""time""
""blur"",""32"",""477344""
","""event"",""trial"",""time""
""focus"",""32"",""478540""
","""event"",""trial"",""time""
""fullscreenenter"",""1"",""1566""
","""event"",""trial"",""time""
""fullscreenexit"",""32"",""476819""
","","","367.19999998807907","","","19","10846","5254","&#9776;","elianto","#3366ff99"," "," ","1","0","[1225.0999999642372]","1","0","1","","","","","","","",""
"pit-trial","34","487208","0.0-2.0-8.2-4.2","battery-v0.2","","""event"",""trial"",""time""
""fullscreenenter"",""1"",""1566""
""fullscreenexit"",""32"",""476819""
""blur"",""32"",""477344""
""focus"",""32"",""478540""
","""event"",""trial"",""time""
""blur"",""32"",""477344""
","""event"",""trial"",""time""
""focus"",""32"",""478540""
","""event"",""trial"",""time""
""fullscreenenter"",""1"",""1566""
","""event"",""trial"",""time""
""fullscreenexit"",""32"",""476819""
","","","404.69999998807907","","","19","10846","5254","&#9776;","elianto","#3366ff99"," "," ","1","+10","[1262.7000000476837]","1","0","1","","","","","","","",""
"call-function","35","487211","0.0-2.0-9.0","battery-v0.2","","""event"",""trial"",""time""
""fullscreenenter"",""1"",""1566""
""fullscreenexit"",""32"",""476819""
""blur"",""32"",""477344""
""focus"",""32"",""478540""
","""event"",""trial"",""time""
""blur"",""32"",""477344""
","""event"",""trial"",""time""
""focus"",""32"",""478540""
","""event"",""trial"",""time""
""fullscreenenter"",""1"",""1566""
","""event"",""trial"",""time""
""fullscreenexit"",""32"",""476819""
","","","","","","","","","","","","","","","","","","","","","","","","","","",""
"pit-instructions","36","532573","0.0-2.0-10.0","battery-v0.2","","""event"",""trial"",""time""
""fullscreenenter"",""1"",""1566""
""fullscreenexit"",""32"",""476819""
""blur"",""32"",""477344""
""focus"",""32"",""478540""
","""event"",""trial"",""time""
""blur"",""32"",""477344""
","""event"",""trial"",""time""
""focus"",""32"",""478540""
","""event"",""trial"",""time""
""fullscreenenter"",""1"",""1566""
","""event"",""trial"",""time""
""fullscreenexit"",""32"",""476819""
","","[{""page_index"":0,""viewing_time"":5721.900000035763},{""page_index"":1,""viewing_time"":12653.299999952316},{""page_index"":2,""viewing_time"":10022.300000011921},{""page_index"":3,""viewing_time"":8727.199999988079},{""page_index"":4,""viewing_time"":8235.300000011921}]","45360.69999998808","","","","","","","","","","","","","","","","","","","","","","","",""
"pit-trial","37","536823","0.0-2.0-11.0-0.0","battery-v0.2","","""event"",""trial"",""time""
""fullscreenenter"",""1"",""1566""
""fullscreenexit"",""32"",""476819""
""blur"",""32"",""477344""
""focus"",""32"",""478540""
","""event"",""trial"",""time""
""blur"",""32"",""477344""
","""event"",""trial"",""time""
""focus"",""32"",""478540""
","""event"",""trial"",""time""
""fullscreenenter"",""1"",""1566""
","""event"",""trial"",""time""
""fullscreenexit"",""32"",""476819""
","","","1380.6000000238419","","","19","10846","5254","&#9761;","elianto","#3366ff99","-1"," ","0","0","[2239.5]","1","0","2","","","","","","","",""
"pit-trial","38","540294","0.0-2.0-11.0-1.0","battery-v0.2","","""event"",""trial"",""time""
""fullscreenenter"",""1"",""1566""
""fullscreenexit"",""32"",""476819""
""blur"",""32"",""477344""
""focus"",""32"",""478540""
","""event"",""trial"",""time""
""blur"",""32"",""477344""
","""event"",""trial"",""time""
""focus"",""32"",""478540""
","""event"",""trial"",""time""
""fullscreenenter"",""1"",""1566""
","""event"",""trial"",""time""
""fullscreenexit"",""32"",""476819""
","","","601.2999999523163","","","19","10846","5254","&#9761;","elianto","#3366ff99","-1"," ","0","0","[1459.300000011921]","1","0","2","","","","","","","",""
"pit-trial","39","543483","0.0-2.0-11.0-2.0","battery-v0.2","","""event"",""trial"",""time""
""fullscreenenter"",""1"",""1566""
""fullscreenexit"",""32"",""476819""
""blur"",""32"",""477344""
""focus"",""32"",""478540""
","""event"",""trial"",""time""
""blur"",""32"",""477344""
","""event"",""trial"",""time""
""focus"",""32"",""478540""
","""event"",""trial"",""time""
""fullscreenenter"",""1"",""1566""
","""event"",""trial"",""time""
""fullscreenexit"",""32"",""476819""
","","","320.5","","","19","10846","5254","&#9761;","elianto","#3366ff99","-1"," ","0","0","[1177.1000000238419]","1","0","2","","","","","","","",""
"pit-trial","40","546744","0.0-2.0-11.0-3.0","battery-v0.2","","""event"",""trial"",""time""
""fullscreenenter"",""1"",""1566""
""fullscreenexit"",""32"",""476819""
""blur"",""32"",""477344""
""focus"",""32"",""478540""
","""event"",""trial"",""time""
""blur"",""32"",""477344""
","""event"",""trial"",""time""
""focus"",""32"",""478540""
","""event"",""trial"",""time""
""fullscreenenter"",""1"",""1566""
","""event"",""trial"",""time""
""fullscreenexit"",""32"",""476819""
","","","393.0999999642372","","","19","10846","5254","&#9761;","elianto","#3366ff99","-1"," ","0","+10","[1250.699999988079]","1","0","2","","","","","","","",""
"pit-trial","41","549984","0.0-2.0-11.0-4.0","battery-v0.2","","""event"",""trial"",""time""
""fullscreenenter"",""1"",""1566""
""fullscreenexit"",""32"",""476819""
""blur"",""32"",""477344""
""focus"",""32"",""478540""
","""event"",""trial"",""time""
""blur"",""32"",""477344""
","""event"",""trial"",""time""
""focus"",""32"",""478540""
","""event"",""trial"",""time""
""fullscreenenter"",""1"",""1566""
","""event"",""trial"",""time""
""fullscreenexit"",""32"",""476819""
","","","372.5","","","19","10846","5254","&#9761;","elianto","#3366ff99","-1"," ","0","0","[1229.5999999642372]","1","0","2","","","","","","","",""
"pit-trial","42","553247","0.0-2.0-11.1-0.1","battery-v0.2","","""event"",""trial"",""time""
""fullscreenenter"",""1"",""1566""
""fullscreenexit"",""32"",""476819""
""blur"",""32"",""477344""
""focus"",""32"",""478540""
","""event"",""trial"",""time""
""blur"",""32"",""477344""
","""event"",""trial"",""time""
""focus"",""32"",""478540""
","""event"",""trial"",""time""
""fullscreenenter"",""1"",""1566""
","""event"",""trial"",""time""
""fullscreenexit"",""32"",""476819""
","","","395","","","19","10846","5254","&#9761;","elianto","#3366ff99","-1"," ","0","0","[1251]","1","0","2","","","","","","","",""
"pit-trial","43","556463","0.0-2.0-11.1-1.1","battery-v0.2","","""event"",""trial"",""time""
""fullscreenenter"",""1"",""1566""
""fullscreenexit"",""32"",""476819""
""blur"",""32"",""477344""
""focus"",""32"",""478540""
","""event"",""trial"",""time""
""blur"",""32"",""477344""
","""event"",""trial"",""time""
""focus"",""32"",""478540""
","""event"",""trial"",""time""
""fullscreenenter"",""1"",""1566""
","""event"",""trial"",""time""
""fullscreenexit"",""32"",""476819""
","","","347.2000000476837","","","19","10846","5254","&#9761;","elianto","#3366ff99","-1"," ","0","0","[1205.2000000476837]","1","0","2","","","","","","","",""
"pit-trial","44","559742","0.0-2.0-11.1-2.1","battery-v0.2","","""event"",""trial"",""time""
""fullscreenenter"",""1"",""1566""
""fullscreenexit"",""32"",""476819""
""blur"",""32"",""477344""
""focus"",""32"",""478540""
","""event"",""trial"",""time""
""blur"",""32"",""477344""
","""event"",""trial"",""time""
""focus"",""32"",""478540""
","""event"",""trial"",""time""
""fullscreenenter"",""1"",""1566""
","""event"",""trial"",""time""
""fullscreenexit"",""32"",""476819""
","","","408.69999998807907","","","19","10846","5254","&#9761;","elianto","#3366ff99","-1"," ","0","0","[1266.699999988079]","1","0","2","","","","","","","",""
"pit-trial","45","562839","0.0-2.0-11.1-3.1","battery-v0.2","","""event"",""trial"",""time""
""fullscreenenter"",""1"",""1566""
""fullscreenexit"",""32"",""476819""
""blur"",""32"",""477344""
""focus"",""32"",""478540""
","""event"",""trial"",""time""
""blur"",""32"",""477344""
","""event"",""trial"",""time""
""focus"",""32"",""478540""
","""event"",""trial"",""time""
""fullscreenenter"",""1"",""1566""
","""event"",""trial"",""time""
""fullscreenexit"",""32"",""476819""
","","","228.80000001192093","","","19","10846","5254","&#9761;","elianto","#3366ff99","-1"," ","0","+10","[1085.8999999761581]","1","0","2","","","","","","","",""
"pit-trial","46","565944","0.0-2.0-11.1-4.1","battery-v0.2","","""event"",""trial"",""time""
""fullscreenenter"",""1"",""1566""
""fullscreenexit"",""32"",""476819""
""blur"",""32"",""477344""
""focus"",""32"",""478540""
","""event"",""trial"",""time""
""blur"",""32"",""477344""
","""event"",""trial"",""time""
""focus"",""32"",""478540""
","""event"",""trial"",""time""
""fullscreenenter"",""1"",""1566""
","""event"",""trial"",""time""
""fullscreenexit"",""32"",""476819""
","","","236.69999998807907","","","19","10846","5254","&#9761;","elianto","#3366ff99","-1"," ","0","0","[1094.4000000357628]","1","0","2","","","","","","","",""
"pit-trial","47","569028","0.0-2.0-11.2-0.2","battery-v0.2","","""event"",""trial"",""time""
""fullscreenenter"",""1"",""1566""
""fullscreenexit"",""32"",""476819""
""blur"",""32"",""477344""
""focus"",""32"",""478540""
","""event"",""trial"",""time""
""blur"",""32"",""477344""
","""event"",""trial"",""time""
""focus"",""32"",""478540""
","""event"",""trial"",""time""
""fullscreenenter"",""1"",""1566""
","""event"",""trial"",""time""
""fullscreenexit"",""32"",""476819""
","","","216.30000001192093","","","19","10846","5254","&#9761;","elianto","#3366ff99","-1"," ","0","0","[1072.199999988079]","1","0","2","","","","","","","",""
"pit-trial","48","572074","0.0-2.0-11.2-1.2","battery-v0.2","","""event"",""trial"",""time""
""fullscreenenter"",""1"",""1566""
""fullscreenexit"",""32"",""476819""
""blur"",""32"",""477344""
""focus"",""32"",""478540""
","""event"",""trial"",""time""
""blur"",""32"",""477344""
","""event"",""trial"",""time""
""focus"",""32"",""478540""
","""event"",""trial"",""time""
""fullscreenenter"",""1"",""1566""
","""event"",""trial"",""time""
""fullscreenexit"",""32"",""476819""
","","","176.5999999642372","","","19","10846","5254","&#9761;","elianto","#3366ff99","-1"," ","0","0","[1034.9000000357628]","1","0","2","","","","","","","",""
"pit-trial","49","574944","0.0-2.0-11.2-2.2","battery-v0.2","","""event"",""trial"",""time""
""fullscreenenter"",""1"",""1566""
""fullscreenexit"",""32"",""476819""
""blur"",""32"",""477344""
""focus"",""32"",""478540""
","""event"",""trial"",""time""
""blur"",""32"",""477344""
","""event"",""trial"",""time""
""focus"",""32"",""478540""
","""event"",""trial"",""time""
""fullscreenenter"",""1"",""1566""
","""event"",""trial"",""time""
""fullscreenexit"",""32"",""476819""
","","","1.300000011920929","","","19","10846","5254","&#9761;","elianto","#3366ff99","-1"," ","0","0","[857.6999999880791]","1","0","2","","","","","","","",""
"pit-trial","50","577944","0.0-2.0-11.2-3.2","battery-v0.2","","""event"",""trial"",""time""
""fullscreenenter"",""1"",""1566""
""fullscreenexit"",""32"",""476819""
""blur"",""32"",""477344""
""focus"",""32"",""478540""
","""event"",""trial"",""time""
""blur"",""32"",""477344""
","""event"",""trial"",""time""
""focus"",""32"",""478540""
","""event"",""trial"",""time""
""fullscreenenter"",""1"",""1566""
","""event"",""trial"",""time""
""fullscreenexit"",""32"",""476819""
","","","133.30000001192093","","","19","10846","5254","&#9761;","elianto","#3366ff99","-1"," ","0","+10","[991]","1","0","2","","","","","","","",""
"pit-trial","51","581034","0.0-2.0-11.2-4.2","battery-v0.2","","""event"",""trial"",""time""
""fullscreenenter"",""1"",""1566""
""fullscreenexit"",""32"",""476819""
""blur"",""32"",""477344""
""focus"",""32"",""478540""
","""event"",""trial"",""time""
""blur"",""32"",""477344""
","""event"",""trial"",""time""
""focus"",""32"",""478540""
","""event"",""trial"",""time""
""fullscreenenter"",""1"",""1566""
","""event"",""trial"",""time""
""fullscreenexit"",""32"",""476819""
","","","222.30000001192093","","","19","10846","5254","&#9761;","elianto","#3366ff99","-1"," ","0","0","[1079.3999999761581]","1","0","2","","","","","","","",""
"pit-trial","52","584060","0.0-2.0-11.3-0.3","battery-v0.2","","""event"",""trial"",""time""
""fullscreenenter"",""1"",""1566""
""fullscreenexit"",""32"",""476819""
""blur"",""32"",""477344""
""focus"",""32"",""478540""
","""event"",""trial"",""time""
""blur"",""32"",""477344""
","""event"",""trial"",""time""
""focus"",""32"",""478540""
","""event"",""trial"",""time""
""fullscreenenter"",""1"",""1566""
","""event"",""trial"",""time""
""fullscreenexit"",""32"",""476819""
","","","157.69999998807907","","","19","10846","5254","&#9761;","elianto","#3366ff99","-1"," ","0","0","[1014.6999999880791]","1","0","2","","","","","","","",""
"pit-trial","53","587402","0.0-2.0-11.3-1.3","battery-v0.2","","""event"",""trial"",""time""
""fullscreenenter"",""1"",""1566""
""fullscreenexit"",""32"",""476819""
""blur"",""32"",""477344""
""focus"",""32"",""478540""
","""event"",""trial"",""time""
""blur"",""32"",""477344""
","""event"",""trial"",""time""
""focus"",""32"",""478540""
","""event"",""trial"",""time""
""fullscreenenter"",""1"",""1566""
","""event"",""trial"",""time""
""fullscreenexit"",""32"",""476819""
","","","471.80000001192093","","","19","10846","5254","&#9761;","elianto","#3366ff99","-1"," ","0","0","[1330.1000000238419]","1","0","2","","","","","","","",""
"pit-trial","54","590763","0.0-2.0-11.3-2.3","battery-v0.2","","""event"",""trial"",""time""
""fullscreenenter"",""1"",""1566""
""fullscreenexit"",""32"",""476819""
""blur"",""32"",""477344""
""focus"",""32"",""478540""
","""event"",""trial"",""time""
""blur"",""32"",""477344""
","""event"",""trial"",""time""
""focus"",""32"",""478540""
","""event"",""trial"",""time""
""fullscreenenter"",""1"",""1566""
","""event"",""trial"",""time""
""fullscreenexit"",""32"",""476819""
","","","490.69999998807907","","","19","10846","5254","&#9761;","elianto","#3366ff99","-1"," ","0","0","[1349.6000000238419]","1","0","2","","","","","","","",""
"pit-trial","55","593860","0.0-2.0-11.3-3.3","battery-v0.2","","""event"",""trial"",""time""
""fullscreenenter"",""1"",""1566""
""fullscreenexit"",""32"",""476819""
""blur"",""32"",""477344""
""focus"",""32"",""478540""
","""event"",""trial"",""time""
""blur"",""32"",""477344""
","""event"",""trial"",""time""
""focus"",""32"",""478540""
","""event"",""trial"",""time""
""fullscreenenter"",""1"",""1566""
","""event"",""trial"",""time""
""fullscreenexit"",""32"",""476819""
","","","228.5999999642372","","","19","10846","5254","&#9761;","elianto","#3366ff99","-1"," ","0","+10","[103.80000001192093,1086.3999999761581]","2","0","2","","","","","","","",""
"pit-trial","56","596944","0.0-2.0-11.3-4.3","battery-v0.2","","""event"",""trial"",""time""
""fullscreenenter"",""1"",""1566""
""fullscreenexit"",""32"",""476819""
""blur"",""32"",""477344""
""focus"",""32"",""478540""
","""event"",""trial"",""time""
""blur"",""32"",""477344""
","""event"",""trial"",""time""
""focus"",""32"",""478540""
","""event"",""trial"",""time""
""fullscreenenter"",""1"",""1566""
","""event"",""trial"",""time""
""fullscreenexit"",""32"",""476819""
","","","216.10000002384186","","","19","10846","5254","&#9761;","elianto","#3366ff99","-1"," ","0","0","[1073.8999999761581]","1","0","2","","","","","","","",""
"call-function","57","596947","0.0-2.0-12.0","battery-v0.2","","""event"",""trial"",""time""
""fullscreenenter"",""1"",""1566""
""fullscreenexit"",""32"",""476819""
""blur"",""32"",""477344""
""focus"",""32"",""478540""
","""event"",""trial"",""time""
""blur"",""32"",""477344""
","""event"",""trial"",""time""
""focus"",""32"",""478540""
","""event"",""trial"",""time""
""fullscreenenter"",""1"",""1566""
","""event"",""trial"",""time""
""fullscreenexit"",""32"",""476819""
","","","","","","","","","","","","","","","","","","","","","","","","","","",""
"pit-instructions","58","630061","0.0-2.0-13.0","battery-v0.2","","""event"",""trial"",""time""
""fullscreenenter"",""1"",""1566""
""fullscreenexit"",""32"",""476819""
""blur"",""32"",""477344""
""focus"",""32"",""478540""
","""event"",""trial"",""time""
""blur"",""32"",""477344""
","""event"",""trial"",""time""
""focus"",""32"",""478540""
","""event"",""trial"",""time""
""fullscreenenter"",""1"",""1566""
","""event"",""trial"",""time""
""fullscreenexit"",""32"",""476819""
","","[{""page_index"":0,""viewing_time"":6085.900000035763},{""page_index"":1,""viewing_time"":6583.5},{""page_index"":2,""viewing_time"":3193.099999964237},{""page_index"":3,""viewing_time"":12379},{""page_index"":4,""viewing_time"":4871}]","33113.19999998808","","","","","","","","","","","","","","","","","","","","","","","",""
"pit-trial","59","634922","0.0-2.0-14.0-0.0","battery-v0.2","","""event"",""trial"",""time""
""fullscreenenter"",""1"",""1566""
""fullscreenexit"",""32"",""476819""
""blur"",""32"",""477344""
""focus"",""32"",""478540""
","""event"",""trial"",""time""
""blur"",""32"",""477344""
","""event"",""trial"",""time""
""focus"",""32"",""478540""
","""event"",""trial"",""time""
""fullscreenenter"",""1"",""1566""
","""event"",""trial"",""time""
""fullscreenexit"",""32"",""476819""
","","","-1","","","19","10846","5254","&#9826;","elianto","#f73b6a7A","-1","-1","1","0","[]","0","0","3","","","","","","","",""
"pit-trial","60","639792","0.0-2.0-14.0-1.0","battery-v0.2","","""event"",""trial"",""time""
""fullscreenenter"",""1"",""1566""
""fullscreenexit"",""32"",""476819""
""blur"",""32"",""477344""
""focus"",""32"",""478540""
","""event"",""trial"",""time""
""blur"",""32"",""477344""
","""event"",""trial"",""time""
""focus"",""32"",""478540""
","""event"",""trial"",""time""
""fullscreenenter"",""1"",""1566""
","""event"",""trial"",""time""
""fullscreenexit"",""32"",""476819""
","","","-1","","","19","10846","5254","&#9826;","elianto","#f73b6a7A","-1","-1","1","0","[]","0","0","3","","","","","","","",""
"pit-trial","61","643494","0.0-2.0-14.0-2.0","battery-v0.2","","""event"",""trial"",""time""
""fullscreenenter"",""1"",""1566""
""fullscreenexit"",""32"",""476819""
""blur"",""32"",""477344""
""focus"",""32"",""478540""
","""event"",""trial"",""time""
""blur"",""32"",""477344""
","""event"",""trial"",""time""
""focus"",""32"",""478540""
","""event"",""trial"",""time""
""fullscreenenter"",""1"",""1566""
","""event"",""trial"",""time""
""fullscreenexit"",""32"",""476819""
","","","831.8000000119209","","","19","10846","5254","&#9826;","elianto","#f73b6a7A","-1"," ","0","-10","[1690.0999999642372]","1","0","3","","","","","","","",""
"pit-trial","62","648364","0.0-2.0-14.0-3.0","battery-v0.2","","""event"",""trial"",""time""
""fullscreenenter"",""1"",""1566""
""fullscreenexit"",""32"",""476819""
""blur"",""32"",""477344""
""focus"",""32"",""478540""
","""event"",""trial"",""time""
""blur"",""32"",""477344""
","""event"",""trial"",""time""
""focus"",""32"",""478540""
","""event"",""trial"",""time""
""fullscreenenter"",""1"",""1566""
","""event"",""trial"",""time""
""fullscreenexit"",""32"",""476819""
","","","-1","","","19","10846","5254","&#9826;","elianto","#f73b6a7A","-1","-1","1","-10","[]","0","0","3","","","","","","","",""
"pit-trial","63","653235","0.0-2.0-14.0-4.0","battery-v0.2","","""event"",""trial"",""time""
""fullscreenenter"",""1"",""1566""
""fullscreenexit"",""32"",""476819""
""blur"",""32"",""477344""
""focus"",""32"",""478540""
","""event"",""trial"",""time""
""blur"",""32"",""477344""
","""event"",""trial"",""time""
""focus"",""32"",""478540""
","""event"",""trial"",""time""
""fullscreenenter"",""1"",""1566""
","""event"",""trial"",""time""
""fullscreenexit"",""32"",""476819""
","","","-1","","","19","10846","5254","&#9826;","elianto","#f73b6a7A","-1","-1","1","0","[]","0","0","3","","","","","","","",""
"pit-trial","64","658106","0.0-2.0-14.1-0.1","battery-v0.2","","""event"",""trial"",""time""
""fullscreenenter"",""1"",""1566""
""fullscreenexit"",""32"",""476819""
""blur"",""32"",""477344""
""focus"",""32"",""478540""
","""event"",""trial"",""time""
""blur"",""32"",""477344""
","""event"",""trial"",""time""
""focus"",""32"",""478540""
","""event"",""trial"",""time""
""fullscreenenter"",""1"",""1566""
","""event"",""trial"",""time""
""fullscreenexit"",""32"",""476819""
","","","-1","","","19","10846","5254","&#9826;","elianto","#f73b6a7A","-1","-1","1","0","[]","0","0","3","","","","","","","",""
"pit-trial","65","662976","0.0-2.0-14.1-1.1","battery-v0.2","","""event"",""trial"",""time""
""fullscreenenter"",""1"",""1566""
""fullscreenexit"",""32"",""476819""
""blur"",""32"",""477344""
""focus"",""32"",""478540""
","""event"",""trial"",""time""
""blur"",""32"",""477344""
","""event"",""trial"",""time""
""focus"",""32"",""478540""
","""event"",""trial"",""time""
""fullscreenenter"",""1"",""1566""
","""event"",""trial"",""time""
""fullscreenexit"",""32"",""476819""
","","","-1","","","19","10846","5254","&#9826;","elianto","#f73b6a7A","-1","-1","1","0","[]","0","0","3","","","","","","","",""
"pit-trial","66","667848","0.0-2.0-14.1-2.1","battery-v0.2","","""event"",""trial"",""time""
""fullscreenenter"",""1"",""1566""
""fullscreenexit"",""32"",""476819""
""blur"",""32"",""477344""
""focus"",""32"",""478540""
","""event"",""trial"",""time""
""blur"",""32"",""477344""
","""event"",""trial"",""time""
""focus"",""32"",""478540""
","""event"",""trial"",""time""
""fullscreenenter"",""1"",""1566""
","""event"",""trial"",""time""
""fullscreenexit"",""32"",""476819""
","","","-1","","","19","10846","5254","&#9826;","elianto","#f73b6a7A","-1","-1","1","0","[]","0","0","3","","","","","","","",""
"pit-trial","67","672719","0.0-2.0-14.1-3.1","battery-v0.2","","""event"",""trial"",""time""
""fullscreenenter"",""1"",""1566""
""fullscreenexit"",""32"",""476819""
""blur"",""32"",""477344""
""focus"",""32"",""478540""
","""event"",""trial"",""time""
""blur"",""32"",""477344""
","""event"",""trial"",""time""
""focus"",""32"",""478540""
","""event"",""trial"",""time""
""fullscreenenter"",""1"",""1566""
","""event"",""trial"",""time""
""fullscreenexit"",""32"",""476819""
","","","-1","","","19","10846","5254","&#9826;","elianto","#f73b6a7A","-1","-1","1","-10","[]","0","0","3","","","","","","","",""
"pit-trial","68","677590","0.0-2.0-14.1-4.1","battery-v0.2","","""event"",""trial"",""time""
""fullscreenenter"",""1"",""1566""
""fullscreenexit"",""32"",""476819""
""blur"",""32"",""477344""
""focus"",""32"",""478540""
","""event"",""trial"",""time""
""blur"",""32"",""477344""
","""event"",""trial"",""time""
""focus"",""32"",""478540""
","""event"",""trial"",""time""
""fullscreenenter"",""1"",""1566""
","""event"",""trial"",""time""
""fullscreenexit"",""32"",""476819""
","","","-1","","","19","10846","5254","&#9826;","elianto","#f73b6a7A","-1","-1","1","0","[]","0","0","3","","","","","","","",""
"pit-trial","69","682461","0.0-2.0-14.2-0.2","battery-v0.2","","""event"",""trial"",""time""
""fullscreenenter"",""1"",""1566""
""fullscreenexit"",""32"",""476819""
""blur"",""32"",""477344""
""focus"",""32"",""478540""
","""event"",""trial"",""time""
""blur"",""32"",""477344""
","""event"",""trial"",""time""
""focus"",""32"",""478540""
","""event"",""trial"",""time""
""fullscreenenter"",""1"",""1566""
","""event"",""trial"",""time""
""fullscreenexit"",""32"",""476819""
","","","-1","","","19","10846","5254","&#9826;","elianto","#f73b6a7A","-1","-1","1","0","[]","0","0","3","","","","","","","",""
"pit-trial","70","687331","0.0-2.0-14.2-1.2","battery-v0.2","","""event"",""trial"",""time""
""fullscreenenter"",""1"",""1566""
""fullscreenexit"",""32"",""476819""
""blur"",""32"",""477344""
""focus"",""32"",""478540""
","""event"",""trial"",""time""
""blur"",""32"",""477344""
","""event"",""trial"",""time""
""focus"",""32"",""478540""
","""event"",""trial"",""time""
""fullscreenenter"",""1"",""1566""
","""event"",""trial"",""time""
""fullscreenexit"",""32"",""476819""
","","","-1","","","19","10846","5254","&#9826;","elianto","#f73b6a7A","-1","-1","1","0","[]","0","0","3","","","","","","","",""
"pit-trial","71","692200","0.0-2.0-14.2-2.2","battery-v0.2","","""event"",""trial"",""time""
""fullscreenenter"",""1"",""1566""
""fullscreenexit"",""32"",""476819""
""blur"",""32"",""477344""
""focus"",""32"",""478540""
","""event"",""trial"",""time""
""blur"",""32"",""477344""
","""event"",""trial"",""time""
""focus"",""32"",""478540""
","""event"",""trial"",""time""
""fullscreenenter"",""1"",""1566""
","""event"",""trial"",""time""
""fullscreenexit"",""32"",""476819""
","","","-1","","","19","10846","5254","&#9826;","elianto","#f73b6a7A","-1","-1","1","0","[]","0","0","3","","","","","","","",""
"pit-trial","72","697070","0.0-2.0-14.2-3.2","battery-v0.2","","""event"",""trial"",""time""
""fullscreenenter"",""1"",""1566""
""fullscreenexit"",""32"",""476819""
""blur"",""32"",""477344""
""focus"",""32"",""478540""
","""event"",""trial"",""time""
""blur"",""32"",""477344""
","""event"",""trial"",""time""
""focus"",""32"",""478540""
","""event"",""trial"",""time""
""fullscreenenter"",""1"",""1566""
","""event"",""trial"",""time""
""fullscreenexit"",""32"",""476819""
","","","-1","","","19","10846","5254","&#9826;","elianto","#f73b6a7A","-1","-1","1","-10","[]","0","0","3","","","","","","","",""
"pit-trial","73","701940","0.0-2.0-14.2-4.2","battery-v0.2","","""event"",""trial"",""time""
""fullscreenenter"",""1"",""1566""
""fullscreenexit"",""32"",""476819""
""blur"",""32"",""477344""
""focus"",""32"",""478540""
","""event"",""trial"",""time""
""blur"",""32"",""477344""
","""event"",""trial"",""time""
""focus"",""32"",""478540""
","""event"",""trial"",""time""
""fullscreenenter"",""1"",""1566""
","""event"",""trial"",""time""
""fullscreenexit"",""32"",""476819""
","","","-1","","","19","10846","5254","&#9826;","elianto","#f73b6a7A","-1","-1","1","0","[]","0","0","3","","","","","","","",""
"pit-trial","74","706811","0.0-2.0-14.3-0.3","battery-v0.2","","""event"",""trial"",""time""
""fullscreenenter"",""1"",""1566""
""fullscreenexit"",""32"",""476819""
""blur"",""32"",""477344""
""focus"",""32"",""478540""
","""event"",""trial"",""time""
""blur"",""32"",""477344""
","""event"",""trial"",""time""
""focus"",""32"",""478540""
","""event"",""trial"",""time""
""fullscreenenter"",""1"",""1566""
","""event"",""trial"",""time""
""fullscreenexit"",""32"",""476819""
","","","-1","","","19","10846","5254","&#9826;","elianto","#f73b6a7A","-1","-1","1","0","[]","0","0","3","","","","","","","",""
"pit-trial","75","711681","0.0-2.0-14.3-1.3","battery-v0.2","","""event"",""trial"",""time""
""fullscreenenter"",""1"",""1566""
""fullscreenexit"",""32"",""476819""
""blur"",""32"",""477344""
""focus"",""32"",""478540""
","""event"",""trial"",""time""
""blur"",""32"",""477344""
","""event"",""trial"",""time""
""focus"",""32"",""478540""
","""event"",""trial"",""time""
""fullscreenenter"",""1"",""1566""
","""event"",""trial"",""time""
""fullscreenexit"",""32"",""476819""
","","","-1","","","19","10846","5254","&#9826;","elianto","#f73b6a7A","-1","-1","1","0","[]","0","0","3","","","","","","","",""
"pit-trial","76","716551","0.0-2.0-14.3-2.3","battery-v0.2","","""event"",""trial"",""time""
""fullscreenenter"",""1"",""1566""
""fullscreenexit"",""32"",""476819""
""blur"",""32"",""477344""
""focus"",""32"",""478540""
","""event"",""trial"",""time""
""blur"",""32"",""477344""
","""event"",""trial"",""time""
""focus"",""32"",""478540""
","""event"",""trial"",""time""
""fullscreenenter"",""1"",""1566""
","""event"",""trial"",""time""
""fullscreenexit"",""32"",""476819""
","","","-1","","","19","10846","5254","&#9826;","elianto","#f73b6a7A","-1","-1","1","0","[]","0","0","3","","","","","","","",""
"pit-trial","77","721421","0.0-2.0-14.3-3.3","battery-v0.2","","""event"",""trial"",""time""
""fullscreenenter"",""1"",""1566""
""fullscreenexit"",""32"",""476819""
""blur"",""32"",""477344""
""focus"",""32"",""478540""
","""event"",""trial"",""time""
""blur"",""32"",""477344""
","""event"",""trial"",""time""
""focus"",""32"",""478540""
","""event"",""trial"",""time""
""fullscreenenter"",""1"",""1566""
","""event"",""trial"",""time""
""fullscreenexit"",""32"",""476819""
","","","-1","","","19","10846","5254","&#9826;","elianto","#f73b6a7A","-1","-1","1","-10","[]","0","0","3","","","","","","","",""
"pit-trial","78","726290","0.0-2.0-14.3-4.3","battery-v0.2","","""event"",""trial"",""time""
""fullscreenenter"",""1"",""1566""
""fullscreenexit"",""32"",""476819""
""blur"",""32"",""477344""
""focus"",""32"",""478540""
","""event"",""trial"",""time""
""blur"",""32"",""477344""
","""event"",""trial"",""time""
""focus"",""32"",""478540""
","""event"",""trial"",""time""
""fullscreenenter"",""1"",""1566""
","""event"",""trial"",""time""
""fullscreenexit"",""32"",""476819""
","","","-1","","","19","10846","5254","&#9826;","elianto","#f73b6a7A","-1","-1","1","0","[]","0","0","3","","","","","","","",""
"call-function","79","726293","0.0-2.0-15.0","battery-v0.2","","""event"",""trial"",""time""
""fullscreenenter"",""1"",""1566""
""fullscreenexit"",""32"",""476819""
""blur"",""32"",""477344""
""focus"",""32"",""478540""
","""event"",""trial"",""time""
""blur"",""32"",""477344""
","""event"",""trial"",""time""
""focus"",""32"",""478540""
","""event"",""trial"",""time""
""fullscreenenter"",""1"",""1566""
","""event"",""trial"",""time""
""fullscreenexit"",""32"",""476819""
","","","","","","","","","","","","","","","","","","","","","","","","","","",""
"pit-instructions","80","752792","0.0-2.0-16.0","battery-v0.2","","""event"",""trial"",""time""
""fullscreenenter"",""1"",""1566""
""fullscreenexit"",""32"",""476819""
""blur"",""32"",""477344""
""focus"",""32"",""478540""
","""event"",""trial"",""time""
""blur"",""32"",""477344""
","""event"",""trial"",""time""
""focus"",""32"",""478540""
","""event"",""trial"",""time""
""fullscreenenter"",""1"",""1566""
","""event"",""trial"",""time""
""fullscreenexit"",""32"",""476819""
","","[{""page_index"":0,""viewing_time"":6676.699999988079},{""page_index"":1,""viewing_time"":8830.900000035763},{""page_index"":2,""viewing_time"":5542.699999988079},{""page_index"":3,""viewing_time"":5446.800000011921}]","26497.900000035763","","","","","","","","","","","","","","","","","","","","","","","",""
"pit-trial","81","757660","0.0-2.0-17.0-0.0","battery-v0.2","","""event"",""trial"",""time""
""fullscreenenter"",""1"",""1566""
""fullscreenexit"",""32"",""476819""
""blur"",""32"",""477344""
""focus"",""32"",""478540""
","""event"",""trial"",""time""
""blur"",""32"",""477344""
","""event"",""trial"",""time""
""focus"",""32"",""478540""
","""event"",""trial"",""time""
""fullscreenenter"",""1"",""1566""
","""event"",""trial"",""time""
""fullscreenexit"",""32"",""476819""
","","","-1","","","19","10846","5254","&#9789;","elianto","#f73b6a7A"," ","-1","0","-10","[]","0","0","4","","","","","","","",""
"pit-trial","82","762530","0.0-2.0-17.0-1.0","battery-v0.2","","""event"",""trial"",""time""
""fullscreenenter"",""1"",""1566""
""fullscreenexit"",""32"",""476819""
""blur"",""32"",""477344""
""focus"",""32"",""478540""
","""event"",""trial"",""time""
""blur"",""32"",""477344""
","""event"",""trial"",""time""
""focus"",""32"",""478540""
","""event"",""trial"",""time""
""fullscreenenter"",""1"",""1566""
","""event"",""trial"",""time""
""fullscreenexit"",""32"",""476819""
","","","-1","","","19","10846","5254","&#9789;","elianto","#f73b6a7A"," ","-1","0","-10","[]","0","0","4","","","","","","","",""
"pit-trial","83","766354","0.0-2.0-17.0-2.0","battery-v0.2","","""event"",""trial"",""time""
""fullscreenenter"",""1"",""1566""
""fullscreenexit"",""32"",""476819""
""blur"",""32"",""477344""
""focus"",""32"",""478540""
","""event"",""trial"",""time""
""blur"",""32"",""477344""
","""event"",""trial"",""time""
""focus"",""32"",""478540""
","""event"",""trial"",""time""
""fullscreenenter"",""1"",""1566""
","""event"",""trial"",""time""
""fullscreenexit"",""32"",""476819""
","","","954.6999999880791","","","19","10846","5254","&#9789;","elianto","#f73b6a7A"," "," ","1","0","[1812.199999988079]","1","0","4","","","","","","","",""
"pit-trial","84","769655","0.0-2.0-17.0-3.0","battery-v0.2","","""event"",""trial"",""time""
""fullscreenenter"",""1"",""1566""
""fullscreenexit"",""32"",""476819""
""blur"",""32"",""477344""
""focus"",""32"",""478540""
","""event"",""trial"",""time""
""blur"",""32"",""477344""
","""event"",""trial"",""time""
""focus"",""32"",""478540""
","""event"",""trial"",""time""
""fullscreenenter"",""1"",""1566""
","""event"",""trial"",""time""
""fullscreenexit"",""32"",""476819""
","","","421.4000000357628","","","19","10846","5254","&#9789;","elianto","#f73b6a7A"," "," ","1","-10","[1280]","1","0","4","","","","","","","",""
"pit-trial","85","773039","0.0-2.0-17.0-4.0","battery-v0.2","","""event"",""trial"",""time""
""fullscreenenter"",""1"",""1566""
""fullscreenexit"",""32"",""476819""
""blur"",""32"",""477344""
""focus"",""32"",""478540""
","""event"",""trial"",""time""
""blur"",""32"",""477344""
","""event"",""trial"",""time""
""focus"",""32"",""478540""
","""event"",""trial"",""time""
""fullscreenenter"",""1"",""1566""
","""event"",""trial"",""time""
""fullscreenexit"",""32"",""476819""
","","","515.1000000238419","","","19","10846","5254","&#9789;","elianto","#f73b6a7A"," "," ","1","0","[1373.1000000238419]","1","0","4","","","","","","","",""
"pit-trial","86","776874","0.0-2.0-17.1-0.1","battery-v0.2","","""event"",""trial"",""time""
""fullscreenenter"",""1"",""1566""
""fullscreenexit"",""32"",""476819""
""blur"",""32"",""477344""
""focus"",""32"",""478540""
","""event"",""trial"",""time""
""blur"",""32"",""477344""
","""event"",""trial"",""time""
""focus"",""32"",""478540""
","""event"",""trial"",""time""
""fullscreenenter"",""1"",""1566""
","""event"",""trial"",""time""
""fullscreenexit"",""32"",""476819""
","","","964.6000000238419","","","19","10846","5254","&#9789;","elianto","#f73b6a7A"," "," ","1","0","[1823]","1","0","4","","","","","","","",""
"pit-trial","87","780192","0.0-2.0-17.1-1.1","battery-v0.2","","""event"",""trial"",""time""
""fullscreenenter"",""1"",""1566""
""fullscreenexit"",""32"",""476819""
""blur"",""32"",""477344""
""focus"",""32"",""478540""
","""event"",""trial"",""time""
""blur"",""32"",""477344""
","""event"",""trial"",""time""
""focus"",""32"",""478540""
","""event"",""trial"",""time""
""fullscreenenter"",""1"",""1566""
","""event"",""trial"",""time""
""fullscreenexit"",""32"",""476819""
","","","448.7999999523163","","","19","10846","5254","&#9789;","elianto","#f73b6a7A"," "," ","1","0","[1307.6000000238419]","1","0","4","","","","","","","",""
"pit-trial","88","783510","0.0-2.0-17.1-2.1","battery-v0.2","","""event"",""trial"",""time""
""fullscreenenter"",""1"",""1566""
""fullscreenexit"",""32"",""476819""
""blur"",""32"",""477344""
""focus"",""32"",""478540""
","""event"",""trial"",""time""
""blur"",""32"",""477344""
","""event"",""trial"",""time""
""focus"",""32"",""478540""
","""event"",""trial"",""time""
""fullscreenenter"",""1"",""1566""
","""event"",""trial"",""time""
""fullscreenexit"",""32"",""476819""
","","","446.69999998807907","","","19","10846","5254","&#9789;","elianto","#f73b6a7A"," "," ","1","0","[1305.3999999761581]","1","0","4","","","","","","","",""
"pit-trial","89","786783","0.0-2.0-17.1-3.1","battery-v0.2","","""event"",""trial"",""time""
""fullscreenenter"",""1"",""1566""
""fullscreenexit"",""32"",""476819""
""blur"",""32"",""477344""
""focus"",""32"",""478540""
","""event"",""trial"",""time""
""blur"",""32"",""477344""
","""event"",""trial"",""time""
""focus"",""32"",""478540""
","""event"",""trial"",""time""
""fullscreenenter"",""1"",""1566""
","""event"",""trial"",""time""
""fullscreenexit"",""32"",""476819""
","","","403.10000002384186","","","19","10846","5254","&#9789;","elianto","#f73b6a7A"," "," ","1","-10","[1261]","1","0","4","","","","","","","",""
"pit-trial","90","789993","0.0-2.0-17.1-4.1","battery-v0.2","","""event"",""trial"",""time""
""fullscreenenter"",""1"",""1566""
""fullscreenexit"",""32"",""476819""
""blur"",""32"",""477344""
""focus"",""32"",""478540""
","""event"",""trial"",""time""
""blur"",""32"",""477344""
","""event"",""trial"",""time""
""focus"",""32"",""478540""
","""event"",""trial"",""time""
""fullscreenenter"",""1"",""1566""
","""event"",""trial"",""time""
""fullscreenexit"",""32"",""476819""
","","","338.19999998807907","","","19","10846","5254","&#9789;","elianto","#f73b6a7A"," "," ","1","0","[1198.199999988079]","1","0","4","","","","","","","",""
"pit-trial","91","793184","0.0-2.0-17.2-0.2","battery-v0.2","","""event"",""trial"",""time""
""fullscreenenter"",""1"",""1566""
""fullscreenexit"",""32"",""476819""
""blur"",""32"",""477344""
""focus"",""32"",""478540""
","""event"",""trial"",""time""
""blur"",""32"",""477344""
","""event"",""trial"",""time""
""focus"",""32"",""478540""
","""event"",""trial"",""time""
""fullscreenenter"",""1"",""1566""
","""event"",""trial"",""time""
""fullscreenexit"",""32"",""476819""
","","","320.19999998807907","","","19","10846","5254","&#9789;","elianto","#f73b6a7A"," "," ","1","0","[1178.8999999761581]","1","0","4","","","","","","","",""
"pit-trial","92","796451","0.0-2.0-17.2-1.2","battery-v0.2","","""event"",""trial"",""time""
""fullscreenenter"",""1"",""1566""
""fullscreenexit"",""32"",""476819""
""blur"",""32"",""477344""
""focus"",""32"",""478540""
","""event"",""trial"",""time""
""blur"",""32"",""477344""
","""event"",""trial"",""time""
""focus"",""32"",""478540""
","""event"",""trial"",""time""
""fullscreenenter"",""1"",""1566""
","""event"",""trial"",""time""
""fullscreenexit"",""32"",""476819""
","","","401.39999997615814","","","19","10846","5254","&#9789;","elianto","#f73b6a7A"," "," ","1","0","[1254.7000000476837]","1","0","4","","","","","","","",""
"pit-trial","93","799745","0.0-2.0-17.2-2.2","battery-v0.2","","""event"",""trial"",""time""
""fullscreenenter"",""1"",""1566""
""fullscreenexit"",""32"",""476819""
""blur"",""32"",""477344""
""focus"",""32"",""478540""
","""event"",""trial"",""time""
""blur"",""32"",""477344""
","""event"",""trial"",""time""
""focus"",""32"",""478540""
","""event"",""trial"",""time""
""fullscreenenter"",""1"",""1566""
","""event"",""trial"",""time""
""fullscreenexit"",""32"",""476819""
","","","424.30000001192093","","","19","10846","5254","&#9789;","elianto","#f73b6a7A"," "," ","1","0","[1282.6000000238419]","1","0","4","","","","","","","",""
"pit-trial","94","803040","0.0-2.0-17.2-3.2","battery-v0.2","","""event"",""trial"",""time""
""fullscreenenter"",""1"",""1566""
""fullscreenexit"",""32"",""476819""
""blur"",""32"",""477344""
""focus"",""32"",""478540""
","""event"",""trial"",""time""
""blur"",""32"",""477344""
","""event"",""trial"",""time""
""focus"",""32"",""478540""
","""event"",""trial"",""time""
""fullscreenenter"",""1"",""1566""
","""event"",""trial"",""time""
""fullscreenexit"",""32"",""476819""
","","","424.5","","","19","10846","5254","&#9789;","elianto","#f73b6a7A"," "," ","1","-10","[1283.6000000238419]","1","0","4","","","","","","","",""
"pit-trial","95","806301","0.0-2.0-17.2-4.2","battery-v0.2","","""event"",""trial"",""time""
""fullscreenenter"",""1"",""1566""
""fullscreenexit"",""32"",""476819""
""blur"",""32"",""477344""
""focus"",""32"",""478540""
","""event"",""trial"",""time""
""blur"",""32"",""477344""
","""event"",""trial"",""time""
""focus"",""32"",""478540""
","""event"",""trial"",""time""
""fullscreenenter"",""1"",""1566""
","""event"",""trial"",""time""
""fullscreenexit"",""32"",""476819""
","","","390.80000001192093","","","19","10846","5254","&#9789;","elianto","#f73b6a7A"," "," ","1","0","[1248.800000011921]","1","0","4","","","","","","","",""
"pit-trial","96","811172","0.0-2.0-17.3-0.3","battery-v0.2","","""event"",""trial"",""time""
""fullscreenenter"",""1"",""1566""
""fullscreenexit"",""32"",""476819""
""blur"",""32"",""477344""
""focus"",""32"",""478540""
","""event"",""trial"",""time""
""blur"",""32"",""477344""
","""event"",""trial"",""time""
""focus"",""32"",""478540""
","""event"",""trial"",""time""
""fullscreenenter"",""1"",""1566""
","""event"",""trial"",""time""
""fullscreenexit"",""32"",""476819""
","","","-1","","","19","10846","5254","&#9789;","elianto","#f73b6a7A"," ","-1","0","-10","[]","0","0","4","","","","","","","",""
"pit-trial","97","816041","0.0-2.0-17.3-1.3","battery-v0.2","","""event"",""trial"",""time""
""fullscreenenter"",""1"",""1566""
""fullscreenexit"",""32"",""476819""
""blur"",""32"",""477344""
""focus"",""32"",""478540""
","""event"",""trial"",""time""
""blur"",""32"",""477344""
","""event"",""trial"",""time""
""focus"",""32"",""478540""
","""event"",""trial"",""time""
""fullscreenenter"",""1"",""1566""
","""event"",""trial"",""time""
""fullscreenexit"",""32"",""476819""
","","","-1","","","19","10846","5254","&#9789;","elianto","#f73b6a7A"," ","-1","0","-10","[]","0","0","4","","","","","","","",""
"pit-trial","98","819715","0.0-2.0-17.3-2.3","battery-v0.2","","""event"",""trial"",""time""
""fullscreenenter"",""1"",""1566""
""fullscreenexit"",""32"",""476819""
""blur"",""32"",""477344""
""focus"",""32"",""478540""
","""event"",""trial"",""time""
""blur"",""32"",""477344""
","""event"",""trial"",""time""
""focus"",""32"",""478540""
","""event"",""trial"",""time""
""fullscreenenter"",""1"",""1566""
","""event"",""trial"",""time""
""fullscreenexit"",""32"",""476819""
","","","803.8000000119209","","","19","10846","5254","&#9789;","elianto","#f73b6a7A"," "," ","1","0","[1661.8999999761581]","1","0","4","","","","","","","",""
"pit-trial","99","824585","0.0-2.0-17.3-3.3","battery-v0.2","","""event"",""trial"",""time""
""fullscreenenter"",""1"",""1566""
""fullscreenexit"",""32"",""476819""
""blur"",""32"",""477344""
""focus"",""32"",""478540""
","""event"",""trial"",""time""
""blur"",""32"",""477344""
","""event"",""trial"",""time""
""focus"",""32"",""478540""
","""event"",""trial"",""time""
""fullscreenenter"",""1"",""1566""
","""event"",""trial"",""time""
""fullscreenexit"",""32"",""476819""
","","","-1","","","19","10846","5254","&#9789;","elianto","#f73b6a7A"," ","-1","0","0","[3055]","1","0","4","","","","","","","",""
"pit-trial","100","829456","0.0-2.0-17.3-4.3","battery-v0.2","","""event"",""trial"",""time""
""fullscreenenter"",""1"",""1566""
""fullscreenexit"",""32"",""476819""
""blur"",""32"",""477344""
""focus"",""32"",""478540""
","""event"",""trial"",""time""
""blur"",""32"",""477344""
","""event"",""trial"",""time""
""focus"",""32"",""478540""
","""event"",""trial"",""time""
""fullscreenenter"",""1"",""1566""
","""event"",""trial"",""time""
""fullscreenexit"",""32"",""476819""
","","","-1","","","19","10846","5254","&#9789;","elianto","#f73b6a7A"," ","-1","0","-10","[]","0","0","4","","","","","","","",""
"call-function","101","829459","0.0-2.0-18.0","battery-v0.2","","""event"",""trial"",""time""
""fullscreenenter"",""1"",""1566""
""fullscreenexit"",""32"",""476819""
""blur"",""32"",""477344""
""focus"",""32"",""478540""
","""event"",""trial"",""time""
""blur"",""32"",""477344""
","""event"",""trial"",""time""
""focus"",""32"",""478540""
","""event"",""trial"",""time""
""fullscreenenter"",""1"",""1566""
","""event"",""trial"",""time""
""fullscreenexit"",""32"",""476819""
","","","","","","","","","","","","","","","","","","","","","","","","","","",""
"pit-instructions","102","910499","0.0-2.0-19.0","battery-v0.2","","""event"",""trial"",""time""
""fullscreenenter"",""1"",""1566""
""fullscreenexit"",""32"",""476819""
""blur"",""32"",""477344""
""focus"",""32"",""478540""
","""event"",""trial"",""time""
""blur"",""32"",""477344""
","""event"",""trial"",""time""
""focus"",""32"",""478540""
","""event"",""trial"",""time""
""fullscreenenter"",""1"",""1566""
","""event"",""trial"",""time""
""fullscreenexit"",""32"",""476819""
","","[{""page_index"":0,""viewing_time"":6793.300000011921},{""page_index"":1,""viewing_time"":6881.5},{""page_index"":2,""viewing_time"":13400.5},{""page_index"":3,""viewing_time"":8540.600000023842},{""page_index"":4,""viewing_time"":8212.5},{""page_index"":5,""viewing_time"":5509},{""page_index"":4,""viewing_time"":3652.099999964237},{""page_index"":5,""viewing_time"":8389.800000011921},{""page_index"":6,""viewing_time"":5883.600000023842},{""page_index"":7,""viewing_time"":9109.399999976158},{""page_index"":8,""viewing_time"":4666.300000011921}]","81039","","","","","","","","","","","","","","","","","","","","","","","",""
"pit-comprehension","103","915220","0.0-2.0-20.0-0.0","battery-v0.2","","""event"",""trial"",""time""
""fullscreenenter"",""1"",""1566""
""fullscreenexit"",""32"",""476819""
""blur"",""32"",""477344""
""focus"",""32"",""478540""
","""event"",""trial"",""time""
""blur"",""32"",""477344""
","""event"",""trial"",""time""
""focus"",""32"",""478540""
","""event"",""trial"",""time""
""fullscreenenter"",""1"",""1566""
","""event"",""trial"",""time""
""fullscreenexit"",""32"",""476819""
","","","4718.199999988079","[""SPACE""]","0","19","10846","5254","","","","","","","","","","","","","","","","","","",""
"pit-instructions","104","918537","0.0-2.0-20.0-1.0","battery-v0.2","","""event"",""trial"",""time""
""fullscreenenter"",""1"",""1566""
""fullscreenexit"",""32"",""476819""
""blur"",""32"",""477344""
""focus"",""32"",""478540""
","""event"",""trial"",""time""
""blur"",""32"",""477344""
","""event"",""trial"",""time""
""focus"",""32"",""478540""
","""event"",""trial"",""time""
""fullscreenenter"",""1"",""1566""
","""event"",""trial"",""time""
""fullscreenexit"",""32"",""476819""
","","[{""page_index"":0,""viewing_time"":3294.699999988079}]","3295.300000011921","","","","","","","","","","","","","","","","","","","","","","","",""
"pit-comprehension","105","923216","0.0-2.0-21.0-0.0","battery-v0.2","","""event"",""trial"",""time""
""fullscreenenter"",""1"",""1566""
""fullscreenexit"",""32"",""476819""
""blur"",""32"",""477344""
""focus"",""32"",""478540""
","""event"",""trial"",""time""
""blur"",""32"",""477344""
","""event"",""trial"",""time""
""focus"",""32"",""478540""
","""event"",""trial"",""time""
""fullscreenenter"",""1"",""1566""
","""event"",""trial"",""time""
""fullscreenexit"",""32"",""476819""
","","","4677","[""10""]","0","19","10846","5254","","","","","","","","","","","","","","","","","","",""
"pit-instructions","106","926234","0.0-2.0-21.0-1.0","battery-v0.2","","""event"",""trial"",""time""
""fullscreenenter"",""1"",""1566""
""fullscreenexit"",""32"",""476819""
""blur"",""32"",""477344""
""focus"",""32"",""478540""
","""event"",""trial"",""time""
""blur"",""32"",""477344""
","""event"",""trial"",""time""
""focus"",""32"",""478540""
","""event"",""trial"",""time""
""fullscreenenter"",""1"",""1566""
","""event"",""trial"",""time""
""fullscreenexit"",""32"",""476819""
","","[{""page_index"":0,""viewing_time"":2996.199999988079}]","2996.399999976158","","","","","","","","","","","","","","","","","","","","","","","",""
"pit-comprehension","107","935200","0.0-2.0-22.0-0.0","battery-v0.2","","""event"",""trial"",""time""
""fullscreenenter"",""1"",""1566""
""fullscreenexit"",""32"",""476819""
""blur"",""32"",""477344""
""focus"",""32"",""478540""
","""event"",""trial"",""time""
""blur"",""32"",""477344""
","""event"",""trial"",""time""
""focus"",""32"",""478540""
","""event"",""trial"",""time""
""fullscreenenter"",""1"",""1566""
","""event"",""trial"",""time""
""fullscreenexit"",""32"",""476819""
","","","8963.399999976158","[""0""]","0","19","10846","5254","","","","","","","","","","","","","","","","","","",""
"pit-instructions","108","937355","0.0-2.0-22.0-1.0","battery-v0.2","","""event"",""trial"",""time""
""fullscreenenter"",""1"",""1566""
""fullscreenexit"",""32"",""476819""
""blur"",""32"",""477344""
""focus"",""32"",""478540""
","""event"",""trial"",""time""
""blur"",""32"",""477344""
","""event"",""trial"",""time""
""focus"",""32"",""478540""
","""event"",""trial"",""time""
""fullscreenenter"",""1"",""1566""
","""event"",""trial"",""time""
""fullscreenexit"",""32"",""476819""
","","[{""page_index"":0,""viewing_time"":2134.100000023842}]","2134.5","","","","","","","","","","","","","","","","","","","","","","","",""
"pit-comprehension","109","945824","0.0-2.0-23.0-0.0","battery-v0.2","","""event"",""trial"",""time""
""fullscreenenter"",""1"",""1566""
""fullscreenexit"",""32"",""476819""
""blur"",""32"",""477344""
""focus"",""32"",""478540""
","""event"",""trial"",""time""
""blur"",""32"",""477344""
","""event"",""trial"",""time""
""focus"",""32"",""478540""
","""event"",""trial"",""time""
""fullscreenenter"",""1"",""1566""
","""event"",""trial"",""time""
""fullscreenexit"",""32"",""476819""
","","","8466.200000047684","[""False""]","1","19","10846","5254","","","","","","","","","","","","","","","","","","",""
"pit-instructions","110","956024","0.0-2.0-23.0-1.0","battery-v0.2","","""event"",""trial"",""time""
""fullscreenenter"",""1"",""1566""
""fullscreenexit"",""32"",""476819""
""blur"",""32"",""477344""
""focus"",""32"",""478540""
","""event"",""trial"",""time""
""blur"",""32"",""477344""
","""event"",""trial"",""time""
""focus"",""32"",""478540""
","""event"",""trial"",""time""
""fullscreenenter"",""1"",""1566""
","""event"",""trial"",""time""
""fullscreenexit"",""32"",""476819""
","","[{""page_index"":0,""viewing_time"":10177.5}]","10178","","","","","","","","","","","","","","","","","","","","","","","",""
"pit-instructions","111","959337","0.0-2.0-23.0-2.0-0.0","battery-v0.2","","""event"",""trial"",""time""
""fullscreenenter"",""1"",""1566""
""fullscreenexit"",""32"",""476819""
""blur"",""32"",""477344""
""focus"",""32"",""478540""
","""event"",""trial"",""time""
""blur"",""32"",""477344""
","""event"",""trial"",""time""
""focus"",""32"",""478540""
","""event"",""trial"",""time""
""fullscreenenter"",""1"",""1566""
","""event"",""trial"",""time""
""fullscreenexit"",""32"",""476819""
","","[{""page_index"":0,""viewing_time"":3310.300000011921}]","3310.900000035763","","","","","","","","","","","","","","","","","","","","","","","",""
"pit-comprehension","112","968246","0.0-2.0-23.1-0.1","battery-v0.2","","""event"",""trial"",""time""
""fullscreenenter"",""1"",""1566""
""fullscreenexit"",""32"",""476819""
""blur"",""32"",""477344""
""focus"",""32"",""478540""
","""event"",""trial"",""time""
""blur"",""32"",""477344""
","""event"",""trial"",""time""
""focus"",""32"",""478540""
","""event"",""trial"",""time""
""fullscreenenter"",""1"",""1566""
","""event"",""trial"",""time""
""fullscreenexit"",""32"",""476819""
","","","8906.800000011921","[""True""]","0","19","10846","5254","","","","","","","","","","","","","","","","","","",""
"pit-instructions","113","972184","0.0-2.0-23.1-1.1","battery-v0.2","","""event"",""trial"",""time""
""fullscreenenter"",""1"",""1566""
""fullscreenexit"",""32"",""476819""
""blur"",""32"",""477344""
""focus"",""32"",""478540""
","""event"",""trial"",""time""
""blur"",""32"",""477344""
","""event"",""trial"",""time""
""focus"",""32"",""478540""
","""event"",""trial"",""time""
""fullscreenenter"",""1"",""1566""
","""event"",""trial"",""time""
""fullscreenexit"",""32"",""476819""
","","[{""page_index"":0,""viewing_time"":3912.100000023842}]","3912.699999988079","","","","","","","","","","","","","","","","","","","","","","","",""
"pit-comprehension","114","979771","0.0-2.0-24.0-0.0","battery-v0.2","","""event"",""trial"",""time""
""fullscreenenter"",""1"",""1566""
""fullscreenexit"",""32"",""476819""
""blur"",""32"",""477344""
""focus"",""32"",""478540""
","""event"",""trial"",""time""
""blur"",""32"",""477344""
","""event"",""trial"",""time""
""focus"",""32"",""478540""
","""event"",""trial"",""time""
""fullscreenenter"",""1"",""1566""
","""event"",""trial"",""time""
""fullscreenexit"",""32"",""476819""
","","","7584.399999976158","[""True""]","0","19","10846","5254","","","","","","","","","","","","","","","","","","",""
"pit-instructions","115","981702","0.0-2.0-24.0-1.0","battery-v0.2","","""event"",""trial"",""time""
""fullscreenenter"",""1"",""1566""
""fullscreenexit"",""32"",""476819""
""blur"",""32"",""477344""
""focus"",""32"",""478540""
","""event"",""trial"",""time""
""blur"",""32"",""477344""
","""event"",""trial"",""time""
""focus"",""32"",""478540""
","""event"",""trial"",""time""
""fullscreenenter"",""1"",""1566""
","""event"",""trial"",""time""
""fullscreenexit"",""32"",""476819""
","","[{""page_index"":0,""viewing_time"":1906.1000000238419}]","1906.5","","","","","","","","","","","","","","","","","","","","","","","",""
"pit-comprehension","116","988276","0.0-2.0-25.0-0.0","battery-v0.2","","""event"",""trial"",""time""
""fullscreenenter"",""1"",""1566""
""fullscreenexit"",""32"",""476819""
""blur"",""32"",""477344""
""focus"",""32"",""478540""
","""event"",""trial"",""time""
""blur"",""32"",""477344""
","""event"",""trial"",""time""
""focus"",""32"",""478540""
","""event"",""trial"",""time""
""fullscreenenter"",""1"",""1566""
","""event"",""trial"",""time""
""fullscreenexit"",""32"",""476819""
","","","6570.600000023842","[""True""]","0","19","10846","5254","","","","","","","","","","","","","","","","","","",""
"pit-instructions","117","992062","0.0-2.0-25.0-1.0","battery-v0.2","","""event"",""trial"",""time""
""fullscreenenter"",""1"",""1566""
""fullscreenexit"",""32"",""476819""
""blur"",""32"",""477344""
""focus"",""32"",""478540""
","""event"",""trial"",""time""
""blur"",""32"",""477344""
","""event"",""trial"",""time""
""focus"",""32"",""478540""
","""event"",""trial"",""time""
""fullscreenenter"",""1"",""1566""
","""event"",""trial"",""time""
""fullscreenexit"",""32"",""476819""
","","[{""page_index"":0,""viewing_time"":3761.600000023842}]","3762.100000023842","","","","","","","","","","","","","","","","","","","","","","","",""
"pit-comprehension","118","998887","0.0-2.0-26.0-0.0","battery-v0.2","","""event"",""trial"",""time""
""fullscreenenter"",""1"",""1566""
""fullscreenexit"",""32"",""476819""
""blur"",""32"",""477344""
""focus"",""32"",""478540""
","""event"",""trial"",""time""
""blur"",""32"",""477344""
","""event"",""trial"",""time""
""focus"",""32"",""478540""
","""event"",""trial"",""time""
""fullscreenenter"",""1"",""1566""
","""event"",""trial"",""time""
""fullscreenexit"",""32"",""476819""
","","","6821.399999976158","[""False""]","0","19","10846","5254","","","","","","","","","","","","","","","","","","",""
"pit-instructions","119","1000861","0.0-2.0-26.0-1.0","battery-v0.2","","""event"",""trial"",""time""
""fullscreenenter"",""1"",""1566""
""fullscreenexit"",""32"",""476819""
""blur"",""32"",""477344""
""focus"",""32"",""478540""
","""event"",""trial"",""time""
""blur"",""32"",""477344""
","""event"",""trial"",""time""
""focus"",""32"",""478540""
","""event"",""trial"",""time""
""fullscreenenter"",""1"",""1566""
","""event"",""trial"",""time""
""fullscreenexit"",""32"",""476819""
","","[{""page_index"":0,""viewing_time"":1950.4000000357628}]","1950.800000011921","","","","","","","","","","","","","","","","","","","","","","","",""
"pit-instructions","120","1019960","0.0-3.0","battery-v0.2","","""event"",""trial"",""time""
""fullscreenenter"",""1"",""1566""
""fullscreenexit"",""32"",""476819""
""blur"",""32"",""477344""
""focus"",""32"",""478540""
","""event"",""trial"",""time""
""blur"",""32"",""477344""
","""event"",""trial"",""time""
""focus"",""32"",""478540""
","""event"",""trial"",""time""
""fullscreenenter"",""1"",""1566""
","""event"",""trial"",""time""
""fullscreenexit"",""32"",""476819""
","","[{""page_index"":0,""viewing_time"":5144.5},{""page_index"":1,""viewing_time"":5276.199999988079},{""page_index"":2,""viewing_time"":8676.5}]","19097.69999998808","","","","","","","","","","","","","","","","","","","","","","","",""
"pit-trial","121","1023345","0.0-4.0","battery-v0.2","","""event"",""trial"",""time""
""fullscreenenter"",""1"",""1566""
""fullscreenexit"",""32"",""476819""
""blur"",""32"",""477344""
""focus"",""32"",""478540""
","""event"",""trial"",""time""
""blur"",""32"",""477344""
","""event"",""trial"",""time""
""focus"",""32"",""478540""
","""event"",""trial"",""time""
""fullscreenenter"",""1"",""1566""
","""event"",""trial"",""time""
""fullscreenexit"",""32"",""476819""
","","","512.6999999880791","","","19","10846","5254","&#9733;","elianto","#3366ff99","-1"," ","0","0","[1371.1000000238419]","1","1","","","10846","1","2","2","win","no-go","0"
"pit-trial","122","1027267","0.0-5.0","battery-v0.2","","""event"",""trial"",""time""
""fullscreenenter"",""1"",""1566""
""fullscreenexit"",""32"",""476819""
""blur"",""32"",""477344""
""focus"",""32"",""478540""
","""event"",""trial"",""time""
""blur"",""32"",""477344""
","""event"",""trial"",""time""
""focus"",""32"",""478540""
","""event"",""trial"",""time""
""fullscreenenter"",""1"",""1566""
","""event"",""trial"",""time""
""fullscreenexit"",""32"",""476819""
","","","1051.9000000357628","","","19","10846","5254","&#9728;","elianto","#f73b6a7A","-1"," ","0","-10","[1909.800000011921]","1","1","","","10846","2","0","4","lose","no-go","0"
"pit-trial","123","1030716","0.0-6.0","battery-v0.2","","""event"",""trial"",""time""
""fullscreenenter"",""1"",""1566""
""fullscreenexit"",""32"",""476819""
""blur"",""32"",""477344""
""focus"",""32"",""478540""
","""event"",""trial"",""time""
""blur"",""32"",""477344""
","""event"",""trial"",""time""
""focus"",""32"",""478540""
","""event"",""trial"",""time""
""fullscreenenter"",""1"",""1566""
","""event"",""trial"",""time""
""fullscreenexit"",""32"",""476819""
","","","579.2999999523163","","","19","10846","5254","&#9730;","elianto","#3366ff99"," "," ","1","+10","[1437.4000000357628]","1","1","","","10846","3","1","1","win","go","0"
"pit-trial","124","1035587","0.0-7.0","battery-v0.2","","""event"",""trial"",""time""
""fullscreenenter"",""1"",""1566""
""fullscreenexit"",""32"",""476819""
""blur"",""32"",""477344""
""focus"",""32"",""478540""
","""event"",""trial"",""time""
""blur"",""32"",""477344""
","""event"",""trial"",""time""
""focus"",""32"",""478540""
","""event"",""trial"",""time""
""fullscreenenter"",""1"",""1566""
","""event"",""trial"",""time""
""fullscreenexit"",""32"",""476819""
","","","-1","","","19","10846","5254","&#9752;","elianto","#f73b6a7A"," ","-1","0","-10","[]","0","1","","","10846","4","3","3","lose","go","0"
"pit-trial","125","1040457","0.0-8.0","battery-v0.2","","""event"",""trial"",""time""
""fullscreenenter"",""1"",""1566""
""fullscreenexit"",""32"",""476819""
""blur"",""32"",""477344""
""focus"",""32"",""478540""
","""event"",""trial"",""time""
""blur"",""32"",""477344""
","""event"",""trial"",""time""
""focus"",""32"",""478540""
","""event"",""trial"",""time""
""fullscreenenter"",""1"",""1566""
","""event"",""trial"",""time""
""fullscreenexit"",""32"",""476819""
","","","-1","","","19","10846","5254","&#9752;","elianto","#f73b6a7A"," ","-1","0","-10","[]","0","1","","","10846","5","3","3","lose","go","0"
"pit-trial","126","1044183","0.0-9.0","battery-v0.2","","""event"",""trial"",""time""
""fullscreenenter"",""1"",""1566""
""fullscreenexit"",""32"",""476819""
""blur"",""32"",""477344""
""focus"",""32"",""478540""
","""event"",""trial"",""time""
""blur"",""32"",""477344""
","""event"",""trial"",""time""
""focus"",""32"",""478540""
","""event"",""trial"",""time""
""fullscreenenter"",""1"",""1566""
","""event"",""trial"",""time""
""fullscreenexit"",""32"",""476819""
","","","855.8999999761581","","","19","10846","5254","&#9728;","elianto","#f73b6a7A","-1"," ","0","0","[1714.8999999761581]","1","1","","","10846","6","0","4","lose","no-go","1"
"pit-trial","127","1048033","0.0-10.0","battery-v0.2","","""event"",""trial"",""time""
""fullscreenenter"",""1"",""1566""
""fullscreenexit"",""32"",""476819""
""blur"",""32"",""477344""
""focus"",""32"",""478540""
","""event"",""trial"",""time""
""blur"",""32"",""477344""
","""event"",""trial"",""time""
""focus"",""32"",""478540""
","""event"",""trial"",""time""
""fullscreenenter"",""1"",""1566""
","""event"",""trial"",""time""
""fullscreenexit"",""32"",""476819""
","","","979.6999999880791","","","19","10846","5254","&#9730;","elianto","#3366ff99"," "," ","1","0","[1838.199999988079]","1","1","","","10846","7","1","1","win","go","1"
"pit-trial","128","1051401","0.0-11.0","battery-v0.2","","""event"",""trial"",""time""
""fullscreenenter"",""1"",""1566""
""fullscreenexit"",""32"",""476819""
""blur"",""32"",""477344""
""focus"",""32"",""478540""
","""event"",""trial"",""time""
""blur"",""32"",""477344""
","""event"",""trial"",""time""
""focus"",""32"",""478540""
","""event"",""trial"",""time""
""fullscreenenter"",""1"",""1566""
","""event"",""trial"",""time""
""fullscreenexit"",""32"",""476819""
","","","496","","","19","10846","5254","&#9733;","elianto","#3366ff99","-1"," ","0","0","[1354.8999999761581]","1","1","","","10846","8","2","2","win","no-go","0"
"pit-trial","129","1055029","0.0-12.0","battery-v0.2","","""event"",""trial"",""time""
""fullscreenenter"",""1"",""1566""
""fullscreenexit"",""32"",""476819""
""blur"",""32"",""477344""
""focus"",""32"",""478540""
","""event"",""trial"",""time""
""blur"",""32"",""477344""
","""event"",""trial"",""time""
""focus"",""32"",""478540""
","""event"",""trial"",""time""
""fullscreenenter"",""1"",""1566""
","""event"",""trial"",""time""
""fullscreenexit"",""32"",""476819""
","","","757","","","19","10846","5254","&#9728;","elianto","#f73b6a7A","-1"," ","0","-10","[1615.9000000357628]","1","1","","","10846","9","0","4","lose","no-go","0"
"pit-trial","130","1058369","0.0-13.0","battery-v0.2","","""event"",""trial"",""time""
""fullscreenenter"",""1"",""1566""
""fullscreenexit"",""32"",""476819""
""blur"",""32"",""477344""
""focus"",""32"",""478540""
","""event"",""trial"",""time""
""blur"",""32"",""477344""
","""event"",""trial"",""time""
""focus"",""32"",""478540""
","""event"",""trial"",""time""
""fullscreenenter"",""1"",""1566""
","""event"",""trial"",""time""
""fullscreenexit"",""32"",""476819""
","","","469.30000001192093","","","19","10846","5254","&#9730;","elianto","#3366ff99"," "," ","1","+10","[1327.3999999761581]","1","1","","","10846","10","1","1","win","go","0"
"pit-trial","131","1062974","0.0-14.0","battery-v0.2","","""event"",""trial"",""time""
""fullscreenenter"",""1"",""1566""
""fullscreenexit"",""32"",""476819""
""blur"",""32"",""477344""
""focus"",""32"",""478540""
","""event"",""trial"",""time""
""blur"",""32"",""477344""
","""event"",""trial"",""time""
""focus"",""32"",""478540""
","""event"",""trial"",""time""
""fullscreenenter"",""1"",""1566""
","""event"",""trial"",""time""
""fullscreenexit"",""32"",""476819""
","","","1733.1000000238419","","","19","10846","5254","&#9752;","elianto","#f73b6a7A"," "," ","1","0","[2592.400000035763]","1","1","","","10846","11","3","3","lose","go","0"
"pit-trial","132","1066657","0.0-15.0","battery-v0.2","","""event"",""trial"",""time""
""fullscreenenter"",""1"",""1566""
""fullscreenexit"",""32"",""476819""
""blur"",""32"",""477344""
""focus"",""32"",""478540""
","""event"",""trial"",""time""
""blur"",""32"",""477344""
","""event"",""trial"",""time""
""focus"",""32"",""478540""
","""event"",""trial"",""time""
""fullscreenenter"",""1"",""1566""
","""event"",""trial"",""time""
""fullscreenexit"",""32"",""476819""
","","","811.6999999880791","","","19","10846","5254","&#9733;","elianto","#3366ff99","-1"," ","0","0","[1670.6000000238419]","1","1","","","10846","12","2","2","win","no-go","0"
"pit-trial","133","1070463","0.0-16.0","battery-v0.2","","""event"",""trial"",""time""
""fullscreenenter"",""1"",""1566""
""fullscreenexit"",""32"",""476819""
""blur"",""32"",""477344""
""focus"",""32"",""478540""
","""event"",""trial"",""time""
""blur"",""32"",""477344""
","""event"",""trial"",""time""
""focus"",""32"",""478540""
","""event"",""trial"",""time""
""fullscreenenter"",""1"",""1566""
","""event"",""trial"",""time""
""fullscreenexit"",""32"",""476819""
","","","935.5999999642372","","","19","10846","5254","&#9728;","elianto","#f73b6a7A","-1"," ","0","-10","[1794.199999988079]","1","1","","","10846","13","0","4","lose","no-go","0"
"pit-trial","134","1074111","0.0-17.0","battery-v0.2","","""event"",""trial"",""time""
""fullscreenenter"",""1"",""1566""
""fullscreenexit"",""32"",""476819""
""blur"",""32"",""477344""
""focus"",""32"",""478540""
","""event"",""trial"",""time""
""blur"",""32"",""477344""
","""event"",""trial"",""time""
""focus"",""32"",""478540""
","""event"",""trial"",""time""
""fullscreenenter"",""1"",""1566""
","""event"",""trial"",""time""
""fullscreenexit"",""32"",""476819""
","","","776.6000000238419","","","19","10846","5254","&#9730;","elianto","#3366ff99"," "," ","1","+10","[1636.6000000238419]","1","1","","","10846","14","1","1","win","go","0"
"pit-trial","135","1077509","0.0-18.0","battery-v0.2","","""event"",""trial"",""time""
""fullscreenenter"",""1"",""1566""
""fullscreenexit"",""32"",""476819""
""blur"",""32"",""477344""
""focus"",""32"",""478540""
","""event"",""trial"",""time""
""blur"",""32"",""477344""
","""event"",""trial"",""time""
""focus"",""32"",""478540""
","""event"",""trial"",""time""
""fullscreenenter"",""1"",""1566""
","""event"",""trial"",""time""
""fullscreenexit"",""32"",""476819""
","","","528.1999999880791","","","19","10846","5254","&#9733;","elianto","#3366ff99","-1"," ","0","0","[1386.0999999642372]","1","1","","","10846","15","2","2","win","no-go","0"
"pit-trial","136","1081291","0.0-19.0","battery-v0.2","","""event"",""trial"",""time""
""fullscreenenter"",""1"",""1566""
""fullscreenexit"",""32"",""476819""
""blur"",""32"",""477344""
""focus"",""32"",""478540""
","""event"",""trial"",""time""
""blur"",""32"",""477344""
","""event"",""trial"",""time""
""focus"",""32"",""478540""
","""event"",""trial"",""time""
""fullscreenenter"",""1"",""1566""
","""event"",""trial"",""time""
""fullscreenexit"",""32"",""476819""
","","","919.3000000119209","","","19","10846","5254","&#9752;","elianto","#f73b6a7A"," "," ","1","0","[1769.5]","1","1","","","10846","16","3","3","lose","go","0"
"pit-trial","137","1084565","0.0-20.0","battery-v0.2","","""event"",""trial"",""time""
""fullscreenenter"",""1"",""1566""
""fullscreenexit"",""32"",""476819""
""blur"",""32"",""477344""
""focus"",""32"",""478540""
","""event"",""trial"",""time""
""blur"",""32"",""477344""
","""event"",""trial"",""time""
""focus"",""32"",""478540""
","""event"",""trial"",""time""
""fullscreenenter"",""1"",""1566""
","""event"",""trial"",""time""
""fullscreenexit"",""32"",""476819""
","","","405.60000002384186","","","19","10846","5254","&#9752;","elianto","#f73b6a7A"," "," ","1","0","[1263.6000000238419]","1","1","","","10846","17","3","3","lose","go","0"
"pit-trial","138","1087994","0.0-21.0","battery-v0.2","","""event"",""trial"",""time""
""fullscreenenter"",""1"",""1566""
""fullscreenexit"",""32"",""476819""
""blur"",""32"",""477344""
""focus"",""32"",""478540""
","""event"",""trial"",""time""
""blur"",""32"",""477344""
","""event"",""trial"",""time""
""focus"",""32"",""478540""
","""event"",""trial"",""time""
""fullscreenenter"",""1"",""1566""
","""event"",""trial"",""time""
""fullscreenexit"",""32"",""476819""
","","","558.2999999523163","","","19","10846","5254","&#9728;","elianto","#f73b6a7A","-1"," ","0","-10","[1417.800000011921]","1","1","","","10846","18","0","4","lose","no-go","0"
"pit-trial","139","1091589","0.0-22.0","battery-v0.2","","""event"",""trial"",""time""
""fullscreenenter"",""1"",""1566""
""fullscreenexit"",""32"",""476819""
""blur"",""32"",""477344""
""focus"",""32"",""478540""
","""event"",""trial"",""time""
""blur"",""32"",""477344""
","""event"",""trial"",""time""
""focus"",""32"",""478540""
","""event"",""trial"",""time""
""fullscreenenter"",""1"",""1566""
","""event"",""trial"",""time""
""fullscreenexit"",""32"",""476819""
","","","724.3000000119209","","","19","10846","5254","&#9730;","elianto","#3366ff99"," "," ","1","+10","[1583.2000000476837]","1","1","","","10846","19","1","1","win","go","0"
"pit-trial","140","1095228","0.0-23.0","battery-v0.2","","""event"",""trial"",""time""
""fullscreenenter"",""1"",""1566""
""fullscreenexit"",""32"",""476819""
""blur"",""32"",""477344""
""focus"",""32"",""478540""
","""event"",""trial"",""time""
""blur"",""32"",""477344""
","""event"",""trial"",""time""
""focus"",""32"",""478540""
","""event"",""trial"",""time""
""fullscreenenter"",""1"",""1566""
","""event"",""trial"",""time""
""fullscreenexit"",""32"",""476819""
","","","767.7999999523163","","","19","10846","5254","&#9733;","elianto","#3366ff99","-1"," ","0","0","[1626.199999988079]","1","1","","","10846","20","2","2","win","no-go","0"
"pit-instructions","141","1108480","0.0-24.0","battery-v0.2","","""event"",""trial"",""time""
""fullscreenenter"",""1"",""1566""
""fullscreenexit"",""32"",""476819""
""blur"",""32"",""477344""
""focus"",""32"",""478540""
","""event"",""trial"",""time""
""blur"",""32"",""477344""
","""event"",""trial"",""time""
""focus"",""32"",""478540""
","""event"",""trial"",""time""
""fullscreenenter"",""1"",""1566""
","""event"",""trial"",""time""
""fullscreenexit"",""32"",""476819""
","","[{""page_index"":0,""viewing_time"":6017.5},{""page_index"":1,""viewing_time"":7231.5}]","13249.399999976158","","","","","","","","","","","","","","","","","","","","","","","",""
"pit-trial","142","1113075","0.0-25.0","battery-v0.2","","""event"",""trial"",""time""
""fullscreenenter"",""1"",""1566""
""fullscreenexit"",""32"",""476819""
""blur"",""32"",""477344""
""focus"",""32"",""478540""
","""event"",""trial"",""time""
""blur"",""32"",""477344""
","""event"",""trial"",""time""
""focus"",""32"",""478540""
","""event"",""trial"",""time""
""fullscreenenter"",""1"",""1566""
","""event"",""trial"",""time""
""fullscreenexit"",""32"",""476819""
","","","1725","","","19","10846","5254","h","elianto","#f73b6a7A"," "," ","1","0","[2582.399999976158]","1","2","","","10846","21","3","3","lose","go","0"
"pit-trial","143","1116644","0.0-26.0","battery-v0.2","","""event"",""trial"",""time""
""fullscreenenter"",""1"",""1566""
""fullscreenexit"",""32"",""476819""
""blur"",""32"",""477344""
""focus"",""32"",""478540""
","""event"",""trial"",""time""
""blur"",""32"",""477344""
","""event"",""trial"",""time""
""focus"",""32"",""478540""
","""event"",""trial"",""time""
""fullscreenenter"",""1"",""1566""
","""event"",""trial"",""time""
""fullscreenexit"",""32"",""476819""
","","","698.3000000119209","","","19","10846","5254","r","elianto","#3366ff99"," "," ","1","+10","[1557.3999999761581]","1","2","","","10846","22","1","1","win","go","0"
"pit-trial","144","1120272","0.0-27.0","battery-v0.2","","""event"",""trial"",""time""
""fullscreenenter"",""1"",""1566""
""fullscreenexit"",""32"",""476819""
""blur"",""32"",""477344""
""focus"",""32"",""478540""
","""event"",""trial"",""time""
""blur"",""32"",""477344""
","""event"",""trial"",""time""
""focus"",""32"",""478540""
","""event"",""trial"",""time""
""fullscreenenter"",""1"",""1566""
","""event"",""trial"",""time""
""fullscreenexit"",""32"",""476819""
","","","756.0999999642372","","","19","10846","5254","m","elianto","#f73b6a7A","-1"," ","0","-10","[1615]","1","2","","","10846","23","0","4","lose","no-go","0"
"pit-trial","145","1124069","0.0-28.0","battery-v0.2","","""event"",""trial"",""time""
""fullscreenenter"",""1"",""1566""
""fullscreenexit"",""32"",""476819""
""blur"",""32"",""477344""
""focus"",""32"",""478540""
","""event"",""trial"",""time""
""blur"",""32"",""477344""
","""event"",""trial"",""time""
""focus"",""32"",""478540""
","""event"",""trial"",""time""
""fullscreenenter"",""1"",""1566""
","""event"",""trial"",""time""
""fullscreenexit"",""32"",""476819""
","","","927.5999999642372","","","19","10846","5254","y","elianto","#f73b6a7A","-1"," ","0","-10","[1785.699999988079]","1","2","","","10846","24","2","4","lose","no-go","0"
"pit-trial","146","1127431","0.0-29.0","battery-v0.2","","""event"",""trial"",""time""
""fullscreenenter"",""1"",""1566""
""fullscreenexit"",""32"",""476819""
""blur"",""32"",""477344""
""focus"",""32"",""478540""
","""event"",""trial"",""time""
""blur"",""32"",""477344""
","""event"",""trial"",""time""
""focus"",""32"",""478540""
","""event"",""trial"",""time""
""fullscreenenter"",""1"",""1566""
","""event"",""trial"",""time""
""fullscreenexit"",""32"",""476819""
","","","490.30000001192093","","","19","10846","5254","r","elianto","#3366ff99"," "," ","1","+10","[1348.8999999761581]","1","2","","","10846","25","1","1","win","go","0"
"pit-trial","147","1131182","0.0-30.0","battery-v0.2","","""event"",""trial"",""time""
""fullscreenenter"",""1"",""1566""
""fullscreenexit"",""32"",""476819""
""blur"",""32"",""477344""
""focus"",""32"",""478540""
","""event"",""trial"",""time""
""blur"",""32"",""477344""
","""event"",""trial"",""time""
""focus"",""32"",""478540""
","""event"",""trial"",""time""
""fullscreenenter"",""1"",""1566""
","""event"",""trial"",""time""
""fullscreenexit"",""32"",""476819""
","","","882.6000000238419","","","19","10846","5254","h","elianto","#f73b6a7A"," "," ","1","0","[1740.5]","1","2","","","10846","26","3","3","lose","go","0"
"pit-trial","148","1135891","0.0-31.0","battery-v0.2","","""event"",""trial"",""time""
""fullscreenenter"",""1"",""1566""
""fullscreenexit"",""32"",""476819""
""blur"",""32"",""477344""
""focus"",""32"",""478540""
","""event"",""trial"",""time""
""blur"",""32"",""477344""
","""event"",""trial"",""time""
""focus"",""32"",""478540""
","""event"",""trial"",""time""
""fullscreenenter"",""1"",""1566""
","""event"",""trial"",""time""
""fullscreenexit"",""32"",""476819""
","","","1838.4000000357628","","","19","10846","5254","m","elianto","#f73b6a7A","-1"," ","0","-10","[2696.800000011921]","1","2","","","10846","27","0","4","lose","no-go","0"
"pit-trial","149","1140762","0.0-32.0","battery-v0.2","","""event"",""trial"",""time""
""fullscreenenter"",""1"",""1566""
""fullscreenexit"",""32"",""476819""
""blur"",""32"",""477344""
""focus"",""32"",""478540""
","""event"",""trial"",""time""
""blur"",""32"",""477344""
","""event"",""trial"",""time""
""focus"",""32"",""478540""
","""event"",""trial"",""time""
""fullscreenenter"",""1"",""1566""
","""event"",""trial"",""time""
""fullscreenexit"",""32"",""476819""
","","","-1","","","19","10846","5254","y","elianto","#f73b6a7A","-1","-1","1","0","[]","0","2","","","10846","28","2","4","lose","no-go","0"
"pit-trial","150","1145632","0.0-33.0","battery-v0.2","","""event"",""trial"",""time""
""fullscreenenter"",""1"",""1566""
""fullscreenexit"",""32"",""476819""
""blur"",""32"",""477344""
""focus"",""32"",""478540""
","""event"",""trial"",""time""
""blur"",""32"",""477344""
","""event"",""trial"",""time""
""focus"",""32"",""478540""
","""event"",""trial"",""time""
""fullscreenenter"",""1"",""1566""
","""event"",""trial"",""time""
""fullscreenexit"",""32"",""476819""
","","","-1","","","19","10846","5254","m","elianto","#f73b6a7A","-1","-1","1","0","[]","0","2","","","10846","29","0","4","lose","no-go","0"
"pit-trial","151","1149209","0.0-34.0","battery-v0.2","","""event"",""trial"",""time""
""fullscreenenter"",""1"",""1566""
""fullscreenexit"",""32"",""476819""
""blur"",""32"",""477344""
""focus"",""32"",""478540""
","""event"",""trial"",""time""
""blur"",""32"",""477344""
","""event"",""trial"",""time""
""focus"",""32"",""478540""
","""event"",""trial"",""time""
""fullscreenenter"",""1"",""1566""
","""event"",""trial"",""time""
""fullscreenexit"",""32"",""476819""
","","","704.8000000119209","","","19","10846","5254","r","elianto","#3366ff99"," "," ","1","+10","[1563.6000000238419]","1","2","","","10846","30","1","1","win","go","0"
"pit-trial","152","1153268","0.0-35.0","battery-v0.2","","""event"",""trial"",""time""
""fullscreenenter"",""1"",""1566""
""fullscreenexit"",""32"",""476819""
""blur"",""32"",""477344""
""focus"",""32"",""478540""
","""event"",""trial"",""time""
""blur"",""32"",""477344""
","""event"",""trial"",""time""
""focus"",""32"",""478540""
","""event"",""trial"",""time""
""fullscreenenter"",""1"",""1566""
","""event"",""trial"",""time""
""fullscreenexit"",""32"",""476819""
","","","1188.3999999761581","","","19","10846","5254","y","elianto","#f73b6a7A","-1"," ","0","-10","[2046.9000000357628]","1","2","","","10846","31","2","4","lose","no-go","0"
"pit-trial","153","1158138","0.0-36.0","battery-v0.2","","""event"",""trial"",""time""
""fullscreenenter"",""1"",""1566""
""fullscreenexit"",""32"",""476819""
""blur"",""32"",""477344""
""focus"",""32"",""478540""
","""event"",""trial"",""time""
""blur"",""32"",""477344""
","""event"",""trial"",""time""
""focus"",""32"",""478540""
","""event"",""trial"",""time""
""fullscreenenter"",""1"",""1566""
","""event"",""trial"",""time""
""fullscreenexit"",""32"",""476819""
","","","-1","","","19","10846","5254","h","elianto","#f73b6a7A"," ","-1","0","-10","[]","0","2","","","10846","32","3","3","lose","go","0"
"pit-trial","154","1161724","0.0-37.0","battery-v0.2","","""event"",""trial"",""time""
""fullscreenenter"",""1"",""1566""
""fullscreenexit"",""32"",""476819""
""blur"",""32"",""477344""
""focus"",""32"",""478540""
","""event"",""trial"",""time""
""blur"",""32"",""477344""
","""event"",""trial"",""time""
""focus"",""32"",""478540""
","""event"",""trial"",""time""
""fullscreenenter"",""1"",""1566""
","""event"",""trial"",""time""
""fullscreenexit"",""32"",""476819""
","","","715.1000000238419","","","19","10846","5254","r","elianto","#3366ff99"," "," ","1","+10","[1573.800000011921]","1","2","","","10846","33","1","1","win","go","0"
"pit-trial","155","1165746","0.0-38.0","battery-v0.2","","""event"",""trial"",""time""
""fullscreenenter"",""1"",""1566""
""fullscreenexit"",""32"",""476819""
""blur"",""32"",""477344""
""focus"",""32"",""478540""
","""event"",""trial"",""time""
""blur"",""32"",""477344""
","""event"",""trial"",""time""
""focus"",""32"",""478540""
","""event"",""trial"",""time""
""fullscreenenter"",""1"",""1566""
","""event"",""trial"",""time""
""fullscreenexit"",""32"",""476819""
","","","1152.5","","","19","10846","5254","h","elianto","#f73b6a7A"," "," ","1","-10","[2010.6000000238419]","1","2","","","10846","34","3","3","lose","go","1"
"pit-trial","156","1169748","0.0-39.0","battery-v0.2","","""event"",""trial"",""time""
""fullscreenenter"",""1"",""1566""
""fullscreenexit"",""32"",""476819""
""blur"",""32"",""477344""
""focus"",""32"",""478540""
","""event"",""trial"",""time""
""blur"",""32"",""477344""
","""event"",""trial"",""time""
""focus"",""32"",""478540""
","""event"",""trial"",""time""
""fullscreenenter"",""1"",""1566""
","""event"",""trial"",""time""
""fullscreenexit"",""32"",""476819""
","","","1131.300000011921","","","19","10846","5254","m","elianto","#f73b6a7A","-1"," ","0","-10","[1989.300000011921]","1","2","","","10846","35","0","4","lose","no-go","0"
"pit-trial","157","1174620","0.0-40.0","battery-v0.2","","""event"",""trial"",""time""
""fullscreenenter"",""1"",""1566""
""fullscreenexit"",""32"",""476819""
""blur"",""32"",""477344""
""focus"",""32"",""478540""
","""event"",""trial"",""time""
""blur"",""32"",""477344""
","""event"",""trial"",""time""
""focus"",""32"",""478540""
","""event"",""trial"",""time""
""fullscreenenter"",""1"",""1566""
","""event"",""trial"",""time""
""fullscreenexit"",""32"",""476819""
","","","-1","","","19","10846","5254","y","elianto","#f73b6a7A","-1","-1","1","-10","[2975.800000011921]","1","2","","","10846","36","2","4","lose","no-go","1"
"pit-trial","158","1178117","0.0-41.0","battery-v0.2","","""event"",""trial"",""time""
""fullscreenenter"",""1"",""1566""
""fullscreenexit"",""32"",""476819""
""blur"",""32"",""477344""
""focus"",""32"",""478540""
","""event"",""trial"",""time""
""blur"",""32"",""477344""
","""event"",""trial"",""time""
""focus"",""32"",""478540""
","""event"",""trial"",""time""
""fullscreenenter"",""1"",""1566""
","""event"",""trial"",""time""
""fullscreenexit"",""32"",""476819""
","","","625.4000000357628","","","19","10846","5254","r","elianto","#3366ff99"," "," ","1","+10","[1484.6000000238419]","1","2","","","10846","37","1","1","win","go","0"
"pit-trial","159","1182988","0.0-42.0","battery-v0.2","","""event"",""trial"",""time""
""fullscreenenter"",""1"",""1566""
""fullscreenexit"",""32"",""476819""
""blur"",""32"",""477344""
""focus"",""32"",""478540""
","""event"",""trial"",""time""
""blur"",""32"",""477344""
","""event"",""trial"",""time""
""focus"",""32"",""478540""
","""event"",""trial"",""time""
""fullscreenenter"",""1"",""1566""
","""event"",""trial"",""time""
""fullscreenexit"",""32"",""476819""
","","","-1","","","19","10846","5254","m","elianto","#f73b6a7A","-1","-1","1","-10","[]","0","2","","","10846","38","0","4","lose","no-go","1"
"pit-trial","160","1187858","0.0-43.0","battery-v0.2","","""event"",""trial"",""time""
""fullscreenenter"",""1"",""1566""
""fullscreenexit"",""32"",""476819""
""blur"",""32"",""477344""
""focus"",""32"",""478540""
","""event"",""trial"",""time""
""blur"",""32"",""477344""
","""event"",""trial"",""time""
""focus"",""32"",""478540""
","""event"",""trial"",""time""
""fullscreenenter"",""1"",""1566""
","""event"",""trial"",""time""
""fullscreenexit"",""32"",""476819""
","","","-1","","","19","10846","5254","y","elianto","#f73b6a7A","-1","-1","1","0","[]","0","2","","","10846","39","2","4","lose","no-go","0"
"pit-trial","161","1192729","0.0-44.0","battery-v0.2","","""event"",""trial"",""time""
""fullscreenenter"",""1"",""1566""
""fullscreenexit"",""32"",""476819""
""blur"",""32"",""477344""
""focus"",""32"",""478540""
","""event"",""trial"",""time""
""blur"",""32"",""477344""
","""event"",""trial"",""time""
""focus"",""32"",""478540""
","""event"",""trial"",""time""
""fullscreenenter"",""1"",""1566""
","""event"",""trial"",""time""
""fullscreenexit"",""32"",""476819""
","","","-1","","","19","10846","5254","h","elianto","#f73b6a7A"," ","-1","0","0","[]","0","2","","","10846","40","3","3","lose","go","1"
"pit-trial","162","1197600","0.0-45.0","battery-v0.2","","""event"",""trial"",""time""
""fullscreenenter"",""1"",""1566""
""fullscreenexit"",""32"",""476819""
""blur"",""32"",""477344""
""focus"",""32"",""478540""
","""event"",""trial"",""time""
""blur"",""32"",""477344""
","""event"",""trial"",""time""
""focus"",""32"",""478540""
","""event"",""trial"",""time""
""fullscreenenter"",""1"",""1566""
","""event"",""trial"",""time""
""fullscreenexit"",""32"",""476819""
","","","-1","","","19","10846","5254","y","elianto","#f73b6a7A","-1","-1","1","0","[]","0","2","","","10846","41","2","4","lose","no-go","0"
"pit-trial","163","1202099","0.0-46.0","battery-v0.2","","""event"",""trial"",""time""
""fullscreenenter"",""1"",""1566""
""fullscreenexit"",""32"",""476819""
""blur"",""32"",""477344""
""focus"",""32"",""478540""
","""event"",""trial"",""time""
""blur"",""32"",""477344""
","""event"",""trial"",""time""
""focus"",""32"",""478540""
","""event"",""trial"",""time""
""fullscreenenter"",""1"",""1566""
","""event"",""trial"",""time""
""fullscreenexit"",""32"",""476819""
","","","1628.5","","","19","10846","5254","h","elianto","#f73b6a7A"," "," ","1","0","[2487.199999988079]","1","2","","","10846","42","3","3","lose","go","0"
"pit-trial","164","1205648","0.0-47.0","battery-v0.2","","""event"",""trial"",""time""
""fullscreenenter"",""1"",""1566""
""fullscreenexit"",""32"",""476819""
""blur"",""32"",""477344""
""focus"",""32"",""478540""
","""event"",""trial"",""time""
""blur"",""32"",""477344""
