"trial_type","trial_index","time_elapsed","internal_node_id","task_version","subject_id","interactions","blur_events","focus_events","fullscreenenter_events","fullscreenexit_events","success","view_history","rt","responses","num_errors","age","subject","participantId","rune","rune_set","hex","correct","choice","accuracy","outcome","keys","total_keys","block","practice","value","sub","trial","stimulus","robot","valence","action","sham"
"pavlovia","0","12","0.0-0.0","battery-v0.2","","""event"",""trial"",""time""
""fullscreenenter"",""1"",""2523""
","
","
","""event"",""trial"",""time""
""fullscreenenter"",""1"",""2523""
","
","","","","","","","","","","","","","","","","","","","","","","","","","","",""
"fullscreen","1","3389","0.0-1.0","battery-v0.2","","""event"",""trial"",""time""
""fullscreenenter"",""1"",""2523""
","
","
","""event"",""trial"",""time""
""fullscreenenter"",""1"",""2523""
","
","true","","","","","","","","","","","","","","","","","","","","","","","","","",""
"pit-instructions","2","8333","0.0-2.0-0.0","battery-v0.2","","""event"",""trial"",""time""
""fullscreenenter"",""1"",""2523""
","
","
","""event"",""trial"",""time""
""fullscreenenter"",""1"",""2523""
","
","","[{""page_index"":0,""viewing_time"":4934}]","4936","","","","","","","","","","","","","","","","","","","","","","","",""
"pit-comprehension","3","11851","0.0-2.0-1.0-0.0","battery-v0.2","","""event"",""trial"",""time""
""fullscreenenter"",""1"",""2523""
","
","
","""event"",""trial"",""time""
""fullscreenenter"",""1"",""2523""
","
","","","3507.999999999998","[""shark""]","0","19","11017","4010","","","","","","","","","","","","","","","","","","",""
"pit-instructions","4","15283","0.0-2.0-1.0-1.0","battery-v0.2","","""event"",""trial"",""time""
""fullscreenenter"",""1"",""2523""
","
","
","""event"",""trial"",""time""
""fullscreenenter"",""1"",""2523""
","
","","[{""page_index"":0,""viewing_time"":3416}]","3416","","","","","","","","","","","","","","","","","","","","","","","",""
"pit-comprehension","5","18197","0.0-2.0-2.0-0.0","battery-v0.2","","""event"",""trial"",""time""
""fullscreenenter"",""1"",""2523""
","
","
","""event"",""trial"",""time""
""fullscreenenter"",""1"",""2523""
","
","","","2908","[""tiger""]","0","19","11017","4010","","","","","","","","","","","","","","","","","","",""
"pit-instructions","6","19205","0.0-2.0-2.0-1.0","battery-v0.2","","""event"",""trial"",""time""
""fullscreenenter"",""1"",""2523""
","
","
","""event"",""trial"",""time""
""fullscreenenter"",""1"",""2523""
","
","","[{""page_index"":0,""viewing_time"":998}]","999","","","","","","","","","","","","","","","","","","","","","","","",""
"pit-instructions","7","114949","0.0-2.0-3.0","battery-v0.2","","""event"",""trial"",""time""
""fullscreenenter"",""1"",""2523""
","
","
","""event"",""trial"",""time""
""fullscreenenter"",""1"",""2523""
","
","","[{""page_index"":0,""viewing_time"":8285},{""page_index"":1,""viewing_time"":6384},{""page_index"":2,""viewing_time"":6353},{""page_index"":3,""viewing_time"":5223},{""page_index"":4,""viewing_time"":5776},{""page_index"":5,""viewing_time"":6080},{""page_index"":6,""viewing_time"":6965},{""page_index"":7,""viewing_time"":6382},{""page_index"":8,""viewing_time"":6370},{""page_index"":9,""viewing_time"":10615},{""page_index"":10,""viewing_time"":8350},{""page_index"":11,""viewing_time"":7069},{""page_index"":12,""viewing_time"":6344.000000000015},{""page_index"":13,""viewing_time"":5537.999999999985}]","95735","","","","","","","","","","","","","","","","","","","","","","","",""
"pit-trial","8","118288","0.0-2.0-4.0-0.0","battery-v0.2","","""event"",""trial"",""time""
""fullscreenenter"",""1"",""2523""
","
","
","""event"",""trial"",""time""
""fullscreenenter"",""1"",""2523""
","
","","","483","","","19","11017","4010","&#9784;","elianto","#FFFFF080"," "," ","1","&#10004","[1333]","1","0","0","","","","","","","",""
"pit-trial","9","121810","0.0-2.0-4.1-0.1","battery-v0.2","","""event"",""trial"",""time""
""fullscreenenter"",""1"",""2523""
","
","
","""event"",""trial"",""time""
""fullscreenenter"",""1"",""2523""
","
","","","663","","","19","11017","4010","&#9784;","elianto","#FFFFF080"," "," ","1","&#10004","[1514]","1","0","0","","","","","","","",""
"pit-trial","10","125207","0.0-2.0-4.2-0.2","battery-v0.2","","""event"",""trial"",""time""
""fullscreenenter"",""1"",""2523""
","
","
","""event"",""trial"",""time""
""fullscreenenter"",""1"",""2523""
","
","","","539.9999999999854","","","19","11017","4010","&#9784;","elianto","#FFFFF080"," "," ","1","&#10004","[1391]","1","0","0","","","","","","","",""
"pit-trial","11","128504","0.0-2.0-4.3-0.3","battery-v0.2","","""event"",""trial"",""time""
""fullscreenenter"",""1"",""2523""
","
","
","""event"",""trial"",""time""
""fullscreenenter"",""1"",""2523""
","
","","","441","","","19","11017","4010","&#9784;","elianto","#FFFFF080"," "," ","1","&#10004","[1291]","1","0","0","","","","","","","",""
"pit-trial","12","131807","0.0-2.0-4.4-0.4","battery-v0.2","","""event"",""trial"",""time""
""fullscreenenter"",""1"",""2523""
","
","
","""event"",""trial"",""time""
""fullscreenenter"",""1"",""2523""
","
","","","447","","","19","11017","4010","&#9784;","elianto","#FFFFF080"," "," ","1","&#10004","[1297]","1","0","0","","","","","","","",""
"pit-instructions","13","152626","0.0-2.0-5.0","battery-v0.2","","""event"",""trial"",""time""
""fullscreenenter"",""1"",""2523""
","
","
","""event"",""trial"",""time""
""fullscreenenter"",""1"",""2523""
","
","","[{""page_index"":0,""viewing_time"":4815},{""page_index"":1,""viewing_time"":5588},{""page_index"":2,""viewing_time"":4807},{""page_index"":3,""viewing_time"":5602}]","20813","","","","","","","","","","","","","","","","","","","","","","","",""
"pit-trial","14","157481","0.0-2.0-6.0-0.0","battery-v0.2","","""event"",""trial"",""time""
""fullscreenenter"",""1"",""2523""
","
","
","""event"",""trial"",""time""
""fullscreenenter"",""1"",""2523""
","
","","","-1","","","19","11017","4010","&#9854;","elianto","#FFFFF080","-1","-1","1","&#10004","[]","0","0","1","","","","","","","",""
"pit-trial","15","162337","0.0-2.0-6.1-0.1","battery-v0.2","","""event"",""trial"",""time""
""fullscreenenter"",""1"",""2523""
","
","
","""event"",""trial"",""time""
""fullscreenenter"",""1"",""2523""
","
","","","-1","","","19","11017","4010","&#9854;","elianto","#FFFFF080","-1","-1","1","&#10004","[]","0","0","1","","","","","","","",""
"pit-trial","16","167191","0.0-2.0-6.2-0.2","battery-v0.2","","""event"",""trial"",""time""
""fullscreenenter"",""1"",""2523""
","
","
","""event"",""trial"",""time""
""fullscreenenter"",""1"",""2523""
","
","","","-1","","","19","11017","4010","&#9854;","elianto","#FFFFF080","-1","-1","1","&#10004","[]","0","0","1","","","","","","","",""
"pit-trial","17","172047","0.0-2.0-6.3-0.3","battery-v0.2","","""event"",""trial"",""time""
""fullscreenenter"",""1"",""2523""
","
","
","""event"",""trial"",""time""
""fullscreenenter"",""1"",""2523""
","
","","","-1","","","19","11017","4010","&#9854;","elianto","#FFFFF080","-1","-1","1","&#10004","[]","0","0","1","","","","","","","",""
"pit-trial","18","176905","0.0-2.0-6.4-0.4","battery-v0.2","","""event"",""trial"",""time""
""fullscreenenter"",""1"",""2523""
","
","
","""event"",""trial"",""time""
""fullscreenenter"",""1"",""2523""
","
","","","-1","","","19","11017","4010","&#9854;","elianto","#FFFFF080","-1","-1","1","&#10004","[]","0","0","1","","","","","","","",""
"pit-instructions","19","286053","0.0-2.0-7.0","battery-v0.2","","""event"",""trial"",""time""
""fullscreenenter"",""1"",""2523""
","
","
","""event"",""trial"",""time""
""fullscreenenter"",""1"",""2523""
","
","","[{""page_index"":0,""viewing_time"":5440},{""page_index"":1,""viewing_time"":6527},{""page_index"":2,""viewing_time"":5729},{""page_index"":3,""viewing_time"":5340},{""page_index"":4,""viewing_time"":5610},{""page_index"":5,""viewing_time"":5666},{""page_index"":6,""viewing_time"":4170},{""page_index"":7,""viewing_time"":7675},{""page_index"":8,""viewing_time"":6692},{""page_index"":9,""viewing_time"":5298.000000000029},{""page_index"":10,""viewing_time"":6072.999999999971},{""page_index"":11,""viewing_time"":4661},{""page_index"":12,""viewing_time"":6875},{""page_index"":13,""viewing_time"":6589},{""page_index"":14,""viewing_time"":7059},{""page_index"":15,""viewing_time"":6380},{""page_index"":16,""viewing_time"":6310},{""page_index"":17,""viewing_time"":7044}]","109138","","","","","","","","","","","","","","","","","","","","","","","",""
"pit-trial","20","289300","0.0-2.0-8.0-0.0","battery-v0.2","","""event"",""trial"",""time""
""fullscreenenter"",""1"",""2523""
","
","
","""event"",""trial"",""time""
""fullscreenenter"",""1"",""2523""
","
","","","391","","","19","11017","4010","&#9776;","elianto","#3366ff99"," "," ","1","+10","[1241]","1","0","1","","","","","","","",""
"pit-trial","21","292512","0.0-2.0-8.0-1.0","battery-v0.2","","""event"",""trial"",""time""
""fullscreenenter"",""1"",""2523""
","
","
","""event"",""trial"",""time""
""fullscreenenter"",""1"",""2523""
","
","","","355.9999999999418","","","19","11017","4010","&#9776;","elianto","#3366ff99"," "," ","1","+10","[1206.9999999999418]","1","0","1","","","","","","","",""
"pit-trial","22","295703","0.0-2.0-8.0-2.0","battery-v0.2","","""event"",""trial"",""time""
""fullscreenenter"",""1"",""2523""
","
","
","""event"",""trial"",""time""
""fullscreenenter"",""1"",""2523""
","
","","","336","","","19","11017","4010","&#9776;","elianto","#3366ff99"," "," ","1","+10","[1186]","1","0","1","","","","","","","",""
"pit-trial","23","298891","0.0-2.0-8.0-3.0","battery-v0.2","","""event"",""trial"",""time""
""fullscreenenter"",""1"",""2523""
","
","
","""event"",""trial"",""time""
""fullscreenenter"",""1"",""2523""
","
","","","332","","","19","11017","4010","&#9776;","elianto","#3366ff99"," "," ","1","0","[1182]","1","0","1","","","","","","","",""
"pit-trial","24","302067","0.0-2.0-8.0-4.0","battery-v0.2","","""event"",""trial"",""time""
""fullscreenenter"",""1"",""2523""
","
","
","""event"",""trial"",""time""
""fullscreenenter"",""1"",""2523""
","
","","","321.0000000000582","","","19","11017","4010","&#9776;","elianto","#3366ff99"," "," ","1","+10","[1172.0000000000582]","1","0","1","","","","","","","",""
"pit-trial","25","305199","0.0-2.0-8.1-0.1","battery-v0.2","","""event"",""trial"",""time""
""fullscreenenter"",""1"",""2523""
","
","
","""event"",""trial"",""time""
""fullscreenenter"",""1"",""2523""
","
","","","277","","","19","11017","4010","&#9776;","elianto","#3366ff99"," "," ","1","+10","[1126.9999999999418]","1","0","1","","","","","","","",""
"pit-trial","26","308416","0.0-2.0-8.1-1.1","battery-v0.2","","""event"",""trial"",""time""
""fullscreenenter"",""1"",""2523""
","
","
","""event"",""trial"",""time""
""fullscreenenter"",""1"",""2523""
","
","","","361","","","19","11017","4010","&#9776;","elianto","#3366ff99"," "," ","1","+10","[1210.9999999999418]","1","0","1","","","","","","","",""
"pit-trial","27","311389","0.0-2.0-8.1-2.1","battery-v0.2","","""event"",""trial"",""time""
""fullscreenenter"",""1"",""2523""
","
","
","""event"",""trial"",""time""
""fullscreenenter"",""1"",""2523""
","
","","","117","","","19","11017","4010","&#9776;","elianto","#3366ff99"," "," ","1","+10","[967]","1","0","1","","","","","","","",""
"pit-trial","28","314448","0.0-2.0-8.1-3.1","battery-v0.2","","""event"",""trial"",""time""
""fullscreenenter"",""1"",""2523""
","
","
","""event"",""trial"",""time""
""fullscreenenter"",""1"",""2523""
","
","","","204","","","19","11017","4010","&#9776;","elianto","#3366ff99"," "," ","1","0","[1055]","1","0","1","","","","","","","",""
"pit-trial","29","317445","0.0-2.0-8.1-4.1","battery-v0.2","","""event"",""trial"",""time""
""fullscreenenter"",""1"",""2523""
","
","
","""event"",""trial"",""time""
""fullscreenenter"",""1"",""2523""
","
","","","141","","","19","11017","4010","&#9776;","elianto","#3366ff99"," "," ","1","+10","[991]","1","0","1","","","","","","","",""
"pit-trial","30","320440","0.0-2.0-8.2-0.2","battery-v0.2","","""event"",""trial"",""time""
""fullscreenenter"",""1"",""2523""
","
","
","""event"",""trial"",""time""
""fullscreenenter"",""1"",""2523""
","
","","","140","","","19","11017","4010","&#9776;","elianto","#3366ff99"," "," ","1","+10","[990]","1","0","1","","","","","","","",""
"pit-trial","31","323432","0.0-2.0-8.2-1.2","battery-v0.2","","""event"",""trial"",""time""
""fullscreenenter"",""1"",""2523""
","
","
","""event"",""trial"",""time""
""fullscreenenter"",""1"",""2523""
","
","","","136","","","19","11017","4010","&#9776;","elianto","#3366ff99"," "," ","1","+10","[987]","1","0","1","","","","","","","",""
"pit-trial","32","326415","0.0-2.0-8.2-2.2","battery-v0.2","","""event"",""trial"",""time""
""fullscreenenter"",""1"",""2523""
","
","
","""event"",""trial"",""time""
""fullscreenenter"",""1"",""2523""
","
","","","127","","","19","11017","4010","&#9776;","elianto","#3366ff99"," "," ","1","+10","[978]","1","0","1","","","","","","","",""
"pit-trial","33","329471","0.0-2.0-8.2-3.2","battery-v0.2","","""event"",""trial"",""time""
""fullscreenenter"",""1"",""2523""
","
","
","""event"",""trial"",""time""
""fullscreenenter"",""1"",""2523""
","
","","","199.9999999999418","","","19","11017","4010","&#9776;","elianto","#3366ff99"," "," ","1","0","[1050]","1","0","1","","","","","","","",""
"pit-trial","34","332452","0.0-2.0-8.2-4.2","battery-v0.2","","""event"",""trial"",""time""
""fullscreenenter"",""1"",""2523""
","
","
","""event"",""trial"",""time""
""fullscreenenter"",""1"",""2523""
","
","","","126","","","19","11017","4010","&#9776;","elianto","#3366ff99"," "," ","1","+10","[976]","1","0","1","","","","","","","",""
"call-function","35","332456","0.0-2.0-9.0","battery-v0.2","","""event"",""trial"",""time""
""fullscreenenter"",""1"",""2523""
","
","
","""event"",""trial"",""time""
""fullscreenenter"",""1"",""2523""
","
","","","","","","","","","","","","","","","","","","","","","","","","","","",""
"pit-instructions","36","372594","0.0-2.0-10.0","battery-v0.2","","""event"",""trial"",""time""
""fullscreenenter"",""1"",""2523""
","
","
","""event"",""trial"",""time""
""fullscreenenter"",""1"",""2523""
","
","","[{""page_index"":0,""viewing_time"":5717},{""page_index"":1,""viewing_time"":7376},{""page_index"":2,""viewing_time"":9738},{""page_index"":3,""viewing_time"":9132},{""page_index"":4,""viewing_time"":8171.000000000058}]","40135","","","","","","","","","","","","","","","","","","","","","","","",""
"pit-trial","37","377450","0.0-2.0-11.0-0.0","battery-v0.2","","""event"",""trial"",""time""
""fullscreenenter"",""1"",""2523""
","
","
","""event"",""trial"",""time""
""fullscreenenter"",""1"",""2523""
","
","","","-1","","","19","11017","4010","&#9761;","elianto","#3366ff99","-1","-1","1","+10","[]","0","0","2","","","","","","","",""
"pit-trial","38","382306","0.0-2.0-11.0-1.0","battery-v0.2","","""event"",""trial"",""time""
""fullscreenenter"",""1"",""2523""
","
","
","""event"",""trial"",""time""
""fullscreenenter"",""1"",""2523""
","
","","","-1","","","19","11017","4010","&#9761;","elianto","#3366ff99","-1","-1","1","+10","[]","0","0","2","","","","","","","",""
"pit-trial","39","387161","0.0-2.0-11.0-2.0","battery-v0.2","","""event"",""trial"",""time""
""fullscreenenter"",""1"",""2523""
","
","
","""event"",""trial"",""time""
""fullscreenenter"",""1"",""2523""
","
","","","-1","","","19","11017","4010","&#9761;","elianto","#3366ff99","-1","-1","1","+10","[]","0","0","2","","","","","","","",""
"pit-trial","40","392018","0.0-2.0-11.0-3.0","battery-v0.2","","""event"",""trial"",""time""
""fullscreenenter"",""1"",""2523""
","
","
","""event"",""trial"",""time""
""fullscreenenter"",""1"",""2523""
","
","","","-1","","","19","11017","4010","&#9761;","elianto","#3366ff99","-1","-1","1","0","[]","0","0","2","","","","","","","",""
"pit-trial","41","396873","0.0-2.0-11.0-4.0","battery-v0.2","","""event"",""trial"",""time""
""fullscreenenter"",""1"",""2523""
","
","
","""event"",""trial"",""time""
""fullscreenenter"",""1"",""2523""
","
","","","-1","","","19","11017","4010","&#9761;","elianto","#3366ff99","-1","-1","1","+10","[]","0","0","2","","","","","","","",""
"pit-trial","42","401729","0.0-2.0-11.1-0.1","battery-v0.2","","""event"",""trial"",""time""
""fullscreenenter"",""1"",""2523""
","
","
","""event"",""trial"",""time""
""fullscreenenter"",""1"",""2523""
","
","","","-1","","","19","11017","4010","&#9761;","elianto","#3366ff99","-1","-1","1","+10","[]","0","0","2","","","","","","","",""
"pit-trial","43","406584","0.0-2.0-11.1-1.1","battery-v0.2","","""event"",""trial"",""time""
""fullscreenenter"",""1"",""2523""
","
","
","""event"",""trial"",""time""
""fullscreenenter"",""1"",""2523""
","
","","","-1","","","19","11017","4010","&#9761;","elianto","#3366ff99","-1","-1","1","+10","[]","0","0","2","","","","","","","",""
"pit-trial","44","411439","0.0-2.0-11.1-2.1","battery-v0.2","","""event"",""trial"",""time""
""fullscreenenter"",""1"",""2523""
","
","
","""event"",""trial"",""time""
""fullscreenenter"",""1"",""2523""
","
","","","-1","","","19","11017","4010","&#9761;","elianto","#3366ff99","-1","-1","1","+10","[]","0","0","2","","","","","","","",""
"pit-trial","45","416294","0.0-2.0-11.1-3.1","battery-v0.2","","""event"",""trial"",""time""
""fullscreenenter"",""1"",""2523""
","
","
","""event"",""trial"",""time""
""fullscreenenter"",""1"",""2523""
","
","","","-1","","","19","11017","4010","&#9761;","elianto","#3366ff99","-1","-1","1","0","[]","0","0","2","","","","","","","",""
"pit-trial","46","421150","0.0-2.0-11.1-4.1","battery-v0.2","","""event"",""trial"",""time""
""fullscreenenter"",""1"",""2523""
","
","
","""event"",""trial"",""time""
""fullscreenenter"",""1"",""2523""
","
","","","-1","","","19","11017","4010","&#9761;","elianto","#3366ff99","-1","-1","1","+10","[]","0","0","2","","","","","","","",""
"pit-trial","47","426006","0.0-2.0-11.2-0.2","battery-v0.2","","""event"",""trial"",""time""
""fullscreenenter"",""1"",""2523""
","
","
","""event"",""trial"",""time""
""fullscreenenter"",""1"",""2523""
","
","","","-1","","","19","11017","4010","&#9761;","elianto","#3366ff99","-1","-1","1","+10","[]","0","0","2","","","","","","","",""
"pit-trial","48","430860","0.0-2.0-11.2-1.2","battery-v0.2","","""event"",""trial"",""time""
""fullscreenenter"",""1"",""2523""
","
","
","""event"",""trial"",""time""
""fullscreenenter"",""1"",""2523""
","
","","","-1","","","19","11017","4010","&#9761;","elianto","#3366ff99","-1","-1","1","+10","[]","0","0","2","","","","","","","",""
"pit-trial","49","435715","0.0-2.0-11.2-2.2","battery-v0.2","","""event"",""trial"",""time""
""fullscreenenter"",""1"",""2523""
","
","
","""event"",""trial"",""time""
""fullscreenenter"",""1"",""2523""
","
","","","-1","","","19","11017","4010","&#9761;","elianto","#3366ff99","-1","-1","1","+10","[]","0","0","2","","","","","","","",""
"pit-trial","50","440571","0.0-2.0-11.2-3.2","battery-v0.2","","""event"",""trial"",""time""
""fullscreenenter"",""1"",""2523""
","
","
","""event"",""trial"",""time""
""fullscreenenter"",""1"",""2523""
","
","","","-1","","","19","11017","4010","&#9761;","elianto","#3366ff99","-1","-1","1","0","[]","0","0","2","","","","","","","",""
"pit-trial","51","445428","0.0-2.0-11.2-4.2","battery-v0.2","","""event"",""trial"",""time""
""fullscreenenter"",""1"",""2523""
","
","
","""event"",""trial"",""time""
""fullscreenenter"",""1"",""2523""
","
","","","-1","","","19","11017","4010","&#9761;","elianto","#3366ff99","-1","-1","1","+10","[]","0","0","2","","","","","","","",""
"pit-trial","52","450282","0.0-2.0-11.3-0.3","battery-v0.2","","""event"",""trial"",""time""
""fullscreenenter"",""1"",""2523""
","
","
","""event"",""trial"",""time""
""fullscreenenter"",""1"",""2523""
","
","","","-1","","","19","11017","4010","&#9761;","elianto","#3366ff99","-1","-1","1","+10","[]","0","0","2","","","","","","","",""
"pit-trial","53","455137","0.0-2.0-11.3-1.3","battery-v0.2","","""event"",""trial"",""time""
""fullscreenenter"",""1"",""2523""
","
","
","""event"",""trial"",""time""
""fullscreenenter"",""1"",""2523""
","
","","","-1","","","19","11017","4010","&#9761;","elianto","#3366ff99","-1","-1","1","+10","[]","0","0","2","","","","","","","",""
"pit-trial","54","459993","0.0-2.0-11.3-2.3","battery-v0.2","","""event"",""trial"",""time""
""fullscreenenter"",""1"",""2523""
","
","
","""event"",""trial"",""time""
""fullscreenenter"",""1"",""2523""
","
","","","-1","","","19","11017","4010","&#9761;","elianto","#3366ff99","-1","-1","1","+10","[]","0","0","2","","","","","","","",""
"pit-trial","55","464849","0.0-2.0-11.3-3.3","battery-v0.2","","""event"",""trial"",""time""
""fullscreenenter"",""1"",""2523""
","
","
","""event"",""trial"",""time""
""fullscreenenter"",""1"",""2523""
","
","","","-1","","","19","11017","4010","&#9761;","elianto","#3366ff99","-1","-1","1","0","[]","0","0","2","","","","","","","",""
"pit-trial","56","469704","0.0-2.0-11.3-4.3","battery-v0.2","","""event"",""trial"",""time""
""fullscreenenter"",""1"",""2523""
","
","
","""event"",""trial"",""time""
""fullscreenenter"",""1"",""2523""
","
","","","-1","","","19","11017","4010","&#9761;","elianto","#3366ff99","-1","-1","1","+10","[]","0","0","2","","","","","","","",""
"call-function","57","469708","0.0-2.0-12.0","battery-v0.2","","""event"",""trial"",""time""
""fullscreenenter"",""1"",""2523""
","
","
","""event"",""trial"",""time""
""fullscreenenter"",""1"",""2523""
","
","","","","","","","","","","","","","","","","","","","","","","","","","","",""
"pit-instructions","58","501711","0.0-2.0-13.0","battery-v0.2","","""event"",""trial"",""time""
""fullscreenenter"",""1"",""2523""
","
","
","""event"",""trial"",""time""
""fullscreenenter"",""1"",""2523""
","
","","[{""page_index"":0,""viewing_time"":6221},{""page_index"":1,""viewing_time"":7553},{""page_index"":2,""viewing_time"":3183.999999999942},{""page_index"":3,""viewing_time"":10181},{""page_index"":4,""viewing_time"":4862}]","32001.99999999994","","","","","","","","","","","","","","","","","","","","","","","",""
"pit-trial","59","504968","0.0-2.0-14.0-0.0","battery-v0.2","","""event"",""trial"",""time""
""fullscreenenter"",""1"",""2523""
","
","
","""event"",""trial"",""time""
""fullscreenenter"",""1"",""2523""
","
","","","401","","","19","11017","4010","&#9826;","elianto","#f73b6a7A","-1"," ","0","-10","[1252,1563]","2","0","3","","","","","","","",""
"pit-trial","60","509825","0.0-2.0-14.0-1.0","battery-v0.2","","""event"",""trial"",""time""
""fullscreenenter"",""1"",""2523""
","
","
","""event"",""trial"",""time""
""fullscreenenter"",""1"",""2523""
","
","","","-1","","","19","11017","4010","&#9826;","elianto","#f73b6a7A","-1","-1","1","0","[]","0","0","3","","","","","","","",""
"pit-trial","61","514680","0.0-2.0-14.0-2.0","battery-v0.2","","""event"",""trial"",""time""
""fullscreenenter"",""1"",""2523""
","
","
","""event"",""trial"",""time""
""fullscreenenter"",""1"",""2523""
","
","","","-1","","","19","11017","4010","&#9826;","elianto","#f73b6a7A","-1","-1","1","0","[]","0","0","3","","","","","","","",""
"pit-trial","62","519535","0.0-2.0-14.0-3.0","battery-v0.2","","""event"",""trial"",""time""
""fullscreenenter"",""1"",""2523""
","
","
","""event"",""trial"",""time""
""fullscreenenter"",""1"",""2523""
","
","","","-1","","","19","11017","4010","&#9826;","elianto","#f73b6a7A","-1","-1","1","-10","[]","0","0","3","","","","","","","",""
"pit-trial","63","524390","0.0-2.0-14.0-4.0","battery-v0.2","","""event"",""trial"",""time""
""fullscreenenter"",""1"",""2523""
","
","
","""event"",""trial"",""time""
""fullscreenenter"",""1"",""2523""
","
","","","-1","","","19","11017","4010","&#9826;","elianto","#f73b6a7A","-1","-1","1","0","[]","0","0","3","","","","","","","",""
"pit-trial","64","529246","0.0-2.0-14.1-0.1","battery-v0.2","","""event"",""trial"",""time""
""fullscreenenter"",""1"",""2523""
","
","
","""event"",""trial"",""time""
""fullscreenenter"",""1"",""2523""
","
","","","-1","","","19","11017","4010","&#9826;","elianto","#f73b6a7A","-1","-1","1","0","[]","0","0","3","","","","","","","",""
"pit-trial","65","534101","0.0-2.0-14.1-1.1","battery-v0.2","","""event"",""trial"",""time""
""fullscreenenter"",""1"",""2523""
","
","
","""event"",""trial"",""time""
""fullscreenenter"",""1"",""2523""
","
","","","-1","","","19","11017","4010","&#9826;","elianto","#f73b6a7A","-1","-1","1","0","[]","0","0","3","","","","","","","",""
"pit-trial","66","538956","0.0-2.0-14.1-2.1","battery-v0.2","","""event"",""trial"",""time""
""fullscreenenter"",""1"",""2523""
","
","
","""event"",""trial"",""time""
""fullscreenenter"",""1"",""2523""
","
","","","-1","","","19","11017","4010","&#9826;","elianto","#f73b6a7A","-1","-1","1","0","[]","0","0","3","","","","","","","",""
"pit-trial","67","543812","0.0-2.0-14.1-3.1","battery-v0.2","","""event"",""trial"",""time""
""fullscreenenter"",""1"",""2523""
","
","
","""event"",""trial"",""time""
""fullscreenenter"",""1"",""2523""
","
","","","-1","","","19","11017","4010","&#9826;","elianto","#f73b6a7A","-1","-1","1","-10","[]","0","0","3","","","","","","","",""
"pit-trial","68","548667","0.0-2.0-14.1-4.1","battery-v0.2","","""event"",""trial"",""time""
""fullscreenenter"",""1"",""2523""
","
","
","""event"",""trial"",""time""
""fullscreenenter"",""1"",""2523""
","
","","","-1","","","19","11017","4010","&#9826;","elianto","#f73b6a7A","-1","-1","1","0","[]","0","0","3","","","","","","","",""
"pit-trial","69","553522","0.0-2.0-14.2-0.2","battery-v0.2","","""event"",""trial"",""time""
""fullscreenenter"",""1"",""2523""
","
","
","""event"",""trial"",""time""
""fullscreenenter"",""1"",""2523""
","
","","","-1","","","19","11017","4010","&#9826;","elianto","#f73b6a7A","-1","-1","1","0","[]","0","0","3","","","","","","","",""
"pit-trial","70","558377","0.0-2.0-14.2-1.2","battery-v0.2","","""event"",""trial"",""time""
""fullscreenenter"",""1"",""2523""
","
","
","""event"",""trial"",""time""
""fullscreenenter"",""1"",""2523""
","
","","","-1","","","19","11017","4010","&#9826;","elianto","#f73b6a7A","-1","-1","1","0","[]","0","0","3","","","","","","","",""
"pit-trial","71","563233","0.0-2.0-14.2-2.2","battery-v0.2","","""event"",""trial"",""time""
""fullscreenenter"",""1"",""2523""
","
","
","""event"",""trial"",""time""
""fullscreenenter"",""1"",""2523""
","
","","","-1","","","19","11017","4010","&#9826;","elianto","#f73b6a7A","-1","-1","1","0","[]","0","0","3","","","","","","","",""
"pit-trial","72","568088","0.0-2.0-14.2-3.2","battery-v0.2","","""event"",""trial"",""time""
""fullscreenenter"",""1"",""2523""
","
","
","""event"",""trial"",""time""
""fullscreenenter"",""1"",""2523""
","
","","","-1","","","19","11017","4010","&#9826;","elianto","#f73b6a7A","-1","-1","1","-10","[]","0","0","3","","","","","","","",""
"pit-trial","73","572942","0.0-2.0-14.2-4.2","battery-v0.2","","""event"",""trial"",""time""
""fullscreenenter"",""1"",""2523""
","
","
","""event"",""trial"",""time""
""fullscreenenter"",""1"",""2523""
","
","","","-1","","","19","11017","4010","&#9826;","elianto","#f73b6a7A","-1","-1","1","0","[]","0","0","3","","","","","","","",""
"pit-trial","74","577798","0.0-2.0-14.3-0.3","battery-v0.2","","""event"",""trial"",""time""
""fullscreenenter"",""1"",""2523""
","
","
","""event"",""trial"",""time""
""fullscreenenter"",""1"",""2523""
","
","","","-1","","","19","11017","4010","&#9826;","elianto","#f73b6a7A","-1","-1","1","0","[]","0","0","3","","","","","","","",""
"pit-trial","75","582653","0.0-2.0-14.3-1.3","battery-v0.2","","""event"",""trial"",""time""
""fullscreenenter"",""1"",""2523""
","
","
","""event"",""trial"",""time""
""fullscreenenter"",""1"",""2523""
","
","","","-1","","","19","11017","4010","&#9826;","elianto","#f73b6a7A","-1","-1","1","0","[]","0","0","3","","","","","","","",""
"pit-trial","76","587509","0.0-2.0-14.3-2.3","battery-v0.2","","""event"",""trial"",""time""
""fullscreenenter"",""1"",""2523""
","
","
","""event"",""trial"",""time""
""fullscreenenter"",""1"",""2523""
","
","","","-1","","","19","11017","4010","&#9826;","elianto","#f73b6a7A","-1","-1","1","0","[]","0","0","3","","","","","","","",""
"pit-trial","77","592364","0.0-2.0-14.3-3.3","battery-v0.2","","""event"",""trial"",""time""
""fullscreenenter"",""1"",""2523""
","
","
","""event"",""trial"",""time""
""fullscreenenter"",""1"",""2523""
","
","","","-1","","","19","11017","4010","&#9826;","elianto","#f73b6a7A","-1","-1","1","-10","[]","0","0","3","","","","","","","",""
"pit-trial","78","597219","0.0-2.0-14.3-4.3","battery-v0.2","","""event"",""trial"",""time""
""fullscreenenter"",""1"",""2523""
","
","
","""event"",""trial"",""time""
""fullscreenenter"",""1"",""2523""
","
","","","-1","","","19","11017","4010","&#9826;","elianto","#f73b6a7A","-1","-1","1","0","[]","0","0","3","","","","","","","",""
"call-function","79","597222","0.0-2.0-15.0","battery-v0.2","","""event"",""trial"",""time""
""fullscreenenter"",""1"",""2523""
","
","
","""event"",""trial"",""time""
""fullscreenenter"",""1"",""2523""
","
","","","","","","","","","","","","","","","","","","","","","","","","","","",""
"pit-instructions","80","621786","0.0-2.0-16.0","battery-v0.2","","""event"",""trial"",""time""
""fullscreenenter"",""1"",""2523""
","
","
","""event"",""trial"",""time""
""fullscreenenter"",""1"",""2523""
","
","","[{""page_index"":0,""viewing_time"":6620},{""page_index"":1,""viewing_time"":8165},{""page_index"":2,""viewing_time"":4541},{""page_index"":3,""viewing_time"":5236}]","24563","","","","","","","","","","","","","","","","","","","","","","","",""
"pit-trial","81","625021","0.0-2.0-17.0-0.0","battery-v0.2","","""event"",""trial"",""time""
""fullscreenenter"",""1"",""2523""
","
","
","""event"",""trial"",""time""
""fullscreenenter"",""1"",""2523""
","
","","","380","","","19","11017","4010","&#9789;","elianto","#f73b6a7A"," "," ","1","0","[1230,1406,1548]","3","0","4","","","","","","","",""
"pit-trial","82","628025","0.0-2.0-17.0-1.0","battery-v0.2","","""event"",""trial"",""time""
""fullscreenenter"",""1"",""2523""
","
","
","""event"",""trial"",""time""
""fullscreenenter"",""1"",""2523""
","
","","","147","","","19","11017","4010","&#9789;","elianto","#f73b6a7A"," "," ","1","0","[568,804,998,1129.0000000001164,1243,1632,1866]","7","0","4","","","","","","","",""
"pit-trial","83","630925","0.0-2.0-17.0-2.0","battery-v0.2","","""event"",""trial"",""time""
""fullscreenenter"",""1"",""2523""
","
","
","""event"",""trial"",""time""
""fullscreenenter"",""1"",""2523""
","
","","","46","","","19","11017","4010","&#9789;","elianto","#f73b6a7A"," "," ","1","0","[895.9999999998836,1079.9999999998836,1351.9999999998836]","3","0","4","","","","","","","",""
"pit-trial","84","633879","0.0-2.0-17.0-3.0","battery-v0.2","","""event"",""trial"",""time""
""fullscreenenter"",""1"",""2523""
","
","
","""event"",""trial"",""time""
""fullscreenenter"",""1"",""2523""
","
","","","98.99999999988358","","","19","11017","4010","&#9789;","elianto","#f73b6a7A"," "," ","1","-10","[949,1282]","2","0","4","","","","","","","",""
"pit-trial","85","636765","0.0-2.0-17.0-4.0","battery-v0.2","","""event"",""trial"",""time""
""fullscreenenter"",""1"",""2523""
","
","
","""event"",""trial"",""time""
""fullscreenenter"",""1"",""2523""
","
","","","31","","","19","11017","4010","&#9789;","elianto","#f73b6a7A"," "," ","1","0","[881,1100]","2","0","4","","","","","","","",""
"pit-trial","86","639831","0.0-2.0-17.1-0.1","battery-v0.2","","""event"",""trial"",""time""
""fullscreenenter"",""1"",""2523""
","
","
","""event"",""trial"",""time""
""fullscreenenter"",""1"",""2523""
","
","","","210","","","19","11017","4010","&#9789;","elianto","#f73b6a7A"," "," ","1","0","[1061,1343]","2","0","4","","","","","","","",""
"pit-trial","87","642798","0.0-2.0-17.1-1.1","battery-v0.2","","""event"",""trial"",""time""
""fullscreenenter"",""1"",""2523""
","
","
","""event"",""trial"",""time""
""fullscreenenter"",""1"",""2523""
","
","","","111","","","19","11017","4010","&#9789;","elianto","#f73b6a7A"," "," ","1","0","[962,1208]","2","0","4","","","","","","","",""
"pit-trial","88","645686","0.0-2.0-17.1-2.1","battery-v0.2","","""event"",""trial"",""time""
""fullscreenenter"",""1"",""2523""
","
","
","""event"",""trial"",""time""
""fullscreenenter"",""1"",""2523""
","
","","","33","","","19","11017","4010","&#9789;","elianto","#f73b6a7A"," "," ","1","0","[567,883,1099]","3","0","4","","","","","","","",""
"pit-trial","89","648679","0.0-2.0-17.1-3.1","battery-v0.2","","""event"",""trial"",""time""
""fullscreenenter"",""1"",""2523""
","
","
","""event"",""trial"",""time""
""fullscreenenter"",""1"",""2523""
","
","","","139.00000000011642","","","19","11017","4010","&#9789;","elianto","#f73b6a7A"," "," ","1","-10","[989.0000000001164]","1","0","4","","","","","","","",""
"pit-trial","90","651696","0.0-2.0-17.1-4.1","battery-v0.2","","""event"",""trial"",""time""
""fullscreenenter"",""1"",""2523""
","
","
","""event"",""trial"",""time""
""fullscreenenter"",""1"",""2523""
","
","","","162","","","19","11017","4010","&#9789;","elianto","#f73b6a7A"," "," ","1","0","[1012]","1","0","4","","","","","","","",""
"pit-trial","91","654682","0.0-2.0-17.2-0.2","battery-v0.2","","""event"",""trial"",""time""
""fullscreenenter"",""1"",""2523""
","
","
","""event"",""trial"",""time""
""fullscreenenter"",""1"",""2523""
","
","","","132","","","19","11017","4010","&#9789;","elianto","#f73b6a7A"," "," ","1","0","[983]","1","0","4","","","","","","","",""
"pit-trial","92","657672","0.0-2.0-17.2-1.2","battery-v0.2","","""event"",""trial"",""time""
""fullscreenenter"",""1"",""2523""
","
","
","""event"",""trial"",""time""
""fullscreenenter"",""1"",""2523""
","
","","","135","","","19","11017","4010","&#9789;","elianto","#f73b6a7A"," "," ","1","0","[985]","1","0","4","","","","","","","",""
"pit-trial","93","660727","0.0-2.0-17.2-2.2","battery-v0.2","","""event"",""trial"",""time""
""fullscreenenter"",""1"",""2523""
","
","
","""event"",""trial"",""time""
""fullscreenenter"",""1"",""2523""
","
","","","199","","","19","11017","4010","&#9789;","elianto","#f73b6a7A"," "," ","1","0","[1050]","1","0","4","","","","","","","",""
"pit-trial","94","663778","0.0-2.0-17.2-3.2","battery-v0.2","","""event"",""trial"",""time""
""fullscreenenter"",""1"",""2523""
","
","
","""event"",""trial"",""time""
""fullscreenenter"",""1"",""2523""
","
","","","196","","","19","11017","4010","&#9789;","elianto","#f73b6a7A"," "," ","1","-10","[1046]","1","0","4","","","","","","","",""
"pit-trial","95","666799","0.0-2.0-17.2-4.2","battery-v0.2","","""event"",""trial"",""time""
""fullscreenenter"",""1"",""2523""
","
","
","""event"",""trial"",""time""
""fullscreenenter"",""1"",""2523""
","
","","","165","","","19","11017","4010","&#9789;","elianto","#f73b6a7A"," "," ","1","0","[1016]","1","0","4","","","","","","","",""
"pit-trial","96","669807","0.0-2.0-17.3-0.3","battery-v0.2","","""event"",""trial"",""time""
""fullscreenenter"",""1"",""2523""
","
","
","""event"",""trial"",""time""
""fullscreenenter"",""1"",""2523""
","
","","","153","","","19","11017","4010","&#9789;","elianto","#f73b6a7A"," "," ","1","0","[1003]","1","0","4","","","","","","","",""
"pit-trial","97","672852","0.0-2.0-17.3-1.3","battery-v0.2","","""event"",""trial"",""time""
""fullscreenenter"",""1"",""2523""
","
","
","""event"",""trial"",""time""
""fullscreenenter"",""1"",""2523""
","
","","","190","","","19","11017","4010","&#9789;","elianto","#f73b6a7A"," "," ","1","0","[1041]","1","0","4","","","","","","","",""
"pit-trial","98","675919","0.0-2.0-17.3-2.3","battery-v0.2","","""event"",""trial"",""time""
""fullscreenenter"",""1"",""2523""
","
","
","""event"",""trial"",""time""
""fullscreenenter"",""1"",""2523""
","
","","","210","","","19","11017","4010","&#9789;","elianto","#f73b6a7A"," "," ","1","0","[1061]","1","0","4","","","","","","","",""
"pit-trial","99","680774","0.0-2.0-17.3-3.3","battery-v0.2","","""event"",""trial"",""time""
""fullscreenenter"",""1"",""2523""
","
","
","""event"",""trial"",""time""
""fullscreenenter"",""1"",""2523""
","
","","","-1","","","19","11017","4010","&#9789;","elianto","#f73b6a7A"," ","-1","0","0","[]","0","0","4","","","","","","","",""
"pit-trial","100","683898","0.0-2.0-17.3-4.3","battery-v0.2","","""event"",""trial"",""time""
""fullscreenenter"",""1"",""2523""
","
","
","""event"",""trial"",""time""
""fullscreenenter"",""1"",""2523""
","
","","","269","","","19","11017","4010","&#9789;","elianto","#f73b6a7A"," "," ","1","0","[1119]","1","0","4","","","","","","","",""
"call-function","101","683901","0.0-2.0-18.0","battery-v0.2","","""event"",""trial"",""time""
""fullscreenenter"",""1"",""2523""
","
","
","""event"",""trial"",""time""
""fullscreenenter"",""1"",""2523""
","
","","","","","","","","","","","","","","","","","","","","","","","","","","",""
"pit-instructions","102","745620","0.0-2.0-19.0","battery-v0.2","","""event"",""trial"",""time""
""fullscreenenter"",""1"",""2523""
","
","
","""event"",""trial"",""time""
""fullscreenenter"",""1"",""2523""
","
","","[{""page_index"":0,""viewing_time"":6121},{""page_index"":1,""viewing_time"":4033},{""page_index"":2,""viewing_time"":10017},{""page_index"":3,""viewing_time"":7614},{""page_index"":4,""viewing_time"":7256},{""page_index"":5,""viewing_time"":9300},{""page_index"":6,""viewing_time"":7478},{""page_index"":7,""viewing_time"":5650},{""page_index"":8,""viewing_time"":4246}]","61716","","","","","","","","","","","","","","","","","","","","","","","",""
"pit-comprehension","103","750124","0.0-2.0-20.0-0.0","battery-v0.2","","""event"",""trial"",""time""
""fullscreenenter"",""1"",""2523""
","
","
","""event"",""trial"",""time""
""fullscreenenter"",""1"",""2523""
","
","","","4498","[""SPACE""]","0","19","11017","4010","","","","","","","","","","","","","","","","","","",""
"pit-instructions","104","752836","0.0-2.0-20.0-1.0","battery-v0.2","","""event"",""trial"",""time""
""fullscreenenter"",""1"",""2523""
","
","
","""event"",""trial"",""time""
""fullscreenenter"",""1"",""2523""
","
","","[{""page_index"":0,""viewing_time"":2671.9999999998836}]","2673","","","","","","","","","","","","","","","","","","","","","","","",""
"pit-comprehension","105","758072","0.0-2.0-21.0-0.0","battery-v0.2","","""event"",""trial"",""time""
""fullscreenenter"",""1"",""2523""
","
","
","""event"",""trial"",""time""
""fullscreenenter"",""1"",""2523""
","
","","","5229","[""10""]","0","19","11017","4010","","","","","","","","","","","","","","","","","","",""
"pit-instructions","106","760179","0.0-2.0-21.0-1.0","battery-v0.2","","""event"",""trial"",""time""
""fullscreenenter"",""1"",""2523""
","
","
","""event"",""trial"",""time""
""fullscreenenter"",""1"",""2523""
","
","","[{""page_index"":0,""viewing_time"":2067}]","2067","","","","","","","","","","","","","","","","","","","","","","","",""
"pit-comprehension","107","766732","0.0-2.0-22.0-0.0","battery-v0.2","","""event"",""trial"",""time""
""fullscreenenter"",""1"",""2523""
","
","
","""event"",""trial"",""time""
""fullscreenenter"",""1"",""2523""
","
","","","6547","[""0""]","0","19","11017","4010","","","","","","","","","","","","","","","","","","",""
"pit-instructions","108","768436","0.0-2.0-22.0-1.0","battery-v0.2","","""event"",""trial"",""time""
""fullscreenenter"",""1"",""2523""
","
","
","""event"",""trial"",""time""
""fullscreenenter"",""1"",""2523""
","
","","[{""page_index"":0,""viewing_time"":1666}]","1667","","","","","","","","","","","","","","","","","","","","","","","",""
"pit-comprehension","109","777101","0.0-2.0-23.0-0.0","battery-v0.2","","""event"",""trial"",""time""
""fullscreenenter"",""1"",""2523""
","
","
","""event"",""trial"",""time""
""fullscreenenter"",""1"",""2523""
","
","","","8658.000000000116","[""True""]","0","19","11017","4010","","","","","","","","","","","","","","","","","","",""
"pit-instructions","110","779188","0.0-2.0-23.0-1.0","battery-v0.2","","""event"",""trial"",""time""
""fullscreenenter"",""1"",""2523""
","
","
","""event"",""trial"",""time""
""fullscreenenter"",""1"",""2523""
","
","","[{""page_index"":0,""viewing_time"":2051.0000000001164}]","2051.0000000001164","","","","","","","","","","","","","","","","","","","","","","","",""
"pit-comprehension","111","786615","0.0-2.0-24.0-0.0","battery-v0.2","","""event"",""trial"",""time""
""fullscreenenter"",""1"",""2523""
","
","
","""event"",""trial"",""time""
""fullscreenenter"",""1"",""2523""
","
","","","7422","[""True""]","0","19","11017","4010","","","","","","","","","","","","","","","","","","",""
"pit-instructions","112","789121","0.0-2.0-24.0-1.0","battery-v0.2","","""event"",""trial"",""time""
""fullscreenenter"",""1"",""2523""
","
","
","""event"",""trial"",""time""
""fullscreenenter"",""1"",""2523""
","
","","[{""page_index"":0,""viewing_time"":2465}]","2466","","","","","","","","","","","","","","","","","","","","","","","",""
"pit-comprehension","113","795509","0.0-2.0-25.0-0.0","battery-v0.2","","""event"",""trial"",""time""
""fullscreenenter"",""1"",""2523""
","
","
","""event"",""trial"",""time""
""fullscreenenter"",""1"",""2523""
","
","","","6379","[""True""]","0","19","11017","4010","","","","","","","","","","","","","","","","","","",""
"pit-instructions","114","797384","0.0-2.0-25.0-1.0","battery-v0.2","","""event"",""trial"",""time""
""fullscreenenter"",""1"",""2523""
","
","
","""event"",""trial"",""time""
""fullscreenenter"",""1"",""2523""
","
","","[{""page_index"":0,""viewing_time"":1838}]","1839","","","","","","","","","","","","","","","","","","","","","","","",""
"pit-comprehension","115","802151","0.0-2.0-26.0-0.0","battery-v0.2","","""event"",""trial"",""time""
""fullscreenenter"",""1"",""2523""
","
","
","""event"",""trial"",""time""
""fullscreenenter"",""1"",""2523""
","
","","","4759.999999999884","[""False""]","0","19","11017","4010","","","","","","","","","","","","","","","","","","",""
"pit-instructions","116","804600","0.0-2.0-26.0-1.0","battery-v0.2","","""event"",""trial"",""time""
""fullscreenenter"",""1"",""2523""
","
","
","""event"",""trial"",""time""
""fullscreenenter"",""1"",""2523""
","
","","[{""page_index"":0,""viewing_time"":2410.9999999998836}]","2410.9999999998836","","","","","","","","","","","","","","","","","","","","","","","",""
"pit-instructions","117","820639","0.0-3.0","battery-v0.2","","""event"",""trial"",""time""
""fullscreenenter"",""1"",""2523""
","
","
","""event"",""trial"",""time""
""fullscreenenter"",""1"",""2523""
","
","","[{""page_index"":0,""viewing_time"":4004},{""page_index"":1,""viewing_time"":5193},{""page_index"":2,""viewing_time"":6835}]","16032","","","","","","","","","","","","","","","","","","","","","","","",""
"pit-trial","118","824128","0.0-4.0","battery-v0.2","","""event"",""trial"",""time""
""fullscreenenter"",""1"",""2523""
","
","
","""event"",""trial"",""time""
""fullscreenenter"",""1"",""2523""
","
","","","625.9999999998836","","","19","11017","4010","&#9730;","elianto","#3366ff99"," "," ","1","0","[1479]","1","1","","","11017","1","1","1","win","go","1"
"pit-trial","119","827656","0.0-5.0","battery-v0.2","","""event"",""trial"",""time""
""fullscreenenter"",""1"",""2523""
","
","
","""event"",""trial"",""time""
""fullscreenenter"",""1"",""2523""
","
","","","671.0000000001164","","","19","11017","4010","&#9728;","elianto","#f73b6a7A","-1"," ","0","-10","[1521.0000000001164]","1","1","","","11017","2","0","4","lose","no-go","0"
"pit-trial","120","831610","0.0-6.0","battery-v0.2","","""event"",""trial"",""time""
""fullscreenenter"",""1"",""2523""
","
","
","""event"",""trial"",""time""
""fullscreenenter"",""1"",""2523""
","
","","","1097","","","19","11017","4010","&#9752;","elianto","#f73b6a7A"," "," ","1","0","[1948]","1","1","","","11017","3","3","3","lose","go","0"
"pit-trial","121","834996","0.0-7.0","battery-v0.2","","""event"",""trial"",""time""
""fullscreenenter"",""1"",""2523""
","
","
","""event"",""trial"",""time""
""fullscreenenter"",""1"",""2523""
","
","","","529","","","19","11017","4010","&#9733;","elianto","#3366ff99","-1"," ","0","0","[1380]","1","1","","","11017","4","2","2","win","no-go","0"
"pit-trial","122","839855","0.0-8.0","battery-v0.2","","""event"",""trial"",""time""
""fullscreenenter"",""1"",""2523""
","
","
","""event"",""trial"",""time""
""fullscreenenter"",""1"",""2523""
","
","","","-1","","","19","11017","4010","&#9733;","elianto","#3366ff99","-1","-1","1","0","[]","0","1","","","11017","5","2","2","win","no-go","1"
"pit-trial","123","844712","0.0-9.0","battery-v0.2","","""event"",""trial"",""time""
""fullscreenenter"",""1"",""2523""
","
","
","""event"",""trial"",""time""
""fullscreenenter"",""1"",""2523""
","
","","","-1","","","19","11017","4010","&#9752;","elianto","#f73b6a7A"," ","-1","0","-10","[]","0","1","","","11017","6","3","3","lose","go","0"
"pit-trial","124","849569","0.0-10.0","battery-v0.2","","""event"",""trial"",""time""
""fullscreenenter"",""1"",""2523""
","
","
","""event"",""trial"",""time""
""fullscreenenter"",""1"",""2523""
","
","","","-1","","","19","11017","4010","&#9730;","elianto","#3366ff99"," ","-1","0","0","[]","0","1","","","11017","7","1","1","win","go","0"
"pit-trial","125","854429","0.0-11.0","battery-v0.2","","""event"",""trial"",""time""
""fullscreenenter"",""1"",""2523""
","
","
","""event"",""trial"",""time""
""fullscreenenter"",""1"",""2523""
","
","","","-1","","","19","11017","4010","&#9728;","elianto","#f73b6a7A","-1","-1","1","0","[]","0","1","","","11017","8","0","4","lose","no-go","0"
"pit-trial","126","858143","0.0-12.0","battery-v0.2","","""event"",""trial"",""time""
""fullscreenenter"",""1"",""2523""
","
","
","""event"",""trial"",""time""
""fullscreenenter"",""1"",""2523""
","
","","","857.0000000001164","","","19","11017","4010","&#9730;","elianto","#3366ff99"," "," ","1","+10","[1707]","1","1","","","11017","9","1","1","win","go","0"
"pit-trial","127","862999","0.0-13.0","battery-v0.2","","""event"",""trial"",""time""
""fullscreenenter"",""1"",""2523""
","
","
","""event"",""trial"",""time""
""fullscreenenter"",""1"",""2523""
","
","","","-1","","","19","11017","4010","&#9728;","elianto","#f73b6a7A","-1","-1","1","-10","[]","0","1","","","11017","10","0","4","lose","no-go","1"
"pit-trial","128","867056","0.0-14.0","battery-v0.2","","""event"",""trial"",""time""
""fullscreenenter"",""1"",""2523""
","
","
","""event"",""trial"",""time""
""fullscreenenter"",""1"",""2523""
","
","","","1199","","","19","11017","4010","&#9733;","elianto","#3366ff99","-1"," ","0","0","[2050]","1","1","","","11017","11","2","2","win","no-go","0"
"pit-trial","129","870554","0.0-15.0","battery-v0.2","","""event"",""trial"",""time""
""fullscreenenter"",""1"",""2523""
","
","
","""event"",""trial"",""time""
""fullscreenenter"",""1"",""2523""
","
","","","641.9999999998836","","","19","11017","4010","&#9752;","elianto","#f73b6a7A"," "," ","1","-10","[1491.9999999998836]","1","1","","","11017","12","3","3","lose","go","1"
"pit-trial","130","874114","0.0-16.0","battery-v0.2","","""event"",""trial"",""time""
""fullscreenenter"",""1"",""2523""
","
","
","""event"",""trial"",""time""
""fullscreenenter"",""1"",""2523""
","
","","","704.0000000001164","","","19","11017","4010","&#9733;","elianto","#3366ff99","-1"," ","0","0","[1555.0000000001164]","1","1","","","11017","13","2","2","win","no-go","0"
"pit-trial","131","878971","0.0-17.0","battery-v0.2","","""event"",""trial"",""time""
""fullscreenenter"",""1"",""2523""
","
","
","""event"",""trial"",""time""
""fullscreenenter"",""1"",""2523""
","
","","","-1","","","19","11017","4010","&#9728;","elianto","#f73b6a7A","-1","-1","1","0","[]","0","1","","","11017","14","0","4","lose","no-go","0"
"pit-trial","132","882355","0.0-18.0","battery-v0.2","","""event"",""trial"",""time""
""fullscreenenter"",""1"",""2523""
","
","
","""event"",""trial"",""time""
""fullscreenenter"",""1"",""2523""
","
","","","527.0000000001164","","","19","11017","4010","&#9730;","elianto","#3366ff99"," "," ","1","+10","[1378.0000000001164]","1","1","","","11017","15","1","1","win","go","0"
"pit-trial","133","886393","0.0-19.0","battery-v0.2","","""event"",""trial"",""time""
""fullscreenenter"",""1"",""2523""
","
","
","""event"",""trial"",""time""
""fullscreenenter"",""1"",""2523""
","
","","","1182.0000000001164","","","19","11017","4010","&#9752;","elianto","#f73b6a7A"," "," ","1","0","[2033.0000000001164]","1","1","","","11017","16","3","3","lose","go","0"
"pit-trial","134","890480","0.0-20.0","battery-v0.2","","""event"",""trial"",""time""
""fullscreenenter"",""1"",""2523""
","
","
","""event"",""trial"",""time""
""fullscreenenter"",""1"",""2523""
","
","","","1230.0000000001164","","","19","11017","4010","&#9752;","elianto","#f73b6a7A"," "," ","1","-10","[2080.0000000001164]","1","1","","","11017","17","3","3","lose","go","1"
"pit-trial","135","894105","0.0-21.0","battery-v0.2","","""event"",""trial"",""time""
""fullscreenenter"",""1"",""2523""
","
","
","""event"",""trial"",""time""
""fullscreenenter"",""1"",""2523""
","
","","","769.9999999998836","","","19","11017","4010","&#9730;","elianto","#3366ff99"," "," ","1","0","[1619.0000000001164]","1","1","","","11017","18","1","1","win","go","1"
"pit-trial","136","897510","0.0-22.0","battery-v0.2","","""event"",""trial"",""time""
""fullscreenenter"",""1"",""2523""
","
","
","""event"",""trial"",""time""
""fullscreenenter"",""1"",""2523""
","
","","","547.0000000001164","","","19","11017","4010","&#9733;","elianto","#3366ff99","-1"," ","0","0","[1397.0000000001164]","1","1","","","11017","19","2","2","win","no-go","0"
"pit-trial","137","902367","0.0-23.0","battery-v0.2","","""event"",""trial"",""time""
""fullscreenenter"",""1"",""2523""
","
","
","""event"",""trial"",""time""
""fullscreenenter"",""1"",""2523""
","
","","","-1","","","19","11017","4010","&#9728;","elianto","#f73b6a7A","-1","-1","1","0","[]","0","1","","","11017","20","0","4","lose","no-go","0"
"pit-instructions","138","914408","0.0-24.0","battery-v0.2","","""event"",""trial"",""time""
""fullscreenenter"",""1"",""2523""
","
","
","""event"",""trial"",""time""
""fullscreenenter"",""1"",""2523""
","
","","[{""page_index"":0,""viewing_time"":5528},{""page_index"":1,""viewing_time"":6507}]","12036.000000000116","","","","","","","","","","","","","","","","","","","","","","","",""
"pit-trial","139","918153","0.0-25.0","battery-v0.2","","""event"",""trial"",""time""
""fullscreenenter"",""1"",""2523""
","
","
","""event"",""trial"",""time""
""fullscreenenter"",""1"",""2523""
","
","","","886","","","19","11017","4010","r","elianto","#3366ff99"," "," ","1","0","[1736]","1","2","","","11017","21","1","1","win","go","1"
"pit-trial","140","923010","0.0-26.0","battery-v0.2","","""event"",""trial"",""time""
""fullscreenenter"",""1"",""2523""
","
","
","""event"",""trial"",""time""
""fullscreenenter"",""1"",""2523""
","
","","","-1","","","19","11017","4010","y","elianto","#f73b6a7A","-1","-1","1","0","[]","0","2","","","11017","22","2","4","lose","no-go","0"
"pit-trial","141","927683","0.0-27.0","battery-v0.2","","""event"",""trial"",""time""
""fullscreenenter"",""1"",""2523""
","
","
","""event"",""trial"",""time""
""fullscreenenter"",""1"",""2523""
","
","","","1816.0000000001164","","","19","11017","4010","m","elianto","#f73b6a7A","-1"," ","0","0","[2666.0000000001164]","1","2","","","11017","23","0","4","lose","no-go","1"
"pit-trial","142","931643","0.0-28.0","battery-v0.2","","""event"",""trial"",""time""
""fullscreenenter"",""1"",""2523""
","
","
","""event"",""trial"",""time""
""fullscreenenter"",""1"",""2523""
","
","","","1103.9999999998836","","","19","11017","4010","h","elianto","#f73b6a7A"," "," ","1","0","[1954]","1","2","","","11017","24","3","3","lose","go","0"
"pit-trial","143","936499","0.0-29.0","battery-v0.2","","""event"",""trial"",""time""
""fullscreenenter"",""1"",""2523""
","
","
","""event"",""trial"",""time""
""fullscreenenter"",""1"",""2523""
","
","","","-1","","","19","11017","4010","y","elianto","#f73b6a7A","-1","-1","1","0","[]","0","2","","","11017","25","2","4","lose","no-go","0"
"pit-trial","144","939997","0.0-30.0","battery-v0.2","","""event"",""trial"",""time""
""fullscreenenter"",""1"",""2523""
","
","
","""event"",""trial"",""time""
""fullscreenenter"",""1"",""2523""
","
","","","641.0000000001164","","","19","11017","4010","r","elianto","#3366ff99"," "," ","1","+10","[1491]","1","2","","","11017","26","1","1","win","go","0"
"pit-trial","145","944853","0.0-31.0","battery-v0.2","","""event"",""trial"",""time""
""fullscreenenter"",""1"",""2523""
","
","
","""event"",""trial"",""time""
""fullscreenenter"",""1"",""2523""
","
","","","-1","","","19","11017","4010","h","elianto","#f73b6a7A"," ","-1","0","0","[]","0","2","","","11017","27","3","3","lose","go","1"
"pit-trial","146","949710","0.0-32.0","battery-v0.2","","""event"",""trial"",""time""
""fullscreenenter"",""1"",""2523""
","
","
","""event"",""trial"",""time""
""fullscreenenter"",""1"",""2523""
","
","","","-1","","","19","11017","4010","m","elianto","#f73b6a7A","-1","-1","1","0","[]","0","2","","","11017","28","0","4","lose","no-go","0"
"pit-trial","147","954567","0.0-33.0","battery-v0.2","","""event"",""trial"",""time""
""fullscreenenter"",""1"",""2523""
","
","
","""event"",""trial"",""time""
""fullscreenenter"",""1"",""2523""
","
","","","-1","","","19","11017","4010","y","elianto","#f73b6a7A","-1","-1","1","0","[]","0","2","","","11017","29","2","4","lose","no-go","0"
"pit-trial","148","959424","0.0-34.0","battery-v0.2","","""event"",""trial"",""time""
""fullscreenenter"",""1"",""2523""
","
","
","""event"",""trial"",""time""
""fullscreenenter"",""1"",""2523""
","
","","","-1","","","19","11017","4010","m","elianto","#f73b6a7A","-1","-1","1","0","[]","0","2","","","11017","30","0","4","lose","no-go","0"
"pit-trial","149","964280","0.0-35.0","battery-v0.2","","""event"",""trial"",""time""
""fullscreenenter"",""1"",""2523""
","
","
","""event"",""trial"",""time""
""fullscreenenter"",""1"",""2523""
","
","","","-1","","","19","11017","4010","h","elianto","#f73b6a7A"," ","-1","0","-10","[]","0","2","","","11017","31","3","3","lose","go","0"
"pit-trial","150","967854","0.0-36.0","battery-v0.2","","""event"",""trial"",""time""
""fullscreenenter"",""1"",""2523""
","
","
","""event"",""trial"",""time""
""fullscreenenter"",""1"",""2523""
","
","","","717","","","19","11017","4010","r","elianto","#3366ff99"," "," ","1","+10","[1568]","1","2","","","11017","32","1","1","win","go","0"
"pit-trial","151","971426","0.0-37.0","battery-v0.2","","""event"",""trial"",""time""
""fullscreenenter"",""1"",""2523""
","
","
","""event"",""trial"",""time""
""fullscreenenter"",""1"",""2523""
","
","","","716","","","19","11017","4010","h","elianto","#f73b6a7A"," "," ","1","-10","[1566]","1","2","","","11017","33","3","3","lose","go","1"
"pit-trial","152","974968","0.0-38.0","battery-v0.2","","""event"",""trial"",""time""
""fullscreenenter"",""1"",""2523""
","
","
","""event"",""trial"",""time""
""fullscreenenter"",""1"",""2523""
","
","","","685","","","19","11017","4010","r","elianto","#3366ff99"," "," ","1","+10","[1535]","1","2","","","11017","34","1","1","win","go","0"
"pit-trial","153","979825","0.0-39.0","battery-v0.2","","""event"",""trial"",""time""
""fullscreenenter"",""1"",""2523""
","
","
","""event"",""trial"",""time""
""fullscreenenter"",""1"",""2523""
","
","","","-1","","","19","11017","4010","y","elianto","#f73b6a7A","-1","-1","1","0","[]","0","2","","","11017","35","2","4","lose","no-go","0"
"pit-trial","154","984681","0.0-40.0","battery-v0.2","","""event"",""trial"",""time""
""fullscreenenter"",""1"",""2523""
","
","
","""event"",""trial"",""time""
""fullscreenenter"",""1"",""2523""
","
","","","-1","","","19","11017","4010","m","elianto","#f73b6a7A","-1","-1","1","0","[]","0","2","","","11017","36","0","4","lose","no-go","0"
"pit-trial","155","989537","0.0-41.0","battery-v0.2","","""event"",""trial"",""time""
""fullscreenenter"",""1"",""2523""
","
","
","""event"",""trial"",""time""
""fullscreenenter"",""1"",""2523""
","
","","","-1","","","19","11017","4010","y","elianto","#f73b6a7A","-1","-1","1","0","[]","0","2","","","11017","37","2","4","lose","no-go","0"
"pit-trial","156","992876","0.0-42.0","battery-v0.2","","""event"",""trial"",""time""
""fullscreenenter"",""1"",""2523""
","
","
","""event"",""trial"",""time""
""fullscreenenter"",""1"",""2523""
","
","","","480","","","19","11017","4010","r","elianto","#3366ff99"," "," ","1","+10","[1331]","1","2","","","11017","38","1","1","win","go","0"
"pit-trial","157","997732","0.0-43.0","battery-v0.2","","""event"",""trial"",""time""
""fullscreenenter"",""1"",""2523""
","
","
","""event"",""trial"",""time""
""fullscreenenter"",""1"",""2523""
","
","","","-1","","","19","11017","4010","m","elianto","#f73b6a7A","-1","-1","1","0","[]","0","2","","","11017","39","0","4","lose","no-go","0"
"pit-trial","158","1002588","0.0-44.0","battery-v0.2","","""event"",""trial"",""time""
""fullscreenenter"",""1"",""2523""
","
","
","""event"",""trial"",""time""
""fullscreenenter"",""1"",""2523""
","
","","","-1","","","19","11017","4010","h","elianto","#f73b6a7A"," ","-1","0","-10","[]","0","2","","","11017","40","3","3","lose","go","0"
"pit-trial","159","1007445","0.0-45.0","battery-v0.2","","""event"",""trial"",""time""
""fullscreenenter"",""1"",""2523""
","
","
","""event"",""trial"",""time""
""fullscreenenter"",""1"",""2523""
","
","","","-1","","","19","11017","4010","y","elianto","#f73b6a7A","-1","-1","1","0","[]","0","2","","","11017","41","2","4","lose","no-go","0"
"pit-trial","160","1012302","0.0-46.0","battery-v0.2","","""event"",""trial"",""time""
""fullscreenenter"",""1"",""2523""
","
","
","""event"",""trial"",""time""
""fullscreenenter"",""1"",""2523""
","
","","","-1","","","19","11017","4010","h","elianto","#f73b6a7A"," ","-1","0","-10","[]","0","2","","","11017","42","3","3","lose","go","0"
"pit-trial","161","1017159","0.0-47.0","battery-v0.2","","""event"",""trial"",""time""
""fullscreenenter"",""1"",""2523""
","
","
","""event"",""trial"",""time""
""fullscreenenter"",""1"",""2523""
","
","","","-1","","","19","11017","4010","m","elianto","#f73b6a7A","-1","-1","1","0","[]","0","2","","","11017","43","0","4","lose","no-go","0"
"pit-trial","162","1020796","0.0-48.0","battery-v0.2","","""event"",""trial"",""time""
""fullscreenenter"",""1"",""2523""
","
","
","""event"",""trial"",""time""
""fullscreenenter"",""1"",""2523""
","
","","","781","","","19","11017","4010","r","elianto","#3366ff99"," "," ","1","0","[1631]","1","2","","","11017","44","1","1","win","go","1"
"pit-trial","163","1025653","0.0-49.0","battery-v0.2","","""event"",""trial"",""time""
""fullscreenenter"",""1"",""2523""
","
","
","""event"",""trial"",""time""
""fullscreenenter"",""1"",""2523""
","
","","","-1","","","19","11017","4010","h","elianto","#f73b6a7A"," ","-1","0","-10","[]","0","2","","","11017","45","3","3","lose","go","0"
"pit-trial","164","1029075","0.0-50.0","battery-v0.2","","""event"",""trial"",""time""
""fullscreenenter"",""1"",""2523""
","
","
","""event"",""trial"",""time""
""fullscreenenter"",""1"",""2523""
","
","","","566.0000000001164","","","19","11017","4010","z","elianto","#3366ff99","-1"," ","0","0","[1416]","1","2","","","11017","46","4","2","win","no-go","0"
"pit-trial","165","1032522","0.0-51.0","battery-v0.2","","""event"",""trial"",""time""
""fullscreenenter"",""1"",""2523""
","
","
","""event"",""trial"",""time""
""fullscreenenter"",""1"",""2523""
","
","","","590.0000000001164","","","19","11017","4010","m","elianto","#f73b6a7A","-1"," ","0","-10","[1440.0000000001164]","1","2","","","11017","47","0","4","lose","no-go","0"
"pit-trial","166","1037379","0.0-52.0","battery-v0.2","","""event"",""trial"",""time""
""fullscreenenter"",""1"",""2523""
","
","
","""event"",""trial"",""time""
""fullscreenenter"",""1"",""2523""
","
","","","-1","","","19","11017","4010","y","elianto","#f73b6a7A","-1","-1","1","0","[]","0","2","","","11017","48","2","4","lose","no-go","0"
"pit-trial","167","1042236","0.0-53.0","battery-v0.2","","""event"",""trial"",""time""
""fullscreenenter"",""1"",""2523""
","
","
","""event"",""trial"",""time""
""fullscreenenter"",""1"",""2523""
","
","","","-1","","","19","11017","4010","m","elianto","#f73b6a7A","-1","-1","1","0","[]","0","2","","","11017","49","0","4","lose","no-go","0"
"pit-trial","168","1045755","0.0-54.0","battery-v0.2","","""event"",""trial"",""time""
""fullscreenenter"",""1"",""2523""
","
","
","""event"",""trial"",""time""
""fullscreenenter"",""1"",""2523""
","
","","","663","","","19","11017","4010","r","elianto","#3366ff99"," "," ","1","+10","[1512.9999999998836]","1","2","","","11017","50","1","1","win","go","0"
"pit-trial","169","1050611","0.0-55.0","battery-v0.2","","""event"",""trial"",""time""
""fullscreenenter"",""1"",""2523""
","
","
","""event"",""trial"",""time""
""fullscreenenter"",""1"",""2523""
","
","","","-1","","","19","11017","4010","z","elianto","#3366ff99","-1","-1","1","+10","[]","0","2","","","11017","51","4","2","win","no-go","0"
"pit-trial","170","1055467","0.0-56.0","battery-v0.2","","""event"",""trial"",""time""
""fullscreenenter"",""1"",""2523""
","
","
","""event"",""trial"",""time""
""fullscreenenter"",""1"",""2523""
","
","","","-1","","","19","11017","4010","h","elianto","#f73b6a7A"," ","-1","0","-10","[]","0","2","","","11017","52","3","3","lose","go","0"
"pit-trial","171","1060324","0.0-57.0","battery-v0.2","","""event"",""trial"",""time""
""fullscreenenter"",""1"",""2523""
","
","
","""event"",""trial"",""time""
""fullscreenenter"",""1"",""2523""
","
","","","-1","","","19","11017","4010","y","elianto","#f73b6a7A","-1","-1","1","0","[]","0","2","","","11017","53","2","4","lose","no-go","0"
"pit-trial","172","1065181","0.0-58.0","battery-v0.2","","""event"",""trial"",""time""
""fullscreenenter"",""1"",""2523""
","
","
","""event"",""trial"",""time""
""fullscreenenter"",""1"",""2523""
","
","","","-1","","","19","11017","4010","m","elianto","#f73b6a7A","-1","-1","1","0","[]","0","2","","","11017","54","0","4","lose","no-go","0"
"pit-trial","173","1070037","0.0-59.0","battery-v0.2","","""event"",""trial"",""time""
""fullscreenenter"",""1"",""2523""
","
","
","""event"",""trial"",""time""
""fullscreenenter"",""1"",""2523""
","
","","","-1","","","19","11017","4010","z","elianto","#3366ff99","-1","-1","1","+10","[]","0","2","","","11017","55","4","2","win","no-go","0"
"pit-trial","174","1073500","0.0-60.0","battery-v0.2","","""event"",""trial"",""time""
""fullscreenenter"",""1"",""2523""
","
","
","""event"",""trial"",""time""
""fullscreenenter"",""1"",""2523""
","
","","","607","","","19","11017","4010","r","elianto","#3366ff99"," "," ","1","+10","[1456]","1","2","","","11017","56","1","1","win","go","0"
"pit-trial","175","1077003","0.0-61.0","battery-v0.2","","""event"",""trial"",""time""
""fullscreenenter"",""1"",""2523""
","
","
","""event"",""trial"",""time""
""fullscreenenter"",""1"",""2523""
","
","","","647","","","19","11017","4010","r","elianto","#3366ff99"," "," ","1","+10","[1497]","1","2","","","11017","57","1","1","win","go","0"
"pit-trial","176","1080625","0.0-62.0","battery-v0.2","","""event"",""trial"",""time""
""fullscreenenter"",""1"",""2523""
","
","
","""event"",""trial"",""time""
""fullscreenenter"",""1"",""2523""
","
","","","764","","","19","11017","4010","h","elianto","#f73b6a7A"," "," ","1","-10","[1615]","1","2","","","11017","58","3","3","lose","go","1"
"pit-trial","177","1085481","0.0-63.0","battery-v0.2","","""event"",""trial"",""time""
""fullscreenenter"",""1"",""2523""
","
","
","""event"",""trial"",""time""
""fullscreenenter"",""1"",""2523""
","
","","","-1","","","19","11017","4010","m","elianto","#f73b6a7A","-1","-1","1","0","[]","0","2","","","11017","59","0","4","lose","no-go","0"
"pit-trial","178","1090338","0.0-64.0","battery-v0.2","","""event"",""trial"",""time""
""fullscreenenter"",""1"",""2523""
","
","
","""event"",""trial"",""time""
""fullscreenenter"",""1"",""2523""
","
","","","-1","","","19","11017","4010","z","elianto","#3366ff99","-1","-1","1","+10","[]","0","2","","","11017","60","4","2","win","no-go","0"
"pit-trial","179","1095194","0.0-65.0","battery-v0.2","","""event"",""trial"",""time""
""fullscreenenter"",""1"",""2523""
","
","
","""event"",""trial"",""time""
""fullscreenenter"",""1"",""2523""
","
","","","-1","","","19","11017","4010","y","elianto","#f73b6a7A","-1","-1","1","0","[]","0","2","","","11017","61","2","4","lose","no-go","0"
"pit-trial","180","1099158","0.0-66.0","battery-v0.2","","""event"",""trial"",""time""
""fullscreenenter"",""1"",""2523""
","
","
","""event"",""trial"",""time""
""fullscreenenter"",""1"",""2523""
","
","","","1106.9999999997672","","","19","11017","4010","h","elianto","#f73b6a7A"," "," ","1","0","[1957]","1","2","","","11017","62","3","3","lose","go","0"
"pit-trial","181","1102631","0.0-67.0","battery-v0.2","","""event"",""trial"",""time""
""fullscreenenter"",""1"",""2523""
","
","
","""event"",""trial"",""time""
""fullscreenenter"",""1"",""2523""
","
","","","616","","","19","11017","4010","r","elianto","#3366ff99"," "," ","1","+10","[1466]","1","2","","","11017","63","1","1","win","go","0"
"pit-trial","182","1107487","0.0-68.0","battery-v0.2","","""event"",""trial"",""time""
""fullscreenenter"",""1"",""2523""
","
","
","""event"",""trial"",""time""
""fullscreenenter"",""1"",""2523""
","
","","","-1","","","19","11017","4010","z","elianto","#3366ff99","-1","-1","1","+10","[]","0","2","","","11017","64","4","2","win","no-go","0"
"pit-trial","183","1112343","0.0-69.0","battery-v0.2","","""event"",""trial"",""time""
""fullscreenenter"",""1"",""2523""
","
","
","""event"",""trial"",""time""
""fullscreenenter"",""1"",""2523""
","
","","","-1","","","19","11017","4010","y","elianto","#f73b6a7A","-1","-1","1","0","[]","0","2","","","11017","65","2","4","lose","no-go","0"
"pit-trial","184","1115922","0.0-70.0","battery-v0.2","","""event"",""trial"",""time""
""fullscreenenter"",""1"",""2523""
","
","
","""event"",""trial"",""time""
""fullscreenenter"",""1"",""2523""
","
","","","722","","","19","11017","4010","r","elianto","#3366ff99"," "," ","1","+10","[1571.9999999997672]","1","2","","","11017","66","1","1","win","go","0"
"pit-trial","185","1120776","0.0-71.0","battery-v0.2","","""event"",""trial"",""time""
""fullscreenenter"",""1"",""2523""
","
","
","""event"",""trial"",""time""
""fullscreenenter"",""1"",""2523""
","
","","","-1","","","19","11017","4010","z","elianto","#3366ff99","-1","-1","1","0","[]","0","2","","","11017","67","4","2","win","no-go","1"
"pit-trial","186","1124455","0.0-72.0","battery-v0.2","","""event"",""trial"",""time""
""fullscreenenter"",""1"",""2523""
","
","
","""event"",""trial"",""time""
""fullscreenenter"",""1"",""2523""
","
","","","828","","","19","11017","4010","h","elianto","#f73b6a7A"," "," ","1","0","[1678]","1","2","","","11017","68","3","3","lose","go","0"
"pit-trial","187","1129308","0.0-73.0","battery-v0.2","","""event"",""trial"",""time""
""fullscreenenter"",""1"",""2523""
","
","
","""event"",""trial"",""time""
""fullscreenenter"",""1"",""2523""
","
","","","-1","","","19","11017","4010","z","elianto","#3366ff99","-1","-1","1","0","[]","0","2","","","11017","69","4","2","win","no-go","1"
"pit-trial","188","1132754","0.0-74.0","battery-v0.2","","""event"",""trial"",""time""
""fullscreenenter"",""1"",""2523""
","
","
","""event"",""trial"",""time""
""fullscreenenter"",""1"",""2523""
","
","","","589.9999999997672","","","19","11017","4010","r","elianto","#3366ff99"," "," ","1","+10","[1440]","1","2","","","11017","70","1","1","win","go","0"
"pit-trial","189","1136946","0.0-75.0","battery-v0.2","","""event"",""trial"",""time""
""fullscreenenter"",""1"",""2523""
","
","
","""event"",""trial"",""time""
""fullscreenenter"",""1"",""2523""
","
","","","1338","","","19","11017","4010","c","elianto","#3366ff99"," "," ","1","+10","[2188.999999999767]","1","2","","","11017","71","5","1","win","go","0"
"pit-trial","190","1140490","0.0-76.0","battery-v0.2","","""event"",""trial"",""time""
""fullscreenenter"",""1"",""2523""
","
","
","""event"",""trial"",""time""
""fullscreenenter"",""1"",""2523""
","
","","","689","","","19","11017","4010","h","elianto","#f73b6a7A"," "," ","1","0","[1539]","1","2","","","11017","72","3","3","lose","go","0"
"pit-trial","191","1143992","0.0-77.0","battery-v0.2","","""event"",""trial"",""time""
""fullscreenenter"",""1"",""2523""
","
","
","""event"",""trial"",""time""
""fullscreenenter"",""1"",""2523""
","
","","","647","","","19","11017","4010","c","elianto","#3366ff99"," "," ","1","+10","[1497]","1","2","","","11017","73","5","1","win","go","0"
"pit-trial","192","1147460","0.0-78.0","battery-v0.2","","""event"",""trial"",""time""
""fullscreenenter"",""1"",""2523""
","
","
","""event"",""trial"",""time""
""fullscreenenter"",""1"",""2523""
","
","","","611","","","19","11017","4010","z","elianto","#3366ff99","-1"," ","0","0","[1462]","1","2","","","11017","74","4","2","win","no-go","0"
"pit-trial","193","1151078","0.0-79.0","battery-v0.2","","""event"",""trial"",""time""
""fullscreenenter"",""1"",""2523""
","
","
","""event"",""trial"",""time""
""fullscreenenter"",""1"",""2523""
","
","","","761","","","19","11017","4010","h","elianto","#f73b6a7A"," "," ","1","-10","[1612]","1","2","","","11017","75","3","3","lose","go","1"
"pit-trial","194","1154567","0.0-80.0","battery-v0.2","","""event"",""trial"",""time""
""fullscreenenter"",""1"",""2523""
","
","
","""event"",""trial"",""time""
""fullscreenenter"",""1"",""2523""
","
","","","632","","","19","11017","4010","r","elianto","#3366ff99"," "," ","1","+10","[1482]","1","2","","","11017","76","1","1","win","go","0"
"pit-trial","195","1158201","0.0-81.0","battery-v0.2","","""event"",""trial"",""time""
""fullscreenenter"",""1"",""2523""
","
","
","""event"",""trial"",""time""
""fullscreenenter"",""1"",""2523""
","
","","","777","","","19","11017","4010","h","elianto","#f73b6a7A"," "," ","1","-10","[1627]","1","2","","","11017","77","3","3","lose","go","1"
"pit-trial","196","1162064","0.0-82.0","battery-v0.2","","""event"",""trial"",""time""
""fullscreenenter"",""1"",""2523""
","
","
","""event"",""trial"",""time""
""fullscreenenter"",""1"",""2523""
","
","","","1008","","","19","11017","4010","c","elianto","#3366ff99"," "," ","1","+10","[1858]","1","2","","","11017","78","5","1","win","go","0"
"pit-trial","197","1166920","0.0-83.0","battery-v0.2","","""event"",""trial"",""time""
""fullscreenenter"",""1"",""2523""
","
","
","""event"",""trial"",""time""
""fullscreenenter"",""1"",""2523""
","
","","","-1","","","19","11017","4010","z","elianto","#3366ff99","-1","-1","1","+10","[]","0","2","","","11017","79","4","2","win","no-go","0"
"pit-trial","198","1171778","0.0-84.0","battery-v0.2","","""event"",""trial"",""time""
""fullscreenenter"",""1"",""2523""
","
","
","""event"",""trial"",""time""
""fullscreenenter"",""1"",""2523""
","
","","","-1","","","19","11017","4010","b","elianto","#f73b6a7A","-1","-1","1","-10","[]","0","2","","","11017","80","6","4","lose","no-go","1"
"pit-trial","199","1175564","0.0-85.0","battery-v0.2","","""event"",""trial"",""time""
""fullscreenenter"",""1"",""2523""
","
","
","""event"",""trial"",""time""
""fullscreenenter"",""1"",""2523""
","
","","","931","","","19","11017","4010","c","elianto","#3366ff99"," "," ","1","0","[1781]","1","2","","","11017","81","5","1","win","go","1"
"pit-trial","200","1180421","0.0-86.0","battery-v0.2","","""event"",""trial"",""time""
""fullscreenenter"",""1"",""2523""
","
","
","""event"",""trial"",""time""
""fullscreenenter"",""1"",""2523""
","
","","","-1","","","19","11017","4010","t","elianto","#f73b6a7A"," ","-1","0","-10","[3583]","1","2","","","11017","82","7","3","lose","go","0"
"pit-trial","201","1184645","0.0-87.0","battery-v0.2","","""event"",""trial"",""time""
""fullscreenenter"",""1"",""2523""
","
","
","""event"",""trial"",""time""
""fullscreenenter"",""1"",""2523""
","
","","","1366","","","19","11017","4010","b","elianto","#f73b6a7A","-1"," ","0","-10","[2216]","1","2","","","11017","83","6","4","lose","no-go","0"
"pit-trial","202","1189501","0.0-88.0","battery-v0.2","","""event"",""trial"",""time""
""fullscreenenter"",""1"",""2523""
","
","
","""event"",""trial"",""time""
""fullscreenenter"",""1"",""2523""
","
","","","-1","","","19","11017","4010","z","elianto","#3366ff99","-1","-1","1","0","[]","0","2","","","11017","84","4","2","win","no-go","1"
"pit-trial","203","1193204","0.0-89.0","battery-v0.2","","""event"",""trial"",""time""
""fullscreenenter"",""1"",""2523""
","
","
","""event"",""trial"",""time""
""fullscreenenter"",""1"",""2523""
","
","","","846","","","19","11017","4010","z","elianto","#3366ff99","-1"," ","0","0","[1696.0000000002328]","1","2","","","11017","85","4","2","win","no-go","0"
"pit-trial","204","1197452","0.0-90.0","battery-v0.2","","""event"",""trial"",""time""
""fullscreenenter"",""1"",""2523""
","
","
","""event"",""trial"",""time""
""fullscreenenter"",""1"",""2523""
","
","","","1391.9999999997672","","","19","11017","4010","t","elianto","#f73b6a7A"," "," ","1","-10","[2242]","1","2","","","11017","86","7","3","lose","go","1"
"pit-trial","205","1201306","0.0-91.0","battery-v0.2","","""event"",""trial"",""time""
""fullscreenenter"",""1"",""2523""
","
","
","""event"",""trial"",""time""
""fullscreenenter"",""1"",""2523""
","
","","","997","","","19","11017","4010","c","elianto","#3366ff99"," "," ","1","+10","[1847]","1","2","","","11017","87","5","1","win","go","0"
"pit-trial","206","1205808","0.0-92.0","battery-v0.2","","""event"",""trial"",""time""
""fullscreenenter"",""1"",""2523""
","
","
","""event"",""trial"",""time""
""fullscreenenter"",""1"",""2523""
","
","","","1646","","","19","11017","4010","b","elianto","#f73b6a7A","-1"," ","0","-10","[2495]","1","2","","","11017","88","6","4","lose","no-go","0"
"pit-trial","207","1209335","0.0-93.0","battery-v0.2","","""event"",""trial"",""time""
""fullscreenenter"",""1"",""2523""
","
","
","""event"",""trial"",""time""
""fullscreenenter"",""1"",""2523""
","
","","","670","","","19","11017","4010","c","elianto","#3366ff99"," "," ","1","+10","[1521]","1","2","","","11017","89","5","1","win","go","0"
"pit-trial","208","1213607","0.0-94.0","battery-v0.2","","""event"",""trial"",""time""
""fullscreenenter"",""1"",""2523""
","
","
","""event"",""trial"",""time""
""fullscreenenter"",""1"",""2523""
","
","","","1415","","","19","11017","4010","t","elianto","#f73b6a7A"," "," ","1","0","[2266]","1","2","","","11017","90","7","3","lose","go","0"
"pit-trial","209","1218464","0.0-95.0","battery-v0.2","","""event"",""trial"",""time""
""fullscreenenter"",""1"",""2523""
","
","
","""event"",""trial"",""time""
""fullscreenenter"",""1"",""2523""
","
","","","-1","","","19","11017","4010","z","elianto","#3366ff99","-1","-1","1","+10","[]","0","2","","","11017","91","4","2","win","no-go","0"
"pit-trial","210","1223320","0.0-96.0","battery-v0.2","","""event"",""trial"",""time""
""fullscreenenter"",""1"",""2523""
","
","
","""event"",""trial"",""time""
""fullscreenenter"",""1"",""2523""
","
","","","-1","","","19","11017","4010","b","elianto","#f73b6a7A","-1","-1","1","0","[]","0","2","","","11017","92","6","4","lose","no-go","0"
"pit-trial","211","1227483","0.0-97.0","battery-v0.2","","""event"",""trial"",""time""
""fullscreenenter"",""1"",""2523""
","
","
","""event"",""trial"",""time""
""fullscreenenter"",""1"",""2523""
","
","","","1306.0000000002328","","","19","11017","4010","f","elianto","#3366ff99","-1"," ","0","0","[2156.000000000233]","1","2","","","11017","93","8","2","win","no-go","0"
"pit-trial","212","1232340","0.0-98.0","battery-v0.2","","""event"",""trial"",""time""
""fullscreenenter"",""1"",""2523""
","
","
","""event"",""trial"",""time""
""fullscreenenter"",""1"",""2523""
","
","","","-1","","","19","11017","4010","b","elianto","#f73b6a7A","-1","-1","1","-10","[]","0","2","","","11017","94","6","4","lose","no-go","1"
"pit-trial","213","1235812","0.0-99.0","battery-v0.2","","""event"",""trial"",""time""
""fullscreenenter"",""1"",""2523""
","
","
","""event"",""trial"",""time""
""fullscreenenter"",""1"",""2523""
","
","","","617","","","19","11017","4010","c","elianto","#3366ff99"," "," ","1","0","[1467]","1","2","","","11017","95","5","1","win","go","1"
"pit-trial","214","1239482","0.0-100.0","battery-v0.2","","""event"",""trial"",""time""
""fullscreenenter"",""1"",""2523""
","
","
","""event"",""trial"",""time""
""fullscreenenter"",""1"",""2523""
","
","","","814","","","19","11017","4010","t","elianto","#f73b6a7A"," "," ","1","0","[1664]","1","2","","","11017","96","7","3","lose","go","0"
"pit-trial","215","1244339","0.0-101.0","battery-v0.2","","""event"",""trial"",""time""
""fullscreenenter"",""1"",""2523""
","
","
","""event"",""trial"",""time""
""fullscreenenter"",""1"",""2523""
","
","","","-1","","","19","11017","4010","f","elianto","#3366ff99","-1","-1","1","+10","[]","0","2","","","11017","97","8","2","win","no-go","0"
"pit-trial","216","1248060","0.0-102.0","battery-v0.2","","""event"",""trial"",""time""
""fullscreenenter"",""1"",""2523""
","
","
","""event"",""trial"",""time""
""fullscreenenter"",""1"",""2523""
","
","","","864","","","19","11017","4010","c","elianto","#3366ff99"," "," ","1","+10","[1715]","1","2","","","11017","98","5","1","win","go","0"
"pit-trial","217","1251905","0.0-103.0","battery-v0.2","","""event"",""trial"",""time""
""fullscreenenter"",""1"",""2523""
","
","
","""event"",""trial"",""time""
""fullscreenenter"",""1"",""2523""
","
","","","988","","","19","11017","4010","t","elianto","#f73b6a7A"," "," ","1","0","[1838]","1","2","","","11017","99","7","3","lose","go","0"
"pit-trial","218","1256761","0.0-104.0","battery-v0.2","","""event"",""trial"",""time""
""fullscreenenter"",""1"",""2523""
","
","
","""event"",""trial"",""time""
""fullscreenenter"",""1"",""2523""
","
","","","-1","","","19","11017","4010","b","elianto","#f73b6a7A","-1","-1","1","0","[]","0","2","","","11017","100","6","4","lose","no-go","0"
"pit-trial","219","1261093","0.0-105.0","battery-v0.2","","""event"",""trial"",""time""
""fullscreenenter"",""1"",""2523""
","
","
","""event"",""trial"",""time""
""fullscreenenter"",""1"",""2523""
","
","","","1475","","","19","11017","4010","n","elianto","#3366ff99","-1"," ","0","+10","[2326]","1","2","","","11017","101","9","2","win","no-go","1"
"pit-trial","220","1264674","0.0-106.0","battery-v0.2","","""event"",""trial"",""time""
""fullscreenenter"",""1"",""2523""
","
","
","""event"",""trial"",""time""
""fullscreenenter"",""1"",""2523""
","
","","","724","","","19","11017","4010","c","elianto","#3366ff99"," "," ","1","+10","[1574.9999999997672]","1","2","","","11017","102","5","1","win","go","0"
"pit-trial","221","1269531","0.0-107.0","battery-v0.2","","""event"",""trial"",""time""
""fullscreenenter"",""1"",""2523""
","
","
","""event"",""trial"",""time""
""fullscreenenter"",""1"",""2523""
","
","","","-1","","","19","11017","4010","b","elianto","#f73b6a7A","-1","-1","1","0","[]","0","2","","","11017","103","6","4","lose","no-go","0"
"pit-trial","222","1274391","0.0-108.0","battery-v0.2","","""event"",""trial"",""time""
""fullscreenenter"",""1"",""2523""
","
","
","""event"",""trial"",""time""
""fullscreenenter"",""1"",""2523""
","
","","","-1","","","19","11017","4010","f","elianto","#3366ff99","-1","-1","1","0","[]","0","2","","","11017","104","8","2","win","no-go","1"
"pit-trial","223","1278508","0.0-109.0","battery-v0.2","","""event"",""trial"",""time""
""fullscreenenter"",""1"",""2523""
","
","
","""event"",""trial"",""time""
""fullscreenenter"",""1"",""2523""
","
","","","1260","","","19","11017","4010","f","elianto","#3366ff99","-1"," ","0","0","[2109.999999999767]","1","2","","","11017","105","8","2","win","no-go","0"
"pit-trial","224","1283365","0.0-110.0","battery-v0.2","","""event"",""trial"",""time""
""fullscreenenter"",""1"",""2523""
","
","
","""event"",""trial"",""time""
""fullscreenenter"",""1"",""2523""
","
","","","-1","","","19","11017","4010","b","elianto","#f73b6a7A","-1","-1","1","0","[]","0","2","","","11017","106","6","4","lose","no-go","0"
"pit-trial","225","1287324","0.0-111.0","battery-v0.2","","""event"",""trial"",""time""
""fullscreenenter"",""1"",""2523""
","
","
","""event"",""trial"",""time""
""fullscreenenter"",""1"",""2523""
","
","","","1102","","","19","11017","4010","n","elianto","#3366ff99","-1"," ","0","0","[1952]","1","2","","","11017","107","9","2","win","no-go","0"
"pit-trial","226","1290865","0.0-112.0","battery-v0.2","","""event"",""trial"",""time""
""fullscreenenter"",""1"",""2523""
","
","
","""event"",""trial"",""time""
""fullscreenenter"",""1"",""2523""
","
","","","684","","","19","11017","4010","c","elianto","#3366ff99"," "," ","1","+10","[1535]","1","2","","","11017","108","5","1","win","go","0"
"pit-trial","227","1294397","0.0-113.0","battery-v0.2","","""event"",""trial"",""time""
""fullscreenenter"",""1"",""2523""
","
","
","""event"",""trial"",""time""
""fullscreenenter"",""1"",""2523""
","
","","","674","","","19","11017","4010","c","elianto","#3366ff99"," "," ","1","+10","[1526]","1","2","","","11017","109","5","1","win","go","0"
"pit-trial","228","1299254","0.0-114.0","battery-v0.2","","""event"",""trial"",""time""
""fullscreenenter"",""1"",""2523""
","
","
","""event"",""trial"",""time""
""fullscreenenter"",""1"",""2523""
","
","","","-1","","","19","11017","4010","f","elianto","#3366ff99","-1","-1","1","+10","[]","0","2","","","11017","110","8","2","win","no-go","0"
"pit-trial","229","1304112","0.0-115.0","battery-v0.2","","""event"",""trial"",""time""
""fullscreenenter"",""1"",""2523""
","
","
","""event"",""trial"",""time""
""fullscreenenter"",""1"",""2523""
","
","","","-1","","","19","11017","4010","n","elianto","#3366ff99","-1","-1","1","+10","[]","0","2","","","11017","111","9","2","win","no-go","0"
"pit-trial","230","1308969","0.0-116.0","battery-v0.2","","""event"",""trial"",""time""
""fullscreenenter"",""1"",""2523""
","
","
","""event"",""trial"",""time""
""fullscreenenter"",""1"",""2523""
","
","","","-1","","","19","11017","4010","b","elianto","#f73b6a7A","-1","-1","1","0","[]","0","2","","","11017","112","6","4","lose","no-go","0"
"pit-trial","231","1313825","0.0-117.0","battery-v0.2","","""event"",""trial"",""time""
""fullscreenenter"",""1"",""2523""
","
","
","""event"",""trial"",""time""
""fullscreenenter"",""1"",""2523""
","
","","","-1","","","19","11017","4010","f","elianto","#3366ff99","-1","-1","1","+10","[]","0","2","","","11017","113","8","2","win","no-go","0"
"pit-trial","232","1317449","0.0-118.0","battery-v0.2","","""event"",""trial"",""time""
""fullscreenenter"",""1"",""2523""
","
","
","""event"",""trial"",""time""
""fullscreenenter"",""1"",""2523""
","
","","","767","","","19","11017","4010","c","elianto","#3366ff99"," "," ","1","+10","[1616.9999999997672]","1","2","","","11017","114","5","1","win","go","0"
"pit-trial","233","1322307","0.0-119.0","battery-v0.2","","""event"",""trial"",""time""
""fullscreenenter"",""1"",""2523""
","
","
","""event"",""trial"",""time""
""fullscreenenter"",""1"",""2523""
","
","","","-1","","","19","11017","4010","n","elianto","#3366ff99","-1","-1","1","+10","[]","0","2","","","11017","115","9","2","win","no-go","0"
"pit-trial","234","1326317","0.0-120.0","battery-v0.2","","""event"",""trial"",""time""
""fullscreenenter"",""1"",""2523""
","
","
","""event"",""trial"",""time""
""fullscreenenter"",""1"",""2523""
","
","","","1153","","","19","11017","4010","t","elianto","#f73b6a7A"," "," ","1","0","[2002.9999999997672]","1","2","","","11017","116","7","3","lose","go","0"
"pit-trial","235","1330415","0.0-121.0","battery-v0.2","","""event"",""trial"",""time""
""fullscreenenter"",""1"",""2523""
","
","
","""event"",""trial"",""time""
""fullscreenenter"",""1"",""2523""
","
","","","1242","","","19","11017","4010","c","elianto","#3366ff99"," "," ","1","0","[2091.999999999767]","1","2","","","11017","117","5","1","win","go","1"
"pit-trial","236","1335271","0.0-122.0","battery-v0.2","","""event"",""trial"",""time""
""fullscreenenter"",""1"",""2523""
","
","
","""event"",""trial"",""time""
""fullscreenenter"",""1"",""2523""
","
","","","-1","","","19","11017","4010","n","elianto","#3366ff99","-1","-1","1","+10","[]","0","2","","","11017","118","9","2","win","no-go","0"
"pit-trial","237","1340127","0.0-123.0","battery-v0.2","","""event"",""trial"",""time""
""fullscreenenter"",""1"",""2523""
","
","
","""event"",""trial"",""time""
""fullscreenenter"",""1"",""2523""
","
","","","-1","","","19","11017","4010","b","elianto","#f73b6a7A","-1","-1","1","0","[]","0","2","","","11017","119","6","4","lose","no-go","0"
"pit-trial","238","1344984","0.0-124.0","battery-v0.2","","""event"",""trial"",""time""
""fullscreenenter"",""1"",""2523""
","
","
","""event"",""trial"",""time""
""fullscreenenter"",""1"",""2523""
","
","","","-1","","","19","11017","4010","f","elianto","#3366ff99","-1","-1","1","+10","[]","0","2","","","11017","120","8","2","win","no-go","0"
"pit-trial","239","1348491","0.0-125.0","battery-v0.2","","""event"",""trial"",""time""
""fullscreenenter"",""1"",""2523""
","
","
","""event"",""trial"",""time""
""fullscreenenter"",""1"",""2523""
","
","","","651","","","19","11017","4010","c","elianto","#3366ff99"," "," ","1","+10","[1501]","1","2","","","11017","121","5","1","win","go","0"
"pit-trial","240","1353349","0.0-126.0","battery-v0.2","","""event"",""trial"",""time""
""fullscreenenter"",""1"",""2523""
","
","
","""event"",""trial"",""time""
""fullscreenenter"",""1"",""2523""
","
","","","-1","","","19","11017","4010","n","elianto","#3366ff99","-1","-1","1","0","[]","0","2","","","11017","122","9","2","win","no-go","1"
"pit-trial","241","1357308","0.0-127.0","battery-v0.2","","""event"",""trial"",""time""
""fullscreenenter"",""1"",""2523""
","
","
","""event"",""trial"",""time""
""fullscreenenter"",""1"",""2523""
","
","","","1103","","","19","11017","4010","t","elianto","#f73b6a7A"," "," ","1","0","[1953]","1","2","","","11017","123","7","3","lose","go","0"
"pit-trial","242","1362165","0.0-128.0","battery-v0.2","","""event"",""trial"",""time""
""fullscreenenter"",""1"",""2523""
","
","
","""event"",""trial"",""time""
""fullscreenenter"",""1"",""2523""
","
","","","-1","","","19","11017","4010","f","elianto","#3366ff99","-1","-1","1","+10","[]","0","2","","","11017","124","8","2","win","no-go","0"
"pit-trial","243","1367021","0.0-129.0","battery-v0.2","","""event"",""trial"",""time""
""fullscreenenter"",""1"",""2523""
","
","
","""event"",""trial"",""time""
""fullscreenenter"",""1"",""2523""
","
","","","-1","","","19","11017","4010","f","elianto","#3366ff99","-1","-1","1","+10","[]","0","2","","","11017","125","8","2","win","no-go","0"
"pit-trial","244","1370681","0.0-130.0","battery-v0.2","","""event"",""trial"",""time""
""fullscreenenter"",""1"",""2523""
","
","
","""event"",""trial"",""time""
""fullscreenenter"",""1"",""2523""
","
","","","802","","","19","11017","4010","t","elianto","#f73b6a7A"," "," ","1","0","[1652]","1","2","","","11017","126","7","3","lose","go","0"
"pit-trial","245","1375538","0.0-131.0","battery-v0.2","","""event"",""trial"",""time""
""fullscreenenter"",""1"",""2523""
","
","
","""event"",""trial"",""time""
""fullscreenenter"",""1"",""2523""
","
","","","-1","","","19","11017","4010","n","elianto","#3366ff99","-1","-1","1","+10","[2898]","1","2","","","11017","127","9","2","win","no-go","0"
"pit-trial","246","1380395","0.0-132.0","battery-v0.2","","""event"",""trial"",""time""
""fullscreenenter"",""1"",""2523""
","
","
","""event"",""trial"",""time""
""fullscreenenter"",""1"",""2523""
","
","","","-1","","","19","11017","4010","b","elianto","#f73b6a7A","-1","-1","1","-10","[]","0","2","","","11017","128","6","4","lose","no-go","1"
"pit-trial","247","1385251","0.0-133.0","battery-v0.2","","""event"",""trial"",""time""
""fullscreenenter"",""1"",""2523""
","
","
","""event"",""trial"",""time""
""fullscreenenter"",""1"",""2523""
","
","","","-1","","","19","11017","4010","b","elianto","#f73b6a7A","-1","-1","1","-10","[]","0","2","","","11017","129","6","4","lose","no-go","1"
"pit-trial","248","1389346","0.0-134.0","battery-v0.2","","""event"",""trial"",""time""
""fullscreenenter"",""1"",""2523""
","
","
","""event"",""trial"",""time""
""fullscreenenter"",""1"",""2523""
","
","","","1239","","","19","11017","4010","n","elianto","#3366ff99","-1"," ","0","0","[2088.999999999767]","1","2","","","11017","130","9","2","win","no-go","0"
"pit-trial","249","1394203","0.0-135.0","battery-v0.2","","""event"",""trial"",""time""
""fullscreenenter"",""1"",""2523""
","
","
","""event"",""trial"",""time""
""fullscreenenter"",""1"",""2523""
","
","","","-1","","","19","11017","4010","f","elianto","#3366ff99","-1","-1","1","0","[]","0","2","","","11017","131","8","2","win","no-go","1"
"pit-trial","250","1397881","0.0-136.0","battery-v0.2","","""event"",""trial"",""time""
""fullscreenenter"",""1"",""2523""
","
","
","""event"",""trial"",""time""
""fullscreenenter"",""1"",""2523""
","
","","","822","","","19","11017","4010","t","elianto","#f73b6a7A"," "," ","1","0","[1671.9999999997672]","1","2","","","11017","132","7","3","lose","go","0"
"pit-trial","251","1402737","0.0-137.0","battery-v0.2","","""event"",""trial"",""time""
""fullscreenenter"",""1"",""2523""
","
","
","""event"",""trial"",""time""
""fullscreenenter"",""1"",""2523""
","
","","","-1","","","19","11017","4010","b","elianto","#f73b6a7A","-1","-1","1","0","[]","0","2","","","11017","133","6","4","lose","no-go","0"
"pit-trial","252","1406351","0.0-138.0","battery-v0.2","","""event"",""trial"",""time""
""fullscreenenter"",""1"",""2523""
","
","
","""event"",""trial"",""time""
""fullscreenenter"",""1"",""2523""
","
","","","757","","","19","11017","4010","t","elianto","#f73b6a7A"," "," ","1","0","[1607]","1","2","","","11017","134","7","3","lose","go","0"
"pit-trial","253","1410329","0.0-139.0","battery-v0.2","","""event"",""trial"",""time""
""fullscreenenter"",""1"",""2523""
","
","
","""event"",""trial"",""time""
""fullscreenenter"",""1"",""2523""
","
","","","1121","","","19","11017","4010","n","elianto","#3366ff99","-1"," ","0","+10","[1972]","1","2","","","11017","135","9","2","win","no-go","1"
"pit-trial","254","1415185","0.0-140.0","battery-v0.2","","""event"",""trial"",""time""
""fullscreenenter"",""1"",""2523""
","
","
","""event"",""trial"",""time""
""fullscreenenter"",""1"",""2523""
","
","","","-1","","","19","11017","4010","f","elianto","#3366ff99","-1","-1","1","+10","[]","0","2","","","11017","136","8","2","win","no-go","0"
"pit-trial","255","1420042","0.0-141.0","battery-v0.2","","""event"",""trial"",""time""
""fullscreenenter"",""1"",""2523""
","
","
","""event"",""trial"",""time""
""fullscreenenter"",""1"",""2523""
","
","","","-1","","","19","11017","4010","f","elianto","#3366ff99","-1","-1","1","+10","[]","0","2","","","11017","137","8","2","win","no-go","0"
"pit-trial","256","1423672","0.0-142.0","battery-v0.2","","""event"",""trial"",""time""
""fullscreenenter"",""1"",""2523""
","
","
","""event"",""trial"",""time""
""fullscreenenter"",""1"",""2523""
","
","","","773.0000000002328","","","19","11017","4010","t","elianto","#f73b6a7A"," "," ","1","0","[1624.0000000002328]","1","2","","","11017","138","7","3","lose","go","0"
"pit-trial","257","1428531","0.0-143.0","battery-v0.2","","""event"",""trial"",""time""
""fullscreenenter"",""1"",""2523""
","
","
","""event"",""trial"",""time""
""fullscreenenter"",""1"",""2523""
","
","","","-1","","","19","11017","4010","b","elianto","#f73b6a7A","-1","-1","1","0","[]","0","2","","","11017","139","6","4","lose","no-go","0"
"pit-trial","258","1432490","0.0-144.0","battery-v0.2","","""event"",""trial"",""time""
""fullscreenenter"",""1"",""2523""
","
","
","""event"",""trial"",""time""
""fullscreenenter"",""1"",""2523""
","
","","","1102","","","19","11017","4010","n","elianto","#3366ff99","-1"," ","0","0","[1951.0000000002328]","1","2","","","11017","140","9","2","win","no-go","0"
"pit-instructions","259","1447516","0.0-145.0","battery-v0.2","","""event"",""trial"",""time""
""fullscreenenter"",""1"",""2523""
","
","
","""event"",""trial"",""time""
""fullscreenenter"",""1"",""2523""
","
","","[{""page_index"":0,""viewing_time"":6539},{""page_index"":1,""viewing_time"":8481}]","15021","","","","","","","","","","","","","","","","","","","","","","","",""
"pit-trial","260","1451275","0.0-146.0","battery-v0.2","","""event"",""trial"",""time""
""fullscreenenter"",""1"",""2523""
","
","
","""event"",""trial"",""time""
""fullscreenenter"",""1"",""2523""
","
","","","900","","","19","11017","4010","g","elianto","#f73b6a7A","-1"," ","0","-10","[1750]","1","3","","","11017","141","3","4","lose","no-go","0"
"pit-trial","261","1454891","0.0-147.0","battery-v0.2","","""event"",""trial"",""time""
""fullscreenenter"",""1"",""2523""
","
","
","""event"",""trial"",""time""
""fullscreenenter"",""1"",""2523""
","
","","","759","","","19","11017","4010","l","elianto","#3366ff99","-1"," ","0","0","[1610]","1","3","","","11017","142","1","2","win","no-go","0"
"pit-trial","262","1458460","0.0-148.0","battery-v0.2","","""event"",""trial"",""time""
""fullscreenenter"",""1"",""2523""
","
","
","""event"",""trial"",""time""
""fullscreenenter"",""1"",""2523""
","
","","","712","","","19","11017","4010","u","elianto","#f73b6a7A"," "," ","1","0","[1562]","1","3","","","11017","143","0","3","lose","go","0"
"pit-trial","263","1461869","0.0-149.0","battery-v0.2","","""event"",""trial"",""time""
""fullscreenenter"",""1"",""2523""
","
","
","""event"",""trial"",""time""
""fullscreenenter"",""1"",""2523""
","
","","","553","","","19","11017","4010","a","elianto","#f73b6a7A"," "," ","1","0","[1403]","1","3","","","11017","144","2","3","lose","go","0"
"pit-trial","264","1465240","0.0-150.0","battery-v0.2","","""event"",""trial"",""time""
""fullscreenenter"",""1"",""2523""
","
","
","""event"",""trial"",""time""
""fullscreenenter"",""1"",""2523""
","
","","","514","","","19","11017","4010","l","elianto","#3366ff99","-1"," ","0","0","[1364]","1","3","","","11017","145","1","2","win","no-go","0"
"pit-trial","265","1468981","0.0-151.0","battery-v0.2","","""event"",""trial"",""time""
""fullscreenenter"",""1"",""2523""
","
","
","""event"",""trial"",""time""
""fullscreenenter"",""1"",""2523""
","
","","","884.9999999997672","","","19","11017","4010","u","elianto","#f73b6a7A"," "," ","1","0","[1736]","1","3","","","11017","146","0","3","lose","go","0"
"pit-trial","266","1472917","0.0-152.0","battery-v0.2","","""event"",""trial"",""time""
""fullscreenenter"",""1"",""2523""
","
","
","""event"",""trial"",""time""
""fullscreenenter"",""1"",""2523""
","
","","","1079","","","19","11017","4010","a","elianto","#f73b6a7A"," "," ","1","0","[1929]","1","3","","","11017","147","2","3","lose","go","0"
"pit-trial","267","1477774","0.0-153.0","battery-v0.2","","""event"",""trial"",""time""
""fullscreenenter"",""1"",""2523""
","
","
","""event"",""trial"",""time""
""fullscreenenter"",""1"",""2523""
","
","","","-1","","","19","11017","4010","g","elianto","#f73b6a7A","-1","-1","1","0","[]","0","3","","","11017","148","3","4","lose","no-go","0"
"pit-trial","268","1481520","0.0-154.0","battery-v0.2","","""event"",""trial"",""time""
""fullscreenenter"",""1"",""2523""
","
","
","""event"",""trial"",""time""
""fullscreenenter"",""1"",""2523""
","
","","","890.0000000002328","","","19","11017","4010","u","elianto","#f73b6a7A"," "," ","1","0","[1740.0000000002328]","1","3","","","11017","149","0","3","lose","go","0"
"pit-trial","269","1485379","0.0-155.0","battery-v0.2","","""event"",""trial"",""time""
""fullscreenenter"",""1"",""2523""
","
","
","""event"",""trial"",""time""
""fullscreenenter"",""1"",""2523""
","
","","","1002","","","19","11017","4010","l","elianto","#3366ff99","-1"," ","0","0","[1852]","1","3","","","11017","150","1","2","win","no-go","0"
"pit-trial","270","1490243","0.0-156.0","battery-v0.2","","""event"",""trial"",""time""
""fullscreenenter"",""1"",""2523""
","
","
","""event"",""trial"",""time""
""fullscreenenter"",""1"",""2523""
","
","","","-1","","","19","11017","4010","g","elianto","#f73b6a7A","-1","-1","1","-10","[]","0","3","","","11017","151","3","4","lose","no-go","1"
"pit-trial","271","1493791","0.0-157.0","battery-v0.2","","""event"",""trial"",""time""
""fullscreenenter"",""1"",""2523""
","
","
","""event"",""trial"",""time""
""fullscreenenter"",""1"",""2523""
","
","","","692","","","19","11017","4010","a","elianto","#f73b6a7A"," "," ","1","-10","[1542]","1","3","","","11017","152","2","3","lose","go","1"
"pit-trial","272","1497262","0.0-158.0","battery-v0.2","","""event"",""trial"",""time""
""fullscreenenter"",""1"",""2523""
","
","
","""event"",""trial"",""time""
""fullscreenenter"",""1"",""2523""
","
","","","613","","","19","11017","4010","u","elianto","#f73b6a7A"," "," ","1","-10","[1464]","1","3","","","11017","153","0","3","lose","go","1"
"pit-trial","273","1502120","0.0-159.0","battery-v0.2","","""event"",""trial"",""time""
""fullscreenenter"",""1"",""2523""
","
","
","""event"",""trial"",""time""
""fullscreenenter"",""1"",""2523""
","
","","","-1","","","19","11017","4010","g","elianto","#f73b6a7A","-1","-1","1","0","[]","0","3","","","11017","154","3","4","lose","no-go","0"
"pit-trial","274","1506976","0.0-160.0","battery-v0.2","","""event"",""trial"",""time""
""fullscreenenter"",""1"",""2523""
","
","
","""event"",""trial"",""time""
""fullscreenenter"",""1"",""2523""
","
","","","-1","","","19","11017","4010","l","elianto","#3366ff99","-1","-1","1","+10","[]","0","3","","","11017","155","1","2","win","no-go","0"
"pit-trial","275","1510627","0.0-161.0","battery-v0.2","","""event"",""trial"",""time""