"trial_type","trial_index","time_elapsed","internal_node_id","task_version","subject_id","interactions","blur_events","focus_events","fullscreenenter_events","fullscreenexit_events","success","view_history","rt","responses","num_errors","age","subject","participantId","rune","rune_set","hex","correct","choice","accuracy","outcome","keys","total_keys","block","practice","value","sub","trial","stimulus","robot","valence","action","sham"
"pavlovia","0","27","0.0-0.0","battery-v0.2","","""event"",""trial"",""time""
""fullscreenenter"",""1"",""1806""
","
","
","""event"",""trial"",""time""
""fullscreenenter"",""1"",""1806""
","
","","","","","","","","","","","","","","","","","","","","","","","","","","",""
"fullscreen","1","2812","0.0-1.0","battery-v0.2","","""event"",""trial"",""time""
""fullscreenenter"",""1"",""1806""
","
","
","""event"",""trial"",""time""
""fullscreenenter"",""1"",""1806""
","
","true","","","","","","","","","","","","","","","","","","","","","","","","","",""
"pit-instructions","2","5966","0.0-2.0-0.0","battery-v0.2","","""event"",""trial"",""time""
""fullscreenenter"",""1"",""1806""
","
","
","""event"",""trial"",""time""
""fullscreenenter"",""1"",""1806""
","
","","[{""page_index"":0,""viewing_time"":3148.2999999970198}]","3149.5","","","","","","","","","","","","","","","","","","","","","","","",""
"pit-comprehension","3","9512","0.0-2.0-1.0-0.0","battery-v0.2","","""event"",""trial"",""time""
""fullscreenenter"",""1"",""1806""
","
","
","""event"",""trial"",""time""
""fullscreenenter"",""1"",""1806""
","
","","","3529.2999999970198","[""shark""]","0","14","4367","3106","","","","","","","","","","","","","","","","","","",""
"pit-instructions","4","10661","0.0-2.0-1.0-1.0","battery-v0.2","","""event"",""trial"",""time""
""fullscreenenter"",""1"",""1806""
","
","
","""event"",""trial"",""time""
""fullscreenenter"",""1"",""1806""
","
","","[{""page_index"":0,""viewing_time"":1118.2000000029802}]","1119","","","","","","","","","","","","","","","","","","","","","","","",""
"pit-comprehension","5","14513","0.0-2.0-2.0-0.0","battery-v0.2","","""event"",""trial"",""time""
""fullscreenenter"",""1"",""1806""
","
","
","""event"",""trial"",""time""
""fullscreenenter"",""1"",""1806""
","
","","","3836","[""tiger""]","0","14","4367","3106","","","","","","","","","","","","","","","","","","",""
"pit-instructions","6","15166","0.0-2.0-2.0-1.0","battery-v0.2","","""event"",""trial"",""time""
""fullscreenenter"",""1"",""1806""
","
","
","""event"",""trial"",""time""
""fullscreenenter"",""1"",""1806""
","
","","[{""page_index"":0,""viewing_time"":638.8000000044703}]","639.6000000014901","","","","","","","","","","","","","","","","","","","","","","","",""
"pit-instructions","7","107223","0.0-2.0-3.0","battery-v0.2","","""event"",""trial"",""time""
""fullscreenenter"",""1"",""1806""
","
","
","""event"",""trial"",""time""
""fullscreenenter"",""1"",""1806""
","
","","[{""page_index"":0,""viewing_time"":8349.59999999404},{""page_index"":1,""viewing_time"":5870.30000000447},{""page_index"":2,""viewing_time"":7169.79999999702},{""page_index"":3,""viewing_time"":5877.20000000298},{""page_index"":4,""viewing_time"":5766.19999999553},{""page_index"":5,""viewing_time"":5601.20000000298},{""page_index"":6,""viewing_time"":6369.79999999702},{""page_index"":7,""viewing_time"":6467.30000000447},{""page_index"":8,""viewing_time"":6872.5},{""page_index"":9,""viewing_time"":9959},{""page_index"":10,""viewing_time"":7526.5},{""page_index"":11,""viewing_time"":4539.29999999702},{""page_index"":12,""viewing_time"":6062.5},{""page_index"":13,""viewing_time"":5611.70000000298}]","92043.89999999851","","","","","","","","","","","","","","","","","","","","","","","",""
"pit-trial","8","110771","0.0-2.0-4.0-0.0","battery-v0.2","","""event"",""trial"",""time""
""fullscreenenter"",""1"",""1806""
","
","
","""event"",""trial"",""time""
""fullscreenenter"",""1"",""1806""
","
","","","686.5999999940395","","","14","4367","3106","&#9784;","elianto","#FFFFF080"," "," ","1","&#10004","[1536.8000000044703]","1","0","0","","","","","","","",""
"pit-trial","9","114455","0.0-2.0-4.1-0.1","battery-v0.2","","""event"",""trial"",""time""
""fullscreenenter"",""1"",""1806""
","
","
","""event"",""trial"",""time""
""fullscreenenter"",""1"",""1806""
","
","","","821.9000000059605","","","14","4367","3106","&#9784;","elianto","#FFFFF080"," "," ","1","&#10004","[1672.3999999985099]","1","0","0","","","","","","","",""
"pit-trial","10","118104","0.0-2.0-4.2-0.2","battery-v0.2","","""event"",""trial"",""time""
""fullscreenenter"",""1"",""1806""
","
","
","""event"",""trial"",""time""
""fullscreenenter"",""1"",""1806""
","
","","","788.3999999985099","","","14","4367","3106","&#9784;","elianto","#FFFFF080"," "," ","1","&#10004","[1638.3999999985099]","1","0","0","","","","","","","",""
"pit-trial","11","121816","0.0-2.0-4.3-0.3","battery-v0.2","","""event"",""trial"",""time""
""fullscreenenter"",""1"",""1806""
","
","
","""event"",""trial"",""time""
""fullscreenenter"",""1"",""1806""
","
","","","850.7999999970198","","","14","4367","3106","&#9784;","elianto","#FFFFF080"," "," ","1","&#10004","[1700.8000000044703]","1","0","0","","","","","","","",""
"pit-trial","12","125433","0.0-2.0-4.4-0.4","battery-v0.2","","""event"",""trial"",""time""
""fullscreenenter"",""1"",""1806""
","
","
","""event"",""trial"",""time""
""fullscreenenter"",""1"",""1806""
","
","","","756.7999999970198","","","14","4367","3106","&#9784;","elianto","#FFFFF080"," "," ","1","&#10004","[1606.9000000059605]","1","0","0","","","","","","","",""
"pit-instructions","13","145910","0.0-2.0-5.0","battery-v0.2","","""event"",""trial"",""time""
""fullscreenenter"",""1"",""1806""
","
","
","""event"",""trial"",""time""
""fullscreenenter"",""1"",""1806""
","
","","[{""page_index"":0,""viewing_time"":4654.70000000298},{""page_index"":1,""viewing_time"":5165.69999999553},{""page_index"":2,""viewing_time"":4933.4000000059605},{""page_index"":3,""viewing_time"":5711.0999999940395}]","20466.10000000149","","","","","","","","","","","","","","","","","","","","","","","",""
"pit-trial","14","150772","0.0-2.0-6.0-0.0","battery-v0.2","","""event"",""trial"",""time""
""fullscreenenter"",""1"",""1806""
","
","
","""event"",""trial"",""time""
""fullscreenenter"",""1"",""1806""
","
","","","-1","","","14","4367","3106","&#9854;","elianto","#FFFFF080","-1","-1","1","&#10004","[]","0","0","1","","","","","","","",""
"pit-trial","15","155634","0.0-2.0-6.1-0.1","battery-v0.2","","""event"",""trial"",""time""
""fullscreenenter"",""1"",""1806""
","
","
","""event"",""trial"",""time""
""fullscreenenter"",""1"",""1806""
","
","","","-1","","","14","4367","3106","&#9854;","elianto","#FFFFF080","-1","-1","1","&#10004","[]","0","0","1","","","","","","","",""
"pit-trial","16","160495","0.0-2.0-6.2-0.2","battery-v0.2","","""event"",""trial"",""time""
""fullscreenenter"",""1"",""1806""
","
","
","""event"",""trial"",""time""
""fullscreenenter"",""1"",""1806""
","
","","","-1","","","14","4367","3106","&#9854;","elianto","#FFFFF080","-1","-1","1","&#10004","[]","0","0","1","","","","","","","",""
"pit-trial","17","165357","0.0-2.0-6.3-0.3","battery-v0.2","","""event"",""trial"",""time""
""fullscreenenter"",""1"",""1806""
","
","
","""event"",""trial"",""time""
""fullscreenenter"",""1"",""1806""
","
","","","-1","","","14","4367","3106","&#9854;","elianto","#FFFFF080","-1","-1","1","&#10004","[]","0","0","1","","","","","","","",""
"pit-trial","18","170218","0.0-2.0-6.4-0.4","battery-v0.2","","""event"",""trial"",""time""
""fullscreenenter"",""1"",""1806""
","
","
","""event"",""trial"",""time""
""fullscreenenter"",""1"",""1806""
","
","","","-1","","","14","4367","3106","&#9854;","elianto","#FFFFF080","-1","-1","1","&#10004","[]","0","0","1","","","","","","","",""
"pit-instructions","19","299750","0.0-2.0-7.0","battery-v0.2","","""event"",""trial"",""time""
""fullscreenenter"",""1"",""1806""
","
","
","""event"",""trial"",""time""
""fullscreenenter"",""1"",""1806""
","
","","[{""page_index"":0,""viewing_time"":5639.39999999851},{""page_index"":1,""viewing_time"":6960.79999999702},{""page_index"":2,""viewing_time"":6851.10000000149},{""page_index"":3,""viewing_time"":8005.10000000149},{""page_index"":4,""viewing_time"":5619.10000000149},{""page_index"":5,""viewing_time"":5711.39999999851},{""page_index"":6,""viewing_time"":5636.5},{""page_index"":7,""viewing_time"":7688.79999999702},{""page_index"":8,""viewing_time"":7556.39999999851},{""page_index"":9,""viewing_time"":6438.5},{""page_index"":10,""viewing_time"":7332.80000000447},{""page_index"":11,""viewing_time"":8662.10000000149},{""page_index"":12,""viewing_time"":8034},{""page_index"":13,""viewing_time"":7744.29999999702},{""page_index"":14,""viewing_time"":9755.60000000149},{""page_index"":15,""viewing_time"":6743.19999999553},{""page_index"":16,""viewing_time"":7264},{""page_index"":17,""viewing_time"":7877.20000000298}]","129521.09999999404","","","","","","","","","","","","","","","","","","","","","","","",""
"pit-trial","20","303310","0.0-2.0-8.0-0.0","battery-v0.2","","""event"",""trial"",""time""
""fullscreenenter"",""1"",""1806""
","
","
","""event"",""trial"",""time""
""fullscreenenter"",""1"",""1806""
","
","","","699.2999999970198","","","14","4367","3106","&#9776;","elianto","#3366ff99"," "," ","1","+10","[1549.5]","1","0","1","","","","","","","",""
"pit-trial","21","306801","0.0-2.0-8.0-1.0","battery-v0.2","","""event"",""trial"",""time""
""fullscreenenter"",""1"",""1806""
","
","
","""event"",""trial"",""time""
""fullscreenenter"",""1"",""1806""
","
","","","631.1000000014901","","","14","4367","3106","&#9776;","elianto","#3366ff99"," "," ","1","+10","[1481.3999999985099]","1","0","1","","","","","","","",""
"pit-trial","22","310484","0.0-2.0-8.0-2.0","battery-v0.2","","""event"",""trial"",""time""
""fullscreenenter"",""1"",""1806""
","
","
","""event"",""trial"",""time""
""fullscreenenter"",""1"",""1806""
","
","","","823.8999999985099","","","14","4367","3106","&#9776;","elianto","#3366ff99"," "," ","1","+10","[1674.6999999955297]","1","0","1","","","","","","","",""
"pit-trial","23","315344","0.0-2.0-8.0-3.0","battery-v0.2","","""event"",""trial"",""time""
""fullscreenenter"",""1"",""1806""
","
","
","""event"",""trial"",""time""
""fullscreenenter"",""1"",""1806""
","
","","","-1","","","14","4367","3106","&#9776;","elianto","#3366ff99"," ","-1","0","+10","[]","0","0","1","","","","","","","",""
"pit-trial","24","318749","0.0-2.0-8.0-4.0","battery-v0.2","","""event"",""trial"",""time""
""fullscreenenter"",""1"",""1806""
","
","
","""event"",""trial"",""time""
""fullscreenenter"",""1"",""1806""
","
","","","541.2999999970198","","","14","4367","3106","&#9776;","elianto","#3366ff99"," "," ","1","+10","[1394]","1","0","1","","","","","","","",""
"pit-trial","25","323609","0.0-2.0-8.1-0.1","battery-v0.2","","""event"",""trial"",""time""
""fullscreenenter"",""1"",""1806""
","
","
","""event"",""trial"",""time""
""fullscreenenter"",""1"",""1806""
","
","","","-1","","","14","4367","3106","&#9776;","elianto","#3366ff99"," ","-1","0","0","[]","0","0","1","","","","","","","",""
"pit-trial","26","326834","0.0-2.0-8.1-1.1","battery-v0.2","","""event"",""trial"",""time""
""fullscreenenter"",""1"",""1806""
","
","
","""event"",""trial"",""time""
""fullscreenenter"",""1"",""1806""
","
","","","365.3999999985099","","","14","4367","3106","&#9776;","elianto","#3366ff99"," "," ","1","+10","[1215.6999999955297]","1","0","1","","","","","","","",""
"pit-trial","27","330255","0.0-2.0-8.1-2.1","battery-v0.2","","""event"",""trial"",""time""
""fullscreenenter"",""1"",""1806""
","
","
","""event"",""trial"",""time""
""fullscreenenter"",""1"",""1806""
","
","","","560.5","","","14","4367","3106","&#9776;","elianto","#3366ff99"," "," ","1","+10","[1410.8000000044703]","1","0","1","","","","","","","",""
"pit-trial","28","333946","0.0-2.0-8.1-3.1","battery-v0.2","","""event"",""trial"",""time""
""fullscreenenter"",""1"",""1806""
","
","
","""event"",""trial"",""time""
""fullscreenenter"",""1"",""1806""
","
","","","828.6000000014901","","","14","4367","3106","&#9776;","elianto","#3366ff99"," "," ","1","0","[1678.6000000014901]","1","0","1","","","","","","","",""
"pit-trial","29","337200","0.0-2.0-8.1-4.1","battery-v0.2","","""event"",""trial"",""time""
""fullscreenenter"",""1"",""1806""
","
","
","""event"",""trial"",""time""
""fullscreenenter"",""1"",""1806""
","
","","","392.30000000447035","","","14","4367","3106","&#9776;","elianto","#3366ff99"," "," ","1","+10","[1243.4000000059605]","1","0","1","","","","","","","",""
"pit-trial","30","342061","0.0-2.0-8.2-0.2","battery-v0.2","","""event"",""trial"",""time""
""fullscreenenter"",""1"",""1806""
","
","
","""event"",""trial"",""time""
""fullscreenenter"",""1"",""1806""
","
","","","-1","","","14","4367","3106","&#9776;","elianto","#3366ff99"," ","-1","0","0","[]","0","0","1","","","","","","","",""
"pit-trial","31","345580","0.0-2.0-8.2-1.2","battery-v0.2","","""event"",""trial"",""time""
""fullscreenenter"",""1"",""1806""
","
","
","""event"",""trial"",""time""
""fullscreenenter"",""1"",""1806""
","
","","","658.7000000029802","","","14","4367","3106","&#9776;","elianto","#3366ff99"," "," ","1","+10","[1508.8999999985099]","1","0","1","","","","","","","",""
"pit-trial","32","349142","0.0-2.0-8.2-2.2","battery-v0.2","","""event"",""trial"",""time""
""fullscreenenter"",""1"",""1806""
","
","
","""event"",""trial"",""time""
""fullscreenenter"",""1"",""1806""
","
","","","702.6999999955297","","","14","4367","3106","&#9776;","elianto","#3366ff99"," "," ","1","+10","[1553]","1","0","1","","","","","","","",""
"pit-trial","33","354002","0.0-2.0-8.2-3.2","battery-v0.2","","""event"",""trial"",""time""
""fullscreenenter"",""1"",""1806""
","
","
","""event"",""trial"",""time""
""fullscreenenter"",""1"",""1806""
","
","","","-1","","","14","4367","3106","&#9776;","elianto","#3366ff99"," ","-1","0","+10","[]","0","0","1","","","","","","","",""
"pit-trial","34","357328","0.0-2.0-8.2-4.2","battery-v0.2","","""event"",""trial"",""time""
""fullscreenenter"",""1"",""1806""
","
","
","""event"",""trial"",""time""
""fullscreenenter"",""1"",""1806""
","
","","","467.3999999985099","","","14","4367","3106","&#9776;","elianto","#3366ff99"," "," ","1","+10","[1317.6000000014901]","1","0","1","","","","","","","",""
"call-function","35","357336","0.0-2.0-9.0","battery-v0.2","","""event"",""trial"",""time""
""fullscreenenter"",""1"",""1806""
","
","
","""event"",""trial"",""time""
""fullscreenenter"",""1"",""1806""
","
","","","","","","","","","","","","","","","","","","","","","","","","","","",""
"pit-instructions","36","400086","0.0-2.0-10.0","battery-v0.2","","""event"",""trial"",""time""
""fullscreenenter"",""1"",""1806""
","
","
","""event"",""trial"",""time""
""fullscreenenter"",""1"",""1806""
","
","","[{""page_index"":0,""viewing_time"":6687.89999999851},{""page_index"":1,""viewing_time"":8126.89999999851},{""page_index"":2,""viewing_time"":10260.5},{""page_index"":3,""viewing_time"":9581.30000000447},{""page_index"":4,""viewing_time"":8091.39999999851}]","42748.70000000298","","","","","","","","","","","","","","","","","","","","","","","",""
"pit-trial","37","404946","0.0-2.0-11.0-0.0","battery-v0.2","","""event"",""trial"",""time""
""fullscreenenter"",""1"",""1806""
","
","
","""event"",""trial"",""time""
""fullscreenenter"",""1"",""1806""
","
","","","-1","","","14","4367","3106","&#9761;","elianto","#3366ff99","-1","-1","1","+10","[]","0","0","2","","","","","","","",""
"pit-trial","38","409806","0.0-2.0-11.0-1.0","battery-v0.2","","""event"",""trial"",""time""
""fullscreenenter"",""1"",""1806""
","
","
","""event"",""trial"",""time""
""fullscreenenter"",""1"",""1806""
","
","","","-1","","","14","4367","3106","&#9761;","elianto","#3366ff99","-1","-1","1","+10","[]","0","0","2","","","","","","","",""
"pit-trial","39","414667","0.0-2.0-11.0-2.0","battery-v0.2","","""event"",""trial"",""time""
""fullscreenenter"",""1"",""1806""
","
","
","""event"",""trial"",""time""
""fullscreenenter"",""1"",""1806""
","
","","","-1","","","14","4367","3106","&#9761;","elianto","#3366ff99","-1","-1","1","+10","[]","0","0","2","","","","","","","",""
"pit-trial","40","418246","0.0-2.0-11.0-3.0","battery-v0.2","","""event"",""trial"",""time""
""fullscreenenter"",""1"",""1806""
","
","
","""event"",""trial"",""time""
""fullscreenenter"",""1"",""1806""
","
","","","719.6000000014901","","","14","4367","3106","&#9761;","elianto","#3366ff99","-1"," ","0","+10","[1569.6999999955297]","1","0","2","","","","","","","",""
"pit-trial","41","423107","0.0-2.0-11.0-4.0","battery-v0.2","","""event"",""trial"",""time""
""fullscreenenter"",""1"",""1806""
","
","
","""event"",""trial"",""time""
""fullscreenenter"",""1"",""1806""
","
","","","-1","","","14","4367","3106","&#9761;","elianto","#3366ff99","-1","-1","1","+10","[]","0","0","2","","","","","","","",""
"pit-trial","42","427968","0.0-2.0-11.1-0.1","battery-v0.2","","""event"",""trial"",""time""
""fullscreenenter"",""1"",""1806""
","
","
","""event"",""trial"",""time""
""fullscreenenter"",""1"",""1806""
","
","","","-1","","","14","4367","3106","&#9761;","elianto","#3366ff99","-1","-1","1","+10","[]","0","0","2","","","","","","","",""
"pit-trial","43","432828","0.0-2.0-11.1-1.1","battery-v0.2","","""event"",""trial"",""time""
""fullscreenenter"",""1"",""1806""
","
","
","""event"",""trial"",""time""
""fullscreenenter"",""1"",""1806""
","
","","","-1","","","14","4367","3106","&#9761;","elianto","#3366ff99","-1","-1","1","+10","[]","0","0","2","","","","","","","",""
"pit-trial","44","436538","0.0-2.0-11.1-2.1","battery-v0.2","","""event"",""trial"",""time""
""fullscreenenter"",""1"",""1806""
","
","
","""event"",""trial"",""time""
""fullscreenenter"",""1"",""1806""
","
","","","849.3999999985099","","","14","4367","3106","&#9761;","elianto","#3366ff99","-1"," ","0","0","[1699.5999999940395]","1","0","2","","","","","","","",""
"pit-trial","45","440180","0.0-2.0-11.1-3.1","battery-v0.2","","""event"",""trial"",""time""
""fullscreenenter"",""1"",""1806""
","
","
","""event"",""trial"",""time""
""fullscreenenter"",""1"",""1806""
","
","","","782.8999999985099","","","14","4367","3106","&#9761;","elianto","#3366ff99","-1"," ","0","+10","[1632.8999999985099]","1","0","2","","","","","","","",""
"pit-trial","46","445040","0.0-2.0-11.1-4.1","battery-v0.2","","""event"",""trial"",""time""
""fullscreenenter"",""1"",""1806""
","
","
","""event"",""trial"",""time""
""fullscreenenter"",""1"",""1806""
","
","","","-1","","","14","4367","3106","&#9761;","elianto","#3366ff99","-1","-1","1","+10","[]","0","0","2","","","","","","","",""
"pit-trial","47","449040","0.0-2.0-11.2-0.2","battery-v0.2","","""event"",""trial"",""time""
""fullscreenenter"",""1"",""1806""
","
","
","""event"",""trial"",""time""
""fullscreenenter"",""1"",""1806""
","
","","","1139.8999999985099","","","14","4367","3106","&#9761;","elianto","#3366ff99","-1"," ","0","0","[1990]","1","0","2","","","","","","","",""
"pit-trial","48","453900","0.0-2.0-11.2-1.2","battery-v0.2","","""event"",""trial"",""time""
""fullscreenenter"",""1"",""1806""
","
","
","""event"",""trial"",""time""
""fullscreenenter"",""1"",""1806""
","
","","","-1","","","14","4367","3106","&#9761;","elianto","#3366ff99","-1","-1","1","+10","[]","0","0","2","","","","","","","",""
"pit-trial","49","458760","0.0-2.0-11.2-2.2","battery-v0.2","","""event"",""trial"",""time""
""fullscreenenter"",""1"",""1806""
","
","
","""event"",""trial"",""time""
""fullscreenenter"",""1"",""1806""
","
","","","-1","","","14","4367","3106","&#9761;","elianto","#3366ff99","-1","-1","1","+10","[]","0","0","2","","","","","","","",""
"pit-trial","50","463619","0.0-2.0-11.2-3.2","battery-v0.2","","""event"",""trial"",""time""
""fullscreenenter"",""1"",""1806""
","
","
","""event"",""trial"",""time""
""fullscreenenter"",""1"",""1806""
","
","","","-1","","","14","4367","3106","&#9761;","elianto","#3366ff99","-1","-1","1","0","[]","0","0","2","","","","","","","",""
"pit-trial","51","467646","0.0-2.0-11.2-4.2","battery-v0.2","","""event"",""trial"",""time""
""fullscreenenter"",""1"",""1806""
","
","
","""event"",""trial"",""time""
""fullscreenenter"",""1"",""1806""
","
","","","1167.5999999940395","","","14","4367","3106","&#9761;","elianto","#3366ff99","-1"," ","0","0","[2017.6000000014901]","1","0","2","","","","","","","",""
"pit-trial","52","471191","0.0-2.0-11.3-0.3","battery-v0.2","","""event"",""trial"",""time""
""fullscreenenter"",""1"",""1806""
","
","
","""event"",""trial"",""time""
""fullscreenenter"",""1"",""1806""
","
","","","686","","","14","4367","3106","&#9761;","elianto","#3366ff99","-1"," ","0","0","[1536.2999999970198]","1","0","2","","","","","","","",""
"pit-trial","53","476051","0.0-2.0-11.3-1.3","battery-v0.2","","""event"",""trial"",""time""
""fullscreenenter"",""1"",""1806""
","
","
","""event"",""trial"",""time""
""fullscreenenter"",""1"",""1806""
","
","","","-1","","","14","4367","3106","&#9761;","elianto","#3366ff99","-1","-1","1","+10","[]","0","0","2","","","","","","","",""
"pit-trial","54","480910","0.0-2.0-11.3-2.3","battery-v0.2","","""event"",""trial"",""time""
""fullscreenenter"",""1"",""1806""
","
","
","""event"",""trial"",""time""
""fullscreenenter"",""1"",""1806""
","
","","","-1","","","14","4367","3106","&#9761;","elianto","#3366ff99","-1","-1","1","+10","[]","0","0","2","","","","","","","",""
"pit-trial","55","485771","0.0-2.0-11.3-3.3","battery-v0.2","","""event"",""trial"",""time""
""fullscreenenter"",""1"",""1806""
","
","
","""event"",""trial"",""time""
""fullscreenenter"",""1"",""1806""
","
","","","-1","","","14","4367","3106","&#9761;","elianto","#3366ff99","-1","-1","1","0","[]","0","0","2","","","","","","","",""
"pit-trial","56","490305","0.0-2.0-11.3-4.3","battery-v0.2","","""event"",""trial"",""time""
""fullscreenenter"",""1"",""1806""
","
","
","""event"",""trial"",""time""
""fullscreenenter"",""1"",""1806""
","
","","","1674.8000000044703","","","14","4367","3106","&#9761;","elianto","#3366ff99","-1"," ","0","0","[2524.89999999851,4346.39999999851]","2","0","2","","","","","","","",""
"call-function","57","490314","0.0-2.0-12.0","battery-v0.2","","""event"",""trial"",""time""
""fullscreenenter"",""1"",""1806""
","
","
","""event"",""trial"",""time""
""fullscreenenter"",""1"",""1806""
","
","","","","","","","","","","","","","","","","","","","","","","","","","","",""
"pit-instructions","58","518402","0.0-2.0-13.0","battery-v0.2","","""event"",""trial"",""time""
""fullscreenenter"",""1"",""1806""
","
","
","""event"",""trial"",""time""
""fullscreenenter"",""1"",""1806""
","
","","[{""page_index"":0,""viewing_time"":4839.20000000298},{""page_index"":1,""viewing_time"":6029},{""page_index"":2,""viewing_time"":3051.10000000149},{""page_index"":3,""viewing_time"":10155.19999999553},{""page_index"":4,""viewing_time"":4011.89999999851}]","28087.39999999851","","","","","","","","","","","","","","","","","","","","","","","",""
"pit-trial","59","522564","0.0-2.0-14.0-0.0","battery-v0.2","","""event"",""trial"",""time""
""fullscreenenter"",""1"",""1806""
","
","
","""event"",""trial"",""time""
""fullscreenenter"",""1"",""1806""
","
","","","1301.8000000044703","","","14","4367","3106","&#9826;","elianto","#f73b6a7A","-1"," ","0","-10","[2152]","1","0","3","","","","","","","",""
"pit-trial","60","527426","0.0-2.0-14.0-1.0","battery-v0.2","","""event"",""trial"",""time""
""fullscreenenter"",""1"",""1806""
","
","
","""event"",""trial"",""time""
""fullscreenenter"",""1"",""1806""
","
","","","-1","","","14","4367","3106","&#9826;","elianto","#f73b6a7A","-1","-1","1","0","[]","0","0","3","","","","","","","",""
"pit-trial","61","532286","0.0-2.0-14.0-2.0","battery-v0.2","","""event"",""trial"",""time""
""fullscreenenter"",""1"",""1806""
","
","
","""event"",""trial"",""time""
""fullscreenenter"",""1"",""1806""
","
","","","-1","","","14","4367","3106","&#9826;","elianto","#f73b6a7A","-1","-1","1","0","[]","0","0","3","","","","","","","",""
"pit-trial","62","537146","0.0-2.0-14.0-3.0","battery-v0.2","","""event"",""trial"",""time""
""fullscreenenter"",""1"",""1806""
","
","
","""event"",""trial"",""time""
""fullscreenenter"",""1"",""1806""
","
","","","-1","","","14","4367","3106","&#9826;","elianto","#f73b6a7A","-1","-1","1","-10","[]","0","0","3","","","","","","","",""
"pit-trial","63","542006","0.0-2.0-14.0-4.0","battery-v0.2","","""event"",""trial"",""time""
""fullscreenenter"",""1"",""1806""
","
","
","""event"",""trial"",""time""
""fullscreenenter"",""1"",""1806""
","
","","","-1","","","14","4367","3106","&#9826;","elianto","#f73b6a7A","-1","-1","1","0","[]","0","0","3","","","","","","","",""
"pit-trial","64","546867","0.0-2.0-14.1-0.1","battery-v0.2","","""event"",""trial"",""time""
""fullscreenenter"",""1"",""1806""
","
","
","""event"",""trial"",""time""
""fullscreenenter"",""1"",""1806""
","
","","","-1","","","14","4367","3106","&#9826;","elianto","#f73b6a7A","-1","-1","1","0","[]","0","0","3","","","","","","","",""
"pit-trial","65","551727","0.0-2.0-14.1-1.1","battery-v0.2","","""event"",""trial"",""time""
""fullscreenenter"",""1"",""1806""
","
","
","""event"",""trial"",""time""
""fullscreenenter"",""1"",""1806""
","
","","","-1","","","14","4367","3106","&#9826;","elianto","#f73b6a7A","-1","-1","1","0","[]","0","0","3","","","","","","","",""
"pit-trial","66","555828","0.0-2.0-14.1-2.1","battery-v0.2","","""event"",""trial"",""time""
""fullscreenenter"",""1"",""1806""
","
","
","""event"",""trial"",""time""
""fullscreenenter"",""1"",""1806""
","
","","","1241.3999999985099","","","14","4367","3106","&#9826;","elianto","#f73b6a7A","-1"," ","0","-10","[2092]","1","0","3","","","","","","","",""
"pit-trial","67","560688","0.0-2.0-14.1-3.1","battery-v0.2","","""event"",""trial"",""time""
""fullscreenenter"",""1"",""1806""
","
","
","""event"",""trial"",""time""
""fullscreenenter"",""1"",""1806""
","
","","","-1","","","14","4367","3106","&#9826;","elianto","#f73b6a7A","-1","-1","1","-10","[]","0","0","3","","","","","","","",""
"pit-trial","68","565547","0.0-2.0-14.1-4.1","battery-v0.2","","""event"",""trial"",""time""
""fullscreenenter"",""1"",""1806""
","
","
","""event"",""trial"",""time""
""fullscreenenter"",""1"",""1806""
","
","","","-1","","","14","4367","3106","&#9826;","elianto","#f73b6a7A","-1","-1","1","0","[]","0","0","3","","","","","","","",""
"pit-trial","69","570407","0.0-2.0-14.2-0.2","battery-v0.2","","""event"",""trial"",""time""
""fullscreenenter"",""1"",""1806""
","
","
","""event"",""trial"",""time""
""fullscreenenter"",""1"",""1806""
","
","","","-1","","","14","4367","3106","&#9826;","elianto","#f73b6a7A","-1","-1","1","0","[]","0","0","3","","","","","","","",""
"pit-trial","70","575267","0.0-2.0-14.2-1.2","battery-v0.2","","""event"",""trial"",""time""
""fullscreenenter"",""1"",""1806""
","
","
","""event"",""trial"",""time""
""fullscreenenter"",""1"",""1806""
","
","","","-1","","","14","4367","3106","&#9826;","elianto","#f73b6a7A","-1","-1","1","0","[]","0","0","3","","","","","","","",""
"pit-trial","71","578702","0.0-2.0-14.2-2.2","battery-v0.2","","""event"",""trial"",""time""
""fullscreenenter"",""1"",""1806""
","
","
","""event"",""trial"",""time""
""fullscreenenter"",""1"",""1806""
","
","","","576.5","","","14","4367","3106","&#9826;","elianto","#f73b6a7A","-1"," ","0","-10","[1426.6000000014901,2266.5,3173.5]","3","0","3","","","","","","","",""
"pit-trial","72","583561","0.0-2.0-14.2-3.2","battery-v0.2","","""event"",""trial"",""time""
""fullscreenenter"",""1"",""1806""
","
","
","""event"",""trial"",""time""
""fullscreenenter"",""1"",""1806""
","
","","","-1","","","14","4367","3106","&#9826;","elianto","#f73b6a7A","-1","-1","1","-10","[]","0","0","3","","","","","","","",""
"pit-trial","73","588421","0.0-2.0-14.2-4.2","battery-v0.2","","""event"",""trial"",""time""
""fullscreenenter"",""1"",""1806""
","
","
","""event"",""trial"",""time""
""fullscreenenter"",""1"",""1806""
","
","","","-1","","","14","4367","3106","&#9826;","elianto","#f73b6a7A","-1","-1","1","0","[]","0","0","3","","","","","","","",""
"pit-trial","74","593283","0.0-2.0-14.3-0.3","battery-v0.2","","""event"",""trial"",""time""
""fullscreenenter"",""1"",""1806""
","
","
","""event"",""trial"",""time""
""fullscreenenter"",""1"",""1806""
","
","","","-1","","","14","4367","3106","&#9826;","elianto","#f73b6a7A","-1","-1","1","0","[]","0","0","3","","","","","","","",""
"pit-trial","75","598143","0.0-2.0-14.3-1.3","battery-v0.2","","""event"",""trial"",""time""
""fullscreenenter"",""1"",""1806""
","
","
","""event"",""trial"",""time""
""fullscreenenter"",""1"",""1806""
","
","","","-1","","","14","4367","3106","&#9826;","elianto","#f73b6a7A","-1","-1","1","0","[]","0","0","3","","","","","","","",""
"pit-trial","76","603003","0.0-2.0-14.3-2.3","battery-v0.2","","""event"",""trial"",""time""
""fullscreenenter"",""1"",""1806""
","
","
","""event"",""trial"",""time""
""fullscreenenter"",""1"",""1806""
","
","","","-1","","","14","4367","3106","&#9826;","elianto","#f73b6a7A","-1","-1","1","0","[]","0","0","3","","","","","","","",""
"pit-trial","77","607045","0.0-2.0-14.3-3.3","battery-v0.2","","""event"",""trial"",""time""
""fullscreenenter"",""1"",""1806""
","
","
","""event"",""trial"",""time""
""fullscreenenter"",""1"",""1806""
","
","","","1182.3999999985099","","","14","4367","3106","&#9826;","elianto","#f73b6a7A","-1"," ","0","0","[2033]","1","0","3","","","","","","","",""
"pit-trial","78","611905","0.0-2.0-14.3-4.3","battery-v0.2","","""event"",""trial"",""time""
""fullscreenenter"",""1"",""1806""
","
","
","""event"",""trial"",""time""
""fullscreenenter"",""1"",""1806""
","
","","","-1","","","14","4367","3106","&#9826;","elianto","#f73b6a7A","-1","-1","1","0","[]","0","0","3","","","","","","","",""
"call-function","79","611913","0.0-2.0-15.0","battery-v0.2","","""event"",""trial"",""time""
""fullscreenenter"",""1"",""1806""
","
","
","""event"",""trial"",""time""
""fullscreenenter"",""1"",""1806""
","
","","","","","","","","","","","","","","","","","","","","","","","","","","",""
"pit-instructions","80","638957","0.0-2.0-16.0","battery-v0.2","","""event"",""trial"",""time""
""fullscreenenter"",""1"",""1806""
","
","
","""event"",""trial"",""time""
""fullscreenenter"",""1"",""1806""
","
","","[{""page_index"":0,""viewing_time"":7236.79999999702},{""page_index"":1,""viewing_time"":9550.30000000447},{""page_index"":2,""viewing_time"":4810.60000000149},{""page_index"":3,""viewing_time"":5443.79999999702}]","27042.5","","","","","","","","","","","","","","","","","","","","","","","",""
"pit-trial","81","643819","0.0-2.0-17.0-0.0","battery-v0.2","","""event"",""trial"",""time""
""fullscreenenter"",""1"",""1806""
","
","
","""event"",""trial"",""time""
""fullscreenenter"",""1"",""1806""
","
","","","-1","","","14","4367","3106","&#9789;","elianto","#f73b6a7A"," ","-1","0","-10","[]","0","0","4","","","","","","","",""
"pit-trial","82","647084","0.0-2.0-17.0-1.0","battery-v0.2","","""event"",""trial"",""time""
""fullscreenenter"",""1"",""1806""
","
","
","""event"",""trial"",""time""
""fullscreenenter"",""1"",""1806""
","
","","","405.3999999985099","","","14","4367","3106","&#9789;","elianto","#f73b6a7A"," "," ","1","0","[1255.6999999955297]","1","0","4","","","","","","","",""
"pit-trial","83","650147","0.0-2.0-17.0-2.0","battery-v0.2","","""event"",""trial"",""time""
""fullscreenenter"",""1"",""1806""
","
","
","""event"",""trial"",""time""
""fullscreenenter"",""1"",""1806""
","
","","","202.80000000447035","","","14","4367","3106","&#9789;","elianto","#f73b6a7A"," "," ","1","0","[1053.1000000014901]","1","0","4","","","","","","","",""
"pit-trial","84","653094","0.0-2.0-17.0-3.0","battery-v0.2","","""event"",""trial"",""time""
""fullscreenenter"",""1"",""1806""
","
","
","""event"",""trial"",""time""
""fullscreenenter"",""1"",""1806""
","
","","","89","","","14","4367","3106","&#9789;","elianto","#f73b6a7A"," "," ","1","-10","[939.5]","1","0","4","","","","","","","",""
"pit-trial","85","656451","0.0-2.0-17.0-4.0","battery-v0.2","","""event"",""trial"",""time""
""fullscreenenter"",""1"",""1806""
","
","
","""event"",""trial"",""time""
""fullscreenenter"",""1"",""1806""
","
","","","497.5","","","14","4367","3106","&#9789;","elianto","#f73b6a7A"," "," ","1","0","[535.5,1347.7000000029802]","2","0","4","","","","","","","",""
"pit-trial","86","659599","0.0-2.0-17.1-0.1","battery-v0.2","","""event"",""trial"",""time""
""fullscreenenter"",""1"",""1806""
","
","
","""event"",""trial"",""time""
""fullscreenenter"",""1"",""1806""
","
","","","286.5","","","14","4367","3106","&#9789;","elianto","#f73b6a7A"," "," ","1","0","[1136.5]","1","0","4","","","","","","","",""
"pit-trial","87","664459","0.0-2.0-17.1-1.1","battery-v0.2","","""event"",""trial"",""time""
""fullscreenenter"",""1"",""1806""
","
","
","""event"",""trial"",""time""
""fullscreenenter"",""1"",""1806""
","
","","","-1","","","14","4367","3106","&#9789;","elianto","#f73b6a7A"," ","-1","0","-10","[]","0","0","4","","","","","","","",""
"pit-trial","88","667507","0.0-2.0-17.1-2.1","battery-v0.2","","""event"",""trial"",""time""
""fullscreenenter"",""1"",""1806""
","
","
","""event"",""trial"",""time""
""fullscreenenter"",""1"",""1806""
","
","","","187.40000000596046","","","14","4367","3106","&#9789;","elianto","#f73b6a7A"," "," ","1","0","[1038.8000000044703]","1","0","4","","","","","","","",""
"pit-trial","89","670628","0.0-2.0-17.1-3.1","battery-v0.2","","""event"",""trial"",""time""
""fullscreenenter"",""1"",""1806""
","
","
","""event"",""trial"",""time""
""fullscreenenter"",""1"",""1806""
","
","","","261.1000000014901","","","14","4367","3106","&#9789;","elianto","#f73b6a7A"," "," ","1","-10","[1112]","1","0","4","","","","","","","",""
"pit-trial","90","674046","0.0-2.0-17.1-4.1","battery-v0.2","","""event"",""trial"",""time""
""fullscreenenter"",""1"",""1806""
","
","
","""event"",""trial"",""time""
""fullscreenenter"",""1"",""1806""
","
","","","557.1999999955297","","","14","4367","3106","&#9789;","elianto","#f73b6a7A"," "," ","1","0","[1407.5]","1","0","4","","","","","","","",""
"pit-trial","91","677646","0.0-2.0-17.2-0.2","battery-v0.2","","""event"",""trial"",""time""
""fullscreenenter"",""1"",""1806""
","
","
","""event"",""trial"",""time""
""fullscreenenter"",""1"",""1806""
","
","","","739.8000000044703","","","14","4367","3106","&#9789;","elianto","#f73b6a7A"," "," ","1","0","[1590.2000000029802]","1","0","4","","","","","","","",""
"pit-trial","92","682506","0.0-2.0-17.2-1.2","battery-v0.2","","""event"",""trial"",""time""
""fullscreenenter"",""1"",""1806""
","
","
","""event"",""trial"",""time""
""fullscreenenter"",""1"",""1806""
","
","","","-1","","","14","4367","3106","&#9789;","elianto","#f73b6a7A"," ","-1","0","-10","[758.7999999970198,2888.7999999970198]","2","0","4","","","","","","","",""
"pit-trial","93","686407","0.0-2.0-17.2-2.2","battery-v0.2","","""event"",""trial"",""time""
""fullscreenenter"",""1"",""1806""
","
","
","""event"",""trial"",""time""
""fullscreenenter"",""1"",""1806""
","
","","","1041.2999999970198","","","14","4367","3106","&#9789;","elianto","#f73b6a7A"," "," ","1","0","[1891.6000000014901]","1","0","4","","","","","","","",""
"pit-trial","94","689645","0.0-2.0-17.2-3.2","battery-v0.2","","""event"",""trial"",""time""
""fullscreenenter"",""1"",""1806""
","
","
","""event"",""trial"",""time""
""fullscreenenter"",""1"",""1806""
","
","","","376.5","","","14","4367","3106","&#9789;","elianto","#f73b6a7A"," "," ","1","-10","[1227.6000000014901]","1","0","4","","","","","","","",""
"pit-trial","95","694506","0.0-2.0-17.2-4.2","battery-v0.2","","""event"",""trial"",""time""
""fullscreenenter"",""1"",""1806""
","
","
","""event"",""trial"",""time""
""fullscreenenter"",""1"",""1806""
","
","","","-1","","","14","4367","3106","&#9789;","elianto","#f73b6a7A"," ","-1","0","-10","[3050.10000000149]","1","0","4","","","","","","","",""
"pit-trial","96","698117","0.0-2.0-17.3-0.3","battery-v0.2","","""event"",""trial"",""time""
""fullscreenenter"",""1"",""1806""
","
","
","""event"",""trial"",""time""
""fullscreenenter"",""1"",""1806""
","
","","","751.2999999970198","","","14","4367","3106","&#9789;","elianto","#f73b6a7A"," "," ","1","0","[1601.6000000014901]","1","0","4","","","","","","","",""
"pit-trial","97","701406","0.0-2.0-17.3-1.3","battery-v0.2","","""event"",""trial"",""time""
""fullscreenenter"",""1"",""1806""
","
","
","""event"",""trial"",""time""
""fullscreenenter"",""1"",""1806""
","
","","","428.3999999985099","","","14","4367","3106","&#9789;","elianto","#f73b6a7A"," "," ","1","0","[1278.7000000029802]","1","0","4","","","","","","","",""
"pit-trial","98","705233","0.0-2.0-17.3-2.3","battery-v0.2","","""event"",""trial"",""time""
""fullscreenenter"",""1"",""1806""
","
","
","""event"",""trial"",""time""
""fullscreenenter"",""1"",""1806""
","
","","","963.6000000014901","","","14","4367","3106","&#9789;","elianto","#f73b6a7A"," "," ","1","0","[1814.6999999955297,2772.0999999940395]","2","0","4","","","","","","","",""
"pit-trial","99","709174","0.0-2.0-17.3-3.3","battery-v0.2","","""event"",""trial"",""time""
""fullscreenenter"",""1"",""1806""
","
","
","""event"",""trial"",""time""
""fullscreenenter"",""1"",""1806""
","
","","","1078.7000000029802","","","14","4367","3106","&#9789;","elianto","#f73b6a7A"," "," ","1","-10","[1928.8000000044703]","1","0","4","","","","","","","",""
"pit-trial","100","712812","0.0-2.0-17.3-4.3","battery-v0.2","","""event"",""trial"",""time""
""fullscreenenter"",""1"",""1806""
","
","
","""event"",""trial"",""time""
""fullscreenenter"",""1"",""1806""
","
","","","778.1999999955297","","","14","4367","3106","&#9789;","elianto","#f73b6a7A"," "," ","1","0","[1628.3999999985099]","1","0","4","","","","","","","",""
"call-function","101","712820","0.0-2.0-18.0","battery-v0.2","","""event"",""trial"",""time""
""fullscreenenter"",""1"",""1806""
","
","
","""event"",""trial"",""time""
""fullscreenenter"",""1"",""1806""
","
","","","","","","","","","","","","","","","","","","","","","","","","","","",""
"pit-instructions","102","791323","0.0-2.0-19.0","battery-v0.2","","""event"",""trial"",""time""
""fullscreenenter"",""1"",""1806""
","
","
","""event"",""trial"",""time""
""fullscreenenter"",""1"",""1806""
","
","","[{""page_index"":0,""viewing_time"":10078.20000000298},{""page_index"":1,""viewing_time"":7500.29999999702},{""page_index"":2,""viewing_time"":14269.39999999851},{""page_index"":3,""viewing_time"":6560.30000000447},{""page_index"":4,""viewing_time"":8580.79999999702},{""page_index"":5,""viewing_time"":9474.80000000447},{""page_index"":6,""viewing_time"":8937.39999999851},{""page_index"":7,""viewing_time"":7911.19999999553},{""page_index"":8,""viewing_time"":5188.20000000298}]","78501.30000000447","","","","","","","","","","","","","","","","","","","","","","","",""
"pit-comprehension","103","798737","0.0-2.0-20.0-0.0","battery-v0.2","","""event"",""trial"",""time""
""fullscreenenter"",""1"",""1806""
","
","
","""event"",""trial"",""time""
""fullscreenenter"",""1"",""1806""
","
","","","7379.69999999553","[""SPACE""]","0","14","4367","3106","","","","","","","","","","","","","","","","","","",""
"pit-instructions","104","801226","0.0-2.0-20.0-1.0","battery-v0.2","","""event"",""trial"",""time""
""fullscreenenter"",""1"",""1806""
","
","
","""event"",""trial"",""time""
""fullscreenenter"",""1"",""1806""
","
","","[{""page_index"":0,""viewing_time"":2418.1999999955297}]","2418.89999999851","","","","","","","","","","","","","","","","","","","","","","","",""
"pit-comprehension","105","807847","0.0-2.0-21.0-0.0","battery-v0.2","","""event"",""trial"",""time""
""fullscreenenter"",""1"",""1806""
","
","
","""event"",""trial"",""time""
""fullscreenenter"",""1"",""1806""
","
","","","6608.20000000298","[""10""]","0","14","4367","3106","","","","","","","","","","","","","","","","","","",""
"pit-instructions","106","809551","0.0-2.0-21.0-1.0","battery-v0.2","","""event"",""trial"",""time""
""fullscreenenter"",""1"",""1806""
","
","
","""event"",""trial"",""time""
""fullscreenenter"",""1"",""1806""
","
","","[{""page_index"":0,""viewing_time"":1616.1000000014901}]","1616.7999999970198","","","","","","","","","","","","","","","","","","","","","","","",""
"pit-comprehension","107","816461","0.0-2.0-22.0-0.0","battery-v0.2","","""event"",""trial"",""time""
""fullscreenenter"",""1"",""1806""
","
","
","""event"",""trial"",""time""
""fullscreenenter"",""1"",""1806""
","
","","","6894.39999999851","[""0""]","0","14","4367","3106","","","","","","","","","","","","","","","","","","",""
"pit-instructions","108","818297","0.0-2.0-22.0-1.0","battery-v0.2","","""event"",""trial"",""time""
""fullscreenenter"",""1"",""1806""
","
","
","""event"",""trial"",""time""
""fullscreenenter"",""1"",""1806""
","
","","[{""page_index"":0,""viewing_time"":1784.7000000029802}]","1785.5","","","","","","","","","","","","","","","","","","","","","","","",""
"pit-comprehension","109","829664","0.0-2.0-23.0-0.0","battery-v0.2","","""event"",""trial"",""time""
""fullscreenenter"",""1"",""1806""
","
","
","""event"",""trial"",""time""
""fullscreenenter"",""1"",""1806""
","
","","","11353.70000000298","[""True""]","0","14","4367","3106","","","","","","","","","","","","","","","","","","",""
"pit-instructions","110","831152","0.0-2.0-23.0-1.0","battery-v0.2","","""event"",""trial"",""time""
""fullscreenenter"",""1"",""1806""
","
","
","""event"",""trial"",""time""
""fullscreenenter"",""1"",""1806""
","
","","[{""page_index"":0,""viewing_time"":1432.3000000044703}]","1433.1000000014901","","","","","","","","","","","","","","","","","","","","","","","",""
"pit-comprehension","111","838280","0.0-2.0-24.0-0.0","battery-v0.2","","""event"",""trial"",""time""
""fullscreenenter"",""1"",""1806""
","
","
","""event"",""trial"",""time""
""fullscreenenter"",""1"",""1806""
","
","","","7114","[""True""]","0","14","4367","3106","","","","","","","","","","","","","","","","","","",""
"pit-instructions","112","839781","0.0-2.0-24.0-1.0","battery-v0.2","","""event"",""trial"",""time""
""fullscreenenter"",""1"",""1806""
","
","
","""event"",""trial"",""time""
""fullscreenenter"",""1"",""1806""
","
","","[{""page_index"":0,""viewing_time"":1422.8999999985099}]","1423.6999999955297","","","","","","","","","","","","","","","","","","","","","","","",""
"pit-comprehension","113","845879","0.0-2.0-25.0-0.0","battery-v0.2","","""event"",""trial"",""time""
""fullscreenenter"",""1"",""1806""
","
","
","""event"",""trial"",""time""
""fullscreenenter"",""1"",""1806""
","
","","","6083.19999999553","[""True""]","0","14","4367","3106","","","","","","","","","","","","","","","","","","",""
"pit-instructions","114","847235","0.0-2.0-25.0-1.0","battery-v0.2","","""event"",""trial"",""time""
""fullscreenenter"",""1"",""1806""
","
","
","""event"",""trial"",""time""
""fullscreenenter"",""1"",""1806""
","
","","[{""page_index"":0,""viewing_time"":1302.8000000044703}]","1303.3000000044703","","","","","","","","","","","","","","","","","","","","","","","",""
"pit-comprehension","115","854722","0.0-2.0-26.0-0.0","battery-v0.2","","""event"",""trial"",""time""
""fullscreenenter"",""1"",""1806""
","
","
","""event"",""trial"",""time""
""fullscreenenter"",""1"",""1806""
","
","","","7474.5","[""False""]","0","14","4367","3106","","","","","","","","","","","","","","","","","","",""
"pit-instructions","116","856128","0.0-2.0-26.0-1.0","battery-v0.2","","""event"",""trial"",""time""
""fullscreenenter"",""1"",""1806""
","
","
","""event"",""trial"",""time""
""fullscreenenter"",""1"",""1806""
","
","","[{""page_index"":0,""viewing_time"":1344.3999999985099}]","1345","","","","","","","","","","","","","","","","","","","","","","","",""
"pit-instructions","117","873400","0.0-3.0","battery-v0.2","","""event"",""trial"",""time""
""fullscreenenter"",""1"",""1806""
","
","
","""event"",""trial"",""time""
""fullscreenenter"",""1"",""1806""
","
","","[{""page_index"":0,""viewing_time"":3919.1999999955297},{""page_index"":1,""viewing_time"":5123.10000000149},{""page_index"":2,""viewing_time"":8219.5}]","17263.39999999851","","","","","","","","","","","","","","","","","","","","","","","",""
"pit-trial","118","878271","0.0-4.0","battery-v0.2","","""event"",""trial"",""time""
""fullscreenenter"",""1"",""1806""
","
","
","""event"",""trial"",""time""
""fullscreenenter"",""1"",""1806""
","
","","","-1","","","14","4367","3106","&#9752;","elianto","#f73b6a7A"," ","-1","0","-10","[]","0","1","","","4367","1","3","3","lose","go","0"
"pit-trial","119","883077","0.0-5.0","battery-v0.2","","""event"",""trial"",""time""
""fullscreenenter"",""1"",""1806""
","
","
","""event"",""trial"",""time""
""fullscreenenter"",""1"",""1806""
","
","","","1946","","","14","4367","3106","&#9730;","elianto","#3366ff99"," "," ","1","+10","[2796.4000000059605]","1","1","","","4367","2","1","1","win","go","0"
"pit-trial","120","887944","0.0-6.0","battery-v0.2","","""event"",""trial"",""time""
""fullscreenenter"",""1"",""1806""
","
","
","""event"",""trial"",""time""
""fullscreenenter"",""1"",""1806""
","
","","","-1","","","14","4367","3106","&#9733;","elianto","#3366ff99","-1","-1","1","+10","[]","0","1","","","4367","3","2","2","win","no-go","0"
"pit-trial","121","892806","0.0-7.0","battery-v0.2","","""event"",""trial"",""time""
""fullscreenenter"",""1"",""1806""
","
","
","""event"",""trial"",""time""
""fullscreenenter"",""1"",""1806""
","
","","","-1","","","14","4367","3106","&#9728;","elianto","#f73b6a7A","-1","-1","1","0","[]","0","1","","","4367","4","0","4","lose","no-go","0"
"pit-trial","122","897667","0.0-8.0","battery-v0.2","","""event"",""trial"",""time""
""fullscreenenter"",""1"",""1806""
","
","
","""event"",""trial"",""time""
""fullscreenenter"",""1"",""1806""
","
","","","-1","","","14","4367","3106","&#9752;","elianto","#f73b6a7A"," ","-1","0","-10","[]","0","1","","","4367","5","3","3","lose","go","0"
"pit-trial","123","902527","0.0-9.0","battery-v0.2","","""event"",""trial"",""time""
""fullscreenenter"",""1"",""1806""
","
","
","""event"",""trial"",""time""
""fullscreenenter"",""1"",""1806""
","
","","","-1","","","14","4367","3106","&#9728;","elianto","#f73b6a7A","-1","-1","1","0","[]","0","1","","","4367","6","0","4","lose","no-go","0"
"pit-trial","124","906413","0.0-10.0","battery-v0.2","","""event"",""trial"",""time""
""fullscreenenter"",""1"",""1806""
","
","
","""event"",""trial"",""time""
""fullscreenenter"",""1"",""1806""
","
","","","1022.5","","","14","4367","3106","&#9730;","elianto","#3366ff99"," "," ","1","0","[1873.7999999970198]","1","1","","","4367","7","1","1","win","go","1"
"pit-trial","125","911274","0.0-11.0","battery-v0.2","","""event"",""trial"",""time""
""fullscreenenter"",""1"",""1806""
","
","
","""event"",""trial"",""time""
""fullscreenenter"",""1"",""1806""
","
","","","-1","","","14","4367","3106","&#9733;","elianto","#3366ff99","-1","-1","1","0","[]","0","1","","","4367","8","2","2","win","no-go","1"
"pit-trial","126","915063","0.0-12.0","battery-v0.2","","""event"",""trial"",""time""
""fullscreenenter"",""1"",""1806""
","
","
","""event"",""trial"",""time""
""fullscreenenter"",""1"",""1806""
","
","","","926.3000000044703","","","14","4367","3106","&#9733;","elianto","#3366ff99","-1"," ","0","+10","[1778.7000000029802]","1","1","","","4367","9","2","2","win","no-go","1"
"pit-trial","127","919285","0.0-13.0","battery-v0.2","","""event"",""trial"",""time""
""fullscreenenter"",""1"",""1806""
","
","
","""event"",""trial"",""time""
""fullscreenenter"",""1"",""1806""
","
","","","1361.3000000044703","","","14","4367","3106","&#9730;","elianto","#3366ff99"," "," ","1","+10","[2211.39999999851]","1","1","","","4367","10","1","1","win","go","0"
"pit-trial","128","923068","0.0-14.0","battery-v0.2","","""event"",""trial"",""time""
""fullscreenenter"",""1"",""1806""
","
","
","""event"",""trial"",""time""
""fullscreenenter"",""1"",""1806""
","
","","","922.6999999955297","","","14","4367","3106","&#9728;","elianto","#f73b6a7A","-1"," ","0","-10","[1772.8999999985099]","1","1","","","4367","11","0","4","lose","no-go","0"
"pit-trial","129","927853","0.0-15.0","battery-v0.2","","""event"",""trial"",""time""
""fullscreenenter"",""1"",""1806""
","
","
","""event"",""trial"",""time""
""fullscreenenter"",""1"",""1806""
","
","","","1920.5","","","14","4367","3106","&#9752;","elianto","#f73b6a7A"," "," ","1","0","[2770.5]","1","1","","","4367","12","3","3","lose","go","0"
"pit-trial","130","932713","0.0-16.0","battery-v0.2","","""event"",""trial"",""time""
""fullscreenenter"",""1"",""1806""
","
","
","""event"",""trial"",""time""
""fullscreenenter"",""1"",""1806""
","
","","","-1","","","14","4367","3106","&#9752;","elianto","#f73b6a7A"," ","-1","0","-10","[]","0","1","","","4367","13","3","3","lose","go","0"
"pit-trial","131","936940","0.0-17.0","battery-v0.2","","""event"",""trial"",""time""
""fullscreenenter"",""1"",""1806""
","
","
","""event"",""trial"",""time""
""fullscreenenter"",""1"",""1806""
","
","","","1367.3999999985099","","","14","4367","3106","&#9730;","elianto","#3366ff99"," "," ","1","+10","[2217.5]","1","1","","","4367","14","1","1","win","go","0"
"pit-trial","132","941800","0.0-18.0","battery-v0.2","","""event"",""trial"",""time""
""fullscreenenter"",""1"",""1806""
","
","
","""event"",""trial"",""time""
""fullscreenenter"",""1"",""1806""
","
","","","-1","","","14","4367","3106","&#9728;","elianto","#f73b6a7A","-1","-1","1","-10","[]","0","1","","","4367","15","0","4","lose","no-go","1"
"pit-trial","133","946646","0.0-19.0","battery-v0.2","","""event"",""trial"",""time""
""fullscreenenter"",""1"",""1806""
","
","
","""event"",""trial"",""time""
""fullscreenenter"",""1"",""1806""
","
","","","1985.8000000044703","","","14","4367","3106","&#9733;","elianto","#3366ff99","-1"," ","0","+10","[2835.8000000044703]","1","1","","","4367","16","2","2","win","no-go","1"
"pit-trial","134","951506","0.0-20.0","battery-v0.2","","""event"",""trial"",""time""
""fullscreenenter"",""1"",""1806""
","
","
","""event"",""trial"",""time""
""fullscreenenter"",""1"",""1806""
","
","","","-1","","","14","4367","3106","&#9728;","elianto","#f73b6a7A","-1","-1","1","-10","[]","0","1","","","4367","17","0","4","lose","no-go","1"
"pit-trial","135","955298","0.0-21.0","battery-v0.2","","""event"",""trial"",""time""
""fullscreenenter"",""1"",""1806""
","
","
","""event"",""trial"",""time""
""fullscreenenter"",""1"",""1806""
","
","","","930.3999999985099","","","14","4367","3106","&#9733;","elianto","#3366ff99","-1"," ","0","0","[1780.5,3338]","2","1","","","4367","18","2","2","win","no-go","0"
"pit-trial","136","960159","0.0-22.0","battery-v0.2","","""event"",""trial"",""time""
""fullscreenenter"",""1"",""1806""
","
","
","""event"",""trial"",""time""
""fullscreenenter"",""1"",""1806""
","
","","","-1","","","14","4367","3106","&#9752;","elianto","#f73b6a7A"," ","-1","0","-10","[]","0","1","","","4367","19","3","3","lose","go","0"
"pit-trial","137","964159","0.0-23.0","battery-v0.2","","""event"",""trial"",""time""
""fullscreenenter"",""1"",""1806""
","
","
","""event"",""trial"",""time""
""fullscreenenter"",""1"",""1806""
","
","","","1140.6000000014901","","","14","4367","3106","&#9730;","elianto","#3366ff99"," "," ","1","+10","[1990.6000000014901]","1","1","","","4367","20","1","1","win","go","0"
"pit-instructions","138","977132","0.0-24.0","battery-v0.2","","""event"",""trial"",""time""
""fullscreenenter"",""1"",""1806""
","
","
","""event"",""trial"",""time""
""fullscreenenter"",""1"",""1806""
","
","","[{""page_index"":0,""viewing_time"":6628.79999999702},{""page_index"":1,""viewing_time"":6334.9000000059605}]","12964.5","","","","","","","","","","","","","","","","","","","","","","","",""
"pit-trial","139","981996","0.0-25.0","battery-v0.2","","""event"",""trial"",""time""
""fullscreenenter"",""1"",""1806""
","
","
","""event"",""trial"",""time""
""fullscreenenter"",""1"",""1806""
","
","","","-1","","","14","4367","3106","n","elianto","#f73b6a7A"," ","-1","0","-10","[]","0","2","","","4367","21","0","3","lose","go","0"
"pit-trial","140","986859","0.0-26.0","battery-v0.2","","""event"",""trial"",""time""
""fullscreenenter"",""1"",""1806""
","
","
","""event"",""trial"",""time""
""fullscreenenter"",""1"",""1806""
","
","","","-1","","","14","4367","3106","t","elianto","#f73b6a7A"," ","-1","0","-10","[]","0","2","","","4367","22","2","3","lose","go","0"
"pit-trial","141","991576","0.0-27.0","battery-v0.2","","""event"",""trial"",""time""
""fullscreenenter"",""1"",""1806""
","
","
","""event"",""trial"",""time""
""fullscreenenter"",""1"",""1806""
","
","","","1854.6000000014901","","","14","4367","3106","b","elianto","#f73b6a7A","-1"," ","0","-10","[2707.2999999970198]","1","2","","","4367","23","3","4","lose","no-go","0"
"pit-trial","142","996436","0.0-28.0","battery-v0.2","","""event"",""trial"",""time""
""fullscreenenter"",""1"",""1806""
","
","
","""event"",""trial"",""time""
""fullscreenenter"",""1"",""1806""
","
","","","-1","","","14","4367","3106","f","elianto","#3366ff99","-1","-1","1","+10","[]","0","2","","","4367","24","1","2","win","no-go","0"
"pit-trial","143","1001295","0.0-29.0","battery-v0.2","","""event"",""trial"",""time""
""fullscreenenter"",""1"",""1806""
","
","
","""event"",""trial"",""time""
""fullscreenenter"",""1"",""1806""
","
","","","-1","","","14","4367","3106","b","elianto","#f73b6a7A","-1","-1","1","0","[]","0","2","","","4367","25","3","4","lose","no-go","0"
"pit-trial","144","1005705","0.0-30.0","battery-v0.2","","""event"",""trial"",""time""
""fullscreenenter"",""1"",""1806""
","
","
","""event"",""trial"",""time""
""fullscreenenter"",""1"",""1806""
","
","","","1549.3000000044703","","","14","4367","3106","t","elianto","#f73b6a7A"," "," ","1","0","[2399.7000000029802]","1","2","","","4367","26","2","3","lose","go","0"
"pit-trial","145","1009414","0.0-31.0","battery-v0.2","","""event"",""trial"",""time""
""fullscreenenter"",""1"",""1806""
","
","
","""event"",""trial"",""time""
""fullscreenenter"",""1"",""1806""
","
","","","849.1999999955297","","","14","4367","3106","n","elianto","#f73b6a7A"," "," ","1","0","[1699.6999999955297]","1","2","","","4367","27","0","3","lose","go","0"
"pit-trial","146","1012957","0.0-32.0","battery-v0.2","","""event"",""trial"",""time""
""fullscreenenter"",""1"",""1806""
","
","
","""event"",""trial"",""time""
""fullscreenenter"",""1"",""1806""
","
","","","682.3999999985099","","","14","4367","3106","f","elianto","#3366ff99","-1"," ","0","0","[1532.7000000029802]","1","2","","","4367","28","1","2","win","no-go","0"
"pit-trial","147","1017818","0.0-33.0","battery-v0.2","","""event"",""trial"",""time""
""fullscreenenter"",""1"",""1806""
","
","
","""event"",""trial"",""time""
""fullscreenenter"",""1"",""1806""
","
","","","-1","","","14","4367","3106","f","elianto","#3366ff99","-1","-1","1","0","[]","0","2","","","4367","29","1","2","win","no-go","1"
"pit-trial","148","1022677","0.0-34.0","battery-v0.2","","""event"",""trial"",""time""
""fullscreenenter"",""1"",""1806""
","
","
","""event"",""trial"",""time""
""fullscreenenter"",""1"",""1806""
","
","","","-1","","","14","4367","3106","n","elianto","#f73b6a7A"," ","-1","0","-10","[]","0","2","","","4367","30","0","3","lose","go","0"
"pit-trial","149","1027537","0.0-35.0","battery-v0.2","","""event"",""trial"",""time""
""fullscreenenter"",""1"",""1806""
","
","
","""event"",""trial"",""time""
""fullscreenenter"",""1"",""1806""
","
","","","-1","","","14","4367","3106","b","elianto","#f73b6a7A","-1","-1","1","0","[2926.5]","1","2","","","4367","31","3","4","lose","no-go","0"
"pit-trial","150","1031780","0.0-36.0","battery-v0.2","","""event"",""trial"",""time""
""fullscreenenter"",""1"",""1806""
","
","
","""event"",""trial"",""time""
""fullscreenenter"",""1"",""1806""
","
","","","1383.1000000014901","","","14","4367","3106","t","elianto","#f73b6a7A"," "," ","1","-10","[2233.7000000029802]","1","2","","","4367","32","2","3","lose","go","1"
"pit-trial","151","1036640","0.0-37.0","battery-v0.2","","""event"",""trial"",""time""
""fullscreenenter"",""1"",""1806""
","
","
","""event"",""trial"",""time""
""fullscreenenter"",""1"",""1806""
","
","","","-1","","","14","4367","3106","b","elianto","#f73b6a7A","-1","-1","1","0","[]","0","2","","","4367","33","3","4","lose","no-go","0"
"pit-trial","152","1041501","0.0-38.0","battery-v0.2","","""event"",""trial"",""time""
""fullscreenenter"",""1"",""1806""
","
","
","""event"",""trial"",""time""
""fullscreenenter"",""1"",""1806""
","
","","","-1","","","14","4367","3106","f","elianto","#3366ff99","-1","-1","1","+10","[]","0","2","","","4367","34","1","2","win","no-go","0"
"pit-trial","153","1046210","0.0-39.0","battery-v0.2","","""event"",""trial"",""time""
""fullscreenenter"",""1"",""1806""
","
","
","""event"",""trial"",""time""
""fullscreenenter"",""1"",""1806""
","
","","","1848.6000000014901","","","14","4367","3106","n","elianto","#f73b6a7A"," "," ","1","0","[2699.10000000149]","1","2","","","4367","35","0","3","lose","go","0"
"pit-trial","154","1050699","0.0-40.0","battery-v0.2","","""event"",""trial"",""time""
""fullscreenenter"",""1"",""1806""
","
","
","""event"",""trial"",""time""
""fullscreenenter"",""1"",""1806""
","
","","","1625.8999999985099","","","14","4367","3106","t","elianto","#f73b6a7A"," "," ","1","0","[2479.10000000149]","1","2","","","4367","36","2","3","lose","go","0"
"pit-trial","155","1054834","0.0-41.0","battery-v0.2","","""event"",""trial"",""time""
""fullscreenenter"",""1"",""1806""
","
","
","""event"",""trial"",""time""
""fullscreenenter"",""1"",""1806""
","
","","","1275","","","14","4367","3106","t","elianto","#f73b6a7A"," "," ","1","-10","[2125.10000000149]","1","2","","","4367","37","2","3","lose","go","1"
"pit-trial","156","1059694","0.0-42.0","battery-v0.2","","""event"",""trial"",""time""
""fullscreenenter"",""1"",""1806""
","
","
","""event"",""trial"",""time""
""fullscreenenter"",""1"",""1806""
","
","","","-1","","","14","4367","3106","b","elianto","#f73b6a7A","-1","-1","1","0","[]","0","2","","","4367","38","3","4","lose","no-go","0"
"pit-trial","157","1064503","0.0-43.0","battery-v0.2","","""event"",""trial"",""time""
""fullscreenenter"",""1"",""1806""
","
","
","""event"",""trial"",""time""
""fullscreenenter"",""1"",""1806""
","
","","","1949.8999999985099","","","14","4367","3106","f","elianto","#3366ff99","-1"," ","0","+10","[2800.2000000029802]","1","2","","","4367","39","1","2","win","no-go","1"
"pit-trial","158","1069363","0.0-44.0","battery-v0.2","","""event"",""trial"",""time""
""fullscreenenter"",""1"",""1806""
","
","
","""event"",""trial"",""time""
""fullscreenenter"",""1"",""1806""
","
","","","-1","","","14","4367","3106","n","elianto","#f73b6a7A"," ","-1","0","-10","[]","0","2","","","4367","40","0","3","lose","go","0"
"pit-trial","159","1073421","0.0-45.0","battery-v0.2","","""event"",""trial"",""time""
""fullscreenenter"",""1"",""1806""
","
","
","""event"",""trial"",""time""
""fullscreenenter"",""1"",""1806""
","
","","","1199.8999999985099","","","14","4367","3106","f","elianto","#3366ff99","-1"," ","0","0","[2050.2000000029802]","1","2","","","4367","41","1","2","win","no-go","0"
"pit-trial","160","1078281","0.0-46.0","battery-v0.2","","""event"",""trial"",""time""
""fullscreenenter"",""1"",""1806""
","
","
","""event"",""trial"",""time""
""fullscreenenter"",""1"",""1806""
","
","","","-1","","","14","4367","3106","t","elianto","#f73b6a7A"," ","-1","0","0","[]","0","2","","","4367","42","2","3","lose","go","1"
"pit-trial","161","1083140","0.0-47.0","battery-v0.2","","""event"",""trial"",""time""
""fullscreenenter"",""1"",""1806""
","
","
","""event"",""trial"",""time""
""fullscreenenter"",""1"",""1806""
","
","","","-1","","","14","4367","3106","n","elianto","#f73b6a7A"," ","-1","0","0","[]","0","2","","","4367","43","0","3","lose","go","1"
"pit-trial","162","1087999","0.0-48.0","battery-v0.2","","""event"",""trial"",""time""
""fullscreenenter"",""1"",""1806""
","
","
","""event"",""trial"",""time""
""fullscreenenter"",""1"",""1806""
","
","","","-1","","","14","4367","3106","b","elianto","#f73b6a7A","-1","-1","1","0","[3253.60000000149]","1","2","","","4367","44","3","4","lose","no-go","0"
"pit-trial","163","1092859","0.0-49.0","battery-v0.2","","""event"",""trial"",""time""
""fullscreenenter"",""1"",""1806""
","
","
","""event"",""trial"",""time""
""fullscreenenter"",""1"",""1806""
","
","","","-1","","","14","4367","3106","b","elianto","#f73b6a7A","-1","-1","1","0","[]","0","2","","","4367","45","3","4","lose","no-go","0"
"pit-trial","164","1097719","0.0-50.0","battery-v0.2","","""event"",""trial"",""time""
""fullscreenenter"",""1"",""1806""
","
","
","""event"",""trial"",""time""
""fullscreenenter"",""1"",""1806""
","
","","","-1","","","14","4367","3106","n","elianto","#f73b6a7A"," ","-1","0","-10","[]","0","2","","","4367","46","0","3","lose","go","0"
"pit-trial","165","1102579","0.0-51.0","battery-v0.2","","""event"",""trial"",""time""
""fullscreenenter"",""1"",""1806""
","
","
","""event"",""trial"",""time""
""fullscreenenter"",""1"",""1806""
","
","","","-1","","","14","4367","3106","f","elianto","#3366ff99","-1","-1","1","+10","[3126.7999999970198]","1","2","","","4367","47","1","2","win","no-go","0"
"pit-trial","166","1107440","0.0-52.0","battery-v0.2","","""event"",""trial"",""time""
""fullscreenenter"",""1"",""1806""
","
","
","""event"",""trial"",""time""
""fullscreenenter"",""1"",""1806""
","
","","","-1","","","14","4367","3106","t","elianto","#f73b6a7A"," ","-1","0","-10","[3116.5999999940395]","1","2","","","4367","48","2","3","lose","go","0"
"pit-trial","167","1112300","0.0-53.0","battery-v0.2","","""event"",""trial"",""time""
""fullscreenenter"",""1"",""1806""
","
","
","""event"",""trial"",""time""
""fullscreenenter"",""1"",""1806""
","
","","","-1","","","14","4367","3106","b","elianto","#f73b6a7A","-1","-1","1","0","[]","0","2","","","4367","49","3","4","lose","no-go","0"
"pit-trial","168","1116457","0.0-54.0","battery-v0.2","","""event"",""trial"",""time""
""fullscreenenter"",""1"",""1806""
","
","
","""event"",""trial"",""time""
""fullscreenenter"",""1"",""1806""
","
","","","1296.7000000029802","","","14","4367","3106","n","elianto","#f73b6a7A"," "," ","1","-10","[2146.7999999970198]","1","2","","","4367","50","0","3","lose","go","1"
"pit-trial","169","1121317","0.0-55.0","battery-v0.2","","""event"",""trial"",""time""
""fullscreenenter"",""1"",""1806""
","
","
","""event"",""trial"",""time""
""fullscreenenter"",""1"",""1806""
","
","","","-1","","","14","4367","3106","t","elianto","#f73b6a7A"," ","-1","0","0","[]","0","2","","","4367","51","2","3","lose","go","1"
"pit-trial","170","1126144","0.0-56.0","battery-v0.2","","""event"",""trial"",""time""
""fullscreenenter"",""1"",""1806""
","
","
","""event"",""trial"",""time""
""fullscreenenter"",""1"",""1806""
","
","","","1965.5","","","14","4367","3106","f","elianto","#3366ff99","-1"," ","0","0","[2817.5]","1","2","","","4367","52","1","2","win","no-go","0"
"pit-trial","171","1131006","0.0-57.0","battery-v0.2","","""event"",""trial"",""time""
""fullscreenenter"",""1"",""1806""
","
","
","""event"",""trial"",""time""
""fullscreenenter"",""1"",""1806""
","
","","","-1","","","14","4367","3106","t","elianto","#f73b6a7A"," ","-1","0","-10","[2966.7999999970198]","1","2","","","4367","53","2","3","lose","go","0"
"pit-trial","172","1135866","0.0-58.0","battery-v0.2","","""event"",""trial"",""time""
""fullscreenenter"",""1"",""1806""
","
","
","""event"",""trial"",""time""
""fullscreenenter"",""1"",""1806""
","
","","","-1","","","14","4367","3106","b","elianto","#f73b6a7A","-1","-1","1","0","[]","0","2","","","4367","54","3","4","lose","no-go","0"
"pit-trial","173","1140195","0.0-59.0","battery-v0.2","","""event"",""trial"",""time""
""fullscreenenter"",""1"",""1806""
","
","
","""event"",""trial"",""time""
""fullscreenenter"",""1"",""1806""
","
","","","1468.6000000014901","","","14","4367","3106","n","elianto","#f73b6a7A"," "," ","1","0","[2319.10000000149]","1","2","","","4367","55","0","3","lose","go","0"
"pit-trial","174","1144861","0.0-60.0","battery-v0.2","","""event"",""trial"",""time""
""fullscreenenter"",""1"",""1806""
","
","
","""event"",""trial"",""time""
""fullscreenenter"",""1"",""1806""
","
","","","1805.1999999955297","","","14","4367","3106","f","elianto","#3366ff99","-1"," ","0","0","[2655.7999999970198]","1","2","","","4367","56","1","2","win","no-go","0"
"pit-trial","175","1149720","0.0-61.0","battery-v0.2","","""event"",""trial"",""time""
""fullscreenenter"",""1"",""1806""
","
","
","""event"",""trial"",""time""
""fullscreenenter"",""1"",""1806""
","
","","","-1","","","14","4367","3106","t","elianto","#f73b6a7A"," ","-1","0","0","[]","0","2","","","4367","57","2","3","lose","go","1"
"pit-trial","176","1154579","0.0-62.0","battery-v0.2","","""event"",""trial"",""time""
""fullscreenenter"",""1"",""1806""
","
","
","""event"",""trial"",""time""
""fullscreenenter"",""1"",""1806""
","
","","","-1","","","14","4367","3106","b","elianto","#f73b6a7A","-1","-1","1","0","[]","0","2","","","4367","58","3","4","lose","no-go","0"
"pit-trial","177","1159165","0.0-63.0","battery-v0.2","","""event"",""trial"",""time""
""fullscreenenter"",""1"",""1806""
","
","
","""event"",""trial"",""time""
""fullscreenenter"",""1"",""1806""
","
","","","1726.9000000059605","","","14","4367","3106","c","elianto","#3366ff99"," "," ","1","+10","[2577.10000000149]","1","2","","","4367","59","4","1","win","go","0"
"pit-trial","178","1164025","0.0-64.0","battery-v0.2","","""event"",""trial"",""time""
""fullscreenenter"",""1"",""1806""
","
","
","""event"",""trial"",""time""
""fullscreenenter"",""1"",""1806""
","
","","","-1","","","14","4367","3106","n","elianto","#f73b6a7A"," ","-1","0","-10","[]","0","2","","","4367","60","0","3","lose","go","0"
"pit-trial","179","1167349","0.0-65.0","battery-v0.2","","""event"",""trial"",""time""
""fullscreenenter"",""1"",""1806""
","
","
","""event"",""trial"",""time""
""fullscreenenter"",""1"",""1806""
","
","","","464.29999999701977","","","14","4367","3106","c","elianto","#3366ff99"," "," ","1","+10","[1314.7999999970198]","1","2","","","4367","61","4","1","win","go","0"
"pit-trial","180","1172208","0.0-66.0","battery-v0.2","","""event"",""trial"",""time""
""fullscreenenter"",""1"",""1806""
","
","
","""event"",""trial"",""time""
""fullscreenenter"",""1"",""1806""
","
","","","-1","","","14","4367","3106","b","elianto","#f73b6a7A","-1","-1","1","0","[]","0","2","","","4367","62","3","4","lose","no-go","0"
"pit-trial","181","1177069","0.0-67.0","battery-v0.2","","""event"",""trial"",""time""
""fullscreenenter"",""1"",""1806""
","
","
","""event"",""trial"",""time""
""fullscreenenter"",""1"",""1806""
","
","","","-1","","","14","4367","3106","t","elianto","#f73b6a7A"," ","-1","0","0","[]","0","2","","","4367","63","2","3","lose","go","1"
"pit-trial","182","1181687","0.0-68.0","battery-v0.2","","""event"",""trial"",""time""
""fullscreenenter"",""1"",""1806""
","
","
","""event"",""trial"",""time""
""fullscreenenter"",""1"",""1806""
","
","","","1756.2999999970198","","","14","4367","3106","f","elianto","#3366ff99","-1"," ","0","0","[2609.2000000029802]","1","2","","","4367","64","1","2","win","no-go","0"
"pit-trial","183","1186025","0.0-69.0","battery-v0.2","","""event"",""trial"",""time""
""fullscreenenter"",""1"",""1806""
","
","
","""event"",""trial"",""time""
""fullscreenenter"",""1"",""1806""
","
","","","1477.9000000059605","","","14","4367","3106","z","elianto","#3366ff99","-1"," ","0","0","[2328.10000000149]","1","2","","","4367","65","5","2","win","no-go","0"
"pit-trial","184","1190885","0.0-70.0","battery-v0.2","","""event"",""trial"",""time""
""fullscreenenter"",""1"",""1806""
","
","
","""event"",""trial"",""time""
""fullscreenenter"",""1"",""1806""
","
","","","-1","","","14","4367","3106","f","elianto","#3366ff99","-1","-1","1","+10","[]","0","2","","","4367","66","1","2","win","no-go","0"
"pit-trial","185","1195745","0.0-71.0","battery-v0.2","","""event"",""trial"",""time""
""fullscreenenter"",""1"",""1806""
","
","
","""event"",""trial"",""time""
""fullscreenenter"",""1"",""1806""
","
","","","-1","","","14","4367","3106","b","elianto","#f73b6a7A","-1","-1","1","0","[]","0","2","","","4367","67","3","4","lose","no-go","0"
"pit-trial","186","1199791","0.0-72.0","battery-v0.2","","""event"",""trial"",""time""
""fullscreenenter"",""1"",""1806""
","
","
","""event"",""trial"",""time""
""fullscreenenter"",""1"",""1806""
","
","","","1185.7999999970198","","","14","4367","3106","c","elianto","#3366ff99"," "," ","1","+10","[2036.1000000014901]","1","2","","","4367","68","4","1","win","go","0"
"pit-trial","187","1204651","0.0-73.0","battery-v0.2","","""event"",""trial"",""time""
""fullscreenenter"",""1"",""1806""
","
","
","""event"",""trial"",""time""
""fullscreenenter"",""1"",""1806""
","
","","","-1","","","14","4367","3106","z","elianto","#3366ff99","-1","-1","1","0","[]","0","2","","","4367","69","5","2","win","no-go","1"
"pit-trial","188","1209512","0.0-74.0","battery-v0.2","","""event"",""trial"",""time""
""fullscreenenter"",""1"",""1806""
","
","
","""event"",""trial"",""time""
""fullscreenenter"",""1"",""1806""
","
","","","-1","","","14","4367","3106","f","elianto","#3366ff99","-1","-1","1","+10","[]","0","2","","","4367","70","1","2","win","no-go","0"
"pit-trial","189","1213279","0.0-75.0","battery-v0.2","","""event"",""trial"",""time""
""fullscreenenter"",""1"",""1806""
","
","
","""event"",""trial"",""time""
""fullscreenenter"",""1"",""1806""
","
","","","905.6000000014901","","","14","4367","3106","c","elianto","#3366ff99"," "," ","1","+10","[1755.7000000029802]","1","2","","","4367","71","4","1","win","go","0"
"pit-trial","190","1218139","0.0-76.0","battery-v0.2","","""event"",""trial"",""time""
""fullscreenenter"",""1"",""1806""
","
","
","""event"",""trial"",""time""
""fullscreenenter"",""1"",""1806""
","
","","","-1","","","14","4367","3106","t","elianto","#f73b6a7A"," ","-1","0","-10","[]","0","2","","","4367","72","2","3","lose","go","0"
"pit-trial","191","1222999","0.0-77.0","battery-v0.2","","""event"",""trial"",""time""
""fullscreenenter"",""1"",""1806""
","
","
","""event"",""trial"",""time""
""fullscreenenter"",""1"",""1806""
","
","","","-1","","","14","4367","3106","f","elianto","#3366ff99","-1","-1","1","+10","[]","0","2","","","4367","73","1","2","win","no-go","0"
"pit-trial","192","1227206","0.0-78.0","battery-v0.2","","""event"",""trial"",""time""
""fullscreenenter"",""1"",""1806""
","
","
","""event"",""trial"",""time""
""fullscreenenter"",""1"",""1806""
","
","","","1345.2999999970198","","","14","4367","3106","c","elianto","#3366ff99"," "," ","1","+10","[2196.8000000044703]","1","2","","","4367","74","4","1","win","go","0"
"pit-trial","193","1232065","0.0-79.0","battery-v0.2","","""event"",""trial"",""time""
""fullscreenenter"",""1"",""1806""
","
","
","""event"",""trial"",""time""
""fullscreenenter"",""1"",""1806""
","
","","","-1","","","14","4367","3106","z","elianto","#3366ff99","-1","-1","1","+10","[3025.7000000029802]","1","2","","","4367","75","5","2","win","no-go","0"
"pit-trial","194","1236924","0.0-80.0","battery-v0.2","","""event"",""trial"",""time""
""fullscreenenter"",""1"",""1806""
","
","
","""event"",""trial"",""time""
""fullscreenenter"",""1"",""1806""
","
","","","-1","","","14","4367","3106","b","elianto","#f73b6a7A","-1","-1","1","0","[]","0","2","","","4367","76","3","4","lose","no-go","0"
"pit-trial","195","1240932","0.0-81.0","battery-v0.2","","""event"",""trial"",""time""
""fullscreenenter"",""1"",""1806""
","
","
","""event"",""trial"",""time""
""fullscreenenter"",""1"",""1806""
","
","","","1147.7000000029802","","","14","4367","3106","c","elianto","#3366ff99"," "," ","1","+10","[1997.7000000029802]","1","2","","","4367","77","4","1","win","go","0"
"pit-trial","196","1245791","0.0-82.0","battery-v0.2","","""event"",""trial"",""time""
""fullscreenenter"",""1"",""1806""
","
","
","""event"",""trial"",""time""
""fullscreenenter"",""1"",""1806""
","
","","","-1","","","14","4367","3106","b","elianto","#f73b6a7A","-1","-1","1","-10","[]","0","2","","","4367","78","3","4","lose","no-go","1"
"pit-trial","197","1250012","0.0-83.0","battery-v0.2","","""event"",""trial"",""time""
""fullscreenenter"",""1"",""1806""
","
","
","""event"",""trial"",""time""
""fullscreenenter"",""1"",""1806""
","
","","","1361","","","14","4367","3106","z","elianto","#3366ff99","-1"," ","0","0","[2211]","1","2","","","4367","79","5","2","win","no-go","0"
"pit-trial","198","1254082","0.0-84.0","battery-v0.2","","""event"",""trial"",""time""
""fullscreenenter"",""1"",""1806""
","
","
","""event"",""trial"",""time""
""fullscreenenter"",""1"",""1806""
","
","","","1210.2999999970198","","","14","4367","3106","c","elianto","#3366ff99"," "," ","1","+10","[2060.9000000059605]","1","2","","","4367","80","4","1","win","go","0"
"pit-trial","199","1258941","0.0-85.0","battery-v0.2","","""event"",""trial"",""time""
""fullscreenenter"",""1"",""1806""
","
","
","""event"",""trial"",""time""
""fullscreenenter"",""1"",""1806""
","
","","","-1","","","14","4367","3106","z","elianto","#3366ff99","-1","-1","1","+10","[]","0","2","","","4367","81","5","2","win","no-go","0"
"pit-trial","200","1263801","0.0-86.0","battery-v0.2","","""event"",""trial"",""time""
""fullscreenenter"",""1"",""1806""
","
","
","""event"",""trial"",""time""
""fullscreenenter"",""1"",""1806""
","
","","","-1","","","14","4367","3106","b","elianto","#f73b6a7A","-1","-1","1","-10","[]","0","2","","","4367","82","3","4","lose","no-go","1"
"pit-trial","201","1267906","0.0-87.0","battery-v0.2","","""event"",""trial"",""time""
""fullscreenenter"",""1"",""1806""
","
","
","""event"",""trial"",""time""
""fullscreenenter"",""1"",""1806""
","
","","","1245.6999999955297","","","14","4367","3106","c","elianto","#3366ff99"," "," ","1","+10","[2095.6999999955297]","1","2","","","4367","83","4","1","win","go","0"
"pit-trial","202","1272766","0.0-88.0","battery-v0.2","","""event"",""trial"",""time""
""fullscreenenter"",""1"",""1806""
","
","
","""event"",""trial"",""time""
""fullscreenenter"",""1"",""1806""
","
","","","-1","","","14","4367","3106","y","elianto","#f73b6a7A","-1","-1","1","0","[]","0","2","","","4367","84","7","4","lose","no-go","0"
"pit-trial","203","1277627","0.0-89.0","battery-v0.2","","""event"",""trial"",""time""
""fullscreenenter"",""1"",""1806""
","
","
","""event"",""trial"",""time""
""fullscreenenter"",""1"",""1806""
","
","","","-1","","","14","4367","3106","h","elianto","#f73b6a7A"," ","-1","0","0","[]","0","2","","","4367","85","6","3","lose","go","1"
"pit-trial","204","1282488","0.0-90.0","battery-v0.2","","""event"",""trial"",""time""
""fullscreenenter"",""1"",""1806""
","
","
","""event"",""trial"",""time""
""fullscreenenter"",""1"",""1806""
","
","","","-1","","","14","4367","3106","z","elianto","#3366ff99","-1","-1","1","+10","[]","0","2","","","4367","86","5","2","win","no-go","0"
"pit-trial","205","1287348","0.0-91.0","battery-v0.2","","""event"",""trial"",""time""
""fullscreenenter"",""1"",""1806""
","
","
","""event"",""trial"",""time""
""fullscreenenter"",""1"",""1806""
","
","","","-1","","","14","4367","3106","y","elianto","#f73b6a7A","-1","-1","1","0","[]","0","2","","","4367","87","7","4","lose","no-go","0"
"pit-trial","206","1291458","0.0-92.0","battery-v0.2","","""event"",""trial"",""time""
""fullscreenenter"",""1"",""1806""
","
","
","""event"",""trial"",""time""
""fullscreenenter"",""1"",""1806""
","
","","","1249","","","14","4367","3106","c","elianto","#3366ff99"," "," ","1","+10","[2099.0999999940395]","1","2","","","4367","88","4","1","win","go","0"
"pit-trial","207","1296318","0.0-93.0","battery-v0.2","","""event"",""trial"",""time""
""fullscreenenter"",""1"",""1806""
","
","
","""event"",""trial"",""time""
""fullscreenenter"",""1"",""1806""
","
","","","-1","","","14","4367","3106","y","elianto","#f73b6a7A","-1","-1","1","0","[]","0","2","","","4367","89","7","4","lose","no-go","0"
"pit-trial","208","1301177","0.0-94.0","battery-v0.2","","""event"",""trial"",""time""
""fullscreenenter"",""1"",""1806""
","
","
","""event"",""trial"",""time""
""fullscreenenter"",""1"",""1806""
","
","","","-1","","","14","4367","3106","h","elianto","#f73b6a7A"," ","-1","0","-10","[]","0","2","","","4367","90","6","3","lose","go","0"
"pit-trial","209","1305618","0.0-95.0","battery-v0.2","","""event"",""trial"",""time""
""fullscreenenter"",""1"",""1806""
","
","
","""event"",""trial"",""time""
""fullscreenenter"",""1"",""1806""
","
","","","1580.8000000044703","","","14","4367","3106","z","elianto","#3366ff99","-1"," ","0","+10","[2431.10000000149]","1","2","","","4367","91","5","2","win","no-go","1"
"pit-trial","210","1310477","0.0-96.0","battery-v0.2","","""event"",""trial"",""time""
""fullscreenenter"",""1"",""1806""
","
","
","""event"",""trial"",""time""
""fullscreenenter"",""1"",""1806""
","
","","","-1","","","14","4367","3106","c","elianto","#3366ff99"," ","-1","0","0","[2990.8000000044703]","1","2","","","4367","92","4","1","win","go","0"
"pit-trial","211","1315338","0.0-97.0","battery-v0.2","","""event"",""trial"",""time""
""fullscreenenter"",""1"",""1806""
","
","
","""event"",""trial"",""time""
""fullscreenenter"",""1"",""1806""
","
","","","-1","","","14","4367","3106","r","elianto","#3366ff99"," ","-1","0","0","[2883.1999999955297]","1","2","","","4367","93","8","1","win","go","0"
"pit-trial","212","1319551","0.0-98.0","battery-v0.2","","""event"",""trial"",""time""
""fullscreenenter"",""1"",""1806""
","
","
","""event"",""trial"",""time""
""fullscreenenter"",""1"",""1806""
","
","","","1349.9000000059605","","","14","4367","3106","y","elianto","#f73b6a7A","-1"," ","0","-10","[2202.5]","1","2","","","4367","94","7","4","lose","no-go","0"
"pit-trial","213","1324410","0.0-99.0","battery-v0.2","","""event"",""trial"",""time""
""fullscreenenter"",""1"",""1806""
","
","
","""event"",""trial"",""time""
""fullscreenenter"",""1"",""1806""
","
","","","-1","","","14","4367","3106","z","elianto","#3366ff99","-1","-1","1","+10","[]","0","2","","","4367","95","5","2","win","no-go","0"
"pit-trial","214","1327796","0.0-100.0","battery-v0.2","","""event"",""trial"",""time""
""fullscreenenter"",""1"",""1806""
","
","
","""event"",""trial"",""time""
""fullscreenenter"",""1"",""1806""
","
","","","526.2999999970198","","","14","4367","3106","h","elianto","#f73b6a7A"," "," ","1","0","[1376.2999999970198]","1","2","","","4367","96","6","3","lose","go","0"
"pit-trial","215","1332657","0.0-101.0","battery-v0.2","","""event"",""trial"",""time""
""fullscreenenter"",""1"",""1806""
","
","
","""event"",""trial"",""time""
""fullscreenenter"",""1"",""1806""
","
","","","-1","","","14","4367","3106","y","elianto","#f73b6a7A","-1","-1","1","0","[]","0","2","","","4367","97","7","4","lose","no-go","0"
"pit-trial","216","1337517","0.0-102.0","battery-v0.2","","""event"",""trial"",""time""
""fullscreenenter"",""1"",""1806""
","
","
","""event"",""trial"",""time""
""fullscreenenter"",""1"",""1806""
","
","","","-1","","","14","4367","3106","h","elianto","#f73b6a7A"," ","-1","0","-10","[2942]","1","2","","","4367","98","6","3","lose","go","0"
"pit-trial","217","1342377","0.0-103.0","battery-v0.2","","""event"",""trial"",""time""
""fullscreenenter"",""1"",""1806""
","
","
","""event"",""trial"",""time""
""fullscreenenter"",""1"",""1806""
","
","","","-1","","","14","4367","3106","z","elianto","#3366ff99","-1","-1","1","+10","[4366.20000000298]","1","2","","","4367","99","5","2","win","no-go","0"
"pit-trial","218","1346894","0.0-104.0","battery-v0.2","","""event"",""trial"",""time""
""fullscreenenter"",""1"",""1806""
","
","
","""event"",""trial"",""time""
""fullscreenenter"",""1"",""1806""
","
","","","1655.3000000044703","","","14","4367","3106","r","elianto","#3366ff99"," "," ","1","0","[2505.60000000149]","1","2","","","4367","100","8","1","win","go","1"
"pit-trial","219","1351754","0.0-105.0","battery-v0.2","","""event"",""trial"",""time""
""fullscreenenter"",""1"",""1806""
","
","
","""event"",""trial"",""time""
""fullscreenenter"",""1"",""1806""
","
","","","-1","","","14","4367","3106","y","elianto","#f73b6a7A","-1","-1","1","0","[]","0","2","","","4367","101","7","4","lose","no-go","0"
"pit-trial","220","1356614","0.0-106.0","battery-v0.2","","""event"",""trial"",""time""
""fullscreenenter"",""1"",""1806""
","
","
","""event"",""trial"",""time""
""fullscreenenter"",""1"",""1806""
","
","","","-1","","","14","4367","3106","r","elianto","#3366ff99"," ","-1","0","0","[]","0","2","","","4367","102","8","1","win","go","0"
"pit-trial","221","1361342","0.0-107.0","battery-v0.2","","""event"",""trial"",""time""
""fullscreenenter"",""1"",""1806""
","
","
","""event"",""trial"",""time""
""fullscreenenter"",""1"",""1806""
","
","","","1867.5","","","14","4367","3106","m","elianto","#3366ff99"," "," ","1","+10","[2717.60000000149]","1","2","","","4367","103","9","1","win","go","0"
"pit-trial","222","1366203","0.0-108.0","battery-v0.2","","""event"",""trial"",""time""
""fullscreenenter"",""1"",""1806""
","
","
","""event"",""trial"",""time""
""fullscreenenter"",""1"",""1806""
","
","","","-1","","","14","4367","3106","z","elianto","#3366ff99","-1","-1","1","+10","[]","0","2","","","4367","104","5","2","win","no-go","0"
"pit-trial","223","1370360","0.0-109.0","battery-v0.2","","""event"",""trial"",""time""
""fullscreenenter"",""1"",""1806""
","
","
","""event"",""trial"",""time""
""fullscreenenter"",""1"",""1806""
","
","","","1296.2999999970198","","","14","4367","3106","c","elianto","#3366ff99"," "," ","1","+10","[2147.5]","1","2","","","4367","105","4","1","win","go","0"
"pit-trial","224","1375220","0.0-110.0","battery-v0.2","","""event"",""trial"",""time""
""fullscreenenter"",""1"",""1806""
","
","
","""event"",""trial"",""time""
""fullscreenenter"",""1"",""1806""
","
","","","-1","","","14","4367","3106","h","elianto","#f73b6a7A"," ","-1","0","-10","[]","0","2","","","4367","106","6","3","lose","go","0"
"pit-trial","225","1379931","0.0-111.0","battery-v0.2","","""event"",""trial"",""time""
""fullscreenenter"",""1"",""1806""
","
","
","""event"",""trial"",""time""
""fullscreenenter"",""1"",""1806""
","
","","","1852.1999999955297","","","14","4367","3106","r","elianto","#3366ff99"," "," ","1","+10","[2702.2999999970198]","1","2","","","4367","107","8","1","win","go","0"
"pit-trial","226","1383994","0.0-112.0","battery-v0.2","","""event"",""trial"",""time""
""fullscreenenter"",""1"",""1806""
","
","
","""event"",""trial"",""time""
""fullscreenenter"",""1"",""1806""
","
","","","1204.2999999970198","","","14","4367","3106","m","elianto","#3366ff99"," "," ","1","+10","[2054.7999999970198]","1","2","","","4367","108","9","1","win","go","0"
"pit-trial","227","1387973","0.0-113.0","battery-v0.2","","""event"",""trial"",""time""
""fullscreenenter"",""1"",""1806""
","
","
","""event"",""trial"",""time""
""fullscreenenter"",""1"",""1806""
","
","","","1119.0999999940395","","","14","4367","3106","h","elianto","#f73b6a7A"," "," ","1","-10","[1969.3000000044703]","1","2","","","4367","109","6","3","lose","go","1"
"pit-trial","228","1391623","0.0-114.0","battery-v0.2","","""event"",""trial"",""time""
""fullscreenenter"",""1"",""1806""
","
","
","""event"",""trial"",""time""
""fullscreenenter"",""1"",""1806""
","
","","","789.7999999970198","","","14","4367","3106","m","elianto","#3366ff99"," "," ","1","0","[1640.1999999955297]","1","2","","","4367","110","9","1","win","go","1"
"pit-trial","229","1396482","0.0-115.0","battery-v0.2","","""event"",""trial"",""time""
""fullscreenenter"",""1"",""1806""
","
","
","""event"",""trial"",""time""
""fullscreenenter"",""1"",""1806""
","
","","","-1","","","14","4367","3106","z","elianto","#3366ff99","-1","-1","1","+10","[]","0","2","","","4367","111","5","2","win","no-go","0"
"pit-trial","230","1401031","0.0-116.0","battery-v0.2","","""event"",""trial"",""time""
""fullscreenenter"",""1"",""1806""
","
","
","""event"",""trial"",""time""
""fullscreenenter"",""1"",""1806""
","
","","","1687.7999999970198","","","14","4367","3106","r","elianto","#3366ff99"," "," ","1","+10","[2537.89999999851]","1","2","","","4367","112","8","1","win","go","0"
"pit-trial","231","1405891","0.0-117.0","battery-v0.2","","""event"",""trial"",""time""
""fullscreenenter"",""1"",""1806""
","
","
","""event"",""trial"",""time""
""fullscreenenter"",""1"",""1806""
","
","","","-1","","","14","4367","3106","z","elianto","#3366ff99","-1","-1","1","+10","[]","0","2","","","4367","113","5","2","win","no-go","0"
"pit-trial","232","1409629","0.0-118.0","battery-v0.2","","""event"",""trial"",""time""
""fullscreenenter"",""1"",""1806""
","
","
","""event"",""trial"",""time""
""fullscreenenter"",""1"",""1806""
","
","","","877.1000000014901","","","14","4367","3106","m","elianto","#3366ff99"," "," ","1","0","[1727.3999999985099]","1","2","","","4367","114","9","1","win","go","1"
"pit-trial","233","1414493","0.0-119.0","battery-v0.2","","""event"",""trial"",""time""
""fullscreenenter"",""1"",""1806""
","
","
","""event"",""trial"",""time""
""fullscreenenter"",""1"",""1806""
","
","","","-1","","","14","4367","3106","h","elianto","#f73b6a7A"," ","-1","0","-10","[]","0","2","","","4367","115","6","3","lose","go","0"
"pit-trial","234","1418998","0.0-120.0","battery-v0.2","","""event"",""trial"",""time""
""fullscreenenter"",""1"",""1806""
","
","
","""event"",""trial"",""time""
""fullscreenenter"",""1"",""1806""
","
","","","1643.3000000044703","","","14","4367","3106","r","elianto","#3366ff99"," "," ","1","+10","[2493.2000000029802]","1","2","","","4367","116","8","1","win","go","0"
"pit-trial","235","1423858","0.0-121.0","battery-v0.2","","""event"",""trial"",""time""
""fullscreenenter"",""1"",""1806""
","
","
","""event"",""trial"",""time""
""fullscreenenter"",""1"",""1806""
","
","","","-1","","","14","4367","3106","h","elianto","#f73b6a7A"," ","-1","0","-10","[]","0","2","","","4367","117","6","3","lose","go","0"
"pit-trial","236","1428398","0.0-122.0","battery-v0.2","","""event"",""trial"",""time""
""fullscreenenter"",""1"",""1806""
","
","
","""event"",""trial"",""time""
""fullscreenenter"",""1"",""1806""
","
","","","1680","","","14","4367","3106","r","elianto","#3366ff99"," "," ","1","+10","[2530.2999999970198]","1","2","","","4367","118","8","1","win","go","0"
"pit-trial","237","1432025","0.0-123.0","battery-v0.2","","""event"",""trial"",""time""
""fullscreenenter"",""1"",""1806""
","
","
","""event"",""trial"",""time""
""fullscreenenter"",""1"",""1806""
","
","","","767.2999999970198","","","14","4367","3106","m","elianto","#3366ff99"," "," ","1","+10","[1617.3999999985099]","1","2","","","4367","119","9","1","win","go","0"
"pit-trial","238","1436886","0.0-124.0","battery-v0.2","","""event"",""trial"",""time""
""fullscreenenter"",""1"",""1806""
","
","
","""event"",""trial"",""time""
""fullscreenenter"",""1"",""1806""
","
","","","-1","","","14","4367","3106","z","elianto","#3366ff99","-1","-1","1","+10","[]","0","2","","","4367","120","5","2","win","no-go","0"
"pit-trial","239","1441582","0.0-125.0","battery-v0.2","","""event"",""trial"",""time""
""fullscreenenter"",""1"",""1806""
","
","
","""event"",""trial"",""time""
""fullscreenenter"",""1"",""1806""
","
","","","1836.7999999970198","","","14","4367","3106","r","elianto","#3366ff99"," "," ","1","+10","[2687]","1","2","","","4367","121","8","1","win","go","0"
"pit-trial","240","1445601","0.0-126.0","battery-v0.2","","""event"",""trial"",""time""
""fullscreenenter"",""1"",""1806""
","
","
","""event"",""trial"",""time""
""fullscreenenter"",""1"",""1806""
","
","","","1157.8999999985099","","","14","4367","3106","m","elianto","#3366ff99"," "," ","1","+10","[2008.1000000014901]","1","2","","","4367","122","9","1","win","go","0"
"pit-trial","241","1450316","0.0-127.0","battery-v0.2","","""event"",""trial"",""time""
""fullscreenenter"",""1"",""1806""
","
","
","""event"",""trial"",""time""
""fullscreenenter"",""1"",""1806""
","
","","","1855.2999999970198","","","14","4367","3106","h","elianto","#f73b6a7A"," "," ","1","0","[2705.39999999851]","1","2","","","4367","123","6","3","lose","go","0"
"pit-trial","242","1455176","0.0-128.0","battery-v0.2","","""event"",""trial"",""time""
""fullscreenenter"",""1"",""1806""
","
","
","""event"",""trial"",""time""
""fullscreenenter"",""1"",""1806""
","
","","","-1","","","14","4367","3106","y","elianto","#f73b6a7A","-1","-1","1","0","[3049.5]","1","2","","","4367","124","7","4","lose","no-go","0"
"pit-trial","243","1459252","0.0-129.0","battery-v0.2","","""event"",""trial"",""time""
""fullscreenenter"",""1"",""1806""
","
","
","""event"",""trial"",""time""
""fullscreenenter"",""1"",""1806""
","
","","","1215.8999999985099","","","14","4367","3106","m","elianto","#3366ff99"," "," ","1","+10","[2066.0999999940395]","1","2","","","4367","125","9","1","win","go","0"
"pit-trial","244","1463968","0.0-130.0","battery-v0.2","","""event"",""trial"",""time""
""fullscreenenter"",""1"",""1806""
","
","
","""event"",""trial"",""time""
""fullscreenenter"",""1"",""1806""
","
","","","1857","","","14","4367","3106","r","elianto","#3366ff99"," "," ","1","0","[2707.5]","1","2","","","4367","126","8","1","win","go","1"
"pit-trial","245","1468828","0.0-131.0","battery-v0.2","","""event"",""trial"",""time""
""fullscreenenter"",""1"",""1806""
","
","
","""event"",""trial"",""time""
""fullscreenenter"",""1"",""1806""
","
","","","-1","","","14","4367","3106","y","elianto","#f73b6a7A","-1","-1","1","0","[]","0","2","","","4367","127","7","4","lose","no-go","0"
"pit-trial","246","1473657","0.0-132.0","battery-v0.2","","""event"",""trial"",""time""
""fullscreenenter"",""1"",""1806""
","
","
","""event"",""trial"",""time""
""fullscreenenter"",""1"",""1806""
","
","","","1965.9000000059605","","","14","4367","3106","h","elianto","#f73b6a7A"," "," ","1","0","[2820.3000000044703]","1","2","","","4367","128","6","3","lose","go","0"
"pit-trial","247","1478516","0.0-133.0","battery-v0.2","","""event"",""trial"",""time""
""fullscreenenter"",""1"",""1806""
","
","
","""event"",""trial"",""time""
""fullscreenenter"",""1"",""1806""
","
","","","-1","","","14","4367","3106","r","elianto","#3366ff99"," ","-1","0","0","[]","0","2","","","4367","129","8","1","win","go","0"
"pit-trial","248","1483376","0.0-134.0","battery-v0.2","","""event"",""trial"",""time""
""fullscreenenter"",""1"",""1806""
","
","
","""event"",""trial"",""time""
""fullscreenenter"",""1"",""1806""
","
","","","-1","","","14","4367","3106","y","elianto","#f73b6a7A","-1","-1","1","0","[]","0","2","","","4367","130","7","4","lose","no-go","0"
"pit-trial","249","1488236","0.0-135.0","battery-v0.2","","""event"",""trial"",""time""
""fullscreenenter"",""1"",""1806""
","
","
","""event"",""trial"",""time""
""fullscreenenter"",""1"",""1806""
","
","","","-1","","","14","4367","3106","m","elianto","#3366ff99"," ","-1","0","+10","[]","0","2","","","4367","131","9","1","win","go","1"
"pit-trial","250","1493096","0.0-136.0","battery-v0.2","","""event"",""trial"",""time""
""fullscreenenter"",""1"",""1806""
","
","
","""event"",""trial"",""time""
""fullscreenenter"",""1"",""1806""
","
","","","-1","","","14","4367","3106","h","elianto","#f73b6a7A"," ","-1","0","-10","[]","0","2","","","4367","132","6","3","lose","go","0"
"pit-trial","251","1497956","0.0-137.0","battery-v0.2","","""event"",""trial"",""time""
""fullscreenenter"",""1"",""1806""
","
","
","""event"",""trial"",""time""
""fullscreenenter"",""1"",""1806""
","
","","","-1","","","14","4367","3106","r","elianto","#3366ff99"," ","-1","0","+10","[]","0","2","","","4367","133","8","1","win","go","1"
"pit-trial","252","1502816","0.0-138.0","battery-v0.2","","""event"",""trial"",""time""
""fullscreenenter"",""1"",""1806""
","
","
","""event"",""trial"",""time""
""fullscreenenter"",""1"",""1806""
","
","","","-1","","","14","4367","3106","y","elianto","#f73b6a7A","-1","-1","1","0","[]","0","2","","","4367","134","7","4","lose","no-go","0"
"pit-trial","253","1506504","0.0-139.0","battery-v0.2","","""event"",""trial"",""time""
""fullscreenenter"",""1"",""1806""
","
","
","""event"",""trial"",""time""
""fullscreenenter"",""1"",""1806""
","
","","","827.9000000059605","","","14","4367","3106","m","elianto","#3366ff99"," "," ","1","+10","[1678.2000000029802]","1","2","","","4367","135","9","1","win","go","0"
"pit-trial","254","1511365","0.0-140.0","battery-v0.2","","""event"",""trial"",""time""
""fullscreenenter"",""1"",""1806""
","
","
","""event"",""trial"",""time""
""fullscreenenter"",""1"",""1806""
","
","","","-1","","","14","4367","3106","h","elianto","#f73b6a7A"," ","-1","0","-10","[]","0","2","","","4367","136","6","3","lose","go","0"
"pit-trial","255","1515619","0.0-141.0","battery-v0.2","","""event"",""trial"",""time""
""fullscreenenter"",""1"",""1806""
","
","
","""event"",""trial"",""time""
""fullscreenenter"",""1"",""1806""
","
","","","1393.5999999940395","","","14","4367","3106","r","elianto","#3366ff99"," "," ","1","+10","[2243.7999999970198]","1","2","","","4367","137","8","1","win","go","0"
"pit-trial","256","1519259","0.0-142.0","battery-v0.2","","""event"",""trial"",""time""
""fullscreenenter"",""1"",""1806""
","
","
","""event"",""trial"",""time""
""fullscreenenter"",""1"",""1806""
","
","","","777.7000000029802","","","14","4367","3106","m","elianto","#3366ff99"," "," ","1","+10","[1627.8999999985099]","1","2","","","4367","138","9","1","win","go","0"
"pit-trial","257","1524119","0.0-143.0","battery-v0.2","","""event"",""trial"",""time""
""fullscreenenter"",""1"",""1806""
","
","
","""event"",""trial"",""time""
""fullscreenenter"",""1"",""1806""
","
","","","-1","","","14","4367","3106","y","elianto","#f73b6a7A","-1","-1","1","0","[]","0","2","","","4367","139","7","4","lose","no-go","0"
"pit-trial","258","1528768","0.0-144.0","battery-v0.2","","""event"",""trial"",""time""
""fullscreenenter"",""1"",""1806""
","
","
","""event"",""trial"",""time""
""fullscreenenter"",""1"",""1806""
","
","","","1787.3999999985099","","","14","4367","3106","h","elianto","#f73b6a7A"," "," ","1","0","[2637.39999999851]","1","2","","","4367","140","6","3","lose","go","0"
"pit-instructions","259","1572452","0.0-145.0","battery-v0.2","","""event"",""trial"",""time""
""fullscreenenter"",""1"",""1806""
","
","
","""event"",""trial"",""time""
""fullscreenenter"",""1"",""1806""
","
","","[{""page_index"":0,""viewing_time"":35128.10000000149},{""page_index"":1,""viewing_time"":8547.59999999404}]","43676.5","","","","","","","","","","","","","","","","","","","","","","","",""
"pit-trial","260","1577317","0.0-146.0","battery-v0.2","","""event"",""trial"",""time""
""fullscreenenter"",""1"",""1806""
","
","
","""event"",""trial"",""time""
""fullscreenenter"",""1"",""1806""
","
","","","-1","","","14","4367","3106","e","elianto","#f73b6a7A","-1","-1","1","0","[]","0","3","","","4367","141","2","4","lose","no-go","0"
"pit-trial","261","1582177","0.0-147.0","battery-v0.2","","""event"",""trial"",""time""
""fullscreenenter"",""1"",""1806""
","
","
","""event"",""trial"",""time""
""fullscreenenter"",""1"",""1806""
","
","","","-1","","","14","4367","3106","w","elianto","#f73b6a7A"," ","-1","0","-10","[]","0","3","","","4367","142","3","3","lose","go","0"
"pit-trial","262","1586883","0.0-148.0","battery-v0.2","","""event"",""trial"",""time""
""fullscreenenter"",""1"",""1806""
","
","
","""event"",""trial"",""time""
""fullscreenenter"",""1"",""1806""
","
","","","1846.6999999955297","","","14","4367","3106","d","elianto","#3366ff99"," "," ","1","+10","[2697.1999999955297]","1","3","","","4367","143","1","1","win","go","0"
"pit-trial","263","1591743","0.0-149.0","battery-v0.2","","""event"",""trial"",""time""
""fullscreenenter"",""1"",""1806""
","
","
","""event"",""trial"",""time""
""fullscreenenter"",""1"",""1806""
","
","","","-1","","","14","4367","3106","j","elianto","#f73b6a7A","-1","-1","1","0","[]","0","3","","","4367","144","0","4","lose","no-go","0"
"pit-trial","264","1595601","0.0-150.0","battery-v0.2","","""event"",""trial"",""time""
""fullscreenenter"",""1"",""1806""
","
","
","""event"",""trial"",""time""
""fullscreenenter"",""1"",""1806""
","
","","","994.0999999940395","","","14","4367","3106","e","elianto","#f73b6a7A","-1"," ","0","0","[1847.8000000044703]","1","3","","","4367","145","2","4","lose","no-go","1"
"pit-trial","265","1599182","0.0-151.0","battery-v0.2","","""event"",""trial"",""time""
""fullscreenenter"",""1"",""1806""
","
","
","""event"",""trial"",""time""
""fullscreenenter"",""1"",""1806""
","
","","","721.1000000014901","","","14","4367","3106","j","elianto","#f73b6a7A","-1"," ","0","-10","[1571.3000000044703]","1","3","","","4367","146","0","4","lose","no-go","0"
"pit-trial","266","1604041","0.0-152.0","battery-v0.2","","""event"",""trial"",""time""
""fullscreenenter"",""1"",""1806""
","
","
","""event"",""trial"",""time""
""fullscreenenter"",""1"",""1806""
","
","","","-1","","","14","4367","3106","w","elianto","#f73b6a7A"," ","-1","0","-10","[]","0","3","","","4367","147","3","3","lose","go","0"
"pit-trial","267","1608218","0.0-153.0","battery-v0.2","","""event"",""trial"",""time""
""fullscreenenter"",""1"",""1806""
","
","
","""event"",""trial"",""time""
""fullscreenenter"",""1"",""1806""
","
","","","1317.8000000044703","","","14","4367","3106","d","elianto","#3366ff99"," "," ","1","+10","[2167.89999999851]","1","3","","","4367","148","1","1","win","go","0"
"pit-trial","268","1613078","0.0-154.0","battery-v0.2","","""event"",""trial"",""time""
""fullscreenenter"",""1"",""1806""
","
","
","""event"",""trial"",""time""
""fullscreenenter"",""1"",""1806""
","
