"trial_type","trial_index","time_elapsed","internal_node_id","task_version","subject_id","interactions","blur_events","focus_events","fullscreenenter_events","fullscreenexit_events","success","view_history","rt","responses","num_errors","age","subject","participantId","rune","rune_set","hex","correct","choice","accuracy","outcome","keys","total_keys","block","practice","value","sub","trial","stimulus","robot","valence","action","sham"
"pavlovia","0","21","0.0-0.0","battery-v0.2","","""event"",""trial"",""time""
""fullscreenenter"",""1"",""1477""
","
","
","""event"",""trial"",""time""
""fullscreenenter"",""1"",""1477""
","
","","","","","","","","","","","","","","","","","","","","","","","","","","",""
"fullscreen","1","2448","0.0-1.0","battery-v0.2","","""event"",""trial"",""time""
""fullscreenenter"",""1"",""1477""
","
","
","""event"",""trial"",""time""
""fullscreenenter"",""1"",""1477""
","
","true","","","","","","","","","","","","","","","","","","","","","","","","","",""
"pit-instructions","2","9853","0.0-2.0-0.0","battery-v0.2","","""event"",""trial"",""time""
""fullscreenenter"",""1"",""1477""
","
","
","""event"",""trial"",""time""
""fullscreenenter"",""1"",""1477""
","
","","[{""page_index"":0,""viewing_time"":7389}]","7391.399999976158","","","","","","","","","","","","","","","","","","","","","","","",""
"pit-comprehension","3","14790","0.0-2.0-1.0-0.0","battery-v0.2","","""event"",""trial"",""time""
""fullscreenenter"",""1"",""1477""
","
","
","""event"",""trial"",""time""
""fullscreenenter"",""1"",""1477""
","
","","","4925.700000047684","[""shark""]","0","14","6179","3534","","","","","","","","","","","","","","","","","","",""
"pit-instructions","4","16766","0.0-2.0-1.0-1.0","battery-v0.2","","""event"",""trial"",""time""
""fullscreenenter"",""1"",""1477""
","
","
","""event"",""trial"",""time""
""fullscreenenter"",""1"",""1477""
","
","","[{""page_index"":0,""viewing_time"":1962.7999999523163}]","1964.6999999284744","","","","","","","","","","","","","","","","","","","","","","","",""
"pit-comprehension","5","19510","0.0-2.0-2.0-0.0","battery-v0.2","","""event"",""trial"",""time""
""fullscreenenter"",""1"",""1477""
","
","
","""event"",""trial"",""time""
""fullscreenenter"",""1"",""1477""
","
","","","2731.8000000715256","[""tiger""]","0","14","6179","3534","","","","","","","","","","","","","","","","","","",""
"pit-instructions","6","20596","0.0-2.0-2.0-1.0","battery-v0.2","","""event"",""trial"",""time""
""fullscreenenter"",""1"",""1477""
","
","
","""event"",""trial"",""time""
""fullscreenenter"",""1"",""1477""
","
","","[{""page_index"":0,""viewing_time"":1076.8999999761581}]","1077.7999999523163","","","","","","","","","","","","","","","","","","","","","","","",""
"pit-instructions","7","129864","0.0-2.0-3.0","battery-v0.2","","""event"",""trial"",""time""
""fullscreenenter"",""1"",""1477""
","
","
","""event"",""trial"",""time""
""fullscreenenter"",""1"",""1477""
","
","","[{""page_index"":0,""viewing_time"":8559.899999976158},{""page_index"":1,""viewing_time"":8160.300000071526},{""page_index"":2,""viewing_time"":9965.600000023842},{""page_index"":3,""viewing_time"":8121.699999928474},{""page_index"":4,""viewing_time"":7057.399999976158},{""page_index"":5,""viewing_time"":6582.700000047684},{""page_index"":6,""viewing_time"":8101.899999976158},{""page_index"":7,""viewing_time"":7780.100000023842},{""page_index"":8,""viewing_time"":6810},{""page_index"":9,""viewing_time"":9710.700000047684},{""page_index"":10,""viewing_time"":8390.399999976158},{""page_index"":11,""viewing_time"":8220.399999976158},{""page_index"":12,""viewing_time"":6615.299999952316},{""page_index"":13,""viewing_time"":5182.100000023842}]","109259.80000007153","","","","","","","","","","","","","","","","","","","","","","","",""
"pit-trial","8","133398","0.0-2.0-4.0-0.0","battery-v0.2","","""event"",""trial"",""time""
""fullscreenenter"",""1"",""1477""
","
","
","""event"",""trial"",""time""
""fullscreenenter"",""1"",""1477""
","
","","","674.8999999761581","","","14","6179","3534","&#9784;","elianto","#FFFFF080"," "," ","1","&#10004","[1525.2000000476837]","1","0","0","","","","","","","",""
"pit-trial","9","137392","0.0-2.0-4.1-0.1","battery-v0.2","","""event"",""trial"",""time""
""fullscreenenter"",""1"",""1477""
","
","
","""event"",""trial"",""time""
""fullscreenenter"",""1"",""1477""
","
","","","1135.5","","","14","6179","3534","&#9784;","elianto","#FFFFF080"," "," ","1","&#10004","[1985.6000000238419]","1","0","0","","","","","","","",""
"pit-trial","10","140984","0.0-2.0-4.2-0.2","battery-v0.2","","""event"",""trial"",""time""
""fullscreenenter"",""1"",""1477""
","
","
","""event"",""trial"",""time""
""fullscreenenter"",""1"",""1477""
","
","","","729.7999999523163","","","14","6179","3534","&#9784;","elianto","#FFFFF080"," "," ","1","&#10004","[1582.3999999761581]","1","0","0","","","","","","","",""
"pit-trial","11","144602","0.0-2.0-4.3-0.3","battery-v0.2","","""event"",""trial"",""time""
""fullscreenenter"",""1"",""1477""
","
","
","""event"",""trial"",""time""
""fullscreenenter"",""1"",""1477""
","
","","","758.8000000715256","","","14","6179","3534","&#9784;","elianto","#FFFFF080"," "," ","1","&#10004","[1609]","1","0","0","","","","","","","",""
"pit-trial","12","148265","0.0-2.0-4.4-0.4","battery-v0.2","","""event"",""trial"",""time""
""fullscreenenter"",""1"",""1477""
","
","
","""event"",""trial"",""time""
""fullscreenenter"",""1"",""1477""
","
","","","800","","","14","6179","3534","&#9784;","elianto","#FFFFF080"," "," ","1","&#10004","[1651.5999999046326]","1","0","0","","","","","","","",""
"pit-instructions","13","171610","0.0-2.0-5.0","battery-v0.2","","""event"",""trial"",""time""
""fullscreenenter"",""1"",""1477""
","
","
","""event"",""trial"",""time""
""fullscreenenter"",""1"",""1477""
","
","","[{""page_index"":0,""viewing_time"":5178},{""page_index"":1,""viewing_time"":6977.700000047684},{""page_index"":2,""viewing_time"":5800.199999928474},{""page_index"":3,""viewing_time"":5380.300000071526}]","23337.300000071526","","","","","","","","","","","","","","","","","","","","","","","",""
"pit-trial","14","176466","0.0-2.0-6.0-0.0","battery-v0.2","","""event"",""trial"",""time""
""fullscreenenter"",""1"",""1477""
","
","
","""event"",""trial"",""time""
""fullscreenenter"",""1"",""1477""
","
","","","-1","","","14","6179","3534","&#9854;","elianto","#FFFFF080","-1","-1","1","&#10004","[]","0","0","1","","","","","","","",""
"pit-trial","15","181324","0.0-2.0-6.1-0.1","battery-v0.2","","""event"",""trial"",""time""
""fullscreenenter"",""1"",""1477""
","
","
","""event"",""trial"",""time""
""fullscreenenter"",""1"",""1477""
","
","","","-1","","","14","6179","3534","&#9854;","elianto","#FFFFF080","-1","-1","1","&#10004","[]","0","0","1","","","","","","","",""
"pit-trial","16","186180","0.0-2.0-6.2-0.2","battery-v0.2","","""event"",""trial"",""time""
""fullscreenenter"",""1"",""1477""
","
","
","""event"",""trial"",""time""
""fullscreenenter"",""1"",""1477""
","
","","","-1","","","14","6179","3534","&#9854;","elianto","#FFFFF080","-1","-1","1","&#10004","[]","0","0","1","","","","","","","",""
"pit-trial","17","191040","0.0-2.0-6.3-0.3","battery-v0.2","","""event"",""trial"",""time""
""fullscreenenter"",""1"",""1477""
","
","
","""event"",""trial"",""time""
""fullscreenenter"",""1"",""1477""
","
","","","-1","","","14","6179","3534","&#9854;","elianto","#FFFFF080","-1","-1","1","&#10004","[]","0","0","1","","","","","","","",""
"pit-trial","18","195897","0.0-2.0-6.4-0.4","battery-v0.2","","""event"",""trial"",""time""
""fullscreenenter"",""1"",""1477""
","
","
","""event"",""trial"",""time""
""fullscreenenter"",""1"",""1477""
","
","","","-1","","","14","6179","3534","&#9854;","elianto","#FFFFF080","-1","-1","1","&#10004","[]","0","0","1","","","","","","","",""
"pit-instructions","19","371138","0.0-2.0-7.0","battery-v0.2","","""event"",""trial"",""time""
""fullscreenenter"",""1"",""1477""
","
","
","""event"",""trial"",""time""
""fullscreenenter"",""1"",""1477""
","
","","[{""page_index"":0,""viewing_time"":46689.10000002384},{""page_index"":1,""viewing_time"":12502.899999976158},{""page_index"":2,""viewing_time"":7297.200000047684},{""page_index"":3,""viewing_time"":7072.700000047684},{""page_index"":4,""viewing_time"":5995},{""page_index"":5,""viewing_time"":7277.099999904633},{""page_index"":6,""viewing_time"":5040.700000047684},{""page_index"":7,""viewing_time"":7868},{""page_index"":8,""viewing_time"":7627.600000023842},{""page_index"":9,""viewing_time"":6666},{""page_index"":10,""viewing_time"":10615},{""page_index"":11,""viewing_time"":5197.600000023842},{""page_index"":12,""viewing_time"":8054.099999904633},{""page_index"":13,""viewing_time"":7284.200000047684},{""page_index"":14,""viewing_time"":8277.200000047684},{""page_index"":15,""viewing_time"":7264.299999952316},{""page_index"":16,""viewing_time"":7125.100000023842},{""page_index"":17,""viewing_time"":7378.199999928474}]","175233.30000007153","","","","","","","","","","","","","","","","","","","","","","","",""
"pit-trial","20","374758","0.0-2.0-8.0-0.0","battery-v0.2","","""event"",""trial"",""time""
""fullscreenenter"",""1"",""1477""
","
","
","""event"",""trial"",""time""
""fullscreenenter"",""1"",""1477""
","
","","","764.3000000715256","","","14","6179","3534","&#9776;","elianto","#3366ff99"," "," ","1","+10","[1614.2999999523163]","1","0","1","","","","","","","",""
"pit-trial","21","378098","0.0-2.0-8.0-1.0","battery-v0.2","","""event"",""trial"",""time""
""fullscreenenter"",""1"",""1477""
","
","
","""event"",""trial"",""time""
""fullscreenenter"",""1"",""1477""
","
","","","480.90000009536743","","","14","6179","3534","&#9776;","elianto","#3366ff99"," "," ","1","+10","[1333.5]","1","0","1","","","","","","","",""
"pit-trial","22","381335","0.0-2.0-8.0-2.0","battery-v0.2","","""event"",""trial"",""time""
""fullscreenenter"",""1"",""1477""
","
","
","""event"",""trial"",""time""
""fullscreenenter"",""1"",""1477""
","
","","","378.60000002384186","","","14","6179","3534","&#9776;","elianto","#3366ff99"," "," ","1","+10","[1228.8999999761581]","1","0","1","","","","","","","",""
"pit-trial","23","384636","0.0-2.0-8.0-3.0","battery-v0.2","","""event"",""trial"",""time""
""fullscreenenter"",""1"",""1477""
","
","
","""event"",""trial"",""time""
""fullscreenenter"",""1"",""1477""
","
","","","441.60000002384186","","","14","6179","3534","&#9776;","elianto","#3366ff99"," "," ","1","0","[1295.5]","1","0","1","","","","","","","",""
"pit-trial","24","387925","0.0-2.0-8.0-4.0","battery-v0.2","","""event"",""trial"",""time""
""fullscreenenter"",""1"",""1477""
","
","
","""event"",""trial"",""time""
""fullscreenenter"",""1"",""1477""
","
","","","430.40000009536743","","","14","6179","3534","&#9776;","elianto","#3366ff99"," "," ","1","+10","[1280.5]","1","0","1","","","","","","","",""
"pit-trial","25","391233","0.0-2.0-8.1-0.1","battery-v0.2","","""event"",""trial"",""time""
""fullscreenenter"",""1"",""1477""
","
","
","""event"",""trial"",""time""
""fullscreenenter"",""1"",""1477""
","
","","","448.10000002384186","","","14","6179","3534","&#9776;","elianto","#3366ff99"," "," ","1","+10","[1298.2999999523163]","1","0","1","","","","","","","",""
"pit-trial","26","394532","0.0-2.0-8.1-1.1","battery-v0.2","","""event"",""trial"",""time""
""fullscreenenter"",""1"",""1477""
","
","
","""event"",""trial"",""time""
""fullscreenenter"",""1"",""1477""
","
","","","441.59999990463257","","","14","6179","3534","&#9776;","elianto","#3366ff99"," "," ","1","+10","[1292.2000000476837]","1","0","1","","","","","","","",""
"pit-trial","27","397813","0.0-2.0-8.1-2.1","battery-v0.2","","""event"",""trial"",""time""
""fullscreenenter"",""1"",""1477""
","
","
","""event"",""trial"",""time""
""fullscreenenter"",""1"",""1477""
","
","","","425","","","14","6179","3534","&#9776;","elianto","#3366ff99"," "," ","1","+10","[1275]","1","0","1","","","","","","","",""
"pit-trial","28","401286","0.0-2.0-8.1-3.1","battery-v0.2","","""event"",""trial"",""time""
""fullscreenenter"",""1"",""1477""
","
","
","""event"",""trial"",""time""
""fullscreenenter"",""1"",""1477""
","
","","","613.8999999761581","","","14","6179","3534","&#9776;","elianto","#3366ff99"," "," ","1","0","[1464.1000000238419]","1","0","1","","","","","","","",""
"pit-trial","29","404615","0.0-2.0-8.1-4.1","battery-v0.2","","""event"",""trial"",""time""
""fullscreenenter"",""1"",""1477""
","
","
","""event"",""trial"",""time""
""fullscreenenter"",""1"",""1477""
","
","","","469.6999999284744","","","14","6179","3534","&#9776;","elianto","#3366ff99"," "," ","1","+10","[1319.9000000953674]","1","0","1","","","","","","","",""
"pit-trial","30","408026","0.0-2.0-8.2-0.2","battery-v0.2","","""event"",""trial"",""time""
""fullscreenenter"",""1"",""1477""
","
","
","""event"",""trial"",""time""
""fullscreenenter"",""1"",""1477""
","
","","","550.3999999761581","","","14","6179","3534","&#9776;","elianto","#3366ff99"," "," ","1","+10","[1400.6000000238419]","1","0","1","","","","","","","",""
"pit-trial","31","411557","0.0-2.0-8.2-1.2","battery-v0.2","","""event"",""trial"",""time""
""fullscreenenter"",""1"",""1477""
","
","
","""event"",""trial"",""time""
""fullscreenenter"",""1"",""1477""
","
","","","671.5","","","14","6179","3534","&#9776;","elianto","#3366ff99"," "," ","1","+10","[1523.7999999523163]","1","0","1","","","","","","","",""
"pit-trial","32","414949","0.0-2.0-8.2-2.2","battery-v0.2","","""event"",""trial"",""time""
""fullscreenenter"",""1"",""1477""
","
","
","""event"",""trial"",""time""
""fullscreenenter"",""1"",""1477""
","
","","","530","","","14","6179","3534","&#9776;","elianto","#3366ff99"," "," ","1","+10","[1384.2999999523163]","1","0","1","","","","","","","",""
"pit-trial","33","418234","0.0-2.0-8.2-3.2","battery-v0.2","","""event"",""trial"",""time""
""fullscreenenter"",""1"",""1477""
","
","
","""event"",""trial"",""time""
""fullscreenenter"",""1"",""1477""
","
","","","428.10000002384186","","","14","6179","3534","&#9776;","elianto","#3366ff99"," "," ","1","0","[1278.3000000715256]","1","0","1","","","","","","","",""
"pit-trial","34","421570","0.0-2.0-8.2-4.2","battery-v0.2","","""event"",""trial"",""time""
""fullscreenenter"",""1"",""1477""
","
","
","""event"",""trial"",""time""
""fullscreenenter"",""1"",""1477""
","
","","","475.6999999284744","","","14","6179","3534","&#9776;","elianto","#3366ff99"," "," ","1","+10","[1327.8999999761581]","1","0","1","","","","","","","",""
"call-function","35","421576","0.0-2.0-9.0","battery-v0.2","","""event"",""trial"",""time""
""fullscreenenter"",""1"",""1477""
","
","
","""event"",""trial"",""time""
""fullscreenenter"",""1"",""1477""
","
","","","","","","","","","","","","","","","","","","","","","","","","","","",""
"pit-instructions","36","461765","0.0-2.0-10.0","battery-v0.2","","""event"",""trial"",""time""
""fullscreenenter"",""1"",""1477""
","
","
","""event"",""trial"",""time""
""fullscreenenter"",""1"",""1477""
","
","","[{""page_index"":0,""viewing_time"":6232.699999928474},{""page_index"":1,""viewing_time"":7104.5},{""page_index"":2,""viewing_time"":9209.5},{""page_index"":3,""viewing_time"":10187.700000047684},{""page_index"":4,""viewing_time"":7450.699999928474}]","40186","","","","","","","","","","","","","","","","","","","","","","","",""
"pit-trial","37","465044","0.0-2.0-11.0-0.0","battery-v0.2","","""event"",""trial"",""time""
""fullscreenenter"",""1"",""1477""
","
","
","""event"",""trial"",""time""
""fullscreenenter"",""1"",""1477""
","
","","","421.5","","","14","6179","3534","&#9761;","elianto","#3366ff99","-1"," ","0","0","[1271.7999999523163]","1","0","2","","","","","","","",""
"pit-trial","38","468250","0.0-2.0-11.0-1.0","battery-v0.2","","""event"",""trial"",""time""
""fullscreenenter"",""1"",""1477""
","
","
","""event"",""trial"",""time""
""fullscreenenter"",""1"",""1477""
","
","","","348.39999997615814","","","14","6179","3534","&#9761;","elianto","#3366ff99","-1"," ","0","0","[1198.6999999284744]","1","0","2","","","","","","","",""
"pit-trial","39","471269","0.0-2.0-11.0-2.0","battery-v0.2","","""event"",""trial"",""time""
""fullscreenenter"",""1"",""1477""
","
","
","""event"",""trial"",""time""
""fullscreenenter"",""1"",""1477""
","
","","","161","","","14","6179","3534","&#9761;","elianto","#3366ff99","-1"," ","0","0","[1014.2000000476837]","1","0","2","","","","","","","",""
"pit-trial","40","474892","0.0-2.0-11.0-3.0","battery-v0.2","","""event"",""trial"",""time""
""fullscreenenter"",""1"",""1477""
","
","
","""event"",""trial"",""time""
""fullscreenenter"",""1"",""1477""
","
","","","765.7000000476837","","","14","6179","3534","&#9761;","elianto","#3366ff99","-1"," ","0","+10","[1615.7999999523163]","1","0","2","","","","","","","",""
"pit-trial","41","478259","0.0-2.0-11.0-4.0","battery-v0.2","","""event"",""trial"",""time""
""fullscreenenter"",""1"",""1477""
","
","
","""event"",""trial"",""time""
""fullscreenenter"",""1"",""1477""
","
","","","504.5","","","14","6179","3534","&#9761;","elianto","#3366ff99","-1"," ","0","0","[1359.6000000238419]","1","0","2","","","","","","","",""
"pit-trial","42","481235","0.0-2.0-11.1-0.1","battery-v0.2","","""event"",""trial"",""time""
""fullscreenenter"",""1"",""1477""
","
","
","""event"",""trial"",""time""
""fullscreenenter"",""1"",""1477""
","
","","","114.90000009536743","","","14","6179","3534","&#9761;","elianto","#3366ff99","-1"," ","0","0","[965]","1","0","2","","","","","","","",""
"pit-trial","43","484353","0.0-2.0-11.1-1.1","battery-v0.2","","""event"",""trial"",""time""
""fullscreenenter"",""1"",""1477""
","
","
","""event"",""trial"",""time""
""fullscreenenter"",""1"",""1477""
","
","","","256.2000000476837","","","14","6179","3534","&#9761;","elianto","#3366ff99","-1"," ","0","0","[1108.8999999761581]","1","0","2","","","","","","","",""
"pit-trial","44","489210","0.0-2.0-11.1-2.1","battery-v0.2","","""event"",""trial"",""time""
""fullscreenenter"",""1"",""1477""
","
","
","""event"",""trial"",""time""
""fullscreenenter"",""1"",""1477""
","
","","","-1","","","14","6179","3534","&#9761;","elianto","#3366ff99","-1","-1","1","+10","[]","0","0","2","","","","","","","",""
"pit-trial","45","493040","0.0-2.0-11.1-3.1","battery-v0.2","","""event"",""trial"",""time""
""fullscreenenter"",""1"",""1477""
","
","
","""event"",""trial"",""time""
""fullscreenenter"",""1"",""1477""
","
","","","972.9000000953674","","","14","6179","3534","&#9761;","elianto","#3366ff99","-1"," ","0","+10","[1822.8000000715256]","1","0","2","","","","","","","",""
"pit-trial","46","497900","0.0-2.0-11.1-4.1","battery-v0.2","","""event"",""trial"",""time""
""fullscreenenter"",""1"",""1477""
","
","
","""event"",""trial"",""time""
""fullscreenenter"",""1"",""1477""
","
","","","-1","","","14","6179","3534","&#9761;","elianto","#3366ff99","-1","-1","1","+10","[]","0","0","2","","","","","","","",""
"pit-trial","47","501604","0.0-2.0-11.2-0.2","battery-v0.2","","""event"",""trial"",""time""
""fullscreenenter"",""1"",""1477""
","
","
","""event"",""trial"",""time""
""fullscreenenter"",""1"",""1477""
","
","","","839.8000000715256","","","14","6179","3534","&#9761;","elianto","#3366ff99","-1"," ","0","0","[1694.3000000715256]","1","0","2","","","","","","","",""
"pit-trial","48","504559","0.0-2.0-11.2-1.2","battery-v0.2","","""event"",""trial"",""time""
""fullscreenenter"",""1"",""1477""
","
","
","""event"",""trial"",""time""
""fullscreenenter"",""1"",""1477""
","
","","","99.20000004768372","","","14","6179","3534","&#9761;","elianto","#3366ff99","-1"," ","0","0","[949.3999999761581]","1","0","2","","","","","","","",""
"pit-trial","49","508617","0.0-2.0-11.2-2.2","battery-v0.2","","""event"",""trial"",""time""
""fullscreenenter"",""1"",""1477""
","
","
","""event"",""trial"",""time""
""fullscreenenter"",""1"",""1477""
","
","","","1199.6000000238419","","","14","6179","3534","&#9761;","elianto","#3366ff99","-1"," ","0","0","[835.8999999761581,2049.6999999284744]","2","0","2","","","","","","","",""
"pit-trial","50","512447","0.0-2.0-11.2-3.2","battery-v0.2","","""event"",""trial"",""time""
""fullscreenenter"",""1"",""1477""
","
","
","""event"",""trial"",""time""
""fullscreenenter"",""1"",""1477""
","
","","","972.6000000238419","","","14","6179","3534","&#9761;","elianto","#3366ff99","-1"," ","0","+10","[1822.8999999761581]","1","0","2","","","","","","","",""
"pit-trial","51","516484","0.0-2.0-11.2-4.2","battery-v0.2","","""event"",""trial"",""time""
""fullscreenenter"",""1"",""1477""
","
","
","""event"",""trial"",""time""
""fullscreenenter"",""1"",""1477""
","
","","","1180.3999999761581","","","14","6179","3534","&#9761;","elianto","#3366ff99","-1"," ","0","0","[2030.5]","1","0","2","","","","","","","",""
"pit-trial","52","519823","0.0-2.0-11.3-0.3","battery-v0.2","","""event"",""trial"",""time""
""fullscreenenter"",""1"",""1477""
","
","
","""event"",""trial"",""time""
""fullscreenenter"",""1"",""1477""
","
","","","478.5","","","14","6179","3534","&#9761;","elianto","#3366ff99","-1"," ","0","0","[1330.3999999761581]","1","0","2","","","","","","","",""
"pit-trial","53","522777","0.0-2.0-11.3-1.3","battery-v0.2","","""event"",""trial"",""time""
""fullscreenenter"",""1"",""1477""
","
","
","""event"",""trial"",""time""
""fullscreenenter"",""1"",""1477""
","
","","","96.10000002384186","","","14","6179","3534","&#9761;","elianto","#3366ff99","-1"," ","0","0","[946.7000000476837]","1","0","2","","","","","","","",""
"pit-trial","54","525953","0.0-2.0-11.3-2.3","battery-v0.2","","""event"",""trial"",""time""
""fullscreenenter"",""1"",""1477""
","
","
","""event"",""trial"",""time""
""fullscreenenter"",""1"",""1477""
","
","","","315.60000002384186","","","14","6179","3534","&#9761;","elianto","#3366ff99","-1"," ","0","0","[1168.8999999761581]","1","0","2","","","","","","","",""
"pit-trial","55","529040","0.0-2.0-11.3-3.3","battery-v0.2","","""event"",""trial"",""time""
""fullscreenenter"",""1"",""1477""
","
","
","""event"",""trial"",""time""
""fullscreenenter"",""1"",""1477""
","
","","","229.19999992847443","","","14","6179","3534","&#9761;","elianto","#3366ff99","-1"," ","0","+10","[1079.4000000953674]","1","0","2","","","","","","","",""
"pit-trial","56","533379","0.0-2.0-11.3-4.3","battery-v0.2","","""event"",""trial"",""time""
""fullscreenenter"",""1"",""1477""
","
","
","""event"",""trial"",""time""
""fullscreenenter"",""1"",""1477""
","
","","","1480","","","14","6179","3534","&#9761;","elianto","#3366ff99","-1"," ","0","0","[2330.6999999284744]","1","0","2","","","","","","","",""
"call-function","57","533386","0.0-2.0-12.0","battery-v0.2","","""event"",""trial"",""time""
""fullscreenenter"",""1"",""1477""
","
","
","""event"",""trial"",""time""
""fullscreenenter"",""1"",""1477""
","
","","","","","","","","","","","","","","","","","","","","","","","","","","",""
"pit-instructions","58","568914","0.0-2.0-13.0","battery-v0.2","","""event"",""trial"",""time""
""fullscreenenter"",""1"",""1477""
","
","
","""event"",""trial"",""time""
""fullscreenenter"",""1"",""1477""
","
","","[{""page_index"":0,""viewing_time"":5924.399999976158},{""page_index"":1,""viewing_time"":7954.799999952316},{""page_index"":2,""viewing_time"":4641.100000023842},{""page_index"":3,""viewing_time"":12004.5},{""page_index"":4,""viewing_time"":4999.399999976158}]","35525.199999928474","","","","","","","","","","","","","","","","","","","","","","","",""
"pit-trial","59","573770","0.0-2.0-14.0-0.0","battery-v0.2","","""event"",""trial"",""time""
""fullscreenenter"",""1"",""1477""
","
","
","""event"",""trial"",""time""
""fullscreenenter"",""1"",""1477""
","
","","","-1","","","14","6179","3534","&#9826;","elianto","#f73b6a7A","-1","-1","1","0","[]","0","0","3","","","","","","","",""
"pit-trial","60","578628","0.0-2.0-14.0-1.0","battery-v0.2","","""event"",""trial"",""time""
""fullscreenenter"",""1"",""1477""
","
","
","""event"",""trial"",""time""
""fullscreenenter"",""1"",""1477""
","
","","","-1","","","14","6179","3534","&#9826;","elianto","#f73b6a7A","-1","-1","1","0","[]","0","0","3","","","","","","","",""
"pit-trial","61","583483","0.0-2.0-14.0-2.0","battery-v0.2","","""event"",""trial"",""time""
""fullscreenenter"",""1"",""1477""
","
","
","""event"",""trial"",""time""
""fullscreenenter"",""1"",""1477""
","
","","","-1","","","14","6179","3534","&#9826;","elianto","#f73b6a7A","-1","-1","1","0","[]","0","0","3","","","","","","","",""
"pit-trial","62","588339","0.0-2.0-14.0-3.0","battery-v0.2","","""event"",""trial"",""time""
""fullscreenenter"",""1"",""1477""
","
","
","""event"",""trial"",""time""
""fullscreenenter"",""1"",""1477""
","
","","","-1","","","14","6179","3534","&#9826;","elianto","#f73b6a7A","-1","-1","1","-10","[]","0","0","3","","","","","","","",""
"pit-trial","63","593199","0.0-2.0-14.0-4.0","battery-v0.2","","""event"",""trial"",""time""
""fullscreenenter"",""1"",""1477""
","
","
","""event"",""trial"",""time""
""fullscreenenter"",""1"",""1477""
","
","","","-1","","","14","6179","3534","&#9826;","elianto","#f73b6a7A","-1","-1","1","0","[]","0","0","3","","","","","","","",""
"pit-trial","64","598057","0.0-2.0-14.1-0.1","battery-v0.2","","""event"",""trial"",""time""
""fullscreenenter"",""1"",""1477""
","
","
","""event"",""trial"",""time""
""fullscreenenter"",""1"",""1477""
","
","","","-1","","","14","6179","3534","&#9826;","elianto","#f73b6a7A","-1","-1","1","0","[]","0","0","3","","","","","","","",""
"pit-trial","65","602918","0.0-2.0-14.1-1.1","battery-v0.2","","""event"",""trial"",""time""
""fullscreenenter"",""1"",""1477""
","
","
","""event"",""trial"",""time""
""fullscreenenter"",""1"",""1477""
","
","","","-1","","","14","6179","3534","&#9826;","elianto","#f73b6a7A","-1","-1","1","0","[]","0","0","3","","","","","","","",""
"pit-trial","66","607779","0.0-2.0-14.1-2.1","battery-v0.2","","""event"",""trial"",""time""
""fullscreenenter"",""1"",""1477""
","
","
","""event"",""trial"",""time""
""fullscreenenter"",""1"",""1477""
","
","","","-1","","","14","6179","3534","&#9826;","elianto","#f73b6a7A","-1","-1","1","0","[]","0","0","3","","","","","","","",""
"pit-trial","67","612637","0.0-2.0-14.1-3.1","battery-v0.2","","""event"",""trial"",""time""
""fullscreenenter"",""1"",""1477""
","
","
","""event"",""trial"",""time""
""fullscreenenter"",""1"",""1477""
","
","","","-1","","","14","6179","3534","&#9826;","elianto","#f73b6a7A","-1","-1","1","-10","[]","0","0","3","","","","","","","",""
"pit-trial","68","617495","0.0-2.0-14.1-4.1","battery-v0.2","","""event"",""trial"",""time""
""fullscreenenter"",""1"",""1477""
","
","
","""event"",""trial"",""time""
""fullscreenenter"",""1"",""1477""
","
","","","-1","","","14","6179","3534","&#9826;","elianto","#f73b6a7A","-1","-1","1","0","[]","0","0","3","","","","","","","",""
"pit-trial","69","622354","0.0-2.0-14.2-0.2","battery-v0.2","","""event"",""trial"",""time""
""fullscreenenter"",""1"",""1477""
","
","
","""event"",""trial"",""time""
""fullscreenenter"",""1"",""1477""
","
","","","-1","","","14","6179","3534","&#9826;","elianto","#f73b6a7A","-1","-1","1","0","[]","0","0","3","","","","","","","",""
"pit-trial","70","627211","0.0-2.0-14.2-1.2","battery-v0.2","","""event"",""trial"",""time""
""fullscreenenter"",""1"",""1477""
","
","
","""event"",""trial"",""time""
""fullscreenenter"",""1"",""1477""
","
","","","-1","","","14","6179","3534","&#9826;","elianto","#f73b6a7A","-1","-1","1","0","[]","0","0","3","","","","","","","",""
"pit-trial","71","632068","0.0-2.0-14.2-2.2","battery-v0.2","","""event"",""trial"",""time""
""fullscreenenter"",""1"",""1477""
","
","
","""event"",""trial"",""time""
""fullscreenenter"",""1"",""1477""
","
","","","-1","","","14","6179","3534","&#9826;","elianto","#f73b6a7A","-1","-1","1","0","[]","0","0","3","","","","","","","",""
"pit-trial","72","636925","0.0-2.0-14.2-3.2","battery-v0.2","","""event"",""trial"",""time""
""fullscreenenter"",""1"",""1477""
","
","
","""event"",""trial"",""time""
""fullscreenenter"",""1"",""1477""
","
","","","-1","","","14","6179","3534","&#9826;","elianto","#f73b6a7A","-1","-1","1","-10","[]","0","0","3","","","","","","","",""
"pit-trial","73","641783","0.0-2.0-14.2-4.2","battery-v0.2","","""event"",""trial"",""time""
""fullscreenenter"",""1"",""1477""
","
","
","""event"",""trial"",""time""
""fullscreenenter"",""1"",""1477""
","
","","","-1","","","14","6179","3534","&#9826;","elianto","#f73b6a7A","-1","-1","1","0","[]","0","0","3","","","","","","","",""
"pit-trial","74","646643","0.0-2.0-14.3-0.3","battery-v0.2","","""event"",""trial"",""time""
""fullscreenenter"",""1"",""1477""
","
","
","""event"",""trial"",""time""
""fullscreenenter"",""1"",""1477""
","
","","","-1","","","14","6179","3534","&#9826;","elianto","#f73b6a7A","-1","-1","1","0","[]","0","0","3","","","","","","","",""
"pit-trial","75","651500","0.0-2.0-14.3-1.3","battery-v0.2","","""event"",""trial"",""time""
""fullscreenenter"",""1"",""1477""
","
","
","""event"",""trial"",""time""
""fullscreenenter"",""1"",""1477""
","
","","","-1","","","14","6179","3534","&#9826;","elianto","#f73b6a7A","-1","-1","1","0","[]","0","0","3","","","","","","","",""
"pit-trial","76","656359","0.0-2.0-14.3-2.3","battery-v0.2","","""event"",""trial"",""time""
""fullscreenenter"",""1"",""1477""
","
","
","""event"",""trial"",""time""
""fullscreenenter"",""1"",""1477""
","
","","","-1","","","14","6179","3534","&#9826;","elianto","#f73b6a7A","-1","-1","1","0","[]","0","0","3","","","","","","","",""
"pit-trial","77","661216","0.0-2.0-14.3-3.3","battery-v0.2","","""event"",""trial"",""time""
""fullscreenenter"",""1"",""1477""
","
","
","""event"",""trial"",""time""
""fullscreenenter"",""1"",""1477""
","
","","","-1","","","14","6179","3534","&#9826;","elianto","#f73b6a7A","-1","-1","1","-10","[]","0","0","3","","","","","","","",""
"pit-trial","78","666073","0.0-2.0-14.3-4.3","battery-v0.2","","""event"",""trial"",""time""
""fullscreenenter"",""1"",""1477""
","
","
","""event"",""trial"",""time""
""fullscreenenter"",""1"",""1477""
","
","","","-1","","","14","6179","3534","&#9826;","elianto","#f73b6a7A","-1","-1","1","0","[]","0","0","3","","","","","","","",""
"call-function","79","666079","0.0-2.0-15.0","battery-v0.2","","""event"",""trial"",""time""
""fullscreenenter"",""1"",""1477""
","
","
","""event"",""trial"",""time""
""fullscreenenter"",""1"",""1477""
","
","","","","","","","","","","","","","","","","","","","","","","","","","","",""
"pit-instructions","80","694186","0.0-2.0-16.0","battery-v0.2","","""event"",""trial"",""time""
""fullscreenenter"",""1"",""1477""
","
","
","""event"",""trial"",""time""
""fullscreenenter"",""1"",""1477""
","
","","[{""page_index"":0,""viewing_time"":7413.099999904633},{""page_index"":1,""viewing_time"":10374.200000047684},{""page_index"":2,""viewing_time"":4699.299999952316},{""page_index"":3,""viewing_time"":5617.300000071526}]","28105.599999904633","","","","","","","","","","","","","","","","","","","","","","","",""
"pit-trial","81","699044","0.0-2.0-17.0-0.0","battery-v0.2","","""event"",""trial"",""time""
""fullscreenenter"",""1"",""1477""
","
","
","""event"",""trial"",""time""
""fullscreenenter"",""1"",""1477""
","
","","","-1","","","14","6179","3534","&#9789;","elianto","#f73b6a7A"," ","-1","0","-10","[]","0","0","4","","","","","","","",""
"pit-trial","82","703899","0.0-2.0-17.0-1.0","battery-v0.2","","""event"",""trial"",""time""
""fullscreenenter"",""1"",""1477""
","
","
","""event"",""trial"",""time""
""fullscreenenter"",""1"",""1477""
","
","","","-1","","","14","6179","3534","&#9789;","elianto","#f73b6a7A"," ","-1","0","-10","[]","0","0","4","","","","","","","",""
"pit-trial","83","708756","0.0-2.0-17.0-2.0","battery-v0.2","","""event"",""trial"",""time""
""fullscreenenter"",""1"",""1477""
","
","
","""event"",""trial"",""time""
""fullscreenenter"",""1"",""1477""
","
","","","-1","","","14","6179","3534","&#9789;","elianto","#f73b6a7A"," ","-1","0","-10","[]","0","0","4","","","","","","","",""
"pit-trial","84","713614","0.0-2.0-17.0-3.0","battery-v0.2","","""event"",""trial"",""time""
""fullscreenenter"",""1"",""1477""
","
","
","""event"",""trial"",""time""
""fullscreenenter"",""1"",""1477""
","
","","","-1","","","14","6179","3534","&#9789;","elianto","#f73b6a7A"," ","-1","0","0","[]","0","0","4","","","","","","","",""
"pit-trial","85","718470","0.0-2.0-17.0-4.0","battery-v0.2","","""event"",""trial"",""time""
""fullscreenenter"",""1"",""1477""
","
","
","""event"",""trial"",""time""
""fullscreenenter"",""1"",""1477""
","
","","","-1","","","14","6179","3534","&#9789;","elianto","#f73b6a7A"," ","-1","0","-10","[]","0","0","4","","","","","","","",""
"pit-trial","86","723328","0.0-2.0-17.1-0.1","battery-v0.2","","""event"",""trial"",""time""
""fullscreenenter"",""1"",""1477""
","
","
","""event"",""trial"",""time""
""fullscreenenter"",""1"",""1477""
","
","","","-1","","","14","6179","3534","&#9789;","elianto","#f73b6a7A"," ","-1","0","-10","[]","0","0","4","","","","","","","",""
"pit-trial","87","728187","0.0-2.0-17.1-1.1","battery-v0.2","","""event"",""trial"",""time""
""fullscreenenter"",""1"",""1477""
","
","
","""event"",""trial"",""time""
""fullscreenenter"",""1"",""1477""
","
","","","-1","","","14","6179","3534","&#9789;","elianto","#f73b6a7A"," ","-1","0","-10","[]","0","0","4","","","","","","","",""
"pit-trial","88","733048","0.0-2.0-17.1-2.1","battery-v0.2","","""event"",""trial"",""time""
""fullscreenenter"",""1"",""1477""
","
","
","""event"",""trial"",""time""
""fullscreenenter"",""1"",""1477""
","
","","","-1","","","14","6179","3534","&#9789;","elianto","#f73b6a7A"," ","-1","0","-10","[]","0","0","4","","","","","","","",""
"pit-trial","89","737906","0.0-2.0-17.1-3.1","battery-v0.2","","""event"",""trial"",""time""
""fullscreenenter"",""1"",""1477""
","
","
","""event"",""trial"",""time""
""fullscreenenter"",""1"",""1477""
","
","","","-1","","","14","6179","3534","&#9789;","elianto","#f73b6a7A"," ","-1","0","0","[]","0","0","4","","","","","","","",""
"pit-trial","90","742767","0.0-2.0-17.1-4.1","battery-v0.2","","""event"",""trial"",""time""
""fullscreenenter"",""1"",""1477""
","
","
","""event"",""trial"",""time""
""fullscreenenter"",""1"",""1477""
","
","","","-1","","","14","6179","3534","&#9789;","elianto","#f73b6a7A"," ","-1","0","-10","[]","0","0","4","","","","","","","",""
"pit-trial","91","747627","0.0-2.0-17.2-0.2","battery-v0.2","","""event"",""trial"",""time""
""fullscreenenter"",""1"",""1477""
","
","
","""event"",""trial"",""time""
""fullscreenenter"",""1"",""1477""
","
","","","-1","","","14","6179","3534","&#9789;","elianto","#f73b6a7A"," ","-1","0","-10","[]","0","0","4","","","","","","","",""
"pit-trial","92","752484","0.0-2.0-17.2-1.2","battery-v0.2","","""event"",""trial"",""time""
""fullscreenenter"",""1"",""1477""
","
","
","""event"",""trial"",""time""
""fullscreenenter"",""1"",""1477""
","
","","","-1","","","14","6179","3534","&#9789;","elianto","#f73b6a7A"," ","-1","0","-10","[]","0","0","4","","","","","","","",""
"pit-trial","93","757342","0.0-2.0-17.2-2.2","battery-v0.2","","""event"",""trial"",""time""
""fullscreenenter"",""1"",""1477""
","
","
","""event"",""trial"",""time""
""fullscreenenter"",""1"",""1477""
","
","","","-1","","","14","6179","3534","&#9789;","elianto","#f73b6a7A"," ","-1","0","-10","[]","0","0","4","","","","","","","",""
"pit-trial","94","762200","0.0-2.0-17.2-3.2","battery-v0.2","","""event"",""trial"",""time""
""fullscreenenter"",""1"",""1477""
","
","
","""event"",""trial"",""time""
""fullscreenenter"",""1"",""1477""
","
","","","-1","","","14","6179","3534","&#9789;","elianto","#f73b6a7A"," ","-1","0","0","[]","0","0","4","","","","","","","",""
"pit-trial","95","767057","0.0-2.0-17.2-4.2","battery-v0.2","","""event"",""trial"",""time""
""fullscreenenter"",""1"",""1477""
","
","
","""event"",""trial"",""time""
""fullscreenenter"",""1"",""1477""
","
","","","-1","","","14","6179","3534","&#9789;","elianto","#f73b6a7A"," ","-1","0","-10","[]","0","0","4","","","","","","","",""
"pit-trial","96","771918","0.0-2.0-17.3-0.3","battery-v0.2","","""event"",""trial"",""time""
""fullscreenenter"",""1"",""1477""
","
","
","""event"",""trial"",""time""
""fullscreenenter"",""1"",""1477""
","
","","","-1","","","14","6179","3534","&#9789;","elianto","#f73b6a7A"," ","-1","0","-10","[]","0","0","4","","","","","","","",""
"pit-trial","97","776775","0.0-2.0-17.3-1.3","battery-v0.2","","""event"",""trial"",""time""
""fullscreenenter"",""1"",""1477""
","
","
","""event"",""trial"",""time""
""fullscreenenter"",""1"",""1477""
","
","","","-1","","","14","6179","3534","&#9789;","elianto","#f73b6a7A"," ","-1","0","-10","[]","0","0","4","","","","","","","",""
"pit-trial","98","781635","0.0-2.0-17.3-2.3","battery-v0.2","","""event"",""trial"",""time""
""fullscreenenter"",""1"",""1477""
","
","
","""event"",""trial"",""time""
""fullscreenenter"",""1"",""1477""
","
","","","-1","","","14","6179","3534","&#9789;","elianto","#f73b6a7A"," ","-1","0","-10","[]","0","0","4","","","","","","","",""
"pit-trial","99","786493","0.0-2.0-17.3-3.3","battery-v0.2","","""event"",""trial"",""time""
""fullscreenenter"",""1"",""1477""
","
","
","""event"",""trial"",""time""
""fullscreenenter"",""1"",""1477""
","
","","","-1","","","14","6179","3534","&#9789;","elianto","#f73b6a7A"," ","-1","0","0","[]","0","0","4","","","","","","","",""
"pit-trial","100","791352","0.0-2.0-17.3-4.3","battery-v0.2","","""event"",""trial"",""time""
""fullscreenenter"",""1"",""1477""
","
","
","""event"",""trial"",""time""
""fullscreenenter"",""1"",""1477""
","
","","","-1","","","14","6179","3534","&#9789;","elianto","#f73b6a7A"," ","-1","0","-10","[]","0","0","4","","","","","","","",""
"call-function","101","791357","0.0-2.0-18.0","battery-v0.2","","""event"",""trial"",""time""
""fullscreenenter"",""1"",""1477""
","
","
","""event"",""trial"",""time""
""fullscreenenter"",""1"",""1477""
","
","","","","","","","","","","","","","","","","","","","","","","","","","","",""
"pit-instructions","102","921610","0.0-2.0-19.0","battery-v0.2","","""event"",""trial"",""time""
""fullscreenenter"",""1"",""1477""
","
","
","""event"",""trial"",""time""
""fullscreenenter"",""1"",""1477""
","
","","[{""page_index"":0,""viewing_time"":36016.5},{""page_index"":1,""viewing_time"":36294.799999952316},{""page_index"":2,""viewing_time"":8782},{""page_index"":3,""viewing_time"":8539.5},{""page_index"":4,""viewing_time"":9337.700000047684},{""page_index"":5,""viewing_time"":11655.399999976158},{""page_index"":6,""viewing_time"":8712.899999976158},{""page_index"":7,""viewing_time"":6641.100000023842},{""page_index"":8,""viewing_time"":4269}]","130250.69999992847","","","","","","","","","","","","","","","","","","","","","","","",""
"pit-comprehension","103","927969","0.0-2.0-20.0-0.0","battery-v0.2","","""event"",""trial"",""time""
""fullscreenenter"",""1"",""1477""
","
","
","""event"",""trial"",""time""
""fullscreenenter"",""1"",""1477""
","
","","","6348.100000023842","[""SPACE""]","0","14","6179","3534","","","","","","","","","","","","","","","","","","",""
"pit-instructions","104","930942","0.0-2.0-20.0-1.0","battery-v0.2","","""event"",""trial"",""time""
""fullscreenenter"",""1"",""1477""
","
","
","""event"",""trial"",""time""
""fullscreenenter"",""1"",""1477""
","
","","[{""page_index"":0,""viewing_time"":2908.7000000476837}]","2911.399999976158","","","","","","","","","","","","","","","","","","","","","","","",""
"pit-comprehension","105","938516","0.0-2.0-21.0-0.0","battery-v0.2","","""event"",""trial"",""time""
""fullscreenenter"",""1"",""1477""
","
","
","""event"",""trial"",""time""
""fullscreenenter"",""1"",""1477""
","
","","","7562.099999904633","[""10""]","0","14","6179","3534","","","","","","","","","","","","","","","","","","",""
"pit-instructions","106","944288","0.0-2.0-21.0-1.0","battery-v0.2","","""event"",""trial"",""time""
""fullscreenenter"",""1"",""1477""
","
","
","""event"",""trial"",""time""
""fullscreenenter"",""1"",""1477""
","
","","[{""page_index"":0,""viewing_time"":5710.100000023842}]","5711.899999976158","","","","","","","","","","","","","","","","","","","","","","","",""
"pit-comprehension","107","951384","0.0-2.0-22.0-0.0","battery-v0.2","","""event"",""trial"",""time""
""fullscreenenter"",""1"",""1477""
","
","
","""event"",""trial"",""time""
""fullscreenenter"",""1"",""1477""
","
","","","7085.900000095367","[""-10""]","1","14","6179","3534","","","","","","","","","","","","","","","","","","",""
"pit-instructions","108","954813","0.0-2.0-22.0-1.0","battery-v0.2","","""event"",""trial"",""time""
""fullscreenenter"",""1"",""1477""
","
","
","""event"",""trial"",""time""
""fullscreenenter"",""1"",""1477""
","
","","[{""page_index"":0,""viewing_time"":3366.600000023842}]","3367.7999999523163","","","","","","","","","","","","","","","","","","","","","","","",""
"pit-instructions","109","957975","0.0-2.0-22.0-2.0-0.0","battery-v0.2","","""event"",""trial"",""time""
""fullscreenenter"",""1"",""1477""
","
","
","""event"",""trial"",""time""
""fullscreenenter"",""1"",""1477""
","
","","[{""page_index"":0,""viewing_time"":3155.899999976158}]","3156.6999999284744","","","","","","","","","","","","","","","","","","","","","","","",""
"pit-comprehension","110","965914","0.0-2.0-22.1-0.1","battery-v0.2","","""event"",""trial"",""time""
""fullscreenenter"",""1"",""1477""
","
","
","""event"",""trial"",""time""
""fullscreenenter"",""1"",""1477""
","
","","","7930.099999904633","[""0""]","0","14","6179","3534","","","","","","","","","","","","","","","","","","",""
"pit-instructions","111","967628","0.0-2.0-22.1-1.1","battery-v0.2","","""event"",""trial"",""time""
""fullscreenenter"",""1"",""1477""
","
","
","""event"",""trial"",""time""
""fullscreenenter"",""1"",""1477""
","
","","[{""page_index"":0,""viewing_time"":1653.8999999761581}]","1654.3999999761581","","","","","","","","","","","","","","","","","","","","","","","",""
"pit-comprehension","112","988373","0.0-2.0-23.0-0.0","battery-v0.2","","""event"",""trial"",""time""
""fullscreenenter"",""1"",""1477""
","
","
","""event"",""trial"",""time""
""fullscreenenter"",""1"",""1477""
","
","","","20732.600000023842","[""False""]","1","14","6179","3534","","","","","","","","","","","","","","","","","","",""
"pit-instructions","113","993549","0.0-2.0-23.0-1.0","battery-v0.2","","""event"",""trial"",""time""
""fullscreenenter"",""1"",""1477""
","
","
","""event"",""trial"",""time""
""fullscreenenter"",""1"",""1477""
","
","","[{""page_index"":0,""viewing_time"":5114.100000023842}]","5115.100000023842","","","","","","","","","","","","","","","","","","","","","","","",""
"pit-instructions","114","997308","0.0-2.0-23.0-2.0-0.0","battery-v0.2","","""event"",""trial"",""time""
""fullscreenenter"",""1"",""1477""
","
","
","""event"",""trial"",""time""
""fullscreenenter"",""1"",""1477""
","
","","[{""page_index"":0,""viewing_time"":3751.899999976158}]","3754.1999999284744","","","","","","","","","","","","","","","","","","","","","","","",""
"pit-comprehension","115","1006732","0.0-2.0-23.1-0.1","battery-v0.2","","""event"",""trial"",""time""
""fullscreenenter"",""1"",""1477""
","
","
","""event"",""trial"",""time""
""fullscreenenter"",""1"",""1477""
","
","","","9413.700000047684","[""True""]","0","14","6179","3534","","","","","","","","","","","","","","","","","","",""
"pit-instructions","116","1008604","0.0-2.0-23.1-1.1","battery-v0.2","","""event"",""trial"",""time""
""fullscreenenter"",""1"",""1477""
","
","
","""event"",""trial"",""time""
""fullscreenenter"",""1"",""1477""
","
","","[{""page_index"":0,""viewing_time"":1799.3999999761581}]","1800.3999999761581","","","","","","","","","","","","","","","","","","","","","","","",""
"pit-comprehension","117","1016160","0.0-2.0-24.0-0.0","battery-v0.2","","""event"",""trial"",""time""
""fullscreenenter"",""1"",""1477""
","
","
","""event"",""trial"",""time""
""fullscreenenter"",""1"",""1477""
","
","","","7547.200000047684","[""True""]","0","14","6179","3534","","","","","","","","","","","","","","","","","","",""
"pit-instructions","118","1017820","0.0-2.0-24.0-1.0","battery-v0.2","","""event"",""trial"",""time""
""fullscreenenter"",""1"",""1477""
","
","
","""event"",""trial"",""time""
""fullscreenenter"",""1"",""1477""
","
","","[{""page_index"":0,""viewing_time"":1597.9000000953674}]","1598.9000000953674","","","","","","","","","","","","","","","","","","","","","","","",""
"pit-comprehension","119","1024669","0.0-2.0-25.0-0.0","battery-v0.2","","""event"",""trial"",""time""
""fullscreenenter"",""1"",""1477""
","
","
","""event"",""trial"",""time""
""fullscreenenter"",""1"",""1477""
","
","","","6837.899999976158","[""True""]","0","14","6179","3534","","","","","","","","","","","","","","","","","","",""
"pit-instructions","120","1027091","0.0-2.0-25.0-1.0","battery-v0.2","","""event"",""trial"",""time""
""fullscreenenter"",""1"",""1477""
","
","
","""event"",""trial"",""time""
""fullscreenenter"",""1"",""1477""
","
","","[{""page_index"":0,""viewing_time"":2353.5}]","2354.5","","","","","","","","","","","","","","","","","","","","","","","",""
"pit-comprehension","121","1035698","0.0-2.0-26.0-0.0","battery-v0.2","","""event"",""trial"",""time""
""fullscreenenter"",""1"",""1477""
","
","
","""event"",""trial"",""time""
""fullscreenenter"",""1"",""1477""
","
","","","8597.5","[""True""]","1","14","6179","3534","","","","","","","","","","","","","","","","","","",""
"pit-instructions","122","1039255","0.0-2.0-26.0-1.0","battery-v0.2","","""event"",""trial"",""time""
""fullscreenenter"",""1"",""1477""
","
","
","""event"",""trial"",""time""
""fullscreenenter"",""1"",""1477""
","
","","[{""page_index"":0,""viewing_time"":3491.6999999284744}]","3492.399999976158","","","","","","","","","","","","","","","","","","","","","","","",""
"pit-instructions","123","1039466","0.0-2.0-26.0-2.0-0.0","battery-v0.2","","""event"",""trial"",""time""
""fullscreenenter"",""1"",""1477""
","
","
","""event"",""trial"",""time""
""fullscreenenter"",""1"",""1477""
","
","","[{""page_index"":0,""viewing_time"":205.19999992847443}]","207.19999992847443","","","","","","","","","","","","","","","","","","","","","","","",""
"pit-comprehension","124","1044746","0.0-2.0-26.1-0.1","battery-v0.2","","""event"",""trial"",""time""
""fullscreenenter"",""1"",""1477""
","
","
","""event"",""trial"",""time""
""fullscreenenter"",""1"",""1477""
","
","","","5271.899999976158","[""False""]","0","14","6179","3534","","","","","","","","","","","","","","","","","","",""
"pit-instructions","125","1046524","0.0-2.0-26.1-1.1","battery-v0.2","","""event"",""trial"",""time""
""fullscreenenter"",""1"",""1477""
","
","
","""event"",""trial"",""time""
""fullscreenenter"",""1"",""1477""
","
","","[{""page_index"":0,""viewing_time"":1711.8999999761581}]","1713.8999999761581","","","","","","","","","","","","","","","","","","","","","","","",""
"pit-instructions","126","1065744","0.0-3.0","battery-v0.2","","""event"",""trial"",""time""
""fullscreenenter"",""1"",""1477""
","
","
","""event"",""trial"",""time""
""fullscreenenter"",""1"",""1477""
","
","","[{""page_index"":0,""viewing_time"":4624.099999904633},{""page_index"":1,""viewing_time"":6844.700000047684},{""page_index"":2,""viewing_time"":7743.299999952316}]","19213.199999928474","","","","","","","","","","","","","","","","","","","","","","","",""
"pit-trial","127","1069650","0.0-4.0","battery-v0.2","","""event"",""trial"",""time""
""fullscreenenter"",""1"",""1477""
","
","
","""event"",""trial"",""time""
""fullscreenenter"",""1"",""1477""
","
","","","1045.6000000238419","","","14","6179","3534","&#9730;","elianto","#3366ff99"," "," ","1","+10","[1895.7000000476837]","1","1","","","6179","1","1","1","win","go","0"
"pit-trial","128","1073045","0.0-5.0","battery-v0.2","","""event"",""trial"",""time""
""fullscreenenter"",""1"",""1477""
","
","
","""event"",""trial"",""time""
""fullscreenenter"",""1"",""1477""
","
","","","538.2999999523163","","","14","6179","3534","&#9733;","elianto","#3366ff99","-1"," ","0","0","[1388.5]","1","1","","","6179","2","2","2","win","no-go","0"
"pit-trial","129","1077900","0.0-6.0","battery-v0.2","","""event"",""trial"",""time""
""fullscreenenter"",""1"",""1477""
","
","
","""event"",""trial"",""time""
""fullscreenenter"",""1"",""1477""
","
","","","-1","","","14","6179","3534","&#9752;","elianto","#f73b6a7A"," ","-1","0","-10","[]","0","1","","","6179","3","3","3","lose","go","0"
"pit-trial","130","1082755","0.0-7.0","battery-v0.2","","""event"",""trial"",""time""
""fullscreenenter"",""1"",""1477""
","
","
","""event"",""trial"",""time""
""fullscreenenter"",""1"",""1477""
","
","","","-1","","","14","6179","3534","&#9728;","elianto","#f73b6a7A","-1","-1","1","0","[]","0","1","","","6179","4","0","4","lose","no-go","0"
"pit-trial","131","1086246","0.0-8.0","battery-v0.2","","""event"",""trial"",""time""
""fullscreenenter"",""1"",""1477""
","
","
","""event"",""trial"",""time""
""fullscreenenter"",""1"",""1477""
","
","","","628.6000000238419","","","14","6179","3534","&#9730;","elianto","#3366ff99"," "," ","1","+10","[1484.1000000238419]","1","1","","","6179","5","1","1","win","go","0"
"pit-trial","132","1091102","0.0-9.0","battery-v0.2","","""event"",""trial"",""time""
""fullscreenenter"",""1"",""1477""
","
","
","""event"",""trial"",""time""
""fullscreenenter"",""1"",""1477""
","
","","","-1","","","14","6179","3534","&#9728;","elianto","#f73b6a7A","-1","-1","1","0","[]","0","1","","","6179","6","0","4","lose","no-go","0"
"pit-trial","133","1094588","0.0-10.0","battery-v0.2","","""event"",""trial"",""time""
""fullscreenenter"",""1"",""1477""
","
","
","""event"",""trial"",""time""
""fullscreenenter"",""1"",""1477""
","
","","","629.5999999046326","","","14","6179","3534","&#9733;","elianto","#3366ff99","-1"," ","0","0","[1481]","1","1","","","6179","7","2","2","win","no-go","0"
"pit-trial","134","1099445","0.0-11.0","battery-v0.2","","""event"",""trial"",""time""
""fullscreenenter"",""1"",""1477""
","
","
","""event"",""trial"",""time""
""fullscreenenter"",""1"",""1477""
","
","","","-1","","","14","6179","3534","&#9752;","elianto","#f73b6a7A"," ","-1","0","-10","[]","0","1","","","6179","8","3","3","lose","go","0"
"pit-trial","135","1103151","0.0-12.0","battery-v0.2","","""event"",""trial"",""time""
""fullscreenenter"",""1"",""1477""
","
","
","""event"",""trial"",""time""
""fullscreenenter"",""1"",""1477""
","
","","","848","","","14","6179","3534","&#9730;","elianto","#3366ff99"," "," ","1","+10","[1698.1000000238419]","1","1","","","6179","9","1","1","win","go","0"
"pit-trial","136","1108010","0.0-13.0","battery-v0.2","","""event"",""trial"",""time""
""fullscreenenter"",""1"",""1477""
","
","
","""event"",""trial"",""time""
""fullscreenenter"",""1"",""1477""
","
","","","-1","","","14","6179","3534","&#9752;","elianto","#f73b6a7A"," ","-1","0","-10","[]","0","1","","","6179","10","3","3","lose","go","0"
"pit-trial","137","1112868","0.0-14.0","battery-v0.2","","""event"",""trial"",""time""
""fullscreenenter"",""1"",""1477""
","
","
","""event"",""trial"",""time""
""fullscreenenter"",""1"",""1477""
","
","","","-1","","","14","6179","3534","&#9728;","elianto","#f73b6a7A","-1","-1","1","0","[]","0","1","","","6179","11","0","4","lose","no-go","0"
"pit-trial","138","1116183","0.0-15.0","battery-v0.2","","""event"",""trial"",""time""
""fullscreenenter"",""1"",""1477""
","
","
","""event"",""trial"",""time""
""fullscreenenter"",""1"",""1477""
","
","","","456.1999999284744","","","14","6179","3534","&#9733;","elianto","#3366ff99","-1"," ","0","0","[1306.3999999761581]","1","1","","","6179","12","2","2","win","no-go","0"
"pit-trial","139","1119819","0.0-16.0","battery-v0.2","","""event"",""trial"",""time""
""fullscreenenter"",""1"",""1477""
","
","
","""event"",""trial"",""time""
""fullscreenenter"",""1"",""1477""
","
","","","778.8999999761581","","","14","6179","3534","&#9730;","elianto","#3366ff99"," "," ","1","+10","[1629.2999999523163]","1","1","","","6179","13","1","1","win","go","0"
"pit-trial","140","1124679","0.0-17.0","battery-v0.2","","""event"",""trial"",""time""
""fullscreenenter"",""1"",""1477""
","
","
","""event"",""trial"",""time""
""fullscreenenter"",""1"",""1477""
","
","","","-1","","","14","6179","3534","&#9752;","elianto","#f73b6a7A"," ","-1","0","-10","[]","0","1","","","6179","14","3","3","lose","go","0"
"pit-trial","141","1129538","0.0-18.0","battery-v0.2","","""event"",""trial"",""time""
""fullscreenenter"",""1"",""1477""
","
","
","""event"",""trial"",""time""
""fullscreenenter"",""1"",""1477""
","
","","","-1","","","14","6179","3534","&#9728;","elianto","#f73b6a7A","-1","-1","1","0","[]","0","1","","","6179","15","0","4","lose","no-go","0"
"pit-trial","142","1133174","0.0-19.0","battery-v0.2","","""event"",""trial"",""time""
""fullscreenenter"",""1"",""1477""
","
","
","""event"",""trial"",""time""
""fullscreenenter"",""1"",""1477""
","
","","","777","","","14","6179","3534","&#9733;","elianto","#3366ff99","-1"," ","0","0","[1627.1999999284744]","1","1","","","6179","16","2","2","win","no-go","0"
"pit-trial","143","1138033","0.0-20.0","battery-v0.2","","""event"",""trial"",""time""
""fullscreenenter"",""1"",""1477""
","
","
","""event"",""trial"",""time""
""fullscreenenter"",""1"",""1477""
","
","","","-1","","","14","6179","3534","&#9752;","elianto","#f73b6a7A"," ","-1","0","-10","[]","0","1","","","6179","17","3","3","lose","go","0"
"pit-trial","144","1142341","0.0-21.0","battery-v0.2","","""event"",""trial"",""time""
""fullscreenenter"",""1"",""1477""
","
","
","""event"",""trial"",""time""
""fullscreenenter"",""1"",""1477""
","
","","","1448.5","","","14","6179","3534","&#9730;","elianto","#3366ff99"," "," ","1","+10","[2298.6999999284744]","1","1","","","6179","18","1","1","win","go","0"
"pit-trial","145","1145787","0.0-22.0","battery-v0.2","","""event"",""trial"",""time""
""fullscreenenter"",""1"",""1477""
","
","
","""event"",""trial"",""time""
""fullscreenenter"",""1"",""1477""
","
","","","586.2000000476837","","","14","6179","3534","&#9733;","elianto","#3366ff99","-1"," ","0","+10","[1436.7000000476837]","1","1","","","6179","19","2","2","win","no-go","1"
"pit-trial","146","1150647","0.0-23.0","battery-v0.2","","""event"",""trial"",""time""
""fullscreenenter"",""1"",""1477""
","
","
","""event"",""trial"",""time""
""fullscreenenter"",""1"",""1477""
","
","","","-1","","","14","6179","3534","&#9728;","elianto","#f73b6a7A","-1","-1","1","0","[]","0","1","","","6179","20","0","4","lose","no-go","0"
"pit-instructions","147","1165800","0.0-24.0","battery-v0.2","","""event"",""trial"",""time""
""fullscreenenter"",""1"",""1477""
","
","
","""event"",""trial"",""time""
""fullscreenenter"",""1"",""1477""
","
","","[{""page_index"":0,""viewing_time"":7215.200000047684},{""page_index"":1,""viewing_time"":7930.700000047684}]","15146.900000095367","","","","","","","","","","","","","","","","","","","","","","","",""
"pit-trial","148","1170659","0.0-25.0","battery-v0.2","","""event"",""trial"",""time""
""fullscreenenter"",""1"",""1477""
","
","
","""event"",""trial"",""time""
""fullscreenenter"",""1"",""1477""
","
","","","-1","","","14","6179","3534","b","elianto","#f73b6a7A","-1","-1","1","0","[]","0","2","","","6179","21","3","4","lose","no-go","0"
"pit-trial","149","1175516","0.0-26.0","battery-v0.2","","""event"",""trial"",""time""
""fullscreenenter"",""1"",""1477""
","
","
","""event"",""trial"",""time""
""fullscreenenter"",""1"",""1477""
","
","","","-1","","","14","6179","3534","t","elianto","#f73b6a7A"," ","-1","0","-10","[]","0","2","","","6179","22","2","3","lose","go","0"
"pit-trial","150","1180374","0.0-27.0","battery-v0.2","","""event"",""trial"",""time""
""fullscreenenter"",""1"",""1477""
","
","
","""event"",""trial"",""time""
""fullscreenenter"",""1"",""1477""
","
","","","-1","","","14","6179","3534","n","elianto","#f73b6a7A"," ","-1","0","-10","[]","0","2","","","6179","23","0","3","lose","go","0"
"pit-trial","151","1183699","0.0-28.0","battery-v0.2","","""event"",""trial"",""time""
""fullscreenenter"",""1"",""1477""
","
","
","""event"",""trial"",""time""
""fullscreenenter"",""1"",""1477""
","
","","","468.5","","","14","6179","3534","f","elianto","#3366ff99","-1"," ","0","0","[1318.7000000476837]","1","2","","","6179","24","1","2","win","no-go","0"
"pit-trial","152","1186979","0.0-29.0","battery-v0.2","","""event"",""trial"",""time""
""fullscreenenter"",""1"",""1477""
","
","
","""event"",""trial"",""time""
""fullscreenenter"",""1"",""1477""
","
","","","422.60000002384186","","","14","6179","3534","f","elianto","#3366ff99","-1"," ","0","0","[1272.7999999523163]","1","2","","","6179","25","1","2","win","no-go","0"
"pit-trial","153","1191835","0.0-30.0","battery-v0.2","","""event"",""trial"",""time""
""fullscreenenter"",""1"",""1477""
","
","
","""event"",""trial"",""time""
""fullscreenenter"",""1"",""1477""
","
","","","-1","","","14","6179","3534","n","elianto","#f73b6a7A"," ","-1","0","-10","[]","0","2","","","6179","26","0","3","lose","go","0"
"pit-trial","154","1196692","0.0-31.0","battery-v0.2","","""event"",""trial"",""time""
""fullscreenenter"",""1"",""1477""
","
","
","""event"",""trial"",""time""
""fullscreenenter"",""1"",""1477""
","
","","","-1","","","14","6179","3534","t","elianto","#f73b6a7A"," ","-1","0","-10","[]","0","2","","","6179","27","2","3","lose","go","0"
"pit-trial","155","1201549","0.0-32.0","battery-v0.2","","""event"",""trial"",""time""
""fullscreenenter"",""1"",""1477""
","
","
","""event"",""trial"",""time""
""fullscreenenter"",""1"",""1477""
","
","","","-1","","","14","6179","3534","b","elianto","#f73b6a7A","-1","-1","1","0","[]","0","2","","","6179","28","3","4","lose","no-go","0"
"pit-trial","156","1204816","0.0-33.0","battery-v0.2","","""event"",""trial"",""time""
""fullscreenenter"",""1"",""1477""
","
","
","""event"",""trial"",""time""
""fullscreenenter"",""1"",""1477""
","
","","","409","","","14","6179","3534","t","elianto","#f73b6a7A"," "," ","1","0","[1259.4000000953674]","1","2","","","6179","29","2","3","lose","go","0"
"pit-trial","157","1209675","0.0-34.0","battery-v0.2","","""event"",""trial"",""time""
""fullscreenenter"",""1"",""1477""
","
","
","""event"",""trial"",""time""
""fullscreenenter"",""1"",""1477""
","
","","","-1","","","14","6179","3534","b","elianto","#f73b6a7A","-1","-1","1","0","[]","0","2","","","6179","30","3","4","lose","no-go","0"
"pit-trial","158","1213087","0.0-35.0","battery-v0.2","","""event"",""trial"",""time""
""fullscreenenter"",""1"",""1477""
","
","
","""event"",""trial"",""time""
""fullscreenenter"",""1"",""1477""
","
","","","553.8999999761581","","","14","6179","3534","f","elianto","#3366ff99","-1"," ","0","0","[1403.3999999761581]","1","2","","","6179","31","1","2","win","no-go","0"
"pit-trial","159","1217948","0.0-36.0","battery-v0.2","","""event"",""trial"",""time""
""fullscreenenter"",""1"",""1477""
","
","
","""event"",""trial"",""time""
""fullscreenenter"",""1"",""1477""
","
","","","-1","","","14","6179","3534","n","elianto","#f73b6a7A"," ","-1","0","-10","[]","0","2","","","6179","32","0","3","lose","go","0"
"pit-trial","160","1222807","0.0-37.0","battery-v0.2","","""event"",""trial"",""time""
""fullscreenenter"",""1"",""1477""
","
","
","""event"",""trial"",""time""
""fullscreenenter"",""1"",""1477""
","
","","","-1","","","14","6179","3534","n","elianto","#f73b6a7A"," ","-1","0","-10","[]","0","2","","","6179","33","0","3","lose","go","0"
"pit-trial","161","1227665","0.0-38.0","battery-v0.2","","""event"",""trial"",""time""
""fullscreenenter"",""1"",""1477""
","
","
","""event"",""trial"",""time""
""fullscreenenter"",""1"",""1477""
","
","","","-1","","","14","6179","3534","b","elianto","#f73b6a7A","-1","-1","1","0","[]","0","2","","","6179","34","3","4","lose","no-go","0"
"pit-trial","162","1232524","0.0-39.0","battery-v0.2","","""event"",""trial"",""time""
""fullscreenenter"",""1"",""1477""
","
","
","""event"",""trial"",""time""
""fullscreenenter"",""1"",""1477""
","
","","","-1","","","14","6179","3534","t","elianto","#f73b6a7A"," ","-1","0","-10","[]","0","2","","","6179","35","2","3","lose","go","0"
"pit-trial","163","1235985","0.0-40.0","battery-v0.2","","""event"",""trial"",""time""
""fullscreenenter"",""1"",""1477""
","
","
","""event"",""trial"",""time""
""fullscreenenter"",""1"",""1477""
","
","","","596","","","14","6179","3534","f","elianto","#3366ff99","-1"," ","0","+10","[1449.1999999284744]","1","2","","","6179","36","1","2","win","no-go","1"
"pit-trial","164","1240845","0.0-41.0","battery-v0.2","","""event"",""trial"",""time""
""fullscreenenter"",""1"",""1477""
","
","
","""event"",""trial"",""time""
""fullscreenenter"",""1"",""1477""
","
","","","-1","","","14","6179","3534","n","elianto","#f73b6a7A"," ","-1","0","-10","[]","0","2","","","6179","37","0","3","lose","go","0"
"pit-trial","165","1244229","0.0-42.0","battery-v0.2","","""event"",""trial"",""time""
""fullscreenenter"",""1"",""1477""
","
","
","""event"",""trial"",""time""
""fullscreenenter"",""1"",""1477""
","
","","","525.1999999284744","","","14","6179","3534","f","elianto","#3366ff99","-1"," ","0","0","[1375.3000000715256]","1","2","","","6179","38","1","2","win","no-go","0"
"pit-trial","166","1249089","0.0-43.0","battery-v0.2","","""event"",""trial"",""time""
""fullscreenenter"",""1"",""1477""
","
","
","""event"",""trial"",""time""
""fullscreenenter"",""1"",""1477""
","
","","","-1","","","14","6179","3534","t","elianto","#f73b6a7A"," ","-1","0","-10","[]","0","2","","","6179","39","2","3","lose","go","0"
"pit-trial","167","1253948","0.0-44.0","battery-v0.2","","""event"",""trial"",""time""
""fullscreenenter"",""1"",""1477""
","
","
","""event"",""trial"",""time""
""fullscreenenter"",""1"",""1477""
","
","","","-1","","","14","6179","3534","b","elianto","#f73b6a7A","-1","-1","1","-10","[]","0","2","","","6179","40","3","4","lose","no-go","1"
"pit-trial","168","1258807","0.0-45.0","battery-v0.2","","""event"",""trial"",""time""
""fullscreenenter"",""1"",""1477""
","
","
","""event"",""trial"",""time""
""fullscreenenter"",""1"",""1477""
","
","","","-1","","","14","6179","3534","b","elianto","#f73b6a7A","-1","-1","1","-10","[]","0","2","","","6179","41","3","4","lose","no-go","1"
"pit-trial","169","1262240","0.0-46.0","battery-v0.2","","""event"",""trial"",""time""
""fullscreenenter"",""1"",""1477""
","
","
","""event"",""trial"",""time""
""fullscreenenter"",""1"",""1477""
","
","","","573.7999999523163","","","14","6179","3534","f","elianto","#3366ff99","-1"," ","0","0","[1423.8999999761581]","1","2","","","6179","42","1","2","win","no-go","0"
"pit-trial","170","1267099","0.0-47.0","battery-v0.2","","""event"",""trial"",""time""
""fullscreenenter"",""1"",""1477""
","
","
","""event"",""trial"",""time""
""fullscreenenter"",""1"",""1477""
","
","","","-1","","","14","6179","3534","n","elianto","#f73b6a7A"," ","-1","0","-10","[]","0","2","","","6179","43","0","3","lose","go","0"
"pit-trial","171","1271958","0.0-48.0","battery-v0.2","","""event"",""trial"",""time""
""fullscreenenter"",""1"",""1477""
","
","
","""event"",""trial"",""time""
""fullscreenenter"",""1"",""1477""
","
","","","-1","","","14","6179","3534","t","elianto","#f73b6a7A"," ","-1","0","-10","[]","0","2","","","6179","44","2","3","lose","go","0"
"pit-trial","172","1276818","0.0-49.0","battery-v0.2","","""event"",""trial"",""time""
""fullscreenenter"",""1"",""1477""
","
","
","""event"",""trial"",""time""
""fullscreenenter"",""1"",""1477""
","
","","","-1","","","14","6179","3534","t","elianto","#f73b6a7A"," ","-1","0","0","[]","0","2","","","6179","45","2","3","lose","go","1"
"pit-trial","173","1281678","0.0-50.0","battery-v0.2","","""event"",""trial"",""time""
""fullscreenenter"",""1"",""1477""
","
","
","""event"",""trial"",""time""
""fullscreenenter"",""1"",""1477""
","
","","","-1","","","14","6179","3534","n","elianto","#f73b6a7A"," ","-1","0","0","[]","0","2","","","6179","46","0","3","lose","go","1"
"pit-trial","174","1286538","0.0-51.0","battery-v0.2","","""event"",""trial"",""time""
""fullscreenenter"",""1"",""1477""
","
","
","""event"",""trial"",""time""
""fullscreenenter"",""1"",""1477""
","
","","","-1","","","14","6179","3534","b","elianto","#f73b6a7A","-1","-1","1","0","[]","0","2","","","6179","47","3","4","lose","no-go","0"
"pit-trial","175","1290106","0.0-52.0","battery-v0.2","","""event"",""trial"",""time""
""fullscreenenter"",""1"",""1477""
","
","
","""event"",""trial"",""time""
""fullscreenenter"",""1"",""1477""
","
","","","705.5999999046326","","","14","6179","3534","f","elianto","#3366ff99","-1"," ","0","0","[1557.7000000476837]","1","2","","","6179","48","1","2","win","no-go","0"
"pit-trial","176","1294964","0.0-53.0","battery-v0.2","","""event"",""trial"",""time""
""fullscreenenter"",""1"",""1477""
","
","
","""event"",""trial"",""time""
""fullscreenenter"",""1"",""1477""
","
","","","-1","","","14","6179","3534","n","elianto","#f73b6a7A"," ","-1","0","-10","[]","0","2","","","6179","49","0","3","lose","go","0"
"pit-trial","177","1298259","0.0-54.0","battery-v0.2","","""event"",""trial"",""time""
""fullscreenenter"",""1"",""1477""
","
","
","""event"",""trial"",""time""
""fullscreenenter"",""1"",""1477""
","
","","","431.7000000476837","","","14","6179","3534","f","elianto","#3366ff99","-1"," ","0","0","[1287.1000000238419]","1","2","","","6179","50","1","2","win","no-go","0"
"pit-trial","178","1303120","0.0-55.0","battery-v0.2","","""event"",""trial"",""time""
""fullscreenenter"",""1"",""1477""
","
","
","""event"",""trial"",""time""
""fullscreenenter"",""1"",""1477""
","
","","","-1","","","14","6179","3534","t","elianto","#f73b6a7A"," ","-1","0","-10","[]","0","2","","","6179","51","2","3","lose","go","0"
"pit-trial","179","1307981","0.0-56.0","battery-v0.2","","""event"",""trial"",""time""
""fullscreenenter"",""1"",""1477""
","
","
","""event"",""trial"",""time""
""fullscreenenter"",""1"",""1477""
","
","","","-1","","","14","6179","3534","b","elianto","#f73b6a7A","-1","-1","1","0","[]","0","2","","","6179","52","3","4","lose","no-go","0"
"pit-trial","180","1312840","0.0-57.0","battery-v0.2","","""event"",""trial"",""time""
""fullscreenenter"",""1"",""1477""
","
","
","""event"",""trial"",""time""
""fullscreenenter"",""1"",""1477""
","
","","","-1","","","14","6179","3534","n","elianto","#f73b6a7A"," ","-1","0","-10","[]","0","2","","","6179","53","0","3","lose","go","0"
"pit-trial","181","1317697","0.0-58.0","battery-v0.2","","""event"",""trial"",""time""
""fullscreenenter"",""1"",""1477""
","
","
","""event"",""trial"",""time""
""fullscreenenter"",""1"",""1477""
","
","","","-1","","","14","6179","3534","t","elianto","#f73b6a7A"," ","-1","0","0","[]","0","2","","","6179","54","2","3","lose","go","1"
"pit-trial","182","1321242","0.0-59.0","battery-v0.2","","""event"",""trial"",""time""
""fullscreenenter"",""1"",""1477""
","
","
","""event"",""trial"",""time""
""fullscreenenter"",""1"",""1477""
","
","","","685.5","","","14","6179","3534","f","elianto","#3366ff99","-1"," ","0","0","[1535.8999999761581]","1","2","","","6179","55","1","2","win","no-go","0"
"pit-trial","183","1326099","0.0-60.0","battery-v0.2","","""event"",""trial"",""time""
""fullscreenenter"",""1"",""1477""
","
","
","""event"",""trial"",""time""
""fullscreenenter"",""1"",""1477""
","
","","","-1","","","14","6179","3534","b","elianto","#f73b6a7A","-1","-1","1","0","[]","0","2","","","6179","56","3","4","lose","no-go","0"
"pit-trial","184","1330957","0.0-61.0","battery-v0.2","","""event"",""trial"",""time""
""fullscreenenter"",""1"",""1477""
","
","
","""event"",""trial"",""time""
""fullscreenenter"",""1"",""1477""
","
","","","-1","","","14","6179","3534","n","elianto","#f73b6a7A"," ","-1","0","0","[]","0","2","","","6179","57","0","3","lose","go","1"
"pit-trial","185","1335815","0.0-62.0","battery-v0.2","","""event"",""trial"",""time""
""fullscreenenter"",""1"",""1477""
","
","
","""event"",""trial"",""time""
""fullscreenenter"",""1"",""1477""
","
","","","-1","","","14","6179","3534","b","elianto","#f73b6a7A","-1","-1","1","0","[]","0","2","","","6179","58","3","4","lose","no-go","0"
"pit-trial","186","1340674","0.0-63.0","battery-v0.2","","""event"",""trial"",""time""
""fullscreenenter"",""1"",""1477""
","
","
","""event"",""trial"",""time""
""fullscreenenter"",""1"",""1477""
","
","","","-1","","","14","6179","3534","t","elianto","#f73b6a7A"," ","-1","0","-10","[]","0","2","","","6179","59","2","3","lose","go","0"
"pit-trial","187","1344120","0.0-64.0","battery-v0.2","","""event"",""trial"",""time""
""fullscreenenter"",""1"",""1477""
","
","
","""event"",""trial"",""time""
""fullscreenenter"",""1"",""1477""
","
","","","587.5","","","14","6179","3534","c","elianto","#3366ff99"," "," ","1","+10","[1437.7999999523163]","1","2","","","6179","60","4","1","win","go","0"
"pit-trial","188","1348977","0.0-65.0","battery-v0.2","","""event"",""trial"",""time""
""fullscreenenter"",""1"",""1477""
","
","
","""event"",""trial"",""time""
""fullscreenenter"",""1"",""1477""
","
","","","-1","","","14","6179","3534","b","elianto","#f73b6a7A","-1","-1","1","-10","[]","0","2","","","6179","61","3","4","lose","no-go","1"
"pit-trial","189","1353835","0.0-66.0","battery-v0.2","","""event"",""trial"",""time""
""fullscreenenter"",""1"",""1477""
","
","
","""event"",""trial"",""time""
""fullscreenenter"",""1"",""1477""
","
","","","-1","","","14","6179","3534","t","elianto","#f73b6a7A"," ","-1","0","0","[]","0","2","","","6179","62","2","3","lose","go","1"
"pit-trial","190","1357572","0.0-67.0","battery-v0.2","","""event"",""trial"",""time""
""fullscreenenter"",""1"",""1477""
","
","
","""event"",""trial"",""time""
""fullscreenenter"",""1"",""1477""
","
","","","878.8000000715256","","","14","6179","3534","c","elianto","#3366ff99"," "," ","1","+10","[1729]","1","2","","","6179","63","4","1","win","go","0"
"pit-trial","191","1361048","0.0-68.0","battery-v0.2","","""event"",""trial"",""time""
""fullscreenenter"",""1"",""1477""
","
","
","""event"",""trial"",""time""
""fullscreenenter"",""1"",""1477""
","
","","","618.3000000715256","","","14","6179","3534","f","elianto","#3366ff99","-1"," ","0","+10","[1468.3999999761581]","1","2","","","6179","64","1","2","win","no-go","1"
"pit-trial","192","1365907","0.0-69.0","battery-v0.2","","""event"",""trial"",""time""
""fullscreenenter"",""1"",""1477""
","
","
","""event"",""trial"",""time""
""fullscreenenter"",""1"",""1477""
","
","","","-1","","","14","6179","3534","b","elianto","#f73b6a7A","-1","-1","1","-10","[]","0","2","","","6179","65","3","4","lose","no-go","1"
"pit-trial","193","1369236","0.0-70.0","battery-v0.2","","""event"",""trial"",""time""
""fullscreenenter"",""1"",""1477""
","
","
","""event"",""trial"",""time""
""fullscreenenter"",""1"",""1477""
","
","","","466.7000000476837","","","14","6179","3534","c","elianto","#3366ff99"," "," ","1","+10","[1319]","1","2","","","6179","66","4","1","win","go","0"
"pit-trial","194","1373142","0.0-71.0","battery-v0.2","","""event"",""trial"",""time""
""fullscreenenter"",""1"",""1477""
","
","
","""event"",""trial"",""time""
""fullscreenenter"",""1"",""1477""
","
","","","1046.2999999523163","","","14","6179","3534","f","elianto","#3366ff99","-1"," ","0","+10","[1896.2999999523163]","1","2","","","6179","67","1","2","win","no-go","1"
"pit-trial","195","1376473","0.0-72.0","battery-v0.2","","""event"",""trial"",""time""
""fullscreenenter"",""1"",""1477""
","
","
","""event"",""trial"",""time""
""fullscreenenter"",""1"",""1477""
","
","","","472.10000002384186","","","14","6179","3534","z","elianto","#3366ff99","-1"," ","0","+10","[1322.6000000238419]","1","2","","","6179","68","5","2","win","no-go","1"
"pit-trial","196","1381332","0.0-73.0","battery-v0.2","","""event"",""trial"",""time""
""fullscreenenter"",""1"",""1477""
","
","
","""event"",""trial"",""time""
""fullscreenenter"",""1"",""1477""
","
","","","-1","","","14","6179","3534","t","elianto","#f73b6a7A"," ","-1","0","-10","[]","0","2","","","6179","69","2","3","lose","go","0"
"pit-trial","197","1384696","0.0-74.0","battery-v0.2","","""event"",""trial"",""time""
""fullscreenenter"",""1"",""1477""
","
","
","""event"",""trial"",""time""
""fullscreenenter"",""1"",""1477""
","
","","","503.2999999523163","","","14","6179","3534","f","elianto","#3366ff99","-1"," ","0","0","[1353.7999999523163]","1","2","","","6179","70","1","2","win","no-go","0"
"pit-trial","198","1387989","0.0-75.0","battery-v0.2","","""event"",""trial"",""time""
""fullscreenenter"",""1"",""1477""
","
","
","""event"",""trial"",""time""
""fullscreenenter"",""1"",""1477""
","
","","","434.1999999284744","","","14","6179","3534","c","elianto","#3366ff99"," "," ","1","+10","[1284.3999999761581]","1","2","","","6179","71","4","1","win","go","0"
"pit-trial","199","1391404","0.0-76.0","battery-v0.2","","""event"",""trial"",""time""
""fullscreenenter"",""1"",""1477""
","
","
","""event"",""trial"",""time""
""fullscreenenter"",""1"",""1477""
","
","","","553.2000000476837","","","14","6179","3534","z","elianto","#3366ff99","-1"," ","0","0","[1404.6000000238419]","1","2","","","6179","72","5","2","win","no-go","0"
"pit-trial","200","1396264","0.0-77.0","battery-v0.2","","""event"",""trial"",""time""
""fullscreenenter"",""1"",""1477""
","
","
","""event"",""trial"",""time""
""fullscreenenter"",""1"",""1477""
","
","","","-1","","","14","6179","3534","b","elianto","#f73b6a7A","-1","-1","1","0","[]","0","2","","","6179","73","3","4","lose","no-go","0"
"pit-trial","201","1399545","0.0-78.0","battery-v0.2","","""event"",""trial"",""time""
""fullscreenenter"",""1"",""1477""
","
","
","""event"",""trial"",""time""
""fullscreenenter"",""1"",""1477""
","
","","","421.90000009536743","","","14","6179","3534","c","elianto","#3366ff99"," "," ","1","+10","[1272]","1","2","","","6179","74","4","1","win","go","0"
"pit-trial","202","1402876","0.0-79.0","battery-v0.2","","""event"",""trial"",""time""
""fullscreenenter"",""1"",""1477""
","
","
","""event"",""trial"",""time""
""fullscreenenter"",""1"",""1477""
","
","","","471.10000002384186","","","14","6179","3534","z","elianto","#3366ff99","-1"," ","0","+10","[1321.3000000715256]","1","2","","","6179","75","5","2","win","no-go","1"
"pit-trial","203","1406276","0.0-80.0","battery-v0.2","","""event"",""trial"",""time""
""fullscreenenter"",""1"",""1477""
","
","
","""event"",""trial"",""time""
""fullscreenenter"",""1"",""1477""
","
","","","539.3000000715256","","","14","6179","3534","f","elianto","#3366ff99","-1"," ","0","0","[1389.3999999761581]","1","2","","","6179","76","1","2","win","no-go","0"
"pit-trial","204","1409590","0.0-81.0","battery-v0.2","","""event"",""trial"",""time""
""fullscreenenter"",""1"",""1477""
","
","
","""event"",""trial"",""time""
""fullscreenenter"",""1"",""1477""
","
","","","452.6999999284744","","","14","6179","3534","c","elianto","#3366ff99"," "," ","1","+10","[1303]","1","2","","","6179","77","4","1","win","go","0"
"pit-trial","205","1414450","0.0-82.0","battery-v0.2","","""event"",""trial"",""time""
""fullscreenenter"",""1"",""1477""
","
","
","""event"",""trial"",""time""
""fullscreenenter"",""1"",""1477""
","
","","","-1","","","14","6179","3534","b","elianto","#f73b6a7A","-1","-1","1","0","[]","0","2","","","6179","78","3","4","lose","no-go","0"
"pit-trial","206","1418155","0.0-83.0","battery-v0.2","","""event"",""trial"",""time""
""fullscreenenter"",""1"",""1477""
","
","
","""event"",""trial"",""time""
""fullscreenenter"",""1"",""1477""
","
","","","845.8000000715256","","","14","6179","3534","c","elianto","#3366ff99"," "," ","1","+10","[1696.1000000238419]","1","2","","","6179","79","4","1","win","go","0"
"pit-trial","207","1421578","0.0-84.0","battery-v0.2","","""event"",""trial"",""time""
""fullscreenenter"",""1"",""1477""
","
","
","""event"",""trial"",""time""
""fullscreenenter"",""1"",""1477""
","
","","","561.7999999523163","","","14","6179","3534","z","elianto","#3366ff99","-1"," ","0","0","[1414.6000000238419]","1","2","","","6179","80","5","2","win","no-go","0"
"pit-trial","208","1424898","0.0-85.0","battery-v0.2","","""event"",""trial"",""time""
""fullscreenenter"",""1"",""1477""
","
","
","""event"",""trial"",""time""
""fullscreenenter"",""1"",""1477""
","
","","","460.3000000715256","","","14","6179","3534","c","elianto","#3366ff99"," "," ","1","+10","[1310.6000000238419]","1","2","","","6179","81","4","1","win","go","0"
"pit-trial","209","1429757","0.0-86.0","battery-v0.2","","""event"",""trial"",""time""
""fullscreenenter"",""1"",""1477""
","
","
","""event"",""trial"",""time""
""fullscreenenter"",""1"",""1477""
","
","","","-1","","","14","6179","3534","y","elianto","#f73b6a7A","-1","-1","1","-10","[]","0","2","","","6179","82","7","4","lose","no-go","1"
"pit-trial","210","1433096","0.0-87.0","battery-v0.2","","""event"",""trial"",""time""
""fullscreenenter"",""1"",""1477""
","
","
","""event"",""trial"",""time""
""fullscreenenter"",""1"",""1477""
","
","","","481.60000002384186","","","14","6179","3534","z","elianto","#3366ff99","-1"," ","0","0","[1331.7999999523163]","1","2","","","6179","83","5","2","win","no-go","0"
"pit-trial","211","1437954","0.0-88.0","battery-v0.2","","""event"",""trial"",""time""
""fullscreenenter"",""1"",""1477""
","
","
","""event"",""trial"",""time""
""fullscreenenter"",""1"",""1477""
","
","","","-1","","","14","6179","3534","b","elianto","#f73b6a7A","-1","-1","1","0","[]","0","2","","","6179","84","3","4","lose","no-go","0"
"pit-trial","212","1441338","0.0-89.0","battery-v0.2","","""event"",""trial"",""time""
""fullscreenenter"",""1"",""1477""
","
","
","""event"",""trial"",""time""
""fullscreenenter"",""1"",""1477""
","
","","","522.5","","","14","6179","3534","z","elianto","#3366ff99","-1"," ","0","0","[1376.3000000715256]","1","2","","","6179","85","5","2","win","no-go","0"
"pit-trial","213","1444712","0.0-90.0","battery-v0.2","","""event"",""trial"",""time""
""fullscreenenter"",""1"",""1477""
","
","
","""event"",""trial"",""time""
""fullscreenenter"",""1"",""1477""
","
","","","515.9000000953674","","","14","6179","3534","c","elianto","#3366ff99"," "," ","1","+10","[1366]","1","2","","","6179","86","4","1","win","go","0"
"pit-trial","214","1449570","0.0-91.0","battery-v0.2","","""event"",""trial"",""time""
""fullscreenenter"",""1"",""1477""
","
","
","""event"",""trial"",""time""
""fullscreenenter"",""1"",""1477""
","
","","","-1","","","14","6179","3534","y","elianto","#f73b6a7A","-1","-1","1","0","[]","0","2","","","6179","87","7","4","lose","no-go","0"
"pit-trial","215","1454429","0.0-92.0","battery-v0.2","","""event"",""trial"",""time""
""fullscreenenter"",""1"",""1477""
","
","
","""event"",""trial"",""time""
""fullscreenenter"",""1"",""1477""
","
","","","-1","","","14","6179","3534","h","elianto","#f73b6a7A"," ","-1","0","0","[]","0","2","","","6179","88","6","3","lose","go","1"
"pit-trial","216","1459287","0.0-93.0","battery-v0.2","","""event"",""trial"",""time""
""fullscreenenter"",""1"",""1477""
","
","
","""event"",""trial"",""time""
""fullscreenenter"",""1"",""1477""
","
","","","-1","","","14","6179","3534","y","elianto","#f73b6a7A","-1","-1","1","-10","[]","0","2","","","6179","89","7","4","lose","no-go","1"
"pit-trial","217","1464145","0.0-94.0","battery-v0.2","","""event"",""trial"",""time""
""fullscreenenter"",""1"",""1477""
","
","
","""event"",""trial"",""time""
""fullscreenenter"",""1"",""1477""
","
","","","-1","","","14","6179","3534","h","elianto","#f73b6a7A"," ","-1","0","-10","[]","0","2","","","6179","90","6","3","lose","go","0"
"pit-trial","218","1468560","0.0-95.0","battery-v0.2","","""event"",""trial"",""time""
""fullscreenenter"",""1"",""1477""
","
","
","""event"",""trial"",""time""
""fullscreenenter"",""1"",""1477""
","
","","","1551.6000000238419","","","14","6179","3534","z","elianto","#3366ff99","-1"," ","0","0","[2404.7999999523163]","1","2","","","6179","91","5","2","win","no-go","0"
"pit-trial","219","1471848","0.0-96.0","battery-v0.2","","""event"",""trial"",""time""
""fullscreenenter"",""1"",""1477""
","
","
","""event"",""trial"",""time""
""fullscreenenter"",""1"",""1477""
","
","","","427.39999997615814","","","14","6179","3534","c","elianto","#3366ff99"," "," ","1","0","[1277.5]","1","2","","","6179","92","4","1","win","go","1"
"pit-trial","220","1475212","0.0-97.0","battery-v0.2","","""event"",""trial"",""time""
""fullscreenenter"",""1"",""1477""
","
","
","""event"",""trial"",""time""
""fullscreenenter"",""1"",""1477""
","
","","","505.2000000476837","","","14","6179","3534","z","elianto","#3366ff99","-1"," ","0","0","[1355.5]","1","2","","","6179","93","5","2","win","no-go","0"
"pit-trial","221","1478481","0.0-98.0","battery-v0.2","","""event"",""trial"",""time""
""fullscreenenter"",""1"",""1477""
","
","
","""event"",""trial"",""time""
""fullscreenenter"",""1"",""1477""
","
","","","410.7000000476837","","","14","6179","3534","r","elianto","#3366ff99"," "," ","1","+10","[1260.7999999523163]","1","2","","","6179","94","8","1","win","go","0"
"pit-trial","222","1483340","0.0-99.0","battery-v0.2","","""event"",""trial"",""time""
""fullscreenenter"",""1"",""1477""
","
","
","""event"",""trial"",""time""
""fullscreenenter"",""1"",""1477""
","
","","","-1","","","14","6179","3534","h","elianto","#f73b6a7A"," ","-1","0","-10","[]","0","2","","","6179","95","6","3","lose","go","0"
"pit-trial","223","1488201","0.0-100.0","battery-v0.2","","""event"",""trial"",""time""
""fullscreenenter"",""1"",""1477""
","
","
","""event"",""trial"",""time""
""fullscreenenter"",""1"",""1477""
","
","","","-1","","","14","6179","3534","y","elianto","#f73b6a7A","-1","-1","1","0","[]","0","2","","","6179","96","7","4","lose","no-go","0"
"pit-trial","224","1491626","0.0-101.0","battery-v0.2","","""event"",""trial"",""time""
""fullscreenenter"",""1"",""1477""
","
","
","""event"",""trial"",""time""
""fullscreenenter"",""1"",""1477""
","
","","","564.7999999523163","","","14","6179","3534","z","elianto","#3366ff99","-1"," ","0","0","[1415]","1","2","","","6179","97","5","2","win","no-go","0"
"pit-trial","225","1496485","0.0-102.0","battery-v0.2","","""event"",""trial"",""time""
""fullscreenenter"",""1"",""1477""
","
","
","""event"",""trial"",""time""
""fullscreenenter"",""1"",""1477""
","
","","","-1","","","14","6179","3534","y","elianto","#f73b6a7A","-1","-1","1","0","[]","0","2","","","6179","98","7","4","lose","no-go","0"
"pit-trial","226","1501345","0.0-103.0","battery-v0.2","","""event"",""trial"",""time""
""fullscreenenter"",""1"",""1477""
","
","
","""event"",""trial"",""time""
""fullscreenenter"",""1"",""1477""
","
","","","-1","","","14","6179","3534","h","elianto","#f73b6a7A"," ","-1","0","-10","[]","0","2","","","6179","99","6","3","lose","go","0"
"pit-trial","227","1504646","0.0-104.0","battery-v0.2","","""event"",""trial"",""time""
""fullscreenenter"",""1"",""1477""
","
","
","""event"",""trial"",""time""
""fullscreenenter"",""1"",""1477""
","
","","","442.90000009536743","","","14","6179","3534","r","elianto","#3366ff99"," "," ","1","+10","[1293]","1","2","","","6179","100","8","1","win","go","0"
"pit-trial","228","1507985","0.0-105.0","battery-v0.2","","""event"",""trial"",""time""
""fullscreenenter"",""1"",""1477""
","
","
","""event"",""trial"",""time""
""fullscreenenter"",""1"",""1477""
","
","","","480.09999990463257","","","14","6179","3534","m","elianto","#3366ff99"," "," ","1","0","[1330.5]","1","2","","","6179","101","9","1","win","go","1"
"pit-trial","229","1512845","0.0-106.0","battery-v0.2","","""event"",""trial"",""time""
""fullscreenenter"",""1"",""1477""
","
","
","""event"",""trial"",""time""
""fullscreenenter"",""1"",""1477""
","
","","","-1","","","14","6179","3534","y","elianto","#f73b6a7A","-1","-1","1","-10","[]","0","2","","","6179","102","7","4","lose","no-go","1"
"pit-trial","230","1516192","0.0-107.0","battery-v0.2","","""event"",""trial"",""time""
""fullscreenenter"",""1"",""1477""
","
","
","""event"",""trial"",""time""
""fullscreenenter"",""1"",""1477""
","
","","","477.89999997615814","","","14","6179","3534","z","elianto","#3366ff99","-1"," ","0","0","[1334.3000000715256]","1","2","","","6179","103","5","2","win","no-go","0"
"pit-trial","231","1519504","0.0-108.0","battery-v0.2","","""event"",""trial"",""time""
""fullscreenenter"",""1"",""1477""
","
","
","""event"",""trial"",""time""
""fullscreenenter"",""1"",""1477""
","
","","","447.6999999284744","","","14","6179","3534","r","elianto","#3366ff99"," "," ","1","+10","[1302.1999999284744]","1","2","","","6179","104","8","1","win","go","0"
"pit-trial","232","1524363","0.0-109.0","battery-v0.2","","""event"",""trial"",""time""
""fullscreenenter"",""1"",""1477""
","
","
","""event"",""trial"",""time""
""fullscreenenter"",""1"",""1477""
","
","","","-1","","","14","6179","3534","h","elianto","#f73b6a7A"," ","-1","0","-10","[]","0","2","","","6179","105","6","3","lose","go","0"
"pit-trial","233","1527649","0.0-110.0","battery-v0.2","","""event"",""trial"",""time""
""fullscreenenter"",""1"",""1477""
","
","
","""event"",""trial"",""time""
""fullscreenenter"",""1"",""1477""
","
","","","425.10000002384186","","","14","6179","3534","m","elianto","#3366ff99"," "," ","1","+10","[1275.2999999523163]","1","2","","","6179","106","9","1","win","go","0"
"pit-trial","234","1530966","0.0-111.0","battery-v0.2","","""event"",""trial"",""time""
""fullscreenenter"",""1"",""1477""
","
","
","""event"",""trial"",""time""
""fullscreenenter"",""1"",""1477""
","
","","","455.5","","","14","6179","3534","c","elianto","#3366ff99"," "," ","1","+10","[1308.1000000238419]","1","2","","","6179","107","4","1","win","go","0"
"pit-trial","235","1534267","0.0-112.0","battery-v0.2","","""event"",""trial"",""time""
""fullscreenenter"",""1"",""1477""
","
","
","""event"",""trial"",""time""
""fullscreenenter"",""1"",""1477""
","
","","","442.7999999523163","","","14","6179","3534","r","elianto","#3366ff99"," "," ","1","0","[1293]","1","2","","","6179","108","8","1","win","go","1"
"pit-trial","236","1537558","0.0-113.0","battery-v0.2","","""event"",""trial"",""time""
""fullscreenenter"",""1"",""1477""
","
","
","""event"",""trial"",""time""
""fullscreenenter"",""1"",""1477""
","
","","","435.59999990463257","","","14","6179","3534","z","elianto","#3366ff99","-1"," ","0","0","[1285.7000000476837]","1","2","","","6179","109","5","2","win","no-go","0"
"pit-trial","237","1540890","0.0-114.0","battery-v0.2","","""event"",""trial"",""time""
""fullscreenenter"",""1"",""1477""
","
","
","""event"",""trial"",""time""
""fullscreenenter"",""1"",""1477""
","
","","","474","","","14","6179","3534","m","elianto","#3366ff99"," "," ","1","+10","[1324.2000000476837]","1","2","","","6179","110","9","1","win","go","0"
"pit-trial","238","1544264","0.0-115.0","battery-v0.2","","""event"",""trial"",""time""
""fullscreenenter"",""1"",""1477""
","
","
","""event"",""trial"",""time""
""fullscreenenter"",""1"",""1477""
","
","","","514.8999999761581","","","14","6179","3534","r","elianto","#3366ff99"," "," ","1","+10","[1366.5]","1","2","","","6179","111","8","1","win","go","0"
"pit-trial","239","1547630","0.0-116.0","battery-v0.2","","""event"",""trial"",""time""
""fullscreenenter"",""1"",""1477""
","
","
","""event"",""trial"",""time""
""fullscreenenter"",""1"",""1477""
","
","","","507.60000002384186","","","14","6179","3534","h","elianto","#f73b6a7A"," "," ","1","0","[1357.5999999046326]","1","2","","","6179","112","6","3","lose","go","0"
"pit-trial","240","1552489","0.0-117.0","battery-v0.2","","""event"",""trial"",""time""
""fullscreenenter"",""1"",""1477""
","
","
","""event"",""trial"",""time""
""fullscreenenter"",""1"",""1477""
","
","","","-1","","","14","6179","3534","h","elianto","#f73b6a7A"," ","-1","0","0","[]","0","2","","","6179","113","6","3","lose","go","1"
"pit-trial","241","1556043","0.0-118.0","battery-v0.2","","""event"",""trial"",""time""
""fullscreenenter"",""1"",""1477""
","
","
","""event"",""trial"",""time""
""fullscreenenter"",""1"",""1477""
","
","","","691.7999999523163","","","14","6179","3534","z","elianto","#3366ff99","-1"," ","0","0","[1546]","1","2","","","6179","114","5","2","win","no-go","0"
"pit-trial","242","1559464","0.0-119.0","battery-v0.2","","""event"",""trial"",""time""
""fullscreenenter"",""1"",""1477""
","
","
","""event"",""trial"",""time""
""fullscreenenter"",""1"",""1477""
","
","","","562.1000000238419","","","14","6179","3534","r","elianto","#3366ff99"," "," ","1","+10","[1412.2999999523163]","1","2","","","6179","115","8","1","win","go","0"
"pit-trial","243","1562824","0.0-120.0","battery-v0.2","","""event"",""trial"",""time""
""fullscreenenter"",""1"",""1477""
","
","
","""event"",""trial"",""time""
""fullscreenenter"",""1"",""1477""
","
","","","501.09999990463257","","","14","6179","3534","m","elianto","#3366ff99"," "," ","1","0","[1351.1999999284744]","1","2","","","6179","116","9","1","win","go","1"
"pit-trial","244","1567683","0.0-121.0","battery-v0.2","","""event"",""trial"",""time""
""fullscreenenter"",""1"",""1477""
","
","
","""event"",""trial"",""time""
""fullscreenenter"",""1"",""1477""
","
","","","-1","","","14","6179","3534","h","elianto","#f73b6a7A"," ","-1","0","-10","[]","0","2","","","6179","117","6","3","lose","go","0"
"pit-trial","245","1571046","0.0-122.0","battery-v0.2","","""event"",""trial"",""time""
""fullscreenenter"",""1"",""1477""
","
","
","""event"",""trial"",""time""
""fullscreenenter"",""1"",""1477""
","
","","","504.3000000715256","","","14","6179","3534","r","elianto","#3366ff99"," "," ","1","0","[1355.2000000476837]","1","2","","","6179","118","8","1","win","go","1"
"pit-trial","246","1574397","0.0-123.0","battery-v0.2","","""event"",""trial"",""time""
""fullscreenenter"",""1"",""1477""
","
","
","""event"",""trial"",""time""
""fullscreenenter"",""1"",""1477""
","
","","","492.90000009536743","","","14","6179","3534","z","elianto","#3366ff99","-1"," ","0","0","[1342.8999999761581]","1","2","","","6179","119","5","2","win","no-go","0"
"pit-trial","247","1577740","0.0-124.0","battery-v0.2","","""event"",""trial"",""time""
""fullscreenenter"",""1"",""1477""
","
","
","""event"",""trial"",""time""
""fullscreenenter"",""1"",""1477""
","
","","","482.39999997615814","","","14","6179","3534","m","elianto","#3366ff99"," "," ","1","0","[1332.6999999284744]","1","2","","","6179","120","9","1","win","go","1"
"pit-trial","248","1582599","0.0-125.0","battery-v0.2","","""event"",""trial"",""time""
""fullscreenenter"",""1"",""1477""
","
","
","""event"",""trial"",""time""
""fullscreenenter"",""1"",""1477""
","
","","","-1","","","14","6179","3534","h","elianto","#f73b6a7A"," ","-1","0","-10","[]","0","2","","","6179","121","6","3","lose","go","0"
"pit-trial","249","1585872","0.0-126.0","battery-v0.2","","""event"",""trial"",""time""
""fullscreenenter"",""1"",""1477""
","
","
","""event"",""trial"",""time""
""fullscreenenter"",""1"",""1477""
","
","","","414.89999997615814","","","14","6179","3534","r","elianto","#3366ff99"," "," ","1","+10","[1264.8999999761581]","1","2","","","6179","122","8","1","win","go","0"
"pit-trial","250","1589190","0.0-127.0","battery-v0.2","","""event"",""trial"",""time""
""fullscreenenter"",""1"",""1477""
","
","
","""event"",""trial"",""time""
""fullscreenenter"",""1"",""1477""
","
","","","461.90000009536743","","","14","6179","3534","m","elianto","#3366ff99"," "," ","1","+10","[1311.8000000715256]","1","2","","","6179","123","9","1","win","go","0"
"pit-trial","251","1594050","0.0-128.0","battery-v0.2","","""event"",""trial"",""time""
""fullscreenenter"",""1"",""1477""
","
","
","""event"",""trial"",""time""
""fullscreenenter"",""1"",""1477""
","
","","","-1","","","14","6179","3534","y","elianto","#f73b6a7A","-1","-1","1","-10","[]","0","2","","","6179","124","7","4","lose","no-go","1"
"pit-trial","252","1597856","0.0-129.0","battery-v0.2","","""event"",""trial"",""time""
""fullscreenenter"",""1"",""1477""
","
","
","""event"",""trial"",""time""
""fullscreenenter"",""1"",""1477""
","
","","","941.8000000715256","","","14","6179","3534","m","elianto","#3366ff99"," "," ","1","0","[1795.5]","1","2","","","6179","125","9","1","win","go","1"
"pit-trial","253","1602716","0.0-130.0","battery-v0.2","","""event"",""trial"",""time""
""fullscreenenter"",""1"",""1477""
","
","
","""event"",""trial"",""time""
""fullscreenenter"",""1"",""1477""
","
","","","-1","","","14","6179","3534","y","elianto","#f73b6a7A","-1","-1","1","0","[]","0","2","","","6179","126","7","4","lose","no-go","0"
"pit-trial","254","1606202","0.0-131.0","battery-v0.2","","""event"",""trial"",""time""
""fullscreenenter"",""1"",""1477""
","
","
","""event"",""trial"",""time""
""fullscreenenter"",""1"",""1477""
","
","","","627.2000000476837","","","14","6179","3534","r","elianto","#3366ff99"," "," ","1","+10","[1477.2000000476837]","1","2","","","6179","127","8","1","win","go","0"
"pit-trial","255","1611062","0.0-132.0","battery-v0.2","","""event"",""trial"",""time""
""fullscreenenter"",""1"",""1477""
","
","
","""event"",""trial"",""time""
""fullscreenenter"",""1"",""1477""
","
","","","-1","","","14","6179","3534","h","elianto","#f73b6a7A"," ","-1","0","-10","[]","0","2","","","6179","128","6","3","lose","go","0"
"pit-trial","256","1614471","0.0-133.0","battery-v0.2","","""event"",""trial"",""time""
""fullscreenenter"",""1"",""1477""
","
","
","""event"",""trial"",""time""
""fullscreenenter"",""1"",""1477""
","
","","","547.6000000238419","","","14","6179","3534","m","elianto","#3366ff99"," "," ","1","+10","[1398.2999999523163]","1","2","","","6179","129","9","1","win","go","0"
"pit-trial","257","1619330","0.0-134.0","battery-v0.2","","""event"",""trial"",""time""
""fullscreenenter"",""1"",""1477""
","
","
","""event"",""trial"",""time""
""fullscreenenter"",""1"",""1477""
","
","","","-1","","","14","6179","3534","y","elianto","#f73b6a7A","-1","-1","1","0","[]","0","2","","","6179","130","7","4","lose","no-go","0"
"pit-trial","258","1624191","0.0-135.0","battery-v0.2","","""event"",""trial"",""time""
""fullscreenenter"",""1"",""1477""
","
","
","""event"",""trial"",""time""
""fullscreenenter"",""1"",""1477""
","
","","","-1","","","14","6179","3534","h","elianto","#f73b6a7A"," ","-1","0","0","[]","0","2","","","6179","131","6","3","lose","go","1"
"pit-trial","259","1629051","0.0-136.0","battery-v0.2","","""event"",""trial"",""time""
""fullscreenenter"",""1"",""1477""
","
","
","""event"",""trial"",""time""
""fullscreenenter"",""1"",""1477""
","
","","","-1","","","14","6179","3534","r","elianto","#3366ff99"," ","-1","0","0","[3302.7999999523163]","1","2","","","6179","132","8","1","win","go","0"
"pit-trial","260","1633911","0.0-137.0","battery-v0.2","","""event"",""trial"",""time""
""fullscreenenter"",""1"",""1477""
","
","
","""event"",""trial"",""time""
""fullscreenenter"",""1"",""1477""
","
","","","-1","","","14","6179","3534","h","elianto","#f73b6a7A"," ","-1","0","-10","[]","0","2","","","6179","133","6","3","lose","go","0"
"pit-trial","261","1637260","0.0-138.0","battery-v0.2","","""event"",""trial"",""time""
""fullscreenenter"",""1"",""1477""
","
","
","""event"",""trial"",""time""
""fullscreenenter"",""1"",""1477""
","
","","","490.7000000476837","","","14","6179","3534","m","elianto","#3366ff99"," "," ","1","+10","[1340.6999999284744]","1","2","","","6179","134","9","1","win","go","0"
"pit-trial","262","1641134","0.0-139.0","battery-v0.2","","""event"",""trial"",""time""
""fullscreenenter"",""1"",""1477""
","
","
","""event"",""trial"",""time""
""fullscreenenter"",""1"",""1477""
","
","","","1014.9000000953674","","","14","6179","3534","r","elianto","#3366ff99"," "," ","1","+10","[1868.8000000715256]","1","2","","","6179","135","8","1","win","go","0"
"pit-trial","263","1645992","0.0-140.0","battery-v0.2","","""event"",""trial"",""time""
""fullscreenenter"",""1"",""1477""
","
","
","""event"",""trial"",""time""
""fullscreenenter"",""1"",""1477""
","
","","","-1","","","14","6179","3534","y","elianto","#f73b6a7A","-1","-1","1","0","[]","0","2","","","6179","136","7","4","lose","no-go","0"
"pit-trial","264","1649293","0.0-141.0","battery-v0.2","","""event"",""trial"",""time""
""fullscreenenter"",""1"",""1477""
","
","
","""event"",""trial"",""time""
""fullscreenenter"",""1"",""1477""
","
","","","442.5","","","14","6179","3534","r","elianto","#3366ff99"," "," ","1","+10","[1293]","1","2","","","6179","137","8","1","win","go","0"
"pit-trial","265","1652767","0.0-142.0","battery-v0.2","","""event"",""trial"",""time""
""fullscreenenter"",""1"",""1477""
","
","
","""event"",""trial"",""time""
""fullscreenenter"",""1"",""1477""
","
","","","612.6999999284744","","","14","6179","3534","m","elianto","#3366ff99"," "," ","1","+10","[1464.1999999284744]","1","2","","","6179","138","9","1","win","go","0"
"pit-trial","266","1657626","0.0-143.0","battery-v0.2","","""event"",""trial"",""time""
""fullscreenenter"",""1"",""1477""
","
","
","""event"",""trial"",""time""
""fullscreenenter"",""1"",""1477""
","
","","","-1","","","14","6179","3534","h","elianto","#f73b6a7A"," ","-1","0","-10","[]","0","2","","","6179","139","6","3","lose","go","0"
"pit-trial","267","1662484","0.0-144.0","battery-v0.2","","""event"",""trial"",""time""
""fullscreenenter"",""1"",""1477""
","
","
","""event"",""trial"",""time""
""fullscreenenter"",""1"",""1477""
","
","","","-1","","","14","6179","3534","y","elianto","#f73b6a7A","-1","-1","1","0","[]","0","2","","","6179","140","7","4","lose","no-go","0"
"pit-instructions","268","1677820","0.0-145.0","battery-v0.2","","""event"",""trial"",""time""
""fullscreenenter"",""1"",""1477""
","
","
","""event"",""trial"",""time""
""fullscreenenter"",""1"",""1477""
","
