"trial_type","trial_index","time_elapsed","internal_node_id","task_version","subject_id","interactions","blur_events","focus_events","fullscreenenter_events","fullscreenexit_events","success","view_history","rt","responses","num_errors","age","subject","participantId","rune","rune_set","hex","correct","choice","accuracy","outcome","keys","total_keys","block","practice","value","sub","trial","stimulus","robot","valence","action","sham"
"pavlovia","0","9","0.0-0.0","battery-v0.2","","""event"",""trial"",""time""
""fullscreenenter"",""1"",""2936""
","
","
","""event"",""trial"",""time""
""fullscreenenter"",""1"",""2936""
","
","","","","","","","","","","","","","","","","","","","","","","","","","","",""
"fullscreen","1","3893","0.0-1.0","battery-v0.2","","""event"",""trial"",""time""
""fullscreenenter"",""1"",""2936""
","
","
","""event"",""trial"",""time""
""fullscreenenter"",""1"",""2936""
","
","true","","","","","","","","","","","","","","","","","","","","","","","","","",""
"pit-instructions","2","26409","0.0-2.0-0.0","battery-v0.2","","""event"",""trial"",""time""
""fullscreenenter"",""1"",""2936""
","
","
","""event"",""trial"",""time""
""fullscreenenter"",""1"",""2936""
","
","","[{""page_index"":0,""viewing_time"":22510.000000000004}]","22511","","","","","","","","","","","","","","","","","","","","","","","",""
"pit-comprehension","3","30663","0.0-2.0-1.0-0.0","battery-v0.2","","""event"",""trial"",""time""
""fullscreenenter"",""1"",""2936""
","
","
","""event"",""trial"",""time""
""fullscreenenter"",""1"",""2936""
","
","","","4211","[""shark""]","0","10","4638","2016","","","","","","","","","","","","","","","","","","",""
"pit-instructions","4","41677","0.0-2.0-1.0-1.0","battery-v0.2","","""event"",""trial"",""time""
""fullscreenenter"",""1"",""2936""
","
","
","""event"",""trial"",""time""
""fullscreenenter"",""1"",""2936""
","
","","[{""page_index"":0,""viewing_time"":11007.000000000007}]","11008","","","","","","","","","","","","","","","","","","","","","","","",""
"pit-comprehension","5","44945","0.0-2.0-2.0-0.0","battery-v0.2","","""event"",""trial"",""time""
""fullscreenenter"",""1"",""2936""
","
","
","""event"",""trial"",""time""
""fullscreenenter"",""1"",""2936""
","
","","","3261.9999999999927","[""tiger""]","0","10","4638","2016","","","","","","","","","","","","","","","","","","",""
"pit-instructions","6","46093","0.0-2.0-2.0-1.0","battery-v0.2","","""event"",""trial"",""time""
""fullscreenenter"",""1"",""2936""
","
","
","""event"",""trial"",""time""
""fullscreenenter"",""1"",""2936""
","
","","[{""page_index"":0,""viewing_time"":1143}]","1144","","","","","","","","","","","","","","","","","","","","","","","",""
"pit-instructions","7","163442","0.0-2.0-3.0","battery-v0.2","","""event"",""trial"",""time""
""fullscreenenter"",""1"",""2936""
","
","
","""event"",""trial"",""time""
""fullscreenenter"",""1"",""2936""
","
","","[{""page_index"":0,""viewing_time"":16847.999999999993},{""page_index"":1,""viewing_time"":6449.000000000022},{""page_index"":2,""viewing_time"":7797.999999999985},{""page_index"":3,""viewing_time"":9600},{""page_index"":4,""viewing_time"":6983.000000000015},{""page_index"":5,""viewing_time"":6617.999999999985},{""page_index"":6,""viewing_time"":7416},{""page_index"":7,""viewing_time"":7134},{""page_index"":8,""viewing_time"":7901},{""page_index"":9,""viewing_time"":9618},{""page_index"":10,""viewing_time"":8267},{""page_index"":11,""viewing_time"":9516},{""page_index"":12,""viewing_time"":8033},{""page_index"":13,""viewing_time"":5168}]","117350","","","","","","","","","","","","","","","","","","","","","","","",""
"pit-trial","8","166450","0.0-2.0-4.0-0.0","battery-v0.2","","""event"",""trial"",""time""
""fullscreenenter"",""1"",""2936""
","
","
","""event"",""trial"",""time""
""fullscreenenter"",""1"",""2936""
","
","","","151","","","10","4638","2016","&#9784;","elianto","#FFFFF080"," "," ","1","&#10004","[1001,2071]","2","0","0","","","","","","","",""
"pit-trial","9","169904","0.0-2.0-4.1-0.1","battery-v0.2","","""event"",""trial"",""time""
""fullscreenenter"",""1"",""2936""
","
","
","""event"",""trial"",""time""
""fullscreenenter"",""1"",""2936""
","
","","","597","","","10","4638","2016","&#9784;","elianto","#FFFFF080"," "," ","1","&#10004","[1447]","1","0","0","","","","","","","",""
"pit-trial","10","173117","0.0-2.0-4.2-0.2","battery-v0.2","","""event"",""trial"",""time""
""fullscreenenter"",""1"",""2936""
","
","
","""event"",""trial"",""time""
""fullscreenenter"",""1"",""2936""
","
","","","354","","","10","4638","2016","&#9784;","elianto","#FFFFF080"," "," ","1","&#10004","[1205]","1","0","0","","","","","","","",""
"pit-trial","11","176009","0.0-2.0-4.3-0.3","battery-v0.2","","""event"",""trial"",""time""
""fullscreenenter"",""1"",""2936""
","
","
","""event"",""trial"",""time""
""fullscreenenter"",""1"",""2936""
","
","","","34.000000000029104","","","10","4638","2016","&#9784;","elianto","#FFFFF080"," "," ","1","&#10004","[886.0000000000291]","1","0","0","","","","","","","",""
"pit-trial","12","179069","0.0-2.0-4.4-0.4","battery-v0.2","","""event"",""trial"",""time""
""fullscreenenter"",""1"",""2936""
","
","
","""event"",""trial"",""time""
""fullscreenenter"",""1"",""2936""
","
","","","200.9999999999709","","","10","4638","2016","&#9784;","elianto","#FFFFF080"," "," ","1","&#10004","[1051.999999999971]","1","0","0","","","","","","","",""
"pit-instructions","13","200275","0.0-2.0-5.0","battery-v0.2","","""event"",""trial"",""time""
""fullscreenenter"",""1"",""2936""
","
","
","""event"",""trial"",""time""
""fullscreenenter"",""1"",""2936""
","
","","[{""page_index"":0,""viewing_time"":4181},{""page_index"":1,""viewing_time"":6100.000000000029},{""page_index"":2,""viewing_time"":5733.999999999971},{""page_index"":3,""viewing_time"":5184}]","21199","","","","","","","","","","","","","","","","","","","","","","","",""
"pit-trial","14","205133","0.0-2.0-6.0-0.0","battery-v0.2","","""event"",""trial"",""time""
""fullscreenenter"",""1"",""2936""
","
","
","""event"",""trial"",""time""
""fullscreenenter"",""1"",""2936""
","
","","","-1","","","10","4638","2016","&#9854;","elianto","#FFFFF080","-1","-1","1","&#10004","[]","0","0","1","","","","","","","",""
"pit-trial","15","209991","0.0-2.0-6.1-0.1","battery-v0.2","","""event"",""trial"",""time""
""fullscreenenter"",""1"",""2936""
","
","
","""event"",""trial"",""time""
""fullscreenenter"",""1"",""2936""
","
","","","-1","","","10","4638","2016","&#9854;","elianto","#FFFFF080","-1","-1","1","&#10004","[]","0","0","1","","","","","","","",""
"pit-trial","16","214848","0.0-2.0-6.2-0.2","battery-v0.2","","""event"",""trial"",""time""
""fullscreenenter"",""1"",""2936""
","
","
","""event"",""trial"",""time""
""fullscreenenter"",""1"",""2936""
","
","","","-1","","","10","4638","2016","&#9854;","elianto","#FFFFF080","-1","-1","1","&#10004","[]","0","0","1","","","","","","","",""
"pit-trial","17","219706","0.0-2.0-6.3-0.3","battery-v0.2","","""event"",""trial"",""time""
""fullscreenenter"",""1"",""2936""
","
","
","""event"",""trial"",""time""
""fullscreenenter"",""1"",""2936""
","
","","","-1","","","10","4638","2016","&#9854;","elianto","#FFFFF080","-1","-1","1","&#10004","[]","0","0","1","","","","","","","",""
"pit-trial","18","224565","0.0-2.0-6.4-0.4","battery-v0.2","","""event"",""trial"",""time""
""fullscreenenter"",""1"",""2936""
","
","
","""event"",""trial"",""time""
""fullscreenenter"",""1"",""2936""
","
","","","-1","","","10","4638","2016","&#9854;","elianto","#FFFFF080","-1","-1","1","&#10004","[]","0","0","1","","","","","","","",""
"pit-instructions","19","357526","0.0-2.0-7.0","battery-v0.2","","""event"",""trial"",""time""
""fullscreenenter"",""1"",""2936""
","
","
","""event"",""trial"",""time""
""fullscreenenter"",""1"",""2936""
","
","","[{""page_index"":0,""viewing_time"":7703},{""page_index"":1,""viewing_time"":7434},{""page_index"":2,""viewing_time"":6421.000000000029},{""page_index"":3,""viewing_time"":7697},{""page_index"":4,""viewing_time"":8482.99999999997},{""page_index"":5,""viewing_time"":5617},{""page_index"":6,""viewing_time"":5703},{""page_index"":7,""viewing_time"":8298},{""page_index"":8,""viewing_time"":7685},{""page_index"":9,""viewing_time"":7065},{""page_index"":10,""viewing_time"":6918},{""page_index"":11,""viewing_time"":6917},{""page_index"":12,""viewing_time"":7352},{""page_index"":13,""viewing_time"":8250},{""page_index"":14,""viewing_time"":9167.000000000058},{""page_index"":15,""viewing_time"":7581.999999999942},{""page_index"":16,""viewing_time"":7117},{""page_index"":17,""viewing_time"":7550}]","132960.00000000006","","","","","","","","","","","","","","","","","","","","","","","",""
"pit-trial","20","361063","0.0-2.0-8.0-0.0","battery-v0.2","","""event"",""trial"",""time""
""fullscreenenter"",""1"",""2936""
","
","
","""event"",""trial"",""time""
""fullscreenenter"",""1"",""2936""
","
","","","679","","","10","4638","2016","&#9776;","elianto","#3366ff99"," "," ","1","+10","[1530]","1","0","1","","","","","","","",""
"pit-trial","21","364416","0.0-2.0-8.0-1.0","battery-v0.2","","""event"",""trial"",""time""
""fullscreenenter"",""1"",""2936""
","
","
","""event"",""trial"",""time""
""fullscreenenter"",""1"",""2936""
","
","","","496","","","10","4638","2016","&#9776;","elianto","#3366ff99"," "," ","1","+10","[1346]","1","0","1","","","","","","","",""
"pit-trial","22","367473","0.0-2.0-8.0-2.0","battery-v0.2","","""event"",""trial"",""time""
""fullscreenenter"",""1"",""2936""
","
","
","""event"",""trial"",""time""
""fullscreenenter"",""1"",""2936""
","
","","","199","","","10","4638","2016","&#9776;","elianto","#3366ff99"," "," ","1","+10","[1051]","1","0","1","","","","","","","",""
"pit-trial","23","370784","0.0-2.0-8.0-3.0","battery-v0.2","","""event"",""trial"",""time""
""fullscreenenter"",""1"",""2936""
","
","
","""event"",""trial"",""time""
""fullscreenenter"",""1"",""2936""
","
","","","455","","","10","4638","2016","&#9776;","elianto","#3366ff99"," "," ","1","0","[1305]","1","0","1","","","","","","","",""
"pit-trial","24","373841","0.0-2.0-8.0-4.0","battery-v0.2","","""event"",""trial"",""time""
""fullscreenenter"",""1"",""2936""
","
","
","""event"",""trial"",""time""
""fullscreenenter"",""1"",""2936""
","
","","","198","","","10","4638","2016","&#9776;","elianto","#3366ff99"," "," ","1","+10","[1050]","1","0","1","","","","","","","",""
"pit-trial","25","377123","0.0-2.0-8.1-0.1","battery-v0.2","","""event"",""trial"",""time""
""fullscreenenter"",""1"",""2936""
","
","
","""event"",""trial"",""time""
""fullscreenenter"",""1"",""2936""
","
","","","424","","","10","4638","2016","&#9776;","elianto","#3366ff99"," "," ","1","+10","[1275]","1","0","1","","","","","","","",""
"pit-trial","26","380384","0.0-2.0-8.1-1.1","battery-v0.2","","""event"",""trial"",""time""
""fullscreenenter"",""1"",""2936""
","
","
","""event"",""trial"",""time""
""fullscreenenter"",""1"",""2936""
","
","","","403.9999999999418","","","10","4638","2016","&#9776;","elianto","#3366ff99"," "," ","1","+10","[1254]","1","0","1","","","","","","","",""
"pit-trial","27","383860","0.0-2.0-8.1-2.1","battery-v0.2","","""event"",""trial"",""time""
""fullscreenenter"",""1"",""2936""
","
","
","""event"",""trial"",""time""
""fullscreenenter"",""1"",""2936""
","
","","","618","","","10","4638","2016","&#9776;","elianto","#3366ff99"," "," ","1","+10","[1471]","1","0","1","","","","","","","",""
"pit-trial","28","387746","0.0-2.0-8.1-3.1","battery-v0.2","","""event"",""trial"",""time""
""fullscreenenter"",""1"",""2936""
","
","
","""event"",""trial"",""time""
""fullscreenenter"",""1"",""2936""
","
","","","1028.9999999999418","","","10","4638","2016","&#9776;","elianto","#3366ff99"," "," ","1","0","[1879.9999999999418]","1","0","1","","","","","","","",""
"pit-trial","29","391341","0.0-2.0-8.1-4.1","battery-v0.2","","""event"",""trial"",""time""
""fullscreenenter"",""1"",""2936""
","
","
","""event"",""trial"",""time""
""fullscreenenter"",""1"",""2936""
","
","","","738","","","10","4638","2016","&#9776;","elianto","#3366ff99"," "," ","1","+10","[1589]","1","0","1","","","","","","","",""
"pit-trial","30","394939","0.0-2.0-8.2-0.2","battery-v0.2","","""event"",""trial"",""time""
""fullscreenenter"",""1"",""2936""
","
","
","""event"",""trial"",""time""
""fullscreenenter"",""1"",""2936""
","
","","","741","","","10","4638","2016","&#9776;","elianto","#3366ff99"," "," ","1","+10","[1591]","1","0","1","","","","","","","",""
"pit-trial","31","398412","0.0-2.0-8.2-1.2","battery-v0.2","","""event"",""trial"",""time""
""fullscreenenter"",""1"",""2936""
","
","
","""event"",""trial"",""time""
""fullscreenenter"",""1"",""2936""
","
","","","616","","","10","4638","2016","&#9776;","elianto","#3366ff99"," "," ","1","+10","[1467]","1","0","1","","","","","","","",""
"pit-trial","32","401842","0.0-2.0-8.2-2.2","battery-v0.2","","""event"",""trial"",""time""
""fullscreenenter"",""1"",""2936""
","
","
","""event"",""trial"",""time""
""fullscreenenter"",""1"",""2936""
","
","","","573","","","10","4638","2016","&#9776;","elianto","#3366ff99"," "," ","1","+10","[1424]","1","0","1","","","","","","","",""
"pit-trial","33","405245","0.0-2.0-8.2-3.2","battery-v0.2","","""event"",""trial"",""time""
""fullscreenenter"",""1"",""2936""
","
","
","""event"",""trial"",""time""
""fullscreenenter"",""1"",""2936""
","
","","","544.9999999999418","","","10","4638","2016","&#9776;","elianto","#3366ff99"," "," ","1","0","[1395.9999999999418]","1","0","1","","","","","","","",""
"pit-trial","34","408894","0.0-2.0-8.2-4.2","battery-v0.2","","""event"",""trial"",""time""
""fullscreenenter"",""1"",""2936""
","
","
","""event"",""trial"",""time""
""fullscreenenter"",""1"",""2936""
","
","","","792","","","10","4638","2016","&#9776;","elianto","#3366ff99"," "," ","1","+10","[1644]","1","0","1","","","","","","","",""
"call-function","35","408899","0.0-2.0-9.0","battery-v0.2","","""event"",""trial"",""time""
""fullscreenenter"",""1"",""2936""
","
","
","""event"",""trial"",""time""
""fullscreenenter"",""1"",""2936""
","
","","","","","","","","","","","","","","","","","","","","","","","","","","",""
"pit-instructions","36","479862","0.0-2.0-10.0","battery-v0.2","","""event"",""trial"",""time""
""fullscreenenter"",""1"",""2936""
","
","
","""event"",""trial"",""time""
""fullscreenenter"",""1"",""2936""
","
","","[{""page_index"":0,""viewing_time"":29963.00000000006},{""page_index"":1,""viewing_time"":7379.999999999942},{""page_index"":2,""viewing_time"":10534},{""page_index"":3,""viewing_time"":15051},{""page_index"":4,""viewing_time"":8037}]","70965","","","","","","","","","","","","","","","","","","","","","","","",""
"pit-trial","37","483455","0.0-2.0-11.0-0.0","battery-v0.2","","""event"",""trial"",""time""
""fullscreenenter"",""1"",""2936""
","
","
","""event"",""trial"",""time""
""fullscreenenter"",""1"",""2936""
","
","","","735","","","10","4638","2016","&#9761;","elianto","#3366ff99","-1"," ","0","0","[1586]","1","0","2","","","","","","","",""
"pit-trial","38","486776","0.0-2.0-11.0-1.0","battery-v0.2","","""event"",""trial"",""time""
""fullscreenenter"",""1"",""2936""
","
","
","""event"",""trial"",""time""
""fullscreenenter"",""1"",""2936""
","
","","","465","","","10","4638","2016","&#9761;","elianto","#3366ff99","-1"," ","0","0","[1316]","1","0","2","","","","","","","",""
"pit-trial","39","489801","0.0-2.0-11.0-2.0","battery-v0.2","","""event"",""trial"",""time""
""fullscreenenter"",""1"",""2936""
","
","
","""event"",""trial"",""time""
""fullscreenenter"",""1"",""2936""
","
","","","168","","","10","4638","2016","&#9761;","elianto","#3366ff99","-1"," ","0","0","[1019]","1","0","2","","","","","","","",""
"pit-trial","40","494659","0.0-2.0-11.0-3.0","battery-v0.2","","""event"",""trial"",""time""
""fullscreenenter"",""1"",""2936""
","
","
","""event"",""trial"",""time""
""fullscreenenter"",""1"",""2936""
","
","","","-1","","","10","4638","2016","&#9761;","elianto","#3366ff99","-1","-1","1","0","[]","0","0","2","","","","","","","",""
"pit-trial","41","497989","0.0-2.0-11.0-4.0","battery-v0.2","","""event"",""trial"",""time""
""fullscreenenter"",""1"",""2936""
","
","
","""event"",""trial"",""time""
""fullscreenenter"",""1"",""2936""
","
","","","474","","","10","4638","2016","&#9761;","elianto","#3366ff99","-1"," ","0","0","[1325]","1","0","2","","","","","","","",""
"pit-trial","42","502848","0.0-2.0-11.1-0.1","battery-v0.2","","""event"",""trial"",""time""
""fullscreenenter"",""1"",""2936""
","
","
","""event"",""trial"",""time""
""fullscreenenter"",""1"",""2936""
","
","","","-1","","","10","4638","2016","&#9761;","elianto","#3366ff99","-1","-1","1","+10","[]","0","0","2","","","","","","","",""
"pit-trial","43","507705","0.0-2.0-11.1-1.1","battery-v0.2","","""event"",""trial"",""time""
""fullscreenenter"",""1"",""2936""
","
","
","""event"",""trial"",""time""
""fullscreenenter"",""1"",""2936""
","
","","","-1","","","10","4638","2016","&#9761;","elianto","#3366ff99","-1","-1","1","+10","[]","0","0","2","","","","","","","",""
"pit-trial","44","511000","0.0-2.0-11.1-2.1","battery-v0.2","","""event"",""trial"",""time""
""fullscreenenter"",""1"",""2936""
","
","
","""event"",""trial"",""time""
""fullscreenenter"",""1"",""2936""
","
","","","439","","","10","4638","2016","&#9761;","elianto","#3366ff99","-1"," ","0","0","[1289]","1","0","2","","","","","","","",""
"pit-trial","45","514392","0.0-2.0-11.1-3.1","battery-v0.2","","""event"",""trial"",""time""
""fullscreenenter"",""1"",""2936""
","
","
","""event"",""trial"",""time""
""fullscreenenter"",""1"",""2936""
","
","","","533.0000000000582","","","10","4638","2016","&#9761;","elianto","#3366ff99","-1"," ","0","+10","[1386.0000000001164]","1","0","2","","","","","","","",""
"pit-trial","46","519249","0.0-2.0-11.1-4.1","battery-v0.2","","""event"",""trial"",""time""
""fullscreenenter"",""1"",""2936""
","
","
","""event"",""trial"",""time""
""fullscreenenter"",""1"",""2936""
","
","","","-1","","","10","4638","2016","&#9761;","elianto","#3366ff99","-1","-1","1","+10","[]","0","0","2","","","","","","","",""
"pit-trial","47","524107","0.0-2.0-11.2-0.2","battery-v0.2","","""event"",""trial"",""time""
""fullscreenenter"",""1"",""2936""
","
","
","""event"",""trial"",""time""
""fullscreenenter"",""1"",""2936""
","
","","","-1","","","10","4638","2016","&#9761;","elianto","#3366ff99","-1","-1","1","+10","[]","0","0","2","","","","","","","",""
"pit-trial","48","528963","0.0-2.0-11.2-1.2","battery-v0.2","","""event"",""trial"",""time""
""fullscreenenter"",""1"",""2936""
","
","
","""event"",""trial"",""time""
""fullscreenenter"",""1"",""2936""
","
","","","-1","","","10","4638","2016","&#9761;","elianto","#3366ff99","-1","-1","1","+10","[]","0","0","2","","","","","","","",""
"pit-trial","49","533819","0.0-2.0-11.2-2.2","battery-v0.2","","""event"",""trial"",""time""
""fullscreenenter"",""1"",""2936""
","
","
","""event"",""trial"",""time""
""fullscreenenter"",""1"",""2936""
","
","","","-1","","","10","4638","2016","&#9761;","elianto","#3366ff99","-1","-1","1","+10","[]","0","0","2","","","","","","","",""
"pit-trial","50","537093","0.0-2.0-11.2-3.2","battery-v0.2","","""event"",""trial"",""time""
""fullscreenenter"",""1"",""2936""
","
","
","""event"",""trial"",""time""
""fullscreenenter"",""1"",""2936""
","
","","","418","","","10","4638","2016","&#9761;","elianto","#3366ff99","-1"," ","0","+10","[1267]","1","0","2","","","","","","","",""
"pit-trial","51","541951","0.0-2.0-11.2-4.2","battery-v0.2","","""event"",""trial"",""time""
""fullscreenenter"",""1"",""2936""
","
","
","""event"",""trial"",""time""
""fullscreenenter"",""1"",""2936""
","
","","","-1","","","10","4638","2016","&#9761;","elianto","#3366ff99","-1","-1","1","+10","[]","0","0","2","","","","","","","",""
"pit-trial","52","546807","0.0-2.0-11.3-0.3","battery-v0.2","","""event"",""trial"",""time""
""fullscreenenter"",""1"",""2936""
","
","
","""event"",""trial"",""time""
""fullscreenenter"",""1"",""2936""
","
","","","-1","","","10","4638","2016","&#9761;","elianto","#3366ff99","-1","-1","1","+10","[3309.9999999998836]","1","0","2","","","","","","","",""
"pit-trial","53","550489","0.0-2.0-11.3-1.3","battery-v0.2","","""event"",""trial"",""time""
""fullscreenenter"",""1"",""2936""
","
","
","""event"",""trial"",""time""
""fullscreenenter"",""1"",""2936""
","
","","","824.9999999998836","","","10","4638","2016","&#9761;","elianto","#3366ff99","-1"," ","0","0","[1675]","1","0","2","","","","","","","",""
"pit-trial","54","553771","0.0-2.0-11.3-2.3","battery-v0.2","","""event"",""trial"",""time""
""fullscreenenter"",""1"",""2936""
","
","
","""event"",""trial"",""time""
""fullscreenenter"",""1"",""2936""
","
","","","426","","","10","4638","2016","&#9761;","elianto","#3366ff99","-1"," ","0","0","[1276]","1","0","2","","","","","","","",""
"pit-trial","55","558629","0.0-2.0-11.3-3.3","battery-v0.2","","""event"",""trial"",""time""
""fullscreenenter"",""1"",""2936""
","
","
","""event"",""trial"",""time""
""fullscreenenter"",""1"",""2936""
","
","","","-1","","","10","4638","2016","&#9761;","elianto","#3366ff99","-1","-1","1","0","[]","0","0","2","","","","","","","",""
"pit-trial","56","563486","0.0-2.0-11.3-4.3","battery-v0.2","","""event"",""trial"",""time""
""fullscreenenter"",""1"",""2936""
","
","
","""event"",""trial"",""time""
""fullscreenenter"",""1"",""2936""
","
","","","-1","","","10","4638","2016","&#9761;","elianto","#3366ff99","-1","-1","1","+10","[]","0","0","2","","","","","","","",""
"call-function","57","563489","0.0-2.0-12.0","battery-v0.2","","""event"",""trial"",""time""
""fullscreenenter"",""1"",""2936""
","
","
","""event"",""trial"",""time""
""fullscreenenter"",""1"",""2936""
","
","","","","","","","","","","","","","","","","","","","","","","","","","","",""
"pit-instructions","58","596042","0.0-2.0-13.0","battery-v0.2","","""event"",""trial"",""time""
""fullscreenenter"",""1"",""2936""
","
","
","""event"",""trial"",""time""
""fullscreenenter"",""1"",""2936""
","
","","[{""page_index"":0,""viewing_time"":5169},{""page_index"":1,""viewing_time"":7750},{""page_index"":2,""viewing_time"":3967},{""page_index"":3,""viewing_time"":10433.000000000116},{""page_index"":4,""viewing_time"":5232.999999999884}]","32553","","","","","","","","","","","","","","","","","","","","","","","",""
"pit-trial","59","599755","0.0-2.0-14.0-0.0","battery-v0.2","","""event"",""trial"",""time""
""fullscreenenter"",""1"",""2936""
","
","
","""event"",""trial"",""time""
""fullscreenenter"",""1"",""2936""
","
","","","856","","","10","4638","2016","&#9826;","elianto","#f73b6a7A","-1"," ","0","-10","[1706]","1","0","3","","","","","","","",""
"pit-trial","60","603241","0.0-2.0-14.0-1.0","battery-v0.2","","""event"",""trial"",""time""
""fullscreenenter"",""1"",""2936""
","
","
","""event"",""trial"",""time""
""fullscreenenter"",""1"",""2936""
","
","","","629","","","10","4638","2016","&#9826;","elianto","#f73b6a7A","-1"," ","0","-10","[1478.9999999998836]","1","0","3","","","","","","","",""
"pit-trial","61","608098","0.0-2.0-14.0-2.0","battery-v0.2","","""event"",""trial"",""time""
""fullscreenenter"",""1"",""2936""
","
","
","""event"",""trial"",""time""
""fullscreenenter"",""1"",""2936""
","
","","","-1","","","10","4638","2016","&#9826;","elianto","#f73b6a7A","-1","-1","1","0","[]","0","0","3","","","","","","","",""
"pit-trial","62","612956","0.0-2.0-14.0-3.0","battery-v0.2","","""event"",""trial"",""time""
""fullscreenenter"",""1"",""2936""
","
","
","""event"",""trial"",""time""
""fullscreenenter"",""1"",""2936""
","
","","","-1","","","10","4638","2016","&#9826;","elianto","#f73b6a7A","-1","-1","1","-10","[]","0","0","3","","","","","","","",""
"pit-trial","63","617813","0.0-2.0-14.0-4.0","battery-v0.2","","""event"",""trial"",""time""
""fullscreenenter"",""1"",""2936""
","
","
","""event"",""trial"",""time""
""fullscreenenter"",""1"",""2936""
","
","","","-1","","","10","4638","2016","&#9826;","elianto","#f73b6a7A","-1","-1","1","0","[]","0","0","3","","","","","","","",""
"pit-trial","64","622671","0.0-2.0-14.1-0.1","battery-v0.2","","""event"",""trial"",""time""
""fullscreenenter"",""1"",""2936""
","
","
","""event"",""trial"",""time""
""fullscreenenter"",""1"",""2936""
","
","","","-1","","","10","4638","2016","&#9826;","elianto","#f73b6a7A","-1","-1","1","0","[]","0","0","3","","","","","","","",""
"pit-trial","65","627528","0.0-2.0-14.1-1.1","battery-v0.2","","""event"",""trial"",""time""
""fullscreenenter"",""1"",""2936""
","
","
","""event"",""trial"",""time""
""fullscreenenter"",""1"",""2936""
","
","","","-1","","","10","4638","2016","&#9826;","elianto","#f73b6a7A","-1","-1","1","0","[]","0","0","3","","","","","","","",""
"pit-trial","66","632386","0.0-2.0-14.1-2.1","battery-v0.2","","""event"",""trial"",""time""
""fullscreenenter"",""1"",""2936""
","
","
","""event"",""trial"",""time""
""fullscreenenter"",""1"",""2936""
","
","","","-1","","","10","4638","2016","&#9826;","elianto","#f73b6a7A","-1","-1","1","0","[]","0","0","3","","","","","","","",""
"pit-trial","67","637243","0.0-2.0-14.1-3.1","battery-v0.2","","""event"",""trial"",""time""
""fullscreenenter"",""1"",""2936""
","
","
","""event"",""trial"",""time""
""fullscreenenter"",""1"",""2936""
","
","","","-1","","","10","4638","2016","&#9826;","elianto","#f73b6a7A","-1","-1","1","-10","[]","0","0","3","","","","","","","",""
"pit-trial","68","642102","0.0-2.0-14.1-4.1","battery-v0.2","","""event"",""trial"",""time""
""fullscreenenter"",""1"",""2936""
","
","
","""event"",""trial"",""time""
""fullscreenenter"",""1"",""2936""
","
","","","-1","","","10","4638","2016","&#9826;","elianto","#f73b6a7A","-1","-1","1","0","[]","0","0","3","","","","","","","",""
"pit-trial","69","646958","0.0-2.0-14.2-0.2","battery-v0.2","","""event"",""trial"",""time""
""fullscreenenter"",""1"",""2936""
","
","
","""event"",""trial"",""time""
""fullscreenenter"",""1"",""2936""
","
","","","-1","","","10","4638","2016","&#9826;","elianto","#f73b6a7A","-1","-1","1","0","[]","0","0","3","","","","","","","",""
"pit-trial","70","651815","0.0-2.0-14.2-1.2","battery-v0.2","","""event"",""trial"",""time""
""fullscreenenter"",""1"",""2936""
","
","
","""event"",""trial"",""time""
""fullscreenenter"",""1"",""2936""
","
","","","-1","","","10","4638","2016","&#9826;","elianto","#f73b6a7A","-1","-1","1","0","[]","0","0","3","","","","","","","",""
"pit-trial","71","656672","0.0-2.0-14.2-2.2","battery-v0.2","","""event"",""trial"",""time""
""fullscreenenter"",""1"",""2936""
","
","
","""event"",""trial"",""time""
""fullscreenenter"",""1"",""2936""
","
","","","-1","","","10","4638","2016","&#9826;","elianto","#f73b6a7A","-1","-1","1","0","[]","0","0","3","","","","","","","",""
"pit-trial","72","661529","0.0-2.0-14.2-3.2","battery-v0.2","","""event"",""trial"",""time""
""fullscreenenter"",""1"",""2936""
","
","
","""event"",""trial"",""time""
""fullscreenenter"",""1"",""2936""
","
","","","-1","","","10","4638","2016","&#9826;","elianto","#f73b6a7A","-1","-1","1","-10","[]","0","0","3","","","","","","","",""
"pit-trial","73","666386","0.0-2.0-14.2-4.2","battery-v0.2","","""event"",""trial"",""time""
""fullscreenenter"",""1"",""2936""
","
","
","""event"",""trial"",""time""
""fullscreenenter"",""1"",""2936""
","
","","","-1","","","10","4638","2016","&#9826;","elianto","#f73b6a7A","-1","-1","1","0","[]","0","0","3","","","","","","","",""
"pit-trial","74","671243","0.0-2.0-14.3-0.3","battery-v0.2","","""event"",""trial"",""time""
""fullscreenenter"",""1"",""2936""
","
","
","""event"",""trial"",""time""
""fullscreenenter"",""1"",""2936""
","
","","","-1","","","10","4638","2016","&#9826;","elianto","#f73b6a7A","-1","-1","1","0","[]","0","0","3","","","","","","","",""
"pit-trial","75","676101","0.0-2.0-14.3-1.3","battery-v0.2","","""event"",""trial"",""time""
""fullscreenenter"",""1"",""2936""
","
","
","""event"",""trial"",""time""
""fullscreenenter"",""1"",""2936""
","
","","","-1","","","10","4638","2016","&#9826;","elianto","#f73b6a7A","-1","-1","1","0","[]","0","0","3","","","","","","","",""
"pit-trial","76","680957","0.0-2.0-14.3-2.3","battery-v0.2","","""event"",""trial"",""time""
""fullscreenenter"",""1"",""2936""
","
","
","""event"",""trial"",""time""
""fullscreenenter"",""1"",""2936""
","
","","","-1","","","10","4638","2016","&#9826;","elianto","#f73b6a7A","-1","-1","1","0","[]","0","0","3","","","","","","","",""
"pit-trial","77","685815","0.0-2.0-14.3-3.3","battery-v0.2","","""event"",""trial"",""time""
""fullscreenenter"",""1"",""2936""
","
","
","""event"",""trial"",""time""
""fullscreenenter"",""1"",""2936""
","
","","","-1","","","10","4638","2016","&#9826;","elianto","#f73b6a7A","-1","-1","1","-10","[]","0","0","3","","","","","","","",""
"pit-trial","78","690672","0.0-2.0-14.3-4.3","battery-v0.2","","""event"",""trial"",""time""
""fullscreenenter"",""1"",""2936""
","
","
","""event"",""trial"",""time""
""fullscreenenter"",""1"",""2936""
","
","","","-1","","","10","4638","2016","&#9826;","elianto","#f73b6a7A","-1","-1","1","0","[]","0","0","3","","","","","","","",""
"call-function","79","690675","0.0-2.0-15.0","battery-v0.2","","""event"",""trial"",""time""
""fullscreenenter"",""1"",""2936""
","
","
","""event"",""trial"",""time""
""fullscreenenter"",""1"",""2936""
","
","","","","","","","","","","","","","","","","","","","","","","","","","","",""
"pit-instructions","80","715625","0.0-2.0-16.0","battery-v0.2","","""event"",""trial"",""time""
""fullscreenenter"",""1"",""2936""
","
","
","""event"",""trial"",""time""
""fullscreenenter"",""1"",""2936""
","
","","[{""page_index"":0,""viewing_time"":7585},{""page_index"":1,""viewing_time"":8116},{""page_index"":2,""viewing_time"":4066},{""page_index"":3,""viewing_time"":5182}]","24950.000000000116","","","","","","","","","","","","","","","","","","","","","","","",""
"pit-trial","81","719452","0.0-2.0-17.0-0.0","battery-v0.2","","""event"",""trial"",""time""
""fullscreenenter"",""1"",""2936""
","
","
","""event"",""trial"",""time""
""fullscreenenter"",""1"",""2936""
","
","","","972","","","10","4638","2016","&#9789;","elianto","#f73b6a7A"," "," ","1","0","[1821]","1","0","4","","","","","","","",""
"pit-trial","82","722614","0.0-2.0-17.0-1.0","battery-v0.2","","""event"",""trial"",""time""
""fullscreenenter"",""1"",""2936""
","
","
","""event"",""trial"",""time""
""fullscreenenter"",""1"",""2936""
","
","","","305","","","10","4638","2016","&#9789;","elianto","#f73b6a7A"," "," ","1","0","[1155]","1","0","4","","","","","","","",""
"pit-trial","83","725773","0.0-2.0-17.0-2.0","battery-v0.2","","""event"",""trial"",""time""
""fullscreenenter"",""1"",""2936""
","
","
","""event"",""trial"",""time""
""fullscreenenter"",""1"",""2936""
","
","","","303","","","10","4638","2016","&#9789;","elianto","#f73b6a7A"," "," ","1","0","[1153]","1","0","4","","","","","","","",""
"pit-trial","84","728979","0.0-2.0-17.0-3.0","battery-v0.2","","""event"",""trial"",""time""
""fullscreenenter"",""1"",""2936""
","
","
","""event"",""trial"",""time""
""fullscreenenter"",""1"",""2936""
","
","","","348","","","10","4638","2016","&#9789;","elianto","#f73b6a7A"," "," ","1","-10","[1197.9999999998836]","1","0","4","","","","","","","",""
"pit-trial","85","732219","0.0-2.0-17.0-4.0","battery-v0.2","","""event"",""trial"",""time""
""fullscreenenter"",""1"",""2936""
","
","
","""event"",""trial"",""time""
""fullscreenenter"",""1"",""2936""
","
","","","384","","","10","4638","2016","&#9789;","elianto","#f73b6a7A"," "," ","1","0","[1234]","1","0","4","","","","","","","",""
"pit-trial","86","735498","0.0-2.0-17.1-0.1","battery-v0.2","","""event"",""trial"",""time""
""fullscreenenter"",""1"",""2936""
","
","
","""event"",""trial"",""time""
""fullscreenenter"",""1"",""2936""
","
","","","422","","","10","4638","2016","&#9789;","elianto","#f73b6a7A"," "," ","1","0","[1272]","1","0","4","","","","","","","",""
"pit-trial","87","739235","0.0-2.0-17.1-1.1","battery-v0.2","","""event"",""trial"",""time""
""fullscreenenter"",""1"",""2936""
","
","
","""event"",""trial"",""time""
""fullscreenenter"",""1"",""2936""
","
","","","881","","","10","4638","2016","&#9789;","elianto","#f73b6a7A"," "," ","1","0","[1732]","1","0","4","","","","","","","",""
"pit-trial","88","742488","0.0-2.0-17.1-2.1","battery-v0.2","","""event"",""trial"",""time""
""fullscreenenter"",""1"",""2936""
","
","
","""event"",""trial"",""time""
""fullscreenenter"",""1"",""2936""
","
","","","396","","","10","4638","2016","&#9789;","elianto","#f73b6a7A"," "," ","1","0","[1247]","1","0","4","","","","","","","",""
"pit-trial","89","745708","0.0-2.0-17.1-3.1","battery-v0.2","","""event"",""trial"",""time""
""fullscreenenter"",""1"",""2936""
","
","
","""event"",""trial"",""time""
""fullscreenenter"",""1"",""2936""
","
","","","364","","","10","4638","2016","&#9789;","elianto","#f73b6a7A"," "," ","1","-10","[1214]","1","0","4","","","","","","","",""
"pit-trial","90","749044","0.0-2.0-17.1-4.1","battery-v0.2","","""event"",""trial"",""time""
""fullscreenenter"",""1"",""2936""
","
","
","""event"",""trial"",""time""
""fullscreenenter"",""1"",""2936""
","
","","","478","","","10","4638","2016","&#9789;","elianto","#f73b6a7A"," "," ","1","0","[1329]","1","0","4","","","","","","","",""
"pit-trial","91","753901","0.0-2.0-17.2-0.2","battery-v0.2","","""event"",""trial"",""time""
""fullscreenenter"",""1"",""2936""
","
","
","""event"",""trial"",""time""
""fullscreenenter"",""1"",""2936""
","
","","","-1","","","10","4638","2016","&#9789;","elianto","#f73b6a7A"," ","-1","0","-10","[]","0","0","4","","","","","","","",""
"pit-trial","92","757229","0.0-2.0-17.2-1.2","battery-v0.2","","""event"",""trial"",""time""
""fullscreenenter"",""1"",""2936""
","
","
","""event"",""trial"",""time""
""fullscreenenter"",""1"",""2936""
","
","","","468","","","10","4638","2016","&#9789;","elianto","#f73b6a7A"," "," ","1","0","[1321]","1","0","4","","","","","","","",""
"pit-trial","93","760101","0.0-2.0-17.2-2.2","battery-v0.2","","""event"",""trial"",""time""
""fullscreenenter"",""1"",""2936""
","
","
","""event"",""trial"",""time""
""fullscreenenter"",""1"",""2936""
","
","","","15","","","10","4638","2016","&#9789;","elianto","#f73b6a7A"," "," ","1","0","[866]","1","0","4","","","","","","","",""
"pit-trial","94","763321","0.0-2.0-17.2-3.2","battery-v0.2","","""event"",""trial"",""time""
""fullscreenenter"",""1"",""2936""
","
","
","""event"",""trial"",""time""
""fullscreenenter"",""1"",""2936""
","
","","","363","","","10","4638","2016","&#9789;","elianto","#f73b6a7A"," "," ","1","-10","[1213.9999999998836]","1","0","4","","","","","","","",""
"pit-trial","95","766680","0.0-2.0-17.2-4.2","battery-v0.2","","""event"",""trial"",""time""
""fullscreenenter"",""1"",""2936""
","
","
","""event"",""trial"",""time""
""fullscreenenter"",""1"",""2936""
","
","","","503","","","10","4638","2016","&#9789;","elianto","#f73b6a7A"," "," ","1","0","[1352.9999999998836]","1","0","4","","","","","","","",""
"pit-trial","96","770944","0.0-2.0-17.3-0.3","battery-v0.2","","""event"",""trial"",""time""
""fullscreenenter"",""1"",""2936""
","
","
","""event"",""trial"",""time""
""fullscreenenter"",""1"",""2936""
","
","","","1406","","","10","4638","2016","&#9789;","elianto","#f73b6a7A"," "," ","1","0","[2257]","1","0","4","","","","","","","",""
"pit-trial","97","775595","0.0-2.0-17.3-1.3","battery-v0.2","","""event"",""trial"",""time""
""fullscreenenter"",""1"",""2936""
","
","
","""event"",""trial"",""time""
""fullscreenenter"",""1"",""2936""
","
","","","1794","","","10","4638","2016","&#9789;","elianto","#f73b6a7A"," "," ","1","0","[2645]","1","0","4","","","","","","","",""
"pit-trial","98","779933","0.0-2.0-17.3-2.3","battery-v0.2","","""event"",""trial"",""time""
""fullscreenenter"",""1"",""2936""
","
","
","""event"",""trial"",""time""
""fullscreenenter"",""1"",""2936""
","
","","","1480.9999999998836","","","10","4638","2016","&#9789;","elianto","#f73b6a7A"," "," ","1","0","[2331.9999999998836]","1","0","4","","","","","","","",""
"pit-trial","99","784790","0.0-2.0-17.3-3.3","battery-v0.2","","""event"",""trial"",""time""
""fullscreenenter"",""1"",""2936""
","
","
","""event"",""trial"",""time""
""fullscreenenter"",""1"",""2936""
","
","","","-1","","","10","4638","2016","&#9789;","elianto","#f73b6a7A"," ","-1","0","0","[3344]","1","0","4","","","","","","","",""
"pit-trial","100","787907","0.0-2.0-17.3-4.3","battery-v0.2","","""event"",""trial"",""time""
""fullscreenenter"",""1"",""2936""
","
","
","""event"",""trial"",""time""
""fullscreenenter"",""1"",""2936""
","
","","","259","","","10","4638","2016","&#9789;","elianto","#f73b6a7A"," "," ","1","0","[1110]","1","0","4","","","","","","","",""
"call-function","101","787911","0.0-2.0-18.0","battery-v0.2","","""event"",""trial"",""time""
""fullscreenenter"",""1"",""2936""
","
","
","""event"",""trial"",""time""
""fullscreenenter"",""1"",""2936""
","
","","","","","","","","","","","","","","","","","","","","","","","","","","",""
"pit-instructions","102","869743","0.0-2.0-19.0","battery-v0.2","","""event"",""trial"",""time""
""fullscreenenter"",""1"",""2936""
","
","
","""event"",""trial"",""time""
""fullscreenenter"",""1"",""2936""
","
","","[{""page_index"":0,""viewing_time"":6764.000000000116},{""page_index"":1,""viewing_time"":6032.999999999884},{""page_index"":2,""viewing_time"":13501},{""page_index"":3,""viewing_time"":8202},{""page_index"":4,""viewing_time"":8600},{""page_index"":5,""viewing_time"":9317},{""page_index"":6,""viewing_time"":16169.000000000116},{""page_index"":7,""viewing_time"":8497.999999999884},{""page_index"":8,""viewing_time"":4750}]","81834","","","","","","","","","","","","","","","","","","","","","","","",""
"pit-comprehension","103","874198","0.0-2.0-20.0-0.0","battery-v0.2","","""event"",""trial"",""time""
""fullscreenenter"",""1"",""2936""
","
","
","""event"",""trial"",""time""
""fullscreenenter"",""1"",""2936""
","
","","","4450","[""SPACE""]","0","10","4638","2016","","","","","","","","","","","","","","","","","","",""
"pit-instructions","104","876993","0.0-2.0-20.0-1.0","battery-v0.2","","""event"",""trial"",""time""
""fullscreenenter"",""1"",""2936""
","
","
","""event"",""trial"",""time""
""fullscreenenter"",""1"",""2936""
","
","","[{""page_index"":0,""viewing_time"":2752}]","2752","","","","","","","","","","","","","","","","","","","","","","","",""
"pit-comprehension","105","883495","0.0-2.0-21.0-0.0","battery-v0.2","","""event"",""trial"",""time""
""fullscreenenter"",""1"",""2936""
","
","
","""event"",""trial"",""time""
""fullscreenenter"",""1"",""2936""
","
","","","6497","[""10""]","0","10","4638","2016","","","","","","","","","","","","","","","","","","",""
"pit-instructions","106","885309","0.0-2.0-21.0-1.0","battery-v0.2","","""event"",""trial"",""time""
""fullscreenenter"",""1"",""2936""
","
","
","""event"",""trial"",""time""
""fullscreenenter"",""1"",""2936""
","
","","[{""page_index"":0,""viewing_time"":1766.9999999998836}]","1767.9999999998836","","","","","","","","","","","","","","","","","","","","","","","",""
"pit-comprehension","107","894349","0.0-2.0-22.0-0.0","battery-v0.2","","""event"",""trial"",""time""
""fullscreenenter"",""1"",""2936""
","
","
","""event"",""trial"",""time""
""fullscreenenter"",""1"",""2936""
","
","","","9034","[""0""]","0","10","4638","2016","","","","","","","","","","","","","","","","","","",""
"pit-instructions","108","895909","0.0-2.0-22.0-1.0","battery-v0.2","","""event"",""trial"",""time""
""fullscreenenter"",""1"",""2936""
","
","
","""event"",""trial"",""time""
""fullscreenenter"",""1"",""2936""
","
","","[{""page_index"":0,""viewing_time"":1516}]","1516","","","","","","","","","","","","","","","","","","","","","","","",""
"pit-comprehension","109","911496","0.0-2.0-23.0-0.0","battery-v0.2","","""event"",""trial"",""time""
""fullscreenenter"",""1"",""2936""
","
","
","""event"",""trial"",""time""
""fullscreenenter"",""1"",""2936""
","
","","","15580","[""True""]","0","10","4638","2016","","","","","","","","","","","","","","","","","","",""
"pit-instructions","110","913129","0.0-2.0-23.0-1.0","battery-v0.2","","""event"",""trial"",""time""
""fullscreenenter"",""1"",""2936""
","
","
","""event"",""trial"",""time""
""fullscreenenter"",""1"",""2936""
","
","","[{""page_index"":0,""viewing_time"":1586}]","1587","","","","","","","","","","","","","","","","","","","","","","","",""
"pit-comprehension","111","920678","0.0-2.0-24.0-0.0","battery-v0.2","","""event"",""trial"",""time""
""fullscreenenter"",""1"",""2936""
","
","
","""event"",""trial"",""time""
""fullscreenenter"",""1"",""2936""
","
","","","7542","[""True""]","0","10","4638","2016","","","","","","","","","","","","","","","","","","",""
"pit-instructions","112","922360","0.0-2.0-24.0-1.0","battery-v0.2","","""event"",""trial"",""time""
""fullscreenenter"",""1"",""2936""
","
","
","""event"",""trial"",""time""
""fullscreenenter"",""1"",""2936""
","
","","[{""page_index"":0,""viewing_time"":1637}]","1638","","","","","","","","","","","","","","","","","","","","","","","",""
"pit-comprehension","113","929798","0.0-2.0-25.0-0.0","battery-v0.2","","""event"",""trial"",""time""
""fullscreenenter"",""1"",""2936""
","
","
","""event"",""trial"",""time""
""fullscreenenter"",""1"",""2936""
","
","","","7432","[""True""]","0","10","4638","2016","","","","","","","","","","","","","","","","","","",""
"pit-instructions","114","931593","0.0-2.0-25.0-1.0","battery-v0.2","","""event"",""trial"",""time""
""fullscreenenter"",""1"",""2936""
","
","
","""event"",""trial"",""time""
""fullscreenenter"",""1"",""2936""
","
","","[{""page_index"":0,""viewing_time"":1749.0000000001164}]","1749.0000000001164","","","","","","","","","","","","","","","","","","","","","","","",""
"pit-comprehension","115","936865","0.0-2.0-26.0-0.0","battery-v0.2","","""event"",""trial"",""time""
""fullscreenenter"",""1"",""2936""
","
","
","""event"",""trial"",""time""
""fullscreenenter"",""1"",""2936""
","
","","","5265.999999999884","[""False""]","0","10","4638","2016","","","","","","","","","","","","","","","","","","",""
"pit-instructions","116","939293","0.0-2.0-26.0-1.0","battery-v0.2","","""event"",""trial"",""time""
""fullscreenenter"",""1"",""2936""
","
","
","""event"",""trial"",""time""
""fullscreenenter"",""1"",""2936""
","
","","[{""page_index"":0,""viewing_time"":2380}]","2380","","","","","","","","","","","","","","","","","","","","","","","",""
"pit-instructions","117","1064444","0.0-3.0","battery-v0.2","","""event"",""trial"",""time""
""fullscreenenter"",""1"",""2936""
","
","
","""event"",""trial"",""time""
""fullscreenenter"",""1"",""2936""
","
","","[{""page_index"":0,""viewing_time"":5380},{""page_index"":1,""viewing_time"":5112},{""page_index"":2,""viewing_time"":114657}]","125150","","","","","","","","","","","","","","","","","","","","","","","",""
"pit-trial","118","1068339","0.0-4.0","battery-v0.2","","""event"",""trial"",""time""
""fullscreenenter"",""1"",""2936""
","
","
","""event"",""trial"",""time""
""fullscreenenter"",""1"",""2936""
","
","","","1035","","","10","4638","2016","&#9728;","elianto","#f73b6a7A","-1"," ","0","-10","[1886]","1","1","","","4638","1","0","4","lose","no-go","0"
"pit-trial","119","1072409","0.0-5.0","battery-v0.2","","""event"",""trial"",""time""
""fullscreenenter"",""1"",""2936""
","
","
","""event"",""trial"",""time""
""fullscreenenter"",""1"",""2936""
","
","","","1211","","","10","4638","2016","&#9752;","elianto","#f73b6a7A"," "," ","1","0","[2062]","1","1","","","4638","2","3","3","lose","go","0"
"pit-trial","120","1076044","0.0-6.0","battery-v0.2","","""event"",""trial"",""time""
""fullscreenenter"",""1"",""2936""
","
","
","""event"",""trial"",""time""
""fullscreenenter"",""1"",""2936""
","
","","","774.9999999997672","","","10","4638","2016","&#9733;","elianto","#3366ff99","-1"," ","0","0","[1626,1994]","2","1","","","4638","3","2","2","win","no-go","0"
"pit-trial","121","1079700","0.0-7.0","battery-v0.2","","""event"",""trial"",""time""
""fullscreenenter"",""1"",""2936""
","
","
","""event"",""trial"",""time""
""fullscreenenter"",""1"",""2936""
","
","","","795","","","10","4638","2016","&#9730;","elianto","#3366ff99"," "," ","1","+10","[1647]","1","1","","","4638","4","1","1","win","go","0"
"pit-trial","122","1083334","0.0-8.0","battery-v0.2","","""event"",""trial"",""time""
""fullscreenenter"",""1"",""2936""
","
","
","""event"",""trial"",""time""
""fullscreenenter"",""1"",""2936""
","
","","","772","","","10","4638","2016","&#9752;","elianto","#f73b6a7A"," "," ","1","0","[1624]","1","1","","","4638","5","3","3","lose","go","0"
"pit-trial","123","1087177","0.0-9.0","battery-v0.2","","""event"",""trial"",""time""
""fullscreenenter"",""1"",""2936""
","
","
","""event"",""trial"",""time""
""fullscreenenter"",""1"",""2936""
","
","","","982","","","10","4638","2016","&#9728;","elianto","#f73b6a7A","-1"," ","0","0","[1834]","1","1","","","4638","6","0","4","lose","no-go","1"
"pit-trial","124","1090661","0.0-10.0","battery-v0.2","","""event"",""trial"",""time""
""fullscreenenter"",""1"",""2936""
","
","
","""event"",""trial"",""time""
""fullscreenenter"",""1"",""2936""
","
","","","625","","","10","4638","2016","&#9730;","elianto","#3366ff99"," "," ","1","0","[1476]","1","1","","","4638","7","1","1","win","go","1"
"pit-trial","125","1094149","0.0-11.0","battery-v0.2","","""event"",""trial"",""time""
""fullscreenenter"",""1"",""2936""
","
","
","""event"",""trial"",""time""
""fullscreenenter"",""1"",""2936""
","
","","","627","","","10","4638","2016","&#9733;","elianto","#3366ff99","-1"," ","0","0","[1477]","1","1","","","4638","8","2","2","win","no-go","0"
"pit-trial","126","1097783","0.0-12.0","battery-v0.2","","""event"",""trial"",""time""
""fullscreenenter"",""1"",""2936""
","
","
","""event"",""trial"",""time""
""fullscreenenter"",""1"",""2936""
","
","","","773","","","10","4638","2016","&#9730;","elianto","#3366ff99"," "," ","1","+10","[1625]","1","1","","","4638","9","1","1","win","go","0"
"pit-trial","127","1101450","0.0-13.0","battery-v0.2","","""event"",""trial"",""time""
""fullscreenenter"",""1"",""2936""
","
","
","""event"",""trial"",""time""
""fullscreenenter"",""1"",""2936""
","
","","","805.9999999997672","","","10","4638","2016","&#9733;","elianto","#3366ff99","-1"," ","0","0","[1657]","1","1","","","4638","10","2","2","win","no-go","0"
"pit-trial","128","1105113","0.0-14.0","battery-v0.2","","""event"",""trial"",""time""
""fullscreenenter"",""1"",""2936""
","
","
","""event"",""trial"",""time""
""fullscreenenter"",""1"",""2936""
","
","","","802","","","10","4638","2016","&#9728;","elianto","#f73b6a7A","-1"," ","0","0","[1655]","1","1","","","4638","11","0","4","lose","no-go","1"
"pit-trial","129","1108904","0.0-15.0","battery-v0.2","","""event"",""trial"",""time""
""fullscreenenter"",""1"",""2936""
","
","
","""event"",""trial"",""time""
""fullscreenenter"",""1"",""2936""
","
","","","933","","","10","4638","2016","&#9752;","elianto","#f73b6a7A"," "," ","1","0","[1784]","1","1","","","4638","12","3","3","lose","go","0"
"pit-trial","130","1112734","0.0-16.0","battery-v0.2","","""event"",""trial"",""time""
""fullscreenenter"",""1"",""2936""
","
","
","""event"",""trial"",""time""
""fullscreenenter"",""1"",""2936""
","
","","","972","","","10","4638","2016","&#9728;","elianto","#f73b6a7A","-1"," ","0","0","[1821]","1","1","","","4638","13","0","4","lose","no-go","1"
"pit-trial","131","1116308","0.0-17.0","battery-v0.2","","""event"",""trial"",""time""
""fullscreenenter"",""1"",""2936""
","
","
","""event"",""trial"",""time""
""fullscreenenter"",""1"",""2936""
","
","","","713.9999999997672","","","10","4638","2016","&#9733;","elianto","#3366ff99","-1"," ","0","0","[1565]","1","1","","","4638","14","2","2","win","no-go","0"
"pit-trial","132","1120060","0.0-18.0","battery-v0.2","","""event"",""trial"",""time""
""fullscreenenter"",""1"",""2936""
","
","
","""event"",""trial"",""time""
""fullscreenenter"",""1"",""2936""
","
","","","893","","","10","4638","2016","&#9752;","elianto","#f73b6a7A"," "," ","1","0","[1744]","1","1","","","4638","15","3","3","lose","go","0"
"pit-trial","133","1123813","0.0-19.0","battery-v0.2","","""event"",""trial"",""time""
""fullscreenenter"",""1"",""2936""
","
","
","""event"",""trial"",""time""
""fullscreenenter"",""1"",""2936""
","
","","","893","","","10","4638","2016","&#9730;","elianto","#3366ff99"," "," ","1","+10","[1745]","1","1","","","4638","16","1","1","win","go","0"
"pit-trial","134","1128072","0.0-20.0","battery-v0.2","","""event"",""trial"",""time""
""fullscreenenter"",""1"",""2936""
","
","
","""event"",""trial"",""time""
""fullscreenenter"",""1"",""2936""
","
","","","1401","","","10","4638","2016","&#9728;","elianto","#f73b6a7A","-1"," ","0","-10","[2251]","1","1","","","4638","17","0","4","lose","no-go","0"
"pit-trial","135","1132299","0.0-21.0","battery-v0.2","","""event"",""trial"",""time""
""fullscreenenter"",""1"",""2936""
","
","
","""event"",""trial"",""time""
""fullscreenenter"",""1"",""2936""
","
","","","1368","","","10","4638","2016","&#9733;","elianto","#3366ff99","-1"," ","0","+10","[2219]","1","1","","","4638","18","2","2","win","no-go","1"
"pit-trial","136","1135928","0.0-22.0","battery-v0.2","","""event"",""trial"",""time""
""fullscreenenter"",""1"",""2936""
","
","
","""event"",""trial"",""time""
""fullscreenenter"",""1"",""2936""
","
","","","769","","","10","4638","2016","&#9730;","elianto","#3366ff99"," "," ","1","+10","[1621]","1","1","","","4638","19","1","1","win","go","0"
"pit-trial","137","1139937","0.0-23.0","battery-v0.2","","""event"",""trial"",""time""
""fullscreenenter"",""1"",""2936""
","
","
","""event"",""trial"",""time""
""fullscreenenter"",""1"",""2936""
","
","","","1149","","","10","4638","2016","&#9752;","elianto","#f73b6a7A"," "," ","1","0","[1999]","1","1","","","4638","20","3","3","lose","go","0"
"pit-instructions","138","1296077","0.0-24.0","battery-v0.2","","""event"",""trial"",""time""
""fullscreenenter"",""1"",""2936""
","
","
","""event"",""trial"",""time""
""fullscreenenter"",""1"",""2936""
","
","","[{""page_index"":0,""viewing_time"":149958},{""page_index"":1,""viewing_time"":6182}]","156140","","","","","","","","","","","","","","","","","","","","","","","",""
"pit-trial","139","1300070","0.0-25.0","battery-v0.2","","""event"",""trial"",""time""
""fullscreenenter"",""1"",""2936""
","
","
","""event"",""trial"",""time""
""fullscreenenter"",""1"",""2936""
","
","","","1132","","","10","4638","2016","h","elianto","#f73b6a7A","-1"," ","0","0","[1982.9999999997672]","1","2","","","4638","21","3","4","lose","no-go","1"
"pit-trial","140","1303500","0.0-26.0","battery-v0.2","","""event"",""trial"",""time""
""fullscreenenter"",""1"",""2936""
","
","
","""event"",""trial"",""time""
""fullscreenenter"",""1"",""2936""
","
","","","572","","","10","4638","2016","m","elianto","#f73b6a7A"," "," ","1","-10","[1423]","1","2","","","4638","22","0","3","lose","go","1"
"pit-trial","141","1306918","0.0-27.0","battery-v0.2","","""event"",""trial"",""time""
""fullscreenenter"",""1"",""2936""
","
","
","""event"",""trial"",""time""
""fullscreenenter"",""1"",""2936""
","
","","","558","","","10","4638","2016","y","elianto","#f73b6a7A"," "," ","1","0","[1410]","1","2","","","4638","23","2","3","lose","go","0"
"pit-trial","142","1310403","0.0-28.0","battery-v0.2","","""event"",""trial"",""time""
""fullscreenenter"",""1"",""2936""
","
","
","""event"",""trial"",""time""
""fullscreenenter"",""1"",""2936""
","
","","","627.0000000002328","","","10","4638","2016","r","elianto","#3366ff99","-1"," ","0","0","[1478.0000000002328]","1","2","","","4638","24","1","2","win","no-go","0"
"pit-trial","143","1313975","0.0-29.0","battery-v0.2","","""event"",""trial"",""time""
""fullscreenenter"",""1"",""2936""
","
","
","""event"",""trial"",""time""
""fullscreenenter"",""1"",""2936""
","
","","","713","","","10","4638","2016","h","elianto","#f73b6a7A","-1"," ","0","-10","[1564]","1","2","","","4638","25","3","4","lose","no-go","0"
"pit-trial","144","1317486","0.0-30.0","battery-v0.2","","""event"",""trial"",""time""
""fullscreenenter"",""1"",""2936""
","
","
","""event"",""trial"",""time""
""fullscreenenter"",""1"",""2936""
","
","","","652","","","10","4638","2016","r","elianto","#3366ff99","-1"," ","0","+10","[1502]","1","2","","","4638","26","1","2","win","no-go","1"
"pit-trial","145","1320991","0.0-31.0","battery-v0.2","","""event"",""trial"",""time""
""fullscreenenter"",""1"",""2936""
","
","
","""event"",""trial"",""time""
""fullscreenenter"",""1"",""2936""
","
","","","645.9999999997672","","","10","4638","2016","y","elianto","#f73b6a7A"," "," ","1","0","[1496]","1","2","","","4638","27","2","3","lose","go","0"
"pit-trial","146","1324645","0.0-32.0","battery-v0.2","","""event"",""trial"",""time""
""fullscreenenter"",""1"",""2936""
","
","
","""event"",""trial"",""time""
""fullscreenenter"",""1"",""2936""
","
","","","794","","","10","4638","2016","m","elianto","#f73b6a7A"," "," ","1","0","[1644]","1","2","","","4638","28","0","3","lose","go","0"
"pit-trial","147","1328181","0.0-33.0","battery-v0.2","","""event"",""trial"",""time""
""fullscreenenter"",""1"",""2936""
","
","
","""event"",""trial"",""time""
""fullscreenenter"",""1"",""2936""
","
","","","677.0000000002328","","","10","4638","2016","r","elianto","#3366ff99","-1"," ","0","0","[1528.0000000002328]","1","2","","","4638","29","1","2","win","no-go","0"
"pit-trial","148","1333040","0.0-34.0","battery-v0.2","","""event"",""trial"",""time""
""fullscreenenter"",""1"",""2936""
","
","
","""event"",""trial"",""time""
""fullscreenenter"",""1"",""2936""
","
","","","-1","","","10","4638","2016","h","elianto","#f73b6a7A","-1","-1","1","0","[]","0","2","","","4638","30","3","4","lose","no-go","0"
"pit-trial","149","1336495","0.0-35.0","battery-v0.2","","""event"",""trial"",""time""
""fullscreenenter"",""1"",""2936""
","
","
","""event"",""trial"",""time""
""fullscreenenter"",""1"",""2936""
","
","","","597","","","10","4638","2016","y","elianto","#f73b6a7A"," "," ","1","0","[1447]","1","2","","","4638","31","2","3","lose","go","0"
"pit-trial","150","1340432","0.0-36.0","battery-v0.2","","""event"",""trial"",""time""
""fullscreenenter"",""1"",""2936""
","
","
","""event"",""trial"",""time""
""fullscreenenter"",""1"",""2936""
","
","","","1077","","","10","4638","2016","m","elianto","#f73b6a7A"," "," ","1","0","[1928]","1","2","","","4638","32","0","3","lose","go","0"
"pit-trial","151","1343834","0.0-37.0","battery-v0.2","","""event"",""trial"",""time""
""fullscreenenter"",""1"",""2936""
","
","
","""event"",""trial"",""time""
""fullscreenenter"",""1"",""2936""
","
","","","540","","","10","4638","2016","r","elianto","#3366ff99","-1"," ","0","0","[1392]","1","2","","","4638","33","1","2","win","no-go","0"
"pit-trial","152","1347257","0.0-38.0","battery-v0.2","","""event"",""trial"",""time""
""fullscreenenter"",""1"",""2936""
","
","
","""event"",""trial"",""time""
""fullscreenenter"",""1"",""2936""
","
","","","563","","","10","4638","2016","y","elianto","#f73b6a7A"," "," ","1","0","[1415]","1","2","","","4638","34","2","3","lose","go","0"
"pit-trial","153","1352116","0.0-39.0","battery-v0.2","","""event"",""trial"",""time""
""fullscreenenter"",""1"",""2936""
","
","
","""event"",""trial"",""time""
""fullscreenenter"",""1"",""2936""
","
","","","-1","","","10","4638","2016","h","elianto","#f73b6a7A","-1","-1","1","0","[]","0","2","","","4638","35","3","4","lose","no-go","0"
"pit-trial","154","1355706","0.0-40.0","battery-v0.2","","""event"",""trial"",""time""
""fullscreenenter"",""1"",""2936""
","
","
","""event"",""trial"",""time""
""fullscreenenter"",""1"",""2936""
","
","","","729","","","10","4638","2016","m","elianto","#f73b6a7A"," "," ","1","0","[1582]","1","2","","","4638","36","0","3","lose","go","0"
"pit-trial","155","1359238","0.0-41.0","battery-v0.2","","""event"",""trial"",""time""
""fullscreenenter"",""1"",""2936""
","
","
","""event"",""trial"",""time""
""fullscreenenter"",""1"",""2936""
","
","","","673","","","10","4638","2016","y","elianto","#f73b6a7A"," "," ","1","0","[1523]","1","2","","","4638","37","2","3","lose","go","0"
"pit-trial","156","1363306","0.0-42.0","battery-v0.2","","""event"",""trial"",""time""
""fullscreenenter"",""1"",""2936""
","
","
","""event"",""trial"",""time""
""fullscreenenter"",""1"",""2936""
","
","","","1208","","","10","4638","2016","r","elianto","#3366ff99","-1"," ","0","0","[2058.999999999767]","1","2","","","4638","38","1","2","win","no-go","0"
"pit-trial","157","1368166","0.0-43.0","battery-v0.2","","""event"",""trial"",""time""
""fullscreenenter"",""1"",""2936""
","
","
","""event"",""trial"",""time""
""fullscreenenter"",""1"",""2936""
","
","","","-1","","","10","4638","2016","h","elianto","#f73b6a7A","-1","-1","1","0","[]","0","2","","","4638","39","3","4","lose","no-go","0"
"pit-trial","158","1371860","0.0-44.0","battery-v0.2","","""event"",""trial"",""time""
""fullscreenenter"",""1"",""2936""
","
","
","""event"",""trial"",""time""
""fullscreenenter"",""1"",""2936""
","
","","","836","","","10","4638","2016","m","elianto","#f73b6a7A"," "," ","1","0","[1687]","1","2","","","4638","40","0","3","lose","go","0"
"pit-trial","159","1375534","0.0-45.0","battery-v0.2","","""event"",""trial"",""time""
""fullscreenenter"",""1"",""2936""
","
","
","""event"",""trial"",""time""
""fullscreenenter"",""1"",""2936""
","
","","","815","","","10","4638","2016","m","elianto","#f73b6a7A"," "," ","1","0","[1665]","1","2","","","4638","41","0","3","lose","go","0"
"pit-trial","160","1379152","0.0-46.0","battery-v0.2","","""event"",""trial"",""time""
""fullscreenenter"",""1"",""2936""
","
","
","""event"",""trial"",""time""
""fullscreenenter"",""1"",""2936""
","
","","","757","","","10","4638","2016","y","elianto","#f73b6a7A"," "," ","1","0","[1609]","1","2","","","4638","42","2","3","lose","go","0"
"pit-trial","161","1382855","0.0-47.0","battery-v0.2","","""event"",""trial"",""time""
""fullscreenenter"",""1"",""2936""
","
","
","""event"",""trial"",""time""
""fullscreenenter"",""1"",""2936""
","
","","","843","","","10","4638","2016","r","elianto","#3366ff99","-1"," ","0","0","[1694.9999999997672]","1","2","","","4638","43","1","2","win","no-go","0"
"pit-trial","162","1387715","0.0-48.0","battery-v0.2","","""event"",""trial"",""time""
""fullscreenenter"",""1"",""2936""
","
","
","""event"",""trial"",""time""
""fullscreenenter"",""1"",""2936""
","
","","","-1","","","10","4638","2016","h","elianto","#f73b6a7A","-1","-1","1","0","[]","0","2","","","4638","44","3","4","lose","no-go","0"
"pit-trial","163","1392575","0.0-49.0","battery-v0.2","","""event"",""trial"",""time""
""fullscreenenter"",""1"",""2936""
","
","
","""event"",""trial"",""time""
""fullscreenenter"",""1"",""2936""
","
","","","-1","","","10","4638","2016","h","elianto","#f73b6a7A","-1","-1","1","0","[]","0","2","","","4638","45","3","4","lose","no-go","0"
"pit-trial","164","1396146","0.0-50.0","battery-v0.2","","""event"",""trial"",""time""
""fullscreenenter"",""1"",""2936""
","
","
","""event"",""trial"",""time""
""fullscreenenter"",""1"",""2936""
","
","","","711","","","10","4638","2016","r","elianto","#3366ff99","-1"," ","0","+10","[1562]","1","2","","","4638","46","1","2","win","no-go","1"
"pit-trial","165","1399678","0.0-51.0","battery-v0.2","","""event"",""trial"",""time""
""fullscreenenter"",""1"",""2936""
","
","
","""event"",""trial"",""time""
""fullscreenenter"",""1"",""2936""
","
","","","674.0000000002328","","","10","4638","2016","m","elianto","#f73b6a7A"," "," ","1","0","[1525.0000000002328]","1","2","","","4638","47","0","3","lose","go","0"
"pit-trial","166","1403162","0.0-52.0","battery-v0.2","","""event"",""trial"",""time""
""fullscreenenter"",""1"",""2936""
","
","
","""event"",""trial"",""time""
""fullscreenenter"",""1"",""2936""
","
","","","625","","","10","4638","2016","y","elianto","#f73b6a7A"," "," ","1","0","[1475]","1","2","","","4638","48","2","3","lose","go","0"
"pit-trial","167","1406706","0.0-53.0","battery-v0.2","","""event"",""trial"",""time""
""fullscreenenter"",""1"",""2936""
","
","
","""event"",""trial"",""time""
""fullscreenenter"",""1"",""2936""
","
","","","685","","","10","4638","2016","m","elianto","#f73b6a7A"," "," ","1","0","[1536]","1","2","","","4638","49","0","3","lose","go","0"
"pit-trial","168","1410259","0.0-54.0","battery-v0.2","","""event"",""trial"",""time""
""fullscreenenter"",""1"",""2936""
","
","
","""event"",""trial"",""time""
""fullscreenenter"",""1"",""2936""
","
","","","692","","","10","4638","2016","y","elianto","#f73b6a7A"," "," ","1","0","[1542.9999999997672]","1","2","","","4638","50","2","3","lose","go","0"
"pit-trial","169","1415119","0.0-55.0","battery-v0.2","","""event"",""trial"",""time""
""fullscreenenter"",""1"",""2936""
","
","
","""event"",""trial"",""time""
""fullscreenenter"",""1"",""2936""
","
","","","-1","","","10","4638","2016","h","elianto","#f73b6a7A","-1","-1","1","0","[]","0","2","","","4638","51","3","4","lose","no-go","0"
"pit-trial","170","1418705","0.0-56.0","battery-v0.2","","""event"",""trial"",""time""
""fullscreenenter"",""1"",""2936""
","
","
","""event"",""trial"",""time""
""fullscreenenter"",""1"",""2936""
","
","","","726","","","10","4638","2016","r","elianto","#3366ff99","-1"," ","0","0","[1578]","1","2","","","4638","52","1","2","win","no-go","0"
"pit-trial","171","1423564","0.0-57.0","battery-v0.2","","""event"",""trial"",""time""
""fullscreenenter"",""1"",""2936""
","
","
","""event"",""trial"",""time""
""fullscreenenter"",""1"",""2936""
","
","","","-1","","","10","4638","2016","h","elianto","#f73b6a7A","-1","-1","1","0","[]","0","2","","","4638","53","3","4","lose","no-go","0"
"pit-trial","172","1427352","0.0-58.0","battery-v0.2","","""event"",""trial"",""time""
""fullscreenenter"",""1"",""2936""
","
","
","""event"",""trial"",""time""
""fullscreenenter"",""1"",""2936""
","
","","","929","","","10","4638","2016","r","elianto","#3366ff99","-1"," ","0","0","[1780]","1","2","","","4638","54","1","2","win","no-go","0"
"pit-trial","173","1431000","0.0-59.0","battery-v0.2","","""event"",""trial"",""time""
""fullscreenenter"",""1"",""2936""
","
","
","""event"",""trial"",""time""
""fullscreenenter"",""1"",""2936""
","
","","","787","","","10","4638","2016","m","elianto","#f73b6a7A"," "," ","1","0","[1638.9999999997672]","1","2","","","4638","55","0","3","lose","go","0"
"pit-trial","174","1435339","0.0-60.0","battery-v0.2","","""event"",""trial"",""time""
""fullscreenenter"",""1"",""2936""
","
","
","""event"",""trial"",""time""
""fullscreenenter"",""1"",""2936""
","
","","","1481","","","10","4638","2016","y","elianto","#f73b6a7A"," "," ","1","0","[2331]","1","2","","","4638","56","2","3","lose","go","0"
"pit-trial","175","1439120","0.0-61.0","battery-v0.2","","""event"",""trial"",""time""
""fullscreenenter"",""1"",""2936""
","
","
","""event"",""trial"",""time""
""fullscreenenter"",""1"",""2936""
","
","","","922","","","10","4638","2016","y","elianto","#f73b6a7A"," "," ","1","0","[1772]","1","2","","","4638","57","2","3","lose","go","0"
"pit-trial","176","1442934","0.0-62.0","battery-v0.2","","""event"",""trial"",""time""
""fullscreenenter"",""1"",""2936""
","
","
","""event"",""trial"",""time""
""fullscreenenter"",""1"",""2936""
","
","","","954","","","10","4638","2016","m","elianto","#f73b6a7A"," "," ","1","-10","[1804.9999999997672]","1","2","","","4638","58","0","3","lose","go","1"
"pit-trial","177","1446693","0.0-63.0","battery-v0.2","","""event"",""trial"",""time""
""fullscreenenter"",""1"",""2936""
","
","
","""event"",""trial"",""time""
""fullscreenenter"",""1"",""2936""
","
","","","899","","","10","4638","2016","h","elianto","#f73b6a7A","-1"," ","0","0","[1751]","1","2","","","4638","59","3","4","lose","no-go","1"
"pit-trial","178","1450988","0.0-64.0","battery-v0.2","","""event"",""trial"",""time""
""fullscreenenter"",""1"",""2936""
","
","
","""event"",""trial"",""time""
""fullscreenenter"",""1"",""2936""
","
","","","1435","","","10","4638","2016","z","elianto","#3366ff99"," "," ","1","+10","[2287]","1","2","","","4638","60","4","1","win","go","0"
"pit-trial","179","1454495","0.0-65.0","battery-v0.2","","""event"",""trial"",""time""
""fullscreenenter"",""1"",""2936""
","
","
","""event"",""trial"",""time""
""fullscreenenter"",""1"",""2936""
","
","","","649","","","10","4638","2016","r","elianto","#3366ff99","-1"," ","0","0","[1499,2232,3119]","3","2","","","4638","61","1","2","win","no-go","0"
"pit-trial","180","1458160","0.0-66.0","battery-v0.2","","""event"",""trial"",""time""
""fullscreenenter"",""1"",""2936""
","
","
","""event"",""trial"",""time""
""fullscreenenter"",""1"",""2936""
","
","","","805","","","10","4638","2016","z","elianto","#3366ff99"," "," ","1","+10","[515,654,1656,1948,2659,3554]","6","2","","","4638","62","4","1","win","go","0"
"pit-trial","181","1463019","0.0-67.0","battery-v0.2","","""event"",""trial"",""time""
""fullscreenenter"",""1"",""2936""
","
","
","""event"",""trial"",""time""
""fullscreenenter"",""1"",""2936""
","
","","","-1","","","10","4638","2016","h","elianto","#f73b6a7A","-1","-1","1","-10","[0]","1","2","","","4638","63","3","4","lose","no-go","1"
"pit-trial","182","1466465","0.0-68.0","battery-v0.2","","""event"",""trial"",""time""
""fullscreenenter"",""1"",""2936""
","
","
","""event"",""trial"",""time""
""fullscreenenter"",""1"",""2936""
","
","","","586","","","10","4638","2016","y","elianto","#f73b6a7A"," "," ","1","0","[1438]","1","2","","","4638","64","2","3","lose","go","0"
"pit-trial","183","1470281","0.0-69.0","battery-v0.2","","""event"",""trial"",""time""
""fullscreenenter"",""1"",""2936""
","
","
","""event"",""trial"",""time""
""fullscreenenter"",""1"",""2936""
","
","","","957.0000000002328","","","10","4638","2016","h","elianto","#f73b6a7A","-1"," ","0","-10","[1808]","1","2","","","4638","65","3","4","lose","no-go","0"
"pit-trial","184","1474370","0.0-70.0","battery-v0.2","","""event"",""trial"",""time""
""fullscreenenter"",""1"",""2936""
","
","
","""event"",""trial"",""time""
""fullscreenenter"",""1"",""2936""
","
","","","1231","","","10","4638","2016","c","elianto","#3366ff99","-1"," ","0","0","[2081]","1","2","","","4638","66","5","2","win","no-go","0"
"pit-trial","185","1477968","0.0-71.0","battery-v0.2","","""event"",""trial"",""time""
""fullscreenenter"",""1"",""2936""
","
","
","""event"",""trial"",""time""
""fullscreenenter"",""1"",""2936""
","
","","","739","","","10","4638","2016","r","elianto","#3366ff99","-1"," ","0","0","[1589]","1","2","","","4638","67","1","2","win","no-go","0"
"pit-trial","186","1481930","0.0-72.0","battery-v0.2","","""event"",""trial"",""time""
""fullscreenenter"",""1"",""2936""
","
","
","""event"",""trial"",""time""
""fullscreenenter"",""1"",""2936""
","
","","","1100.9999999997672","","","10","4638","2016","z","elianto","#3366ff99"," "," ","1","+10","[1953]","1","2","","","4638","68","4","1","win","go","0"
"pit-trial","187","1485607","0.0-73.0","battery-v0.2","","""event"",""trial"",""time""
""fullscreenenter"",""1"",""2936""
","
","
","""event"",""trial"",""time""
""fullscreenenter"",""1"",""2936""
","
","","","819.0000000002328","","","10","4638","2016","z","elianto","#3366ff99"," "," ","1","0","[1670.0000000002328]","1","2","","","4638","69","4","1","win","go","1"
"pit-trial","188","1489498","0.0-74.0","battery-v0.2","","""event"",""trial"",""time""
""fullscreenenter"",""1"",""2936""
","
","
","""event"",""trial"",""time""
""fullscreenenter"",""1"",""2936""
","
","","","1032","","","10","4638","2016","y","elianto","#f73b6a7A"," "," ","1","0","[1882]","1","2","","","4638","70","2","3","lose","go","0"
"pit-trial","189","1494357","0.0-75.0","battery-v0.2","","""event"",""trial"",""time""
""fullscreenenter"",""1"",""2936""
","
","
","""event"",""trial"",""time""
""fullscreenenter"",""1"",""2936""
","
","","","-1","","","10","4638","2016","r","elianto","#3366ff99","-1","-1","1","0","[]","0","2","","","4638","71","1","2","win","no-go","1"
"pit-trial","190","1498881","0.0-76.0","battery-v0.2","","""event"",""trial"",""time""
""fullscreenenter"",""1"",""2936""
","
","
","""event"",""trial"",""time""
""fullscreenenter"",""1"",""2936""
","
","","","1666","","","10","4638","2016","c","elianto","#3366ff99","-1"," ","0","0","[2516]","1","2","","","4638","72","5","2","win","no-go","0"
"pit-trial","191","1503173","0.0-77.0","battery-v0.2","","""event"",""trial"",""time""
""fullscreenenter"",""1"",""2936""
","
","
","""event"",""trial"",""time""
""fullscreenenter"",""1"",""2936""
","
","","","1432","","","10","4638","2016","c","elianto","#3366ff99","-1"," ","0","0","[2283]","1","2","","","4638","73","5","2","win","no-go","0"
"pit-trial","192","1507396","0.0-78.0","battery-v0.2","","""event"",""trial"",""time""
""fullscreenenter"",""1"",""2936""
","
","
","""event"",""trial"",""time""
""fullscreenenter"",""1"",""2936""
","
","","","1364.0000000002328","","","10","4638","2016","h","elianto","#f73b6a7A","-1"," ","0","-10","[2214.000000000233]","1","2","","","4638","74","3","4","lose","no-go","0"
"pit-trial","193","1511093","0.0-79.0","battery-v0.2","","""event"",""trial"",""time""
""fullscreenenter"",""1"",""2936""
","
","
","""event"",""trial"",""time""
""fullscreenenter"",""1"",""2936""
","
","","","839","","","10","4638","2016","z","elianto","#3366ff99"," "," ","1","+10","[1688.9999999997672]","1","2","","","4638","75","4","1","win","go","0"
"pit-trial","194","1514779","0.0-80.0","battery-v0.2","","""event"",""trial"",""time""
""fullscreenenter"",""1"",""2936""
","
","
","""event"",""trial"",""time""
""fullscreenenter"",""1"",""2936""
","
","","","825.9999999997672","","","10","4638","2016","r","elianto","#3366ff99","-1"," ","0","0","[1677]","1","2","","","4638","76","1","2","win","no-go","0"
"pit-trial","195","1518321","0.0-81.0","battery-v0.2","","""event"",""trial"",""time""
""fullscreenenter"",""1"",""2936""
","
","
","""event"",""trial"",""time""
""fullscreenenter"",""1"",""2936""
","
","","","683","","","10","4638","2016","c","elianto","#3366ff99","-1"," ","0","+10","[1535]","1","2","","","4638","77","5","2","win","no-go","1"
"pit-trial","196","1521726","0.0-82.0","battery-v0.2","","""event"",""trial"",""time""
""fullscreenenter"",""1"",""2936""
","
","
","""event"",""trial"",""time""
""fullscreenenter"",""1"",""2936""
","
","","","546","","","10","4638","2016","z","elianto","#3366ff99"," "," ","1","+10","[1397]","1","2","","","4638","78","4","1","win","go","0"
"pit-trial","197","1526585","0.0-83.0","battery-v0.2","","""event"",""trial"",""time""
""fullscreenenter"",""1"",""2936""
","
","
","""event"",""trial"",""time""
""fullscreenenter"",""1"",""2936""
","
","","","-1","","","10","4638","2016","h","elianto","#f73b6a7A","-1","-1","1","-10","[3437]","1","2","","","4638","79","3","4","lose","no-go","1"
"pit-trial","198","1530084","0.0-84.0","battery-v0.2","","""event"",""trial"",""time""
""fullscreenenter"",""1"",""2936""
","
","
","""event"",""trial"",""time""
""fullscreenenter"",""1"",""2936""
","
","","","640","","","10","4638","2016","z","elianto","#3366ff99"," "," ","1","+10","[1491]","1","2","","","4638","80","4","1","win","go","0"
"pit-trial","199","1534943","0.0-85.0","battery-v0.2","","""event"",""trial"",""time""
""fullscreenenter"",""1"",""2936""
","
","
","""event"",""trial"",""time""
""fullscreenenter"",""1"",""2936""
","
","","","-1","","","10","4638","2016","h","elianto","#f73b6a7A","-1","-1","1","-10","[]","0","2","","","4638","81","3","4","lose","no-go","1"
"pit-trial","200","1539055","0.0-86.0","battery-v0.2","","""event"",""trial"",""time""
""fullscreenenter"",""1"",""2936""
","
","
","""event"",""trial"",""time""
""fullscreenenter"",""1"",""2936""
","
","","","1251","","","10","4638","2016","t","elianto","#f73b6a7A","-1"," ","0","0","[2102,2835.000000000233]","2","2","","","4638","82","7","4","lose","no-go","1"
"pit-trial","201","1542650","0.0-87.0","battery-v0.2","","""event"",""trial"",""time""
""fullscreenenter"",""1"",""2936""
","
","
","""event"",""trial"",""time""
""fullscreenenter"",""1"",""2936""
","
","","","736.9999999997672","","","10","4638","2016","z","elianto","#3366ff99"," "," ","1","+10","[1588]","1","2","","","4638","83","4","1","win","go","0"
"pit-trial","202","1546250","0.0-88.0","battery-v0.2","","""event"",""trial"",""time""
""fullscreenenter"",""1"",""2936""
","
","
","""event"",""trial"",""time""
""fullscreenenter"",""1"",""2936""
","
","","","740","","","10","4638","2016","c","elianto","#3366ff99","-1"," ","0","0","[1593,2122]","2","2","","","4638","84","5","2","win","no-go","0"
"pit-trial","203","1549863","0.0-89.0","battery-v0.2","","""event"",""trial"",""time""
""fullscreenenter"",""1"",""2936""
","
","
","""event"",""trial"",""time""
""fullscreenenter"",""1"",""2936""
","
","","","753","","","10","4638","2016","t","elianto","#f73b6a7A","-1"," ","0","-10","[1604.9999999997672]","1","2","","","4638","85","7","4","lose","no-go","0"
"pit-trial","204","1554723","0.0-90.0","battery-v0.2","","""event"",""trial"",""time""
""fullscreenenter"",""1"",""2936""
","
","
","""event"",""trial"",""time""
""fullscreenenter"",""1"",""2936""
","
","","","-1","","","10","4638","2016","b","elianto","#f73b6a7A"," ","-1","0","-10","[4023,4498]","2","2","","","4638","86","6","3","lose","go","0"
"pit-trial","205","1557679","0.0-91.0","battery-v0.2","","""event"",""trial"",""time""
""fullscreenenter"",""1"",""2936""
","
","
","""event"",""trial"",""time""
""fullscreenenter"",""1"",""2936""
","
","","","96","","","10","4638","2016","z","elianto","#3366ff99"," "," ","1","+10","[260,485,714,947,1746,1899]","6","2","","","4638","87","4","1","win","go","0"
"pit-trial","206","1561386","0.0-92.0","battery-v0.2","","""event"",""trial"",""time""
""fullscreenenter"",""1"",""2936""
","
","
","""event"",""trial"",""time""
""fullscreenenter"",""1"",""2936""
","
","","","848","","","10","4638","2016","c","elianto","#3366ff99","-1"," ","0","+10","[1699]","1","2","","","4638","88","5","2","win","no-go","1"
"pit-trial","207","1565434","0.0-93.0","battery-v0.2","","""event"",""trial"",""time""
""fullscreenenter"",""1"",""2936""
","
","
","""event"",""trial"",""time""
""fullscreenenter"",""1"",""2936""
","
","","","1189","","","10","4638","2016","b","elianto","#f73b6a7A"," "," ","1","0","[2040]","1","2","","","4638","89","6","3","lose","go","0"
"pit-trial","208","1569211","0.0-94.0","battery-v0.2","","""event"",""trial"",""time""
""fullscreenenter"",""1"",""2936""
","
","
","""event"",""trial"",""time""
""fullscreenenter"",""1"",""2936""
","
","","","917","","","10","4638","2016","z","elianto","#3366ff99"," "," ","1","+10","[1768]","1","2","","","4638","90","4","1","win","go","0"
"pit-trial","209","1572756","0.0-95.0","battery-v0.2","","""event"",""trial"",""time""
""fullscreenenter"",""1"",""2936""
","
","
","""event"",""trial"",""time""
""fullscreenenter"",""1"",""2936""
","
","","","684","","","10","4638","2016","c","elianto","#3366ff99","-1"," ","0","+10","[1535]","1","2","","","4638","91","5","2","win","no-go","1"
"pit-trial","210","1576634","0.0-96.0","battery-v0.2","","""event"",""trial"",""time""
""fullscreenenter"",""1"",""2936""
","
","
","""event"",""trial"",""time""
""fullscreenenter"",""1"",""2936""
","
","","","1018.0000000002328","","","10","4638","2016","t","elianto","#f73b6a7A","-1"," ","0","-10","[1868.0000000002328]","1","2","","","4638","92","7","4","lose","no-go","0"
"pit-trial","211","1580404","0.0-97.0","battery-v0.2","","""event"",""trial"",""time""
""fullscreenenter"",""1"",""2936""
","
","
","""event"",""trial"",""time""
""fullscreenenter"",""1"",""2936""
","
","","","909","","","10","4638","2016","b","elianto","#f73b6a7A"," "," ","1","0","[1761]","1","2","","","4638","93","6","3","lose","go","0"
"pit-trial","212","1584531","0.0-98.0","battery-v0.2","","""event"",""trial"",""time""
""fullscreenenter"",""1"",""2936""
","
","
","""event"",""trial"",""time""
""fullscreenenter"",""1"",""2936""
","
","","","1268","","","10","4638","2016","c","elianto","#3366ff99","-1"," ","0","+10","[2118]","1","2","","","4638","94","5","2","win","no-go","1"
"pit-trial","213","1588668","0.0-99.0","battery-v0.2","","""event"",""trial"",""time""
""fullscreenenter"",""1"",""2936""
","
","
","""event"",""trial"",""time""
""fullscreenenter"",""1"",""2936""
","
","","","1277","","","10","4638","2016","f","elianto","#3366ff99"," "," ","1","+10","[2128]","1","2","","","4638","95","8","1","win","go","0"
"pit-trial","214","1592824","0.0-100.0","battery-v0.2","","""event"",""trial"",""time""
""fullscreenenter"",""1"",""2936""
","
","
","""event"",""trial"",""time""
""fullscreenenter"",""1"",""2936""
","
","","","1296","","","10","4638","2016","t","elianto","#f73b6a7A","-1"," ","0","-10","[2148]","1","2","","","4638","96","7","4","lose","no-go","0"
"pit-trial","215","1596901","0.0-101.0","battery-v0.2","","""event"",""trial"",""time""
""fullscreenenter"",""1"",""2936""
","
","
","""event"",""trial"",""time""
""fullscreenenter"",""1"",""2936""
","
","","","1219.0000000002328","","","10","4638","2016","b","elianto","#f73b6a7A"," "," ","1","0","[2070.000000000233]","1","2","","","4638","97","6","3","lose","go","0"
"pit-trial","216","1601090","0.0-102.0","battery-v0.2","","""event"",""trial"",""time""
""fullscreenenter"",""1"",""2936""
","
","
","""event"",""trial"",""time""
""fullscreenenter"",""1"",""2936""
","
","","","1328","","","10","4638","2016","c","elianto","#3366ff99","-1"," ","0","+10","[2181]","1","2","","","4638","98","5","2","win","no-go","1"
"pit-trial","217","1605068","0.0-103.0","battery-v0.2","","""event"",""trial"",""time""
""fullscreenenter"",""1"",""2936""
","
","
","""event"",""trial"",""time""
""fullscreenenter"",""1"",""2936""
","
","","","1118","","","10","4638","2016","f","elianto","#3366ff99"," "," ","1","+10","[1968]","1","2","","","4638","99","8","1","win","go","0"
"pit-trial","218","1608957","0.0-104.0","battery-v0.2","","""event"",""trial"",""time""
""fullscreenenter"",""1"",""2936""
","
","
","""event"",""trial"",""time""
""fullscreenenter"",""1"",""2936""
","
","","","1029","","","10","4638","2016","t","elianto","#f73b6a7A","-1"," ","0","-10","[1881]","1","2","","","4638","100","7","4","lose","no-go","0"
"pit-trial","219","1612713","0.0-105.0","battery-v0.2","","""event"",""trial"",""time""
""fullscreenenter"",""1"",""2936""
","
","
","""event"",""trial"",""time""
""fullscreenenter"",""1"",""2936""
","
","","","897","","","10","4638","2016","c","elianto","#3366ff99","-1"," ","0","0","[1748]","1","2","","","4638","101","5","2","win","no-go","0"
"pit-trial","220","1616706","0.0-106.0","battery-v0.2","","""event"",""trial"",""time""
""fullscreenenter"",""1"",""2936""
","
","
","""event"",""trial"",""time""
""fullscreenenter"",""1"",""2936""
","
","","","1134","","","10","4638","2016","f","elianto","#3366ff99"," "," ","1","+10","[1985]","1","2","","","4638","102","8","1","win","go","0"
"pit-trial","221","1620471","0.0-107.0","battery-v0.2","","""event"",""trial"",""time""
""fullscreenenter"",""1"",""2936""
","
","
","""event"",""trial"",""time""
""fullscreenenter"",""1"",""2936""
","
","","","907","","","10","4638","2016","t","elianto","#f73b6a7A","-1"," ","0","-10","[1757]","1","2","","","4638","103","7","4","lose","no-go","0"
"pit-trial","222","1624533","0.0-108.0","battery-v0.2","","""event"",""trial"",""time""
""fullscreenenter"",""1"",""2936""
","
","
","""event"",""trial"",""time""
""fullscreenenter"",""1"",""2936""
","
","","","1202","","","10","4638","2016","n","elianto","#3366ff99"," "," ","1","+10","[2052]","1","2","","","4638","104","9","1","win","go","0"
"pit-trial","223","1628381","0.0-109.0","battery-v0.2","","""event"",""trial"",""time""
""fullscreenenter"",""1"",""2936""
","
","
","""event"",""trial"",""time""
""fullscreenenter"",""1"",""2936""
","
","","","989.0000000002328","","","10","4638","2016","f","elianto","#3366ff99"," "," ","1","+10","[1840.0000000002328]","1","2","","","4638","105","8","1","win","go","0"
"pit-trial","224","1632254","0.0-110.0","battery-v0.2","","""event"",""trial"",""time""
""fullscreenenter"",""1"",""2936""
","
","
","""event"",""trial"",""time""
""fullscreenenter"",""1"",""2936""
","
","","","1013","","","10","4638","2016","b","elianto","#f73b6a7A"," "," ","1","-10","[1863.9999999997672]","1","2","","","4638","106","6","3","lose","go","1"
"pit-trial","225","1636224","0.0-111.0","battery-v0.2","","""event"",""trial"",""time""
""fullscreenenter"",""1"",""2936""
","
","
","""event"",""trial"",""time""
""fullscreenenter"",""1"",""2936""
","
","","","1111","","","10","4638","2016","z","elianto","#3366ff99"," "," ","1","+10","[1962]","1","2","","","4638","107","4","1","win","go","0"
"pit-trial","226","1640608","0.0-112.0","battery-v0.2","","""event"",""trial"",""time""
""fullscreenenter"",""1"",""2936""
","
","
","""event"",""trial"",""time""
""fullscreenenter"",""1"",""2936""
","
","","","1526","","","10","4638","2016","n","elianto","#3366ff99"," "," ","1","+10","[2377,2506]","2","2","","","4638","108","9","1","win","go","0"
"pit-trial","227","1644465","0.0-113.0","battery-v0.2","","""event"",""trial"",""time""
""fullscreenenter"",""1"",""2936""
","
","
","""event"",""trial"",""time""
""fullscreenenter"",""1"",""2936""
","
","","","996","","","10","4638","2016","c","elianto","#3366ff99","-1"," ","0","0","[1848]","1","2","","","4638","109","5","2","win","no-go","0"
"pit-trial","228","1649299","0.0-114.0","battery-v0.2","","""event"",""trial"",""time""
""fullscreenenter"",""1"",""2936""
","
","
","""event"",""trial"",""time""
""fullscreenenter"",""1"",""2936""
","
","","","1974","","","10","4638","2016","b","elianto","#f73b6a7A"," "," ","1","-10","[2825,2981]","2","2","","","4638","110","6","3","lose","go","1"
"pit-trial","229","1652846","0.0-115.0","battery-v0.2","","""event"",""trial"",""time""
""fullscreenenter"",""1"",""2936""
","
","
","""event"",""trial"",""time""
""fullscreenenter"",""1"",""2936""
","
","","","685","","","10","4638","2016","f","elianto","#3366ff99"," "," ","1","+10","[582,1538]","2","2","","","4638","111","8","1","win","go","0"
"pit-trial","230","1656397","0.0-116.0","battery-v0.2","","""event"",""trial"",""time""
""fullscreenenter"",""1"",""2936""
","
","
","""event"",""trial"",""time""
""fullscreenenter"",""1"",""2936""
","
","","","692","","","10","4638","2016","n","elianto","#3366ff99"," "," ","1","+10","[1543]","1","2","","","4638","112","9","1","win","go","0"
"pit-trial","231","1659952","0.0-117.0","battery-v0.2","","""event"",""trial"",""time""
""fullscreenenter"",""1"",""2936""
","
","
","""event"",""trial"",""time""
""fullscreenenter"",""1"",""2936""
","
","","","696","","","10","4638","2016","c","elianto","#3366ff99","-1"," ","0","0","[1547]","1","2","","","4638","113","5","2","win","no-go","0"
"pit-trial","232","1663630","0.0-118.0","battery-v0.2","","""event"",""trial"",""time""
""fullscreenenter"",""1"",""2936""
","
","
","""event"",""trial"",""time""
""fullscreenenter"",""1"",""2936""
","
","","","818","","","10","4638","2016","b","elianto","#f73b6a7A"," "," ","1","0","[1670.0000000002328]","1","2","","","4638","114","6","3","lose","go","0"
"pit-trial","233","1667347","0.0-119.0","battery-v0.2","","""event"",""trial"",""time""
""fullscreenenter"",""1"",""2936""
","
","
","""event"",""trial"",""time""
""fullscreenenter"",""1"",""2936""
","
","","","859","","","10","4638","2016","n","elianto","#3366ff99"," "," ","1","0","[1710]","1","2","","","4638","115","9","1","win","go","1"
"pit-trial","234","1670934","0.0-120.0","battery-v0.2","","""event"",""trial"",""time""
""fullscreenenter"",""1"",""2936""
","
","
","""event"",""trial"",""time""
""fullscreenenter"",""1"",""2936""
","
","","","727","","","10","4638","2016","f","elianto","#3366ff99"," "," ","1","+10","[1578]","1","2","","","4638","116","8","1","win","go","0"
"pit-trial","235","1674558","0.0-121.0","battery-v0.2","","""event"",""trial"",""time""
""fullscreenenter"",""1"",""2936""
","
","
","""event"",""trial"",""time""
""fullscreenenter"",""1"",""2936""
","
","","","764","","","10","4638","2016","f","elianto","#3366ff99"," "," ","1","+10","[1616]","1","2","","","4638","117","8","1","win","go","0"
"pit-trial","236","1678478","0.0-122.0","battery-v0.2","","""event"",""trial"",""time""
""fullscreenenter"",""1"",""2936""
","
","
","""event"",""trial"",""time""
""fullscreenenter"",""1"",""2936""
","
","","","1060","","","10","4638","2016","n","elianto","#3366ff99"," "," ","1","+10","[1911]","1","2","","","4638","118","9","1","win","go","0"
"pit-trial","237","1682951","0.0-123.0","battery-v0.2","","""event"",""trial"",""time""
""fullscreenenter"",""1"",""2936""
","
","
","""event"",""trial"",""time""
""fullscreenenter"",""1"",""2936""
","
","","","1614","","","10","4638","2016","c","elianto","#3366ff99","-1"," ","0","+10","[2465]","1","2","","","4638","119","5","2","win","no-go","1"
"pit-trial","238","1686737","0.0-124.0","battery-v0.2","","""event"",""trial"",""time""
""fullscreenenter"",""1"",""2936""
","
","
","""event"",""trial"",""time""
""fullscreenenter"",""1"",""2936""
","
","","","926.9999999997672","","","10","4638","2016","b","elianto","#f73b6a7A"," "," ","1","0","[1779]","1","2","","","4638","120","6","3","lose","go","0"
"pit-trial","239","1690530","0.0-125.0","battery-v0.2","","""event"",""trial"",""time""
""fullscreenenter"",""1"",""2936""
","
","
","""event"",""trial"",""time""
""fullscreenenter"",""1"",""2936""
","
","","","934","","","10","4638","2016","b","elianto","#f73b6a7A"," "," ","1","0","[1784]","1","2","","","4638","121","6","3","lose","go","0"
"pit-trial","240","1695390","0.0-126.0","battery-v0.2","","""event"",""trial"",""time""
""fullscreenenter"",""1"",""2936""
","
","
","""event"",""trial"",""time""
""fullscreenenter"",""1"",""2936""
","
","","","-1","","","10","4638","2016","t","elianto","#f73b6a7A","-1","-1","1","0","[]","0","2","","","4638","122","7","4","lose","no-go","0"
"pit-trial","241","1700250","0.0-127.0","battery-v0.2","","""event"",""trial"",""time""
""fullscreenenter"",""1"",""2936""
","
","
","""event"",""trial"",""time""
""fullscreenenter"",""1"",""2936""
","
","","","-1","","","10","4638","2016","f","elianto","#3366ff99"," ","-1","0","0","[]","0","2","","","4638","123","8","1","win","go","0"
"pit-trial","242","1705109","0.0-128.0","battery-v0.2","","""event"",""trial"",""time""
""fullscreenenter"",""1"",""2936""
","
","
","""event"",""trial"",""time""
""fullscreenenter"",""1"",""2936""
","
","","","-1","","","10","4638","2016","n","elianto","#3366ff99"," ","-1","0","0","[4416]","1","2","","","4638","124","9","1","win","go","0"
"pit-trial","243","1708741","0.0-129.0","battery-v0.2","","""event"",""trial"",""time""
""fullscreenenter"",""1"",""2936""
","
","
","""event"",""trial"",""time""
""fullscreenenter"",""1"",""2936""
","
","","","772","","","10","4638","2016","n","elianto","#3366ff99"," "," ","1","0","[1622.9999999997672]","1","2","","","4638","125","9","1","win","go","1"
"pit-trial","244","1712649","0.0-130.0","battery-v0.2","","""event"",""trial"",""time""
""fullscreenenter"",""1"",""2936""
","
","
","""event"",""trial"",""time""
""fullscreenenter"",""1"",""2936""
","
","","","1050","","","10","4638","2016","t","elianto","#f73b6a7A","-1"," ","0","0","[1901]","1","2","","","4638","126","7","4","lose","no-go","1"
"pit-trial","245","1716414","0.0-131.0","battery-v0.2","","""event"",""trial"",""time""
""fullscreenenter"",""1"",""2936""
","
","
","""event"",""trial"",""time""
""fullscreenenter"",""1"",""2936""
","
","","","905","","","10","4638","2016","b","elianto","#f73b6a7A"," "," ","1","-10","[1755]","1","2","","","4638","127","6","3","lose","go","1"
"pit-trial","246","1720948","0.0-132.0","battery-v0.2","","""event"",""trial"",""time""
""fullscreenenter"",""1"",""2936""
","
","
","""event"",""trial"",""time""
""fullscreenenter"",""1"",""2936""
","
","","","1675","","","10","4638","2016","f","elianto","#3366ff99"," "," ","1","0","[2526]","1","2","","","4638","128","8","1","win","go","1"
"pit-trial","247","1725808","0.0-133.0","battery-v0.2","","""event"",""trial"",""time""
""fullscreenenter"",""1"",""2936""
","
","
","""event"",""trial"",""time""
""fullscreenenter"",""1"",""2936""
","
","","","-1","","","10","4638","2016","f","elianto","#3366ff99"," ","-1","0","0","[]","0","2","","","4638","129","8","1","win","go","0"
"pit-trial","248","1729895","0.0-134.0","battery-v0.2","","""event"",""trial"",""time""
""fullscreenenter"",""1"",""2936""
","
","
","""event"",""trial"",""time""
""fullscreenenter"",""1"",""2936""
","
","","","1228.0000000002328","","","10","4638","2016","b","elianto","#f73b6a7A"," "," ","1","0","[2078]","1","2","","","4638","130","6","3","lose","go","0"
"pit-trial","249","1734754","0.0-135.0","battery-v0.2","","""event"",""trial"",""time""
""fullscreenenter"",""1"",""2936""
","
","
","""event"",""trial"",""time""
""fullscreenenter"",""1"",""2936""
","
","","","-1","","","10","4638","2016","t","elianto","#f73b6a7A","-1","-1","1","0","[3171]","1","2","","","4638","131","7","4","lose","no-go","0"
"pit-trial","250","1739123","0.0-136.0","battery-v0.2","","""event"",""trial"",""time""
""fullscreenenter"",""1"",""2936""
","
","
","""event"",""trial"",""time""
""fullscreenenter"",""1"",""2936""
","
","","","1510","","","10","4638","2016","n","elianto","#3366ff99"," "," ","1","0","[2360]","1","2","","","4638","132","9","1","win","go","1"
"pit-trial","251","1743982","0.0-137.0","battery-v0.2","","""event"",""trial"",""time""
""fullscreenenter"",""1"",""2936""
","
","
","""event"",""trial"",""time""
""fullscreenenter"",""1"",""2936""
","
","","","-1","","","10","4638","2016","f","elianto","#3366ff99"," ","-1","0","0","[]","0","2","","","4638","133","8","1","win","go","0"
"pit-trial","252","1748842","0.0-138.0","battery-v0.2","","""event"",""trial"",""time""
""fullscreenenter"",""1"",""2936""
","
","
","""event"",""trial"",""time""
""fullscreenenter"",""1"",""2936""
","
","","","-1","","","10","4638","2016","t","elianto","#f73b6a7A","-1","-1","1","-10","[]","0","2","","","4638","134","7","4","lose","no-go","1"
"pit-trial","253","1753701","0.0-139.0","battery-v0.2","","""event"",""trial"",""time""
""fullscreenenter"",""1"",""2936""
","
","
","""event"",""trial"",""time""
""fullscreenenter"",""1"",""2936""
","
","","","-1","","","10","4638","2016","n","elianto","#3366ff99"," ","-1","0","0","[]","0","2","","","4638","135","9","1","win","go","0"
"pit-trial","254","1758560","0.0-140.0","battery-v0.2","","""event"",""trial"",""time""
""fullscreenenter"",""1"",""2936""
","
","
","""event"",""trial"",""time""
""fullscreenenter"",""1"",""2936""
","
","","","-1","","","10","4638","2016","b","elianto","#f73b6a7A"," ","-1","0","0","[]","0","2","","","4638","136","6","3","lose","go","1"
"pit-trial","255","1763105","0.0-141.0","battery-v0.2","","""event"",""trial"",""time""
""fullscreenenter"",""1"",""2936""
","
","
","""event"",""trial"",""time""
""fullscreenenter"",""1"",""2936""
","
","","","1685","","","10","4638","2016","b","elianto","#f73b6a7A"," "," ","1","0","[2536]","1","2","","","4638","137","6","3","lose","go","0"
"pit-trial","256","1767964","0.0-142.0","battery-v0.2","","""event"",""trial"",""time""
""fullscreenenter"",""1"",""2936""
","
","
","""event"",""trial"",""time""
""fullscreenenter"",""1"",""2936""
","
","","","-1","","","10","4638","2016","t","elianto","#f73b6a7A","-1","-1","1","0","[]","0","2","","","4638","138","7","4","lose","no-go","0"
"pit-trial","257","1772821","0.0-143.0","battery-v0.2","","""event"",""trial"",""time""
""fullscreenenter"",""1"",""2936""
","
","
","""event"",""trial"",""time""
""fullscreenenter"",""1"",""2936""
","
","","","-1","","","10","4638","2016","f","elianto","#3366ff99"," ","-1","0","0","[]","0","2","","","4638","139","8","1","win","go","0"
"pit-trial","258","1777680","0.0-144.0","battery-v0.2","","""event"",""trial"",""time""
""fullscreenenter"",""1"",""2936""
""blur"",""259"",""2035663""
""focus"",""259"",""2043645""
","""event"",""trial"",""time""
""blur"",""259"",""2035663""
","""event"",""trial"",""time""
""focus"",""259"",""2043645""
","""event"",""trial"",""time""
""fullscreenenter"",""1"",""2936""
","
","","","-1","","","10","4638","2016","n","elianto","#3366ff99"," ","-1","0","0","[3152]","1","2","","","4638","140","9","1","win","go","0"
"pit-instructions","259","2059377","0.0-145.0","battery-v0.2","","""event"",""trial"",""time""
""fullscreenenter"",""1"",""2936""
""blur"",""259"",""2035663""
""focus"",""259"",""2043645""
","""event"",""trial"",""time""
""blur"",""259"",""2035663""
","""event"",""trial"",""time""
""focus"",""259"",""2043645""
","""event"",""trial"",""time""
""fullscreenenter"",""1"",""2936""
","
","","[{""page_index"":0,""viewing_time"":270369},{""page_index"":1,""viewing_time"":11332.000000000233}]","281702","","","","","","","","","","","","","","","","","","","","","","","",""
"pit-trial","260","2062878","0.0-146.0","battery-v0.2","","""event"",""trial"",""time""
""fullscreenenter"",""1"",""2936""
""blur"",""259"",""2035663""
""focus"",""259"",""2043645""
","""event"",""trial"",""time""
""blur"",""259"",""2035663""
","""event"",""trial"",""time""
""focus"",""259"",""2043645""
","""event"",""trial"",""time""
""fullscreenenter"",""1"",""2936""
","
","","","638","","","10","4638","2016","j","elianto","#f73b6a7A","-1"," ","0","0","[1489]","1","3","","","4638","141","0","4","lose","no-go","1"
"pit-trial","261","2066275","0.0-147.0","battery-v0.2","","""event"",""trial"",""time""
""fullscreenenter"",""1"",""2936""
""blur"",""259"",""2035663""
""focus"",""259"",""2043645""
","""event"",""trial"",""time""
""blur"",""259"",""2035663""
","""event"",""trial"",""time""
""focus"",""259"",""2043645""
","""event"",""trial"",""time""
""fullscreenenter"",""1"",""2936""
","
","","","538","","","10","4638","2016","d","elianto","#3366ff99"," "," ","1","+10","[1388]","1","3","","","4638","142","1","1","win","go","0"
"pit-trial","262","2069907","0.0-148.0","battery-v0.2","","""event"",""trial"",""time""
""fullscreenenter"",""1"",""2936""
""blur"",""259"",""2035663""
""focus"",""259"",""2043645""
","""event"",""trial"",""time""
""blur"",""259"",""2035663""
","""event"",""trial"",""time""
""focus"",""259"",""2043645""
","""event"",""trial"",""time""
""fullscreenenter"",""1"",""2936""
","
","","","774.0000000004657","","","10","4638","2016","w","elianto","#f73b6a7A"," "," ","1","0","[1624.0000000002328]","1","3","","","4638","143","3","3","lose","go","0"
"pit-trial","263","2073348","0.0-149.0","battery-v0.2","","""event"",""trial"",""time""
""fullscreenenter"",""1"",""2936""
""blur"",""259"",""2035663""
""focus"",""259"",""2043645""
","""event"",""trial"",""time""
""blur"",""259"",""2035663""
","""event"",""trial"",""time""
""focus"",""259"",""2043645""
","""event"",""trial"",""time""
""fullscreenenter"",""1"",""2936""
","
","","","581","","","10","4638","2016","e","elianto","#f73b6a7A","-1"," ","0","0","[1431.9999999997672]","1","3","","","4638","144","2","4","lose","no-go","1"
"pit-trial","264","2076782","0.0-150.0","battery-v0.2","","""event"",""trial"",""time""
""fullscreenenter"",""1"",""2936""
""blur"",""259"",""2035663""
""focus"",""259"",""2043645""
","""event"",""trial"",""time""
""blur"",""259"",""2035663""
","""event"",""trial"",""time""
""focus"",""259"",""2043645""
","""event"",""trial"",""time""
""fullscreenenter"",""1"",""2936""
","
","","","576","","","10","4638","2016","d","elianto","#3366ff99"," "," ","1","+10","[1426.0000000004657]","1","3","","","4638","145","1","1","win","go","0"
"pit-trial","265","2080249","0.0-151.0","battery-v0.2","","""event"",""trial"",""time""
""fullscreenenter"",""1"",""2936""
""blur"",""259"",""2035663""
""focus"",""259"",""2043645""
","""event"",""trial"",""time""
""blur"",""259"",""2035663""
","""event"",""trial"",""time""
""focus"",""259"",""2043645""
","""event"",""trial"",""time""
""fullscreenenter"",""1"",""2936""
","
","","","606.9999999997672","","","10","4638","2016","j","elianto","#f73b6a7A","-1"," ","0","-10","[1457.9999999995343]","1","3","","","4638","146","0","4","lose","no-go","0"
"pit-trial","266","2083919","0.0-152.0","battery-v0.2","","""event"",""trial"",""time""
""fullscreenenter"",""1"",""2936""
""blur"",""259"",""2035663""
""focus"",""259"",""2043645""
","""event"",""trial"",""time""
""blur"",""259"",""2035663""
","""event"",""trial"",""time""
""focus"",""259"",""2043645""
","""event"",""trial"",""time""
""fullscreenenter"",""1"",""2936""
","
","","","810","","","10","4638","2016","w","elianto","#f73b6a7A"," "," ","1","0","[1661.0000000002328]","1","3","","","4638","147","3","3","lose","go","0"
"pit-trial","267","2087453","0.0-153.0","battery-v0.2","","""event"",""trial"",""time""
""fullscreenenter"",""1"",""2936""
""blur"",""259"",""2035663""
""focus"",""259"",""2043645""
","""event"",""trial"",""time""
""blur"",""259"",""2035663""
","""event"",""trial"",""time""
""focus"",""259"",""2043645""
","""event"",""trial"",""time""
""fullscreenenter"",""1"",""2936""
","
","","","672.9999999997672","","","10","4638","2016","e","elianto","#f73b6a7A","-1"," ","0","-10","[1525]","1","3","","","4638","148","2","4","lose","no-go","0"
"pit-trial","268","2091277","0.0-154.0","battery-v0.2","","""event"",""trial"",""time""
""fullscreenenter"",""1"",""2936""
""blur"",""259"",""2035663""
""focus"",""259"",""2043645""
","""event"",""trial"",""time""
""blur"",""259"",""2035663""
","""event"",""trial"",""time""
""focus"",""259"",""2043645""
","""event"",""trial"",""time""
""fullscreenenter"",""1"",""2936""
","
","","","963.9999999997672","","","10","4638","2016","j","elianto","#f73b6a7A","-1"," ","0","-10","[1814.9999999995343]","1","3","","","4638","149","0","4","lose","no-go","0"
"pit-trial","269","2094895","0.0-155.0","battery-v0.2","","""event"",""trial"",""time""
""fullscreenenter"",""1"",""2936""
