"trial_type","trial_index","time_elapsed","internal_node_id","task_version","subject_id","interactions","blur_events","focus_events","fullscreenenter_events","fullscreenexit_events","success","view_history","rt","responses","num_errors","age","subject","participantId","rune","rune_set","hex","correct","choice","accuracy","outcome","keys","total_keys","block","practice","value","sub","trial","stimulus","robot","valence","action","sham"
"pavlovia","0","6","0.0-0.0","battery-v0.2","","""event"",""trial"",""time""
""fullscreenenter"",""1"",""1945""
","
","
","""event"",""trial"",""time""
""fullscreenenter"",""1"",""1945""
","
","","","","","","","","","","","","","","","","","","","","","","","","","","",""
"fullscreen","1","2924","0.0-1.0","battery-v0.2","","""event"",""trial"",""time""
""fullscreenenter"",""1"",""1945""
","
","
","""event"",""trial"",""time""
""fullscreenenter"",""1"",""1945""
","
","true","","","","","","","","","","","","","","","","","","","","","","","","","",""
"pit-instructions","2","6126","0.0-2.0-0.0","battery-v0.2","","""event"",""trial"",""time""
""fullscreenenter"",""1"",""1945""
","
","
","""event"",""trial"",""time""
""fullscreenenter"",""1"",""1945""
","
","","[{""page_index"":0,""viewing_time"":3200.199999988079}]","3200.400000035763","","","","","","","","","","","","","","","","","","","","","","","",""
"pit-comprehension","3","8887","0.0-2.0-1.0-0.0","battery-v0.2","","""event"",""trial"",""time""
""fullscreenenter"",""1"",""1945""
","
","
","""event"",""trial"",""time""
""fullscreenenter"",""1"",""1945""
","
","","","2758.600000023842","[""shark""]","0","11","10579","4934","","","","","","","","","","","","","","","","","","",""
"pit-instructions","4","14717","0.0-2.0-1.0-1.0","battery-v0.2","","""event"",""trial"",""time""
""fullscreenenter"",""1"",""1945""
","
","
","""event"",""trial"",""time""
""fullscreenenter"",""1"",""1945""
","
","","[{""page_index"":0,""viewing_time"":5825.899999976158}]","5826","","","","","","","","","","","","","","","","","","","","","","","",""
"pit-comprehension","5","19997","0.0-2.0-2.0-0.0","battery-v0.2","","""event"",""trial"",""time""
""fullscreenenter"",""1"",""1945""
","
","
","""event"",""trial"",""time""
""fullscreenenter"",""1"",""1945""
","
","","","5278","[""tiger""]","0","11","10579","4934","","","","","","","","","","","","","","","","","","",""
"pit-instructions","6","22084","0.0-2.0-2.0-1.0","battery-v0.2","","""event"",""trial"",""time""
""fullscreenenter"",""1"",""1945""
","
","
","""event"",""trial"",""time""
""fullscreenenter"",""1"",""1945""
","
","","[{""page_index"":0,""viewing_time"":2086.100000023842}]","2086.199999988079","","","","","","","","","","","","","","","","","","","","","","","",""
"pit-instructions","7","120087","0.0-2.0-3.0","battery-v0.2","","""event"",""trial"",""time""
""fullscreenenter"",""1"",""1945""
","
","
","""event"",""trial"",""time""
""fullscreenenter"",""1"",""1945""
","
","","[{""page_index"":0,""viewing_time"":8637.699999988079},{""page_index"":1,""viewing_time"":5452.100000023842},{""page_index"":2,""viewing_time"":6374.800000011921},{""page_index"":3,""viewing_time"":5291.299999952316},{""page_index"":4,""viewing_time"":5994},{""page_index"":5,""viewing_time"":8224.900000035763},{""page_index"":6,""viewing_time"":7882.899999976158},{""page_index"":7,""viewing_time"":8556.100000023842},{""page_index"":8,""viewing_time"":6104.099999964237},{""page_index"":9,""viewing_time"":8864.700000047684},{""page_index"":10,""viewing_time"":8349.299999952316},{""page_index"":11,""viewing_time"":7276.700000047684},{""page_index"":12,""viewing_time"":6164.099999964237},{""page_index"":13,""viewing_time"":4828.800000011921}]","98001.69999998808","","","","","","","","","","","","","","","","","","","","","","","",""
"pit-trial","8","124212","0.0-2.0-4.0-0.0","battery-v0.2","","""event"",""trial"",""time""
""fullscreenenter"",""1"",""1945""
","
","
","""event"",""trial"",""time""
""fullscreenenter"",""1"",""1945""
","
","","","1260.5","","","11","10579","4934","&#9784;","elianto","#FFFFF080"," "," ","1","&#10004","[2111.2000000476837,3326]","2","0","0","","","","","","","",""
"pit-trial","9","127951","0.0-2.0-4.1-0.1","battery-v0.2","","""event"",""trial"",""time""
""fullscreenenter"",""1"",""1945""
","
","
","""event"",""trial"",""time""
""fullscreenenter"",""1"",""1945""
","
","","","884.1999999880791","","","11","10579","4934","&#9784;","elianto","#FFFFF080"," "," ","1","&#10004","[1736.8999999761581]","1","0","0","","","","","","","",""
"pit-trial","10","131372","0.0-2.0-4.2-0.2","battery-v0.2","","""event"",""trial"",""time""
""fullscreenenter"",""1"",""1945""
","
","
","""event"",""trial"",""time""
""fullscreenenter"",""1"",""1945""
","
","","","556.6999999880791","","","11","10579","4934","&#9784;","elianto","#FFFFF080"," "," ","1","&#10004","[1410.199999988079]","1","0","0","","","","","","","",""
"pit-trial","11","134383","0.0-2.0-4.3-0.3","battery-v0.2","","""event"",""trial"",""time""
""fullscreenenter"",""1"",""1945""
","
","
","""event"",""trial"",""time""
""fullscreenenter"",""1"",""1945""
","
","","","146.10000002384186","","","11","10579","4934","&#9784;","elianto","#FFFFF080"," "," ","1","&#10004","[997.1999999880791]","1","0","0","","","","","","","",""
"pit-trial","12","137757","0.0-2.0-4.4-0.4","battery-v0.2","","""event"",""trial"",""time""
""fullscreenenter"",""1"",""1945""
","
","
","""event"",""trial"",""time""
""fullscreenenter"",""1"",""1945""
","
","","","507.5999999642372","","","11","10579","4934","&#9784;","elianto","#FFFFF080"," "," ","1","&#10004","[165.5,1359.199999988079]","2","0","0","","","","","","","",""
"pit-instructions","13","159158","0.0-2.0-5.0","battery-v0.2","","""event"",""trial"",""time""
""fullscreenenter"",""1"",""1945""
","
","
","""event"",""trial"",""time""
""fullscreenenter"",""1"",""1945""
","
","","[{""page_index"":0,""viewing_time"":6767.899999976158},{""page_index"":1,""viewing_time"":5200.5},{""page_index"":2,""viewing_time"":4187.699999988079},{""page_index"":3,""viewing_time"":5243}]","21399.19999998808","","","","","","","","","","","","","","","","","","","","","","","",""
"pit-trial","14","164033","0.0-2.0-6.0-0.0","battery-v0.2","","""event"",""trial"",""time""
""fullscreenenter"",""1"",""1945""
","
","
","""event"",""trial"",""time""
""fullscreenenter"",""1"",""1945""
","
","","","-1","","","11","10579","4934","&#9854;","elianto","#FFFFF080","-1","-1","1","&#10004","[]","0","0","1","","","","","","","",""
"pit-trial","15","168905","0.0-2.0-6.1-0.1","battery-v0.2","","""event"",""trial"",""time""
""fullscreenenter"",""1"",""1945""
","
","
","""event"",""trial"",""time""
""fullscreenenter"",""1"",""1945""
","
","","","-1","","","11","10579","4934","&#9854;","elianto","#FFFFF080","-1","-1","1","&#10004","[]","0","0","1","","","","","","","",""
"pit-trial","16","173759","0.0-2.0-6.2-0.2","battery-v0.2","","""event"",""trial"",""time""
""fullscreenenter"",""1"",""1945""
","
","
","""event"",""trial"",""time""
""fullscreenenter"",""1"",""1945""
","
","","","-1","","","11","10579","4934","&#9854;","elianto","#FFFFF080","-1","-1","1","&#10004","[]","0","0","1","","","","","","","",""
"pit-trial","17","178623","0.0-2.0-6.3-0.3","battery-v0.2","","""event"",""trial"",""time""
""fullscreenenter"",""1"",""1945""
","
","
","""event"",""trial"",""time""
""fullscreenenter"",""1"",""1945""
","
","","","-1","","","11","10579","4934","&#9854;","elianto","#FFFFF080","-1","-1","1","&#10004","[]","0","0","1","","","","","","","",""
"pit-trial","18","183487","0.0-2.0-6.4-0.4","battery-v0.2","","""event"",""trial"",""time""
""fullscreenenter"",""1"",""1945""
","
","
","""event"",""trial"",""time""
""fullscreenenter"",""1"",""1945""
","
","","","-1","","","11","10579","4934","&#9854;","elianto","#FFFFF080","-1","-1","1","&#10004","[]","0","0","1","","","","","","","",""
"pit-instructions","19","302786","0.0-2.0-7.0","battery-v0.2","","""event"",""trial"",""time""
""fullscreenenter"",""1"",""1945""
","
","
","""event"",""trial"",""time""
""fullscreenenter"",""1"",""1945""
","
","","[{""page_index"":0,""viewing_time"":5475.300000011921},{""page_index"":1,""viewing_time"":6130.899999976158},{""page_index"":2,""viewing_time"":6895.900000035763},{""page_index"":3,""viewing_time"":6248},{""page_index"":4,""viewing_time"":5585},{""page_index"":5,""viewing_time"":6188.099999964237},{""page_index"":6,""viewing_time"":4233.900000035763},{""page_index"":7,""viewing_time"":7330},{""page_index"":8,""viewing_time"":6693.899999976158},{""page_index"":9,""viewing_time"":5410},{""page_index"":10,""viewing_time"":6976},{""page_index"":11,""viewing_time"":6274.800000011921},{""page_index"":12,""viewing_time"":7194.199999988079},{""page_index"":13,""viewing_time"":8231.199999988079},{""page_index"":14,""viewing_time"":6335.900000035763},{""page_index"":15,""viewing_time"":6052.899999976158},{""page_index"":16,""viewing_time"":8777.100000023842},{""page_index"":17,""viewing_time"":9265}]","119298.19999998808","","","","","","","","","","","","","","","","","","","","","","","",""
"pit-trial","20","307037","0.0-2.0-8.0-0.0","battery-v0.2","","""event"",""trial"",""time""
""fullscreenenter"",""1"",""1945""
","
","
","""event"",""trial"",""time""
""fullscreenenter"",""1"",""1945""
","
","","","1385.199999988079","","","11","10579","4934","&#9776;","elianto","#3366ff99"," "," ","1","+10","[2237.2000000476837]","1","0","1","","","","","","","",""
"pit-trial","21","310356","0.0-2.0-8.0-1.0","battery-v0.2","","""event"",""trial"",""time""
""fullscreenenter"",""1"",""1945""
","
","
","""event"",""trial"",""time""
""fullscreenenter"",""1"",""1945""
","
","","","460.80000001192093","","","11","10579","4934","&#9776;","elianto","#3366ff99"," "," ","1","+10","[1311.199999988079]","1","0","1","","","","","","","",""
"pit-trial","22","313618","0.0-2.0-8.0-2.0","battery-v0.2","","""event"",""trial"",""time""
""fullscreenenter"",""1"",""1945""
","
","
","""event"",""trial"",""time""
""fullscreenenter"",""1"",""1945""
","
","","","394.5","","","11","10579","4934","&#9776;","elianto","#3366ff99"," "," ","1","+10","[1246.3999999761581]","1","0","1","","","","","","","",""
"pit-trial","23","316837","0.0-2.0-8.0-3.0","battery-v0.2","","""event"",""trial"",""time""
""fullscreenenter"",""1"",""1945""
","
","
","""event"",""trial"",""time""
""fullscreenenter"",""1"",""1945""
","
","","","365.80000001192093","","","11","10579","4934","&#9776;","elianto","#3366ff99"," "," ","1","0","[1216.8999999761581]","1","0","1","","","","","","","",""
"pit-trial","24","319921","0.0-2.0-8.0-4.0","battery-v0.2","","""event"",""trial"",""time""
""fullscreenenter"",""1"",""1945""
","
","
","""event"",""trial"",""time""
""fullscreenenter"",""1"",""1945""
","
","","","218.80000001192093","","","11","10579","4934","&#9776;","elianto","#3366ff99"," "," ","1","+10","[1069]","1","0","1","","","","","","","",""
"pit-trial","25","323385","0.0-2.0-8.1-0.1","battery-v0.2","","""event"",""trial"",""time""
""fullscreenenter"",""1"",""1945""
","
","
","""event"",""trial"",""time""
""fullscreenenter"",""1"",""1945""
","
","","","601.9000000357628","","","11","10579","4934","&#9776;","elianto","#3366ff99"," "," ","1","+10","[1452.5]","1","0","1","","","","","","","",""
"pit-trial","26","326575","0.0-2.0-8.1-1.1","battery-v0.2","","""event"",""trial"",""time""
""fullscreenenter"",""1"",""1945""
","
","
","""event"",""trial"",""time""
""fullscreenenter"",""1"",""1945""
","
","","","331.0999999642372","","","11","10579","4934","&#9776;","elianto","#3366ff99"," "," ","1","+10","[1184.5]","1","0","1","","","","","","","",""
"pit-trial","27","330069","0.0-2.0-8.1-2.1","battery-v0.2","","""event"",""trial"",""time""
""fullscreenenter"",""1"",""1945""
","
","
","""event"",""trial"",""time""
""fullscreenenter"",""1"",""1945""
","
","","","640.2999999523163","","","11","10579","4934","&#9776;","elianto","#3366ff99"," "," ","1","+10","[1491.699999988079]","1","0","1","","","","","","","",""
"pit-trial","28","333482","0.0-2.0-8.1-3.1","battery-v0.2","","""event"",""trial"",""time""
""fullscreenenter"",""1"",""1945""
","
","
","""event"",""trial"",""time""
""fullscreenenter"",""1"",""1945""
","
","","","562.1000000238419","","","11","10579","4934","&#9776;","elianto","#3366ff99"," "," ","1","0","[1412.199999988079]","1","0","1","","","","","","","",""
"pit-trial","29","336381","0.0-2.0-8.1-4.1","battery-v0.2","","""event"",""trial"",""time""
""fullscreenenter"",""1"",""1945""
","
","
","""event"",""trial"",""time""
""fullscreenenter"",""1"",""1945""
","
","","","48.09999996423721","","","11","10579","4934","&#9776;","elianto","#3366ff99"," "," ","1","+10","[898.1000000238419]","1","0","1","","","","","","","",""
"pit-trial","30","341235","0.0-2.0-8.2-0.2","battery-v0.2","","""event"",""trial"",""time""
""fullscreenenter"",""1"",""1945""
","
","
","""event"",""trial"",""time""
""fullscreenenter"",""1"",""1945""
","
","","","-1","","","11","10579","4934","&#9776;","elianto","#3366ff99"," ","-1","0","0","[]","0","0","1","","","","","","","",""
"pit-trial","31","344349","0.0-2.0-8.2-1.2","battery-v0.2","","""event"",""trial"",""time""
""fullscreenenter"",""1"",""1945""
","
","
","""event"",""trial"",""time""
""fullscreenenter"",""1"",""1945""
","
","","","262.5","","","11","10579","4934","&#9776;","elianto","#3366ff99"," "," ","1","+10","[1112.8999999761581,2936.2999999523163]","2","0","1","","","","","","","",""
"pit-trial","32","347549","0.0-2.0-8.2-2.2","battery-v0.2","","""event"",""trial"",""time""
""fullscreenenter"",""1"",""1945""
","
","
","""event"",""trial"",""time""
""fullscreenenter"",""1"",""1945""
","
","","","347.9000000357628","","","11","10579","4934","&#9776;","elianto","#3366ff99"," "," ","1","+10","[1198.6000000238419]","1","0","1","","","","","","","",""
"pit-trial","33","350604","0.0-2.0-8.2-3.2","battery-v0.2","","""event"",""trial"",""time""
""fullscreenenter"",""1"",""1945""
","
","
","""event"",""trial"",""time""
""fullscreenenter"",""1"",""1945""
","
","","","202.69999998807907","","","11","10579","4934","&#9776;","elianto","#3366ff99"," "," ","1","0","[1053.1000000238419]","1","0","1","","","","","","","",""
"pit-trial","34","354935","0.0-2.0-8.2-4.2","battery-v0.2","","""event"",""trial"",""time""
""fullscreenenter"",""1"",""1945""
","
","
","""event"",""trial"",""time""
""fullscreenenter"",""1"",""1945""
","
","","","1479","","","11","10579","4934","&#9776;","elianto","#3366ff99"," "," ","1","+10","[2329.7999999523163]","1","0","1","","","","","","","",""
"call-function","35","354935","0.0-2.0-9.0","battery-v0.2","","""event"",""trial"",""time""
""fullscreenenter"",""1"",""1945""
","
","
","""event"",""trial"",""time""
""fullscreenenter"",""1"",""1945""
","
","","","","","","","","","","","","","","","","","","","","","","","","","","",""
"pit-instructions","36","400596","0.0-2.0-10.0","battery-v0.2","","""event"",""trial"",""time""
""fullscreenenter"",""1"",""1945""
","
","
","""event"",""trial"",""time""
""fullscreenenter"",""1"",""1945""
","
","","[{""page_index"":0,""viewing_time"":7379},{""page_index"":1,""viewing_time"":11736.5},{""page_index"":2,""viewing_time"":9167.899999976158},{""page_index"":3,""viewing_time"":9627.100000023842},{""page_index"":4,""viewing_time"":7749.399999976158}]","45660.09999996424","","","","","","","","","","","","","","","","","","","","","","","",""
"pit-trial","37","404388","0.0-2.0-11.0-0.0","battery-v0.2","","""event"",""trial"",""time""
""fullscreenenter"",""1"",""1945""
","
","
","""event"",""trial"",""time""
""fullscreenenter"",""1"",""1945""
","
","","","935.6999999880791","","","11","10579","4934","&#9761;","elianto","#3366ff99","-1"," ","0","0","[1789.6000000238419]","1","0","2","","","","","","","",""
"pit-trial","38","407344","0.0-2.0-11.0-1.0","battery-v0.2","","""event"",""trial"",""time""
""fullscreenenter"",""1"",""1945""
","
","
","""event"",""trial"",""time""
""fullscreenenter"",""1"",""1945""
","
","","","83.90000003576279","","","11","10579","4934","&#9761;","elianto","#3366ff99","-1"," ","0","0","[939.3000000119209]","1","0","2","","","","","","","",""
"pit-trial","39","412206","0.0-2.0-11.0-2.0","battery-v0.2","","""event"",""trial"",""time""
""fullscreenenter"",""1"",""1945""
","
","
","""event"",""trial"",""time""
""fullscreenenter"",""1"",""1945""
","
","","","-1","","","11","10579","4934","&#9761;","elianto","#3366ff99","-1","-1","1","+10","[]","0","0","2","","","","","","","",""
"pit-trial","40","417067","0.0-2.0-11.0-3.0","battery-v0.2","","""event"",""trial"",""time""
""fullscreenenter"",""1"",""1945""
","
","
","""event"",""trial"",""time""
""fullscreenenter"",""1"",""1945""
","
","","","-1","","","11","10579","4934","&#9761;","elianto","#3366ff99","-1","-1","1","0","[]","0","0","2","","","","","","","",""
"pit-trial","41","421939","0.0-2.0-11.0-4.0","battery-v0.2","","""event"",""trial"",""time""
""fullscreenenter"",""1"",""1945""
","
","
","""event"",""trial"",""time""
""fullscreenenter"",""1"",""1945""
","
","","","-1","","","11","10579","4934","&#9761;","elianto","#3366ff99","-1","-1","1","+10","[4704.5]","1","0","2","","","","","","","",""
"pit-trial","42","425467","0.0-2.0-11.1-0.1","battery-v0.2","","""event"",""trial"",""time""
""fullscreenenter"",""1"",""1945""
","
","
","""event"",""trial"",""time""
""fullscreenenter"",""1"",""1945""
","
","","","664.1999999880791","","","11","10579","4934","&#9761;","elianto","#3366ff99","-1"," ","0","0","[1516]","1","0","2","","","","","","","",""
"pit-trial","43","430328","0.0-2.0-11.1-1.1","battery-v0.2","","""event"",""trial"",""time""
""fullscreenenter"",""1"",""1945""
","
","
","""event"",""trial"",""time""
""fullscreenenter"",""1"",""1945""
","
","","","-1","","","11","10579","4934","&#9761;","elianto","#3366ff99","-1","-1","1","+10","[]","0","0","2","","","","","","","",""
"pit-trial","44","433981","0.0-2.0-11.1-2.1","battery-v0.2","","""event"",""trial"",""time""
""fullscreenenter"",""1"",""1945""
","
","
","""event"",""trial"",""time""
""fullscreenenter"",""1"",""1945""
","
","","","801.8000000119209","","","11","10579","4934","&#9761;","elianto","#3366ff99","-1"," ","0","0","[1652.1000000238419]","1","0","2","","","","","","","",""
"pit-trial","45","437927","0.0-2.0-11.1-3.1","battery-v0.2","","""event"",""trial"",""time""
""fullscreenenter"",""1"",""1945""
","
","
","""event"",""trial"",""time""
""fullscreenenter"",""1"",""1945""
","
","","","1094","","","11","10579","4934","&#9761;","elianto","#3366ff99","-1"," ","0","+10","[1944.2000000476837]","1","0","2","","","","","","","",""
"pit-trial","46","442780","0.0-2.0-11.1-4.1","battery-v0.2","","""event"",""trial"",""time""
""fullscreenenter"",""1"",""1945""
","
","
","""event"",""trial"",""time""
""fullscreenenter"",""1"",""1945""
","
","","","-1","","","11","10579","4934","&#9761;","elianto","#3366ff99","-1","-1","1","+10","[]","0","0","2","","","","","","","",""
"pit-trial","47","447134","0.0-2.0-11.2-0.2","battery-v0.2","","""event"",""trial"",""time""
""fullscreenenter"",""1"",""1945""
","
","
","""event"",""trial"",""time""
""fullscreenenter"",""1"",""1945""
","
","","","1502.0999999642372","","","11","10579","4934","&#9761;","elianto","#3366ff99","-1"," ","0","0","[2352.2999999523163]","1","0","2","","","","","","","",""
"pit-trial","48","451986","0.0-2.0-11.2-1.2","battery-v0.2","","""event"",""trial"",""time""
""fullscreenenter"",""1"",""1945""
","
","
","""event"",""trial"",""time""
""fullscreenenter"",""1"",""1945""
","
","","","-1","","","11","10579","4934","&#9761;","elianto","#3366ff99","-1","-1","1","+10","[]","0","0","2","","","","","","","",""
"pit-trial","49","456839","0.0-2.0-11.2-2.2","battery-v0.2","","""event"",""trial"",""time""
""fullscreenenter"",""1"",""1945""
","
","
","""event"",""trial"",""time""
""fullscreenenter"",""1"",""1945""
","
","","","-1","","","11","10579","4934","&#9761;","elianto","#3366ff99","-1","-1","1","+10","[]","0","0","2","","","","","","","",""
"pit-trial","50","461692","0.0-2.0-11.2-3.2","battery-v0.2","","""event"",""trial"",""time""
""fullscreenenter"",""1"",""1945""
","
","
","""event"",""trial"",""time""
""fullscreenenter"",""1"",""1945""
","
","","","-1","","","11","10579","4934","&#9761;","elianto","#3366ff99","-1","-1","1","0","[]","0","0","2","","","","","","","",""
"pit-trial","51","466320","0.0-2.0-11.2-4.2","battery-v0.2","","""event"",""trial"",""time""
""fullscreenenter"",""1"",""1945""
","
","
","""event"",""trial"",""time""
""fullscreenenter"",""1"",""1945""
","
","","","1776.300000011921","","","11","10579","4934","&#9761;","elianto","#3366ff99","-1"," ","0","0","[2626.699999988079]","1","0","2","","","","","","","",""
"pit-trial","52","470760","0.0-2.0-11.3-0.3","battery-v0.2","","""event"",""trial"",""time""
""fullscreenenter"",""1"",""1945""
","
","
","""event"",""trial"",""time""
""fullscreenenter"",""1"",""1945""
","
","","","1588.5999999642372","","","11","10579","4934","&#9761;","elianto","#3366ff99","-1"," ","0","0","[2439]","1","0","2","","","","","","","",""
"pit-trial","53","475611","0.0-2.0-11.3-1.3","battery-v0.2","","""event"",""trial"",""time""
""fullscreenenter"",""1"",""1945""
","
","
","""event"",""trial"",""time""
""fullscreenenter"",""1"",""1945""
","
","","","-1","","","11","10579","4934","&#9761;","elianto","#3366ff99","-1","-1","1","+10","[4196.899999976158]","1","0","2","","","","","","","",""
"pit-trial","54","480463","0.0-2.0-11.3-2.3","battery-v0.2","","""event"",""trial"",""time""
""fullscreenenter"",""1"",""1945""
","
","
","""event"",""trial"",""time""
""fullscreenenter"",""1"",""1945""
","
","","","-1","","","11","10579","4934","&#9761;","elianto","#3366ff99","-1","-1","1","+10","[]","0","0","2","","","","","","","",""
"pit-trial","55","485316","0.0-2.0-11.3-3.3","battery-v0.2","","""event"",""trial"",""time""
""fullscreenenter"",""1"",""1945""
","
","
","""event"",""trial"",""time""
""fullscreenenter"",""1"",""1945""
","
","","","-1","","","11","10579","4934","&#9761;","elianto","#3366ff99","-1","-1","1","0","[]","0","0","2","","","","","","","",""
"pit-trial","56","490168","0.0-2.0-11.3-4.3","battery-v0.2","","""event"",""trial"",""time""
""fullscreenenter"",""1"",""1945""
","
","
","""event"",""trial"",""time""
""fullscreenenter"",""1"",""1945""
","
","","","-1","","","11","10579","4934","&#9761;","elianto","#3366ff99","-1","-1","1","+10","[]","0","0","2","","","","","","","",""
"call-function","57","490169","0.0-2.0-12.0","battery-v0.2","","""event"",""trial"",""time""
""fullscreenenter"",""1"",""1945""
","
","
","""event"",""trial"",""time""
""fullscreenenter"",""1"",""1945""
","
","","","","","","","","","","","","","","","","","","","","","","","","","","",""
"pit-instructions","58","536482","0.0-2.0-13.0","battery-v0.2","","""event"",""trial"",""time""
""fullscreenenter"",""1"",""1945""
","
","
","""event"",""trial"",""time""
""fullscreenenter"",""1"",""1945""
","
","","[{""page_index"":0,""viewing_time"":13301.600000023842},{""page_index"":1,""viewing_time"":7532.899999976158},{""page_index"":2,""viewing_time"":6875.900000035763},{""page_index"":3,""viewing_time"":14333.899999976158},{""page_index"":4,""viewing_time"":4269}]","46313.40000003576","","","","","","","","","","","","","","","","","","","","","","","",""
"pit-trial","59","541346","0.0-2.0-14.0-0.0","battery-v0.2","","""event"",""trial"",""time""
""fullscreenenter"",""1"",""1945""
","
","
","""event"",""trial"",""time""
""fullscreenenter"",""1"",""1945""
","
","","","-1","","","11","10579","4934","&#9826;","elianto","#f73b6a7A","-1","-1","1","0","[]","0","0","3","","","","","","","",""
"pit-trial","60","545670","0.0-2.0-14.0-1.0","battery-v0.2","","""event"",""trial"",""time""
""fullscreenenter"",""1"",""1945""
","
","
","""event"",""trial"",""time""
""fullscreenenter"",""1"",""1945""
","
","","","1457.4000000357628","","","11","10579","4934","&#9826;","elianto","#f73b6a7A","-1"," ","0","-10","[2310.400000035763]","1","0","3","","","","","","","",""
"pit-trial","61","550537","0.0-2.0-14.0-2.0","battery-v0.2","","""event"",""trial"",""time""
""fullscreenenter"",""1"",""1945""
","
","
","""event"",""trial"",""time""
""fullscreenenter"",""1"",""1945""
","
","","","-1","","","11","10579","4934","&#9826;","elianto","#f73b6a7A","-1","-1","1","0","[]","0","0","3","","","","","","","",""
"pit-trial","62","555414","0.0-2.0-14.0-3.0","battery-v0.2","","""event"",""trial"",""time""
""fullscreenenter"",""1"",""1945""
","
","
","""event"",""trial"",""time""
""fullscreenenter"",""1"",""1945""
","
","","","-1","","","11","10579","4934","&#9826;","elianto","#f73b6a7A","-1","-1","1","-10","[3395.399999976158]","1","0","3","","","","","","","",""
"pit-trial","63","558483","0.0-2.0-14.0-4.0","battery-v0.2","","""event"",""trial"",""time""
""fullscreenenter"",""1"",""1945""
","
","
","""event"",""trial"",""time""
""fullscreenenter"",""1"",""1945""
","
","","","201","","","11","10579","4934","&#9826;","elianto","#f73b6a7A","-1"," ","0","-10","[1052.800000011921]","1","0","3","","","","","","","",""
"pit-trial","64","563348","0.0-2.0-14.1-0.1","battery-v0.2","","""event"",""trial"",""time""
""fullscreenenter"",""1"",""1945""
","
","
","""event"",""trial"",""time""
""fullscreenenter"",""1"",""1945""
","
","","","-1","","","11","10579","4934","&#9826;","elianto","#f73b6a7A","-1","-1","1","0","[]","0","0","3","","","","","","","",""
"pit-trial","65","567575","0.0-2.0-14.1-1.1","battery-v0.2","","""event"",""trial"",""time""
""fullscreenenter"",""1"",""1945""
","
","
","""event"",""trial"",""time""
""fullscreenenter"",""1"",""1945""
","
","","","1374.699999988079","","","11","10579","4934","&#9826;","elianto","#f73b6a7A","-1"," ","0","-10","[2225.300000011921]","1","0","3","","","","","","","",""
"pit-trial","66","572427","0.0-2.0-14.1-2.1","battery-v0.2","","""event"",""trial"",""time""
""fullscreenenter"",""1"",""1945""
","
","
","""event"",""trial"",""time""
""fullscreenenter"",""1"",""1945""
","
","","","-1","","","11","10579","4934","&#9826;","elianto","#f73b6a7A","-1","-1","1","0","[3203.699999988079]","1","0","3","","","","","","","",""
"pit-trial","67","575977","0.0-2.0-14.1-3.1","battery-v0.2","","""event"",""trial"",""time""
""fullscreenenter"",""1"",""1945""
","
","
","""event"",""trial"",""time""
""fullscreenenter"",""1"",""1945""
","
","","","697.1999999880791","","","11","10579","4934","&#9826;","elianto","#f73b6a7A","-1"," ","0","0","[1547.2999999523163]","1","0","3","","","","","","","",""
"pit-trial","68","578973","0.0-2.0-14.1-4.1","battery-v0.2","","""event"",""trial"",""time""
""fullscreenenter"",""1"",""1945""
","
","
","""event"",""trial"",""time""
""fullscreenenter"",""1"",""1945""
","
","","","144.0999999642372","","","11","10579","4934","&#9826;","elianto","#f73b6a7A","-1"," ","0","-10","[994.5]","1","0","3","","","","","","","",""
"pit-trial","69","583825","0.0-2.0-14.2-0.2","battery-v0.2","","""event"",""trial"",""time""
""fullscreenenter"",""1"",""1945""
","
","
","""event"",""trial"",""time""
""fullscreenenter"",""1"",""1945""
","
","","","-1","","","11","10579","4934","&#9826;","elianto","#f73b6a7A","-1","-1","1","0","[]","0","0","3","","","","","","","",""
"pit-trial","70","588071","0.0-2.0-14.2-1.2","battery-v0.2","","""event"",""trial"",""time""
""fullscreenenter"",""1"",""1945""
","
","
","""event"",""trial"",""time""
""fullscreenenter"",""1"",""1945""
","
","","","1393.800000011921","","","11","10579","4934","&#9826;","elianto","#f73b6a7A","-1"," ","0","-10","[2244.2000000476837]","1","0","3","","","","","","","",""
"pit-trial","71","592621","0.0-2.0-14.2-2.2","battery-v0.2","","""event"",""trial"",""time""
""fullscreenenter"",""1"",""1945""
","
","
","""event"",""trial"",""time""
""fullscreenenter"",""1"",""1945""
","
","","","1698.5999999642372","","","11","10579","4934","&#9826;","elianto","#f73b6a7A","-1"," ","0","-10","[2548.800000011921]","1","0","3","","","","","","","",""
"pit-trial","72","597474","0.0-2.0-14.2-3.2","battery-v0.2","","""event"",""trial"",""time""
""fullscreenenter"",""1"",""1945""
","
","
","""event"",""trial"",""time""
""fullscreenenter"",""1"",""1945""
","
","","","-1","","","11","10579","4934","&#9826;","elianto","#f73b6a7A","-1","-1","1","-10","[]","0","0","3","","","","","","","",""
"pit-trial","73","602326","0.0-2.0-14.2-4.2","battery-v0.2","","""event"",""trial"",""time""
""fullscreenenter"",""1"",""1945""
","
","
","""event"",""trial"",""time""
""fullscreenenter"",""1"",""1945""
","
","","","-1","","","11","10579","4934","&#9826;","elianto","#f73b6a7A","-1","-1","1","0","[]","0","0","3","","","","","","","",""
"pit-trial","74","605597","0.0-2.0-14.3-0.3","battery-v0.2","","""event"",""trial"",""time""
""fullscreenenter"",""1"",""1945""
","
","
","""event"",""trial"",""time""
""fullscreenenter"",""1"",""1945""
","
","","","418.60000002384186","","","11","10579","4934","&#9826;","elianto","#f73b6a7A","-1"," ","0","-10","[1268.8999999761581]","1","0","3","","","","","","","",""
"pit-trial","75","610450","0.0-2.0-14.3-1.3","battery-v0.2","","""event"",""trial"",""time""
""fullscreenenter"",""1"",""1945""
","
","
","""event"",""trial"",""time""
""fullscreenenter"",""1"",""1945""
","
","","","-1","","","11","10579","4934","&#9826;","elianto","#f73b6a7A","-1","-1","1","0","[]","0","0","3","","","","","","","",""
"pit-trial","76","615303","0.0-2.0-14.3-2.3","battery-v0.2","","""event"",""trial"",""time""
""fullscreenenter"",""1"",""1945""
","
","
","""event"",""trial"",""time""
""fullscreenenter"",""1"",""1945""
","
","","","-1","","","11","10579","4934","&#9826;","elianto","#f73b6a7A","-1","-1","1","0","[]","0","0","3","","","","","","","",""
"pit-trial","77","618898","0.0-2.0-14.3-3.3","battery-v0.2","","""event"",""trial"",""time""
""fullscreenenter"",""1"",""1945""
","
","
","""event"",""trial"",""time""
""fullscreenenter"",""1"",""1945""
","
","","","743.2000000476837","","","11","10579","4934","&#9826;","elianto","#f73b6a7A","-1"," ","0","0","[1594.1000000238419]","1","0","3","","","","","","","",""
"pit-trial","78","623751","0.0-2.0-14.3-4.3","battery-v0.2","","""event"",""trial"",""time""
""fullscreenenter"",""1"",""1945""
","
","
","""event"",""trial"",""time""
""fullscreenenter"",""1"",""1945""
","
","","","-1","","","11","10579","4934","&#9826;","elianto","#f73b6a7A","-1","-1","1","0","[618.2999999523163,4590.899999976158]","2","0","3","","","","","","","",""
"call-function","79","623751","0.0-2.0-15.0","battery-v0.2","","""event"",""trial"",""time""
""fullscreenenter"",""1"",""1945""
","
","
","""event"",""trial"",""time""
""fullscreenenter"",""1"",""1945""
","
","","","","","","","","","","","","","","","","","","","","","","","","","","",""
"pit-instructions","80","655879","0.0-2.0-16.0","battery-v0.2","","""event"",""trial"",""time""
""fullscreenenter"",""1"",""1945""
","
","
","""event"",""trial"",""time""
""fullscreenenter"",""1"",""1945""
","
","","[{""page_index"":0,""viewing_time"":10553},{""page_index"":1,""viewing_time"":9175.600000023842},{""page_index"":2,""viewing_time"":5471.300000011921},{""page_index"":3,""viewing_time"":6927.899999976158}]","32127.900000035763","","","","","","","","","","","","","","","","","","","","","","","",""
"pit-trial","81","660734","0.0-2.0-17.0-0.0","battery-v0.2","","""event"",""trial"",""time""
""fullscreenenter"",""1"",""1945""
","
","
","""event"",""trial"",""time""
""fullscreenenter"",""1"",""1945""
","
","","","-1","","","11","10579","4934","&#9789;","elianto","#f73b6a7A"," ","-1","0","-10","[]","0","0","4","","","","","","","",""
"pit-trial","82","664324","0.0-2.0-17.0-1.0","battery-v0.2","","""event"",""trial"",""time""
""fullscreenenter"",""1"",""1945""
","
","
","""event"",""trial"",""time""
""fullscreenenter"",""1"",""1945""
","
","","","735.5999999642372","","","11","10579","4934","&#9789;","elianto","#f73b6a7A"," "," ","1","0","[1586.8999999761581]","1","0","4","","","","","","","",""
"pit-trial","83","667356","0.0-2.0-17.0-2.0","battery-v0.2","","""event"",""trial"",""time""
""fullscreenenter"",""1"",""1945""
","
","
","""event"",""trial"",""time""
""fullscreenenter"",""1"",""1945""
","
","","","162","","","11","10579","4934","&#9789;","elianto","#f73b6a7A"," "," ","1","0","[1016.6000000238419,1229.199999988079]","2","0","4","","","","","","","",""
"pit-trial","84","670275","0.0-2.0-17.0-3.0","battery-v0.2","","""event"",""trial"",""time""
""fullscreenenter"",""1"",""1945""
","
","
","""event"",""trial"",""time""
""fullscreenenter"",""1"",""1945""
","
","","","57.40000003576279","","","11","10579","4934","&#9789;","elianto","#f73b6a7A"," "," ","1","-10","[910.7000000476837]","1","0","4","","","","","","","",""
"pit-trial","85","675141","0.0-2.0-17.0-4.0","battery-v0.2","","""event"",""trial"",""time""
""fullscreenenter"",""1"",""1945""
","
","
","""event"",""trial"",""time""
""fullscreenenter"",""1"",""1945""
","
","","","-1","","","11","10579","4934","&#9789;","elianto","#f73b6a7A"," ","-1","0","-10","[]","0","0","4","","","","","","","",""
"pit-trial","86","678897","0.0-2.0-17.1-0.1","battery-v0.2","","""event"",""trial"",""time""
""fullscreenenter"",""1"",""1945""
","
","
","""event"",""trial"",""time""
""fullscreenenter"",""1"",""1945""
","
","","","884.8999999761581","","","11","10579","4934","&#9789;","elianto","#f73b6a7A"," "," ","1","0","[1740.3999999761581,2904.199999988079,2905.699999988079]","3","0","4","","","","","","","",""
"pit-trial","87","683755","0.0-2.0-17.1-1.1","battery-v0.2","","""event"",""trial"",""time""
""fullscreenenter"",""1"",""1945""
","
","
","""event"",""trial"",""time""
""fullscreenenter"",""1"",""1945""
","
","","","-1","","","11","10579","4934","&#9789;","elianto","#f73b6a7A"," ","-1","0","-10","[3786.400000035763]","1","0","4","","","","","","","",""
"pit-trial","88","686626","0.0-2.0-17.1-2.1","battery-v0.2","","""event"",""trial"",""time""
""fullscreenenter"",""1"",""1945""
","
","
","""event"",""trial"",""time""
""fullscreenenter"",""1"",""1945""
","
","","","19.700000047683716","","","11","10579","4934","&#9789;","elianto","#f73b6a7A"," "," ","1","0","[869.8000000119209,1200.800000011921,1607.800000011921,2218.800000011921]","4","0","4","","","","","","","",""
"pit-trial","89","690523","0.0-2.0-17.1-3.1","battery-v0.2","","""event"",""trial"",""time""
""fullscreenenter"",""1"",""1945""
","
","
","""event"",""trial"",""time""
""fullscreenenter"",""1"",""1945""
","
","","","1044.9000000357628","","","11","10579","4934","&#9789;","elianto","#f73b6a7A"," "," ","1","-10","[1895.199999988079,2305.300000011921,2591.099999964237]","3","0","4","","","","","","","",""
"pit-trial","90","693951","0.0-2.0-17.1-4.1","battery-v0.2","","""event"",""trial"",""time""
""fullscreenenter"",""1"",""1945""
","
","
","""event"",""trial"",""time""
""fullscreenenter"",""1"",""1945""
","
","","","576.6999999880791","","","11","10579","4934","&#9789;","elianto","#f73b6a7A"," "," ","1","0","[647.3000000119209,1427]","2","0","4","","","","","","","",""
"pit-trial","91","697148","0.0-2.0-17.2-0.2","battery-v0.2","","""event"",""trial"",""time""
""fullscreenenter"",""1"",""1945""
","
","
","""event"",""trial"",""time""
""fullscreenenter"",""1"",""1945""
","
","","","345.10000002384186","","","11","10579","4934","&#9789;","elianto","#f73b6a7A"," "," ","1","0","[1195.199999988079]","1","0","4","","","","","","","",""
"pit-trial","92","701290","0.0-2.0-17.2-1.2","battery-v0.2","","""event"",""trial"",""time""
""fullscreenenter"",""1"",""1945""
","
","
","""event"",""trial"",""time""
""fullscreenenter"",""1"",""1945""
","
","","","1289.800000011921","","","11","10579","4934","&#9789;","elianto","#f73b6a7A"," "," ","1","0","[2140]","1","0","4","","","","","","","",""
"pit-trial","93","704788","0.0-2.0-17.2-2.2","battery-v0.2","","""event"",""trial"",""time""
""fullscreenenter"",""1"",""1945""
","
","
","""event"",""trial"",""time""
""fullscreenenter"",""1"",""1945""
","
","","","646.8999999761581","","","11","10579","4934","&#9789;","elianto","#f73b6a7A"," "," ","1","0","[1497.5]","1","0","4","","","","","","","",""
"pit-trial","94","707832","0.0-2.0-17.2-3.2","battery-v0.2","","""event"",""trial"",""time""
""fullscreenenter"",""1"",""1945""
","
","
","""event"",""trial"",""time""
""fullscreenenter"",""1"",""1945""
","
","","","192.30000001192093","","","11","10579","4934","&#9789;","elianto","#f73b6a7A"," "," ","1","-10","[1043.199999988079]","1","0","4","","","","","","","",""
"pit-trial","95","712689","0.0-2.0-17.2-4.2","battery-v0.2","","""event"",""trial"",""time""
""fullscreenenter"",""1"",""1945""
","
","
","""event"",""trial"",""time""
""fullscreenenter"",""1"",""1945""
","
","","","-1","","","11","10579","4934","&#9789;","elianto","#f73b6a7A"," ","-1","0","-10","[3417.899999976158,3939.7999999523163]","2","0","4","","","","","","","",""
"pit-trial","96","715886","0.0-2.0-17.3-0.3","battery-v0.2","","""event"",""trial"",""time""
""fullscreenenter"",""1"",""1945""
","
","
","""event"",""trial"",""time""
""fullscreenenter"",""1"",""1945""
","
","","","345.60000002384186","","","11","10579","4934","&#9789;","elianto","#f73b6a7A"," "," ","1","0","[1196.1000000238419]","1","0","4","","","","","","","",""
"pit-trial","97","719360","0.0-2.0-17.3-1.3","battery-v0.2","","""event"",""trial"",""time""
""fullscreenenter"",""1"",""1945""
","
","
","""event"",""trial"",""time""
""fullscreenenter"",""1"",""1945""
","
","","","621.4000000357628","","","11","10579","4934","&#9789;","elianto","#f73b6a7A"," "," ","1","0","[1471.5]","1","0","4","","","","","","","",""
"pit-trial","98","722406","0.0-2.0-17.3-2.3","battery-v0.2","","""event"",""trial"",""time""
""fullscreenenter"",""1"",""1945""
","
","
","""event"",""trial"",""time""
""fullscreenenter"",""1"",""1945""
","
","","","194.89999997615814","","","11","10579","4934","&#9789;","elianto","#f73b6a7A"," "," ","1","0","[1045.300000011921]","1","0","4","","","","","","","",""
"pit-trial","99","726836","0.0-2.0-17.3-3.3","battery-v0.2","","""event"",""trial"",""time""
""fullscreenenter"",""1"",""1945""
","
","
","""event"",""trial"",""time""
""fullscreenenter"",""1"",""1945""
","
","","","1577.6000000238419","","","11","10579","4934","&#9789;","elianto","#f73b6a7A"," "," ","1","-10","[2428]","1","0","4","","","","","","","",""
"pit-trial","100","731689","0.0-2.0-17.3-4.3","battery-v0.2","","""event"",""trial"",""time""
""fullscreenenter"",""1"",""1945""
","
","
","""event"",""trial"",""time""
""fullscreenenter"",""1"",""1945""
","
","","","-1","","","11","10579","4934","&#9789;","elianto","#f73b6a7A"," ","-1","0","-10","[2856.399999976158]","1","0","4","","","","","","","",""
"call-function","101","731690","0.0-2.0-18.0","battery-v0.2","","""event"",""trial"",""time""
""fullscreenenter"",""1"",""1945""
","
","
","""event"",""trial"",""time""
""fullscreenenter"",""1"",""1945""
","
","","","","","","","","","","","","","","","","","","","","","","","","","","",""
"pit-instructions","102","820550","0.0-2.0-19.0","battery-v0.2","","""event"",""trial"",""time""
""fullscreenenter"",""1"",""1945""
","
","
","""event"",""trial"",""time""
""fullscreenenter"",""1"",""1945""
","
","","[{""page_index"":0,""viewing_time"":14171},{""page_index"":1,""viewing_time"":12887},{""page_index"":2,""viewing_time"":15263.099999964237},{""page_index"":3,""viewing_time"":7583.100000023842},{""page_index"":4,""viewing_time"":9900.899999976158},{""page_index"":5,""viewing_time"":8240.100000023842},{""page_index"":6,""viewing_time"":9004.899999976158},{""page_index"":7,""viewing_time"":5545},{""page_index"":8,""viewing_time"":6265.300000011921}]","88860.59999996424","","","","","","","","","","","","","","","","","","","","","","","",""
"pit-comprehension","103","825133","0.0-2.0-20.0-0.0","battery-v0.2","","""event"",""trial"",""time""
""fullscreenenter"",""1"",""1945""
","
","
","""event"",""trial"",""time""
""fullscreenenter"",""1"",""1945""
","
","","","4581.399999976158","[""SPACE""]","0","11","10579","4934","","","","","","","","","","","","","","","","","","",""
"pit-instructions","104","828934","0.0-2.0-20.0-1.0","battery-v0.2","","""event"",""trial"",""time""
""fullscreenenter"",""1"",""1945""
","
","
","""event"",""trial"",""time""
""fullscreenenter"",""1"",""1945""
","
","","[{""page_index"":0,""viewing_time"":3780.399999976158}]","3780.599999964237","","","","","","","","","","","","","","","","","","","","","","","",""
"pit-comprehension","105","835139","0.0-2.0-21.0-0.0","battery-v0.2","","""event"",""trial"",""time""
""fullscreenenter"",""1"",""1945""
","
","
","""event"",""trial"",""time""
""fullscreenenter"",""1"",""1945""
","
","","","6203.899999976158","[""10""]","0","11","10579","4934","","","","","","","","","","","","","","","","","","",""
"pit-instructions","106","838959","0.0-2.0-21.0-1.0","battery-v0.2","","""event"",""trial"",""time""
""fullscreenenter"",""1"",""1945""
","
","
","""event"",""trial"",""time""
""fullscreenenter"",""1"",""1945""
","
","","[{""page_index"":0,""viewing_time"":3801.100000023842}]","3801.300000011921","","","","","","","","","","","","","","","","","","","","","","","",""
"pit-comprehension","107","846484","0.0-2.0-22.0-0.0","battery-v0.2","","""event"",""trial"",""time""
""fullscreenenter"",""1"",""1945""
","
","
","""event"",""trial"",""time""
""fullscreenenter"",""1"",""1945""
","
","","","7523.700000047684","[""-10""]","1","11","10579","4934","","","","","","","","","","","","","","","","","","",""
"pit-instructions","108","850594","0.0-2.0-22.0-1.0","battery-v0.2","","""event"",""trial"",""time""
""fullscreenenter"",""1"",""1945""
","
","
","""event"",""trial"",""time""
""fullscreenenter"",""1"",""1945""
","
","","[{""page_index"":0,""viewing_time"":4090.800000011921}]","4090.899999976158","","","","","","","","","","","","","","","","","","","","","","","",""
"pit-instructions","109","852290","0.0-2.0-22.0-2.0-0.0","battery-v0.2","","""event"",""trial"",""time""
""fullscreenenter"",""1"",""1945""
","
","
","""event"",""trial"",""time""
""fullscreenenter"",""1"",""1945""
","
","","[{""page_index"":0,""viewing_time"":1695}]","1695.199999988079","","","","","","","","","","","","","","","","","","","","","","","",""
"pit-comprehension","110","858775","0.0-2.0-22.1-0.1","battery-v0.2","","""event"",""trial"",""time""
""fullscreenenter"",""1"",""1945""
","
","
","""event"",""trial"",""time""
""fullscreenenter"",""1"",""1945""
","
","","","6484.400000035763","[""0""]","0","11","10579","4934","","","","","","","","","","","","","","","","","","",""
"pit-instructions","111","864847","0.0-2.0-22.1-1.1","battery-v0.2","","""event"",""trial"",""time""
""fullscreenenter"",""1"",""1945""
","
","
","""event"",""trial"",""time""
""fullscreenenter"",""1"",""1945""
","
","","[{""page_index"":0,""viewing_time"":6053.900000035763}]","6054","","","","","","","","","","","","","","","","","","","","","","","",""
"pit-comprehension","112","882094","0.0-2.0-23.0-0.0","battery-v0.2","","""event"",""trial"",""time""
""fullscreenenter"",""1"",""1945""
","
","
","""event"",""trial"",""time""
""fullscreenenter"",""1"",""1945""
","
","","","17245.100000023842","[""False""]","1","11","10579","4934","","","","","","","","","","","","","","","","","","",""
"pit-instructions","113","883514","0.0-2.0-23.0-1.0","battery-v0.2","","""event"",""trial"",""time""
""fullscreenenter"",""1"",""1945""
","
","
","""event"",""trial"",""time""
""fullscreenenter"",""1"",""1945""
","
","","[{""page_index"":0,""viewing_time"":1399.699999988079}]","1399.7999999523163","","","","","","","","","","","","","","","","","","","","","","","",""
"pit-instructions","114","886362","0.0-2.0-23.0-2.0-0.0","battery-v0.2","","""event"",""trial"",""time""
""fullscreenenter"",""1"",""1945""
","
","
","""event"",""trial"",""time""
""fullscreenenter"",""1"",""1945""
","
","","[{""page_index"":0,""viewing_time"":2847.100000023842}]","2847.199999988079","","","","","","","","","","","","","","","","","","","","","","","",""
"pit-comprehension","115","895981","0.0-2.0-23.1-0.1","battery-v0.2","","""event"",""trial"",""time""
""fullscreenenter"",""1"",""1945""
","
","
","""event"",""trial"",""time""
""fullscreenenter"",""1"",""1945""
","
","","","9618.199999988079","[""True""]","0","11","10579","4934","","","","","","","","","","","","","","","","","","",""
"pit-instructions","116","899295","0.0-2.0-23.1-1.1","battery-v0.2","","""event"",""trial"",""time""
""fullscreenenter"",""1"",""1945""
","
","
","""event"",""trial"",""time""
""fullscreenenter"",""1"",""1945""
","
","","[{""page_index"":0,""viewing_time"":3293.800000011921}]","3294.100000023842","","","","","","","","","","","","","","","","","","","","","","","",""
"pit-comprehension","117","908864","0.0-2.0-24.0-0.0","battery-v0.2","","""event"",""trial"",""time""
""fullscreenenter"",""1"",""1945""
","
","
","""event"",""trial"",""time""
""fullscreenenter"",""1"",""1945""
","
","","","9566.899999976158","[""True""]","0","11","10579","4934","","","","","","","","","","","","","","","","","","",""
"pit-instructions","118","915287","0.0-2.0-24.0-1.0","battery-v0.2","","""event"",""trial"",""time""
""fullscreenenter"",""1"",""1945""
","
","
","""event"",""trial"",""time""
""fullscreenenter"",""1"",""1945""
","
","","[{""page_index"":0,""viewing_time"":6404.600000023842}]","6404.800000011921","","","","","","","","","","","","","","","","","","","","","","","",""
"pit-comprehension","119","921526","0.0-2.0-25.0-0.0","battery-v0.2","","""event"",""trial"",""time""
""fullscreenenter"",""1"",""1945""
","
","
","""event"",""trial"",""time""
""fullscreenenter"",""1"",""1945""
","
","","","6236.899999976158","[""True""]","0","11","10579","4934","","","","","","","","","","","","","","","","","","",""
"pit-instructions","120","922592","0.0-2.0-25.0-1.0","battery-v0.2","","""event"",""trial"",""time""
""fullscreenenter"",""1"",""1945""
","
","
","""event"",""trial"",""time""
""fullscreenenter"",""1"",""1945""
","
","","[{""page_index"":0,""viewing_time"":1047.5}]","1047.5999999642372","","","","","","","","","","","","","","","","","","","","","","","",""
"pit-comprehension","121","928741","0.0-2.0-26.0-0.0","battery-v0.2","","""event"",""trial"",""time""
""fullscreenenter"",""1"",""1945""
","
","
","""event"",""trial"",""time""
""fullscreenenter"",""1"",""1945""
","
","","","6147.299999952316","[""False""]","0","11","10579","4934","","","","","","","","","","","","","","","","","","",""
"pit-instructions","122","929900","0.0-2.0-26.0-1.0","battery-v0.2","","""event"",""trial"",""time""
""fullscreenenter"",""1"",""1945""
","
","
","""event"",""trial"",""time""
""fullscreenenter"",""1"",""1945""
","
","","[{""page_index"":0,""viewing_time"":1138.699999988079}]","1138.7999999523163","","","","","","","","","","","","","","","","","","","","","","","",""
"pit-instructions","123","948031","0.0-3.0","battery-v0.2","","""event"",""trial"",""time""
""fullscreenenter"",""1"",""1945""
","
","
","""event"",""trial"",""time""
""fullscreenenter"",""1"",""1945""
","
","","[{""page_index"":0,""viewing_time"":4233.099999964237},{""page_index"":1,""viewing_time"":6948.800000011921},{""page_index"":2,""viewing_time"":6949.199999988079}]","18131.099999964237","","","","","","","","","","","","","","","","","","","","","","","",""
"pit-trial","124","952650","0.0-4.0","battery-v0.2","","""event"",""trial"",""time""
""fullscreenenter"",""1"",""1945""
","
","
","""event"",""trial"",""time""
""fullscreenenter"",""1"",""1945""
","
","","","1762","","","11","10579","4934","&#9733;","elianto","#3366ff99","-1"," ","0","0","[2613.699999988079]","1","1","","","10579","1","2","2","win","no-go","0"
"pit-trial","125","956698","0.0-5.0","battery-v0.2","","""event"",""trial"",""time""
""fullscreenenter"",""1"",""1945""
","
","
","""event"",""trial"",""time""
""fullscreenenter"",""1"",""1945""
","
","","","1185.199999988079","","","11","10579","4934","&#9752;","elianto","#f73b6a7A"," "," ","1","-10","[2037.3999999761581]","1","1","","","10579","2","3","3","lose","go","1"
"pit-trial","126","961564","0.0-6.0","battery-v0.2","","""event"",""trial"",""time""
""fullscreenenter"",""1"",""1945""
","
","
","""event"",""trial"",""time""
""fullscreenenter"",""1"",""1945""
","
","","","-1","","","11","10579","4934","&#9728;","elianto","#f73b6a7A","-1","-1","1","-10","[]","0","1","","","10579","3","0","4","lose","no-go","1"
"pit-trial","127","965176","0.0-7.0","battery-v0.2","","""event"",""trial"",""time""
""fullscreenenter"",""1"",""1945""
","
","
","""event"",""trial"",""time""
""fullscreenenter"",""1"",""1945""
","
","","","745.5999999642372","","","11","10579","4934","&#9730;","elianto","#3366ff99"," "," ","1","0","[1596]","1","1","","","10579","4","1","1","win","go","1"
"pit-trial","128","968835","0.0-8.0","battery-v0.2","","""event"",""trial"",""time""
""fullscreenenter"",""1"",""1945""
","
","
","""event"",""trial"",""time""
""fullscreenenter"",""1"",""1945""
","
","","","800.8999999761581","","","11","10579","4934","&#9733;","elianto","#3366ff99","-1"," ","0","0","[1654]","1","1","","","10579","5","2","2","win","no-go","0"
"pit-trial","129","973705","0.0-9.0","battery-v0.2","","""event"",""trial"",""time""
""fullscreenenter"",""1"",""1945""
","
","
","""event"",""trial"",""time""
""fullscreenenter"",""1"",""1945""
","
","","","-1","","","11","10579","4934","&#9728;","elianto","#f73b6a7A","-1","-1","1","0","[651]","1","1","","","10579","6","0","4","lose","no-go","0"
"pit-trial","130","978571","0.0-10.0","battery-v0.2","","""event"",""trial"",""time""
""fullscreenenter"",""1"",""1945""
","
","
","""event"",""trial"",""time""
""fullscreenenter"",""1"",""1945""
","
","","","-1","","","11","10579","4934","&#9752;","elianto","#f73b6a7A"," ","-1","0","-10","[]","0","1","","","10579","7","3","3","lose","go","0"
"pit-trial","131","981884","0.0-11.0","battery-v0.2","","""event"",""trial"",""time""
""fullscreenenter"",""1"",""1945""
","
","
","""event"",""trial"",""time""
""fullscreenenter"",""1"",""1945""
","
","","","460.89999997615814","","","11","10579","4934","&#9730;","elianto","#3366ff99"," "," ","1","+10","[1311.0999999642372]","1","1","","","10579","8","1","1","win","go","0"
"pit-trial","132","985433","0.0-12.0","battery-v0.2","","""event"",""trial"",""time""
""fullscreenenter"",""1"",""1945""
","
","
","""event"",""trial"",""time""
""fullscreenenter"",""1"",""1945""
","
","","","696.9000000357628","","","11","10579","4934","&#9730;","elianto","#3366ff99"," "," ","1","0","[1547.4000000357628]","1","1","","","10579","9","1","1","win","go","1"
"pit-trial","133","989573","0.0-13.0","battery-v0.2","","""event"",""trial"",""time""
""fullscreenenter"",""1"",""1945""
","
","
","""event"",""trial"",""time""
""fullscreenenter"",""1"",""1945""
","
","","","1287.5","","","11","10579","4934","&#9752;","elianto","#f73b6a7A"," "," ","1","-10","[2138.400000035763]","1","1","","","10579","10","3","3","lose","go","1"
"pit-trial","134","993008","0.0-14.0","battery-v0.2","","""event"",""trial"",""time""
""fullscreenenter"",""1"",""1945""
","
","
","""event"",""trial"",""time""
""fullscreenenter"",""1"",""1945""
","
","","","581.5999999642372","","","11","10579","4934","&#9733;","elianto","#3366ff99","-1"," ","0","0","[1432]","1","1","","","10579","11","2","2","win","no-go","0"
"pit-trial","135","997861","0.0-15.0","battery-v0.2","","""event"",""trial"",""time""
""fullscreenenter"",""1"",""1945""
","
","
","""event"",""trial"",""time""
""fullscreenenter"",""1"",""1945""
","
","","","-1","","","11","10579","4934","&#9728;","elianto","#f73b6a7A","-1","-1","1","0","[]","0","1","","","10579","12","0","4","lose","no-go","0"
"pit-trial","136","1002714","0.0-16.0","battery-v0.2","","""event"",""trial"",""time""
""fullscreenenter"",""1"",""1945""
","
","
","""event"",""trial"",""time""
""fullscreenenter"",""1"",""1945""
","
","","","-1","","","11","10579","4934","&#9728;","elianto","#f73b6a7A","-1","-1","1","0","[]","0","1","","","10579","13","0","4","lose","no-go","0"
"pit-trial","137","1007567","0.0-17.0","battery-v0.2","","""event"",""trial"",""time""
""fullscreenenter"",""1"",""1945""
","
","
","""event"",""trial"",""time""
""fullscreenenter"",""1"",""1945""
","
","","","-1","","","11","10579","4934","&#9733;","elianto","#3366ff99","-1","-1","1","+10","[]","0","1","","","10579","14","2","2","win","no-go","0"
"pit-trial","138","1011552","0.0-18.0","battery-v0.2","","""event"",""trial"",""time""
""fullscreenenter"",""1"",""1945""
","
","
","""event"",""trial"",""time""
""fullscreenenter"",""1"",""1945""
","
","","","1133.300000011921","","","11","10579","4934","&#9752;","elianto","#f73b6a7A"," "," ","1","0","[1983.4000000357628]","1","1","","","10579","15","3","3","lose","go","0"
"pit-trial","139","1014899","0.0-19.0","battery-v0.2","","""event"",""trial"",""time""
""fullscreenenter"",""1"",""1945""
","
","
","""event"",""trial"",""time""
""fullscreenenter"",""1"",""1945""
","
","","","495.5","","","11","10579","4934","&#9730;","elianto","#3366ff99"," "," ","1","+10","[1345.8999999761581]","1","1","","","10579","16","1","1","win","go","0"
"pit-trial","140","1019752","0.0-20.0","battery-v0.2","","""event"",""trial"",""time""
""fullscreenenter"",""1"",""1945""
","
","
","""event"",""trial"",""time""
""fullscreenenter"",""1"",""1945""
","
","","","-1","","","11","10579","4934","&#9752;","elianto","#f73b6a7A"," ","-1","0","0","[]","0","1","","","10579","17","3","3","lose","go","1"
"pit-trial","141","1024605","0.0-21.0","battery-v0.2","","""event"",""trial"",""time""
""fullscreenenter"",""1"",""1945""
","
","
","""event"",""trial"",""time""
""fullscreenenter"",""1"",""1945""
","
","","","-1","","","11","10579","4934","&#9733;","elianto","#3366ff99","-1","-1","1","0","[]","0","1","","","10579","18","2","2","win","no-go","1"
"pit-trial","142","1027966","0.0-22.0","battery-v0.2","","""event"",""trial"",""time""
""fullscreenenter"",""1"",""1945""
","
","
","""event"",""trial"",""time""
""fullscreenenter"",""1"",""1945""
","
","","","509.2000000476837","","","11","10579","4934","&#9730;","elianto","#3366ff99"," "," ","1","+10","[1359.7000000476837]","1","1","","","10579","19","1","1","win","go","0"
"pit-trial","143","1032818","0.0-23.0","battery-v0.2","","""event"",""trial"",""time""
""fullscreenenter"",""1"",""1945""
","
","
","""event"",""trial"",""time""
""fullscreenenter"",""1"",""1945""
","
","","","-1","","","11","10579","4934","&#9728;","elianto","#f73b6a7A","-1","-1","1","-10","[]","0","1","","","10579","20","0","4","lose","no-go","1"
"pit-instructions","144","1044634","0.0-24.0","battery-v0.2","","""event"",""trial"",""time""
""fullscreenenter"",""1"",""1945""
","
","
","""event"",""trial"",""time""
""fullscreenenter"",""1"",""1945""
","
","","[{""page_index"":0,""viewing_time"":5721.400000035763},{""page_index"":1,""viewing_time"":6094}]","11815.5","","","","","","","","","","","","","","","","","","","","","","","",""
"pit-trial","145","1049509","0.0-25.0","battery-v0.2","","""event"",""trial"",""time""
""fullscreenenter"",""1"",""1945""
","
","
","""event"",""trial"",""time""
""fullscreenenter"",""1"",""1945""
","
","","","-1","","","11","10579","4934","a","elianto","#f73b6a7A"," ","-1","0","-10","[]","0","2","","","10579","21","2","3","lose","go","0"
"pit-trial","146","1052836","0.0-26.0","battery-v0.2","","""event"",""trial"",""time""
""fullscreenenter"",""1"",""1945""
","
","
","""event"",""trial"",""time""
""fullscreenenter"",""1"",""1945""
","
","","","468","","","11","10579","4934","l","elianto","#3366ff99","-1"," ","0","+10","[1318.199999988079]","1","2","","","10579","22","1","2","win","no-go","1"
"pit-trial","147","1056570","0.0-27.0","battery-v0.2","","""event"",""trial"",""time""
""fullscreenenter"",""1"",""1945""
","
","
","""event"",""trial"",""time""
""fullscreenenter"",""1"",""1945""
","
","","","869.9000000357628","","","11","10579","4934","u","elianto","#f73b6a7A"," "," ","1","0","[1721.6000000238419]","1","2","","","10579","23","0","3","lose","go","0"
"pit-trial","148","1059939","0.0-28.0","battery-v0.2","","""event"",""trial"",""time""
""fullscreenenter"",""1"",""1945""
","
","
","""event"",""trial"",""time""
""fullscreenenter"",""1"",""1945""
","
","","","504.60000002384186","","","11","10579","4934","g","elianto","#f73b6a7A","-1"," ","0","-10","[1355.800000011921]","1","2","","","10579","24","3","4","lose","no-go","0"
"pit-trial","149","1063782","0.0-29.0","battery-v0.2","","""event"",""trial"",""time""
""fullscreenenter"",""1"",""1945""
","
","
","""event"",""trial"",""time""
""fullscreenenter"",""1"",""1945""
","
","","","977.3000000119209","","","11","10579","4934","l","elianto","#3366ff99","-1"," ","0","+10","[1828.699999988079]","1","2","","","10579","25","1","2","win","no-go","1"
"pit-trial","150","1068656","0.0-30.0","battery-v0.2","","""event"",""trial"",""time""
""fullscreenenter"",""1"",""1945""
","
","
","""event"",""trial"",""time""
""fullscreenenter"",""1"",""1945""
","
","","","-1","","","11","10579","4934","g","elianto","#f73b6a7A","-1","-1","1","0","[]","0","2","","","10579","26","3","4","lose","no-go","0"
"pit-trial","151","1073521","0.0-31.0","battery-v0.2","","""event"",""trial"",""time""
""fullscreenenter"",""1"",""1945""
","
","
","""event"",""trial"",""time""
""fullscreenenter"",""1"",""1945""
","
","","","-1","","","11","10579","4934","a","elianto","#f73b6a7A"," ","-1","0","0","[]","0","2","","","10579","27","2","3","lose","go","1"
"pit-trial","152","1078374","0.0-32.0","battery-v0.2","","""event"",""trial"",""time""
""fullscreenenter"",""1"",""1945""
","
","
","""event"",""trial"",""time""
""fullscreenenter"",""1"",""1945""
","
","","","-1","","","11","10579","4934","u","elianto","#f73b6a7A"," ","-1","0","-10","[]","0","2","","","10579","28","0","3","lose","go","0"
"pit-trial","153","1083225","0.0-33.0","battery-v0.2","","""event"",""trial"",""time""
""fullscreenenter"",""1"",""1945""
","
","
","""event"",""trial"",""time""
""fullscreenenter"",""1"",""1945""
","
","","","-1","","","11","10579","4934","a","elianto","#f73b6a7A"," ","-1","0","0","[]","0","2","","","10579","29","2","3","lose","go","1"
"pit-trial","154","1088077","0.0-34.0","battery-v0.2","","""event"",""trial"",""time""
""fullscreenenter"",""1"",""1945""
","
","
","""event"",""trial"",""time""
""fullscreenenter"",""1"",""1945""
","
","","","-1","","","11","10579","4934","u","elianto","#f73b6a7A"," ","-1","0","-10","[]","0","2","","","10579","30","0","3","lose","go","0"
"pit-trial","155","1091698","0.0-35.0","battery-v0.2","","""event"",""trial"",""time""
""fullscreenenter"",""1"",""1945""
","
","
","""event"",""trial"",""time""
""fullscreenenter"",""1"",""1945""
","
","","","769.0999999642372","","","11","10579","4934","g","elianto","#f73b6a7A","-1"," ","0","-10","[1619.5]","1","2","","","10579","31","3","4","lose","no-go","0"
"pit-trial","156","1094940","0.0-36.0","battery-v0.2","","""event"",""trial"",""time""
""fullscreenenter"",""1"",""1945""
","
","
","""event"",""trial"",""time""
""fullscreenenter"",""1"",""1945""
","
","","","389.89999997615814","","","11","10579","4934","l","elianto","#3366ff99","-1"," ","0","0","[1240.5]","1","2","","","10579","32","1","2","win","no-go","0"
"pit-trial","157","1098310","0.0-37.0","battery-v0.2","","""event"",""trial"",""time""
""fullscreenenter"",""1"",""1945""
","
","
","""event"",""trial"",""time""
""fullscreenenter"",""1"",""1945""
","
","","","518.2999999523163","","","11","10579","4934","l","elianto","#3366ff99","-1"," ","0","0","[1368.8999999761581]","1","2","","","10579","33","1","2","win","no-go","0"
"pit-trial","158","1101806","0.0-38.0","battery-v0.2","","""event"",""trial"",""time""
""fullscreenenter"",""1"",""1945""
","
","
","""event"",""trial"",""time""
""fullscreenenter"",""1"",""1945""
","
","","","643.8000000119209","","","11","10579","4934","g","elianto","#f73b6a7A","-1"," ","0","-10","[1493.800000011921]","1","2","","","10579","34","3","4","lose","no-go","0"
"pit-trial","159","1106658","0.0-39.0","battery-v0.2","","""event"",""trial"",""time""
""fullscreenenter"",""1"",""1945""
","
","
","""event"",""trial"",""time""
""fullscreenenter"",""1"",""1945""
","
","","","-1","","","11","10579","4934","a","elianto","#f73b6a7A"," ","-1","0","-10","[4433.5]","1","2","","","10579","35","2","3","lose","go","0"
"pit-trial","160","1109903","0.0-40.0","battery-v0.2","","""event"",""trial"",""time""
""fullscreenenter"",""1"",""1945""
","
","
","""event"",""trial"",""time""
""fullscreenenter"",""1"",""1945""
","
","","","392.80000001192093","","","11","10579","4934","u","elianto","#f73b6a7A"," "," ","1","0","[1243]","1","2","","","10579","36","0","3","lose","go","0"
"pit-trial","161","1114755","0.0-41.0","battery-v0.2","","""event"",""trial"",""time""
""fullscreenenter"",""1"",""1945""
","
","
","""event"",""trial"",""time""
""fullscreenenter"",""1"",""1945""
","
","","","-1","","","11","10579","4934","u","elianto","#f73b6a7A"," ","-1","0","-10","[]","0","2","","","10579","37","0","3","lose","go","0"
"pit-trial","162","1119165","0.0-42.0","battery-v0.2","","""event"",""trial"",""time""
""fullscreenenter"",""1"",""1945""
","
","
","""event"",""trial"",""time""
""fullscreenenter"",""1"",""1945""
","
","","","1557.300000011921","","","11","10579","4934","g","elianto","#f73b6a7A","-1"," ","0","-10","[2407.899999976158]","1","2","","","10579","38","3","4","lose","no-go","0"
"pit-trial","163","1124019","0.0-43.0","battery-v0.2","","""event"",""trial"",""time""
""fullscreenenter"",""1"",""1945""
","
","
","""event"",""trial"",""time""
""fullscreenenter"",""1"",""1945""
","
","","","-1","","","11","10579","4934","l","elianto","#3366ff99","-1","-1","1","0","[]","0","2","","","10579","39","1","2","win","no-go","1"
"pit-trial","164","1128872","0.0-44.0","battery-v0.2","","""event"",""trial"",""time""
""fullscreenenter"",""1"",""1945""
","
","
","""event"",""trial"",""time""
""fullscreenenter"",""1"",""1945""
","
","","","-1","","","11","10579","4934","a","elianto","#f73b6a7A"," ","-1","0","0","[]","0","2","","","10579","40","2","3","lose","go","1"
"pit-trial","165","1131944","0.0-45.0","battery-v0.2","","""event"",""trial"",""time""
""fullscreenenter"",""1"",""1945""
","
","
","""event"",""trial"",""time""
""fullscreenenter"",""1"",""1945""
","
","","","219.79999995231628","","","11","10579","4934","l","elianto","#3366ff99","-1"," ","0","0","[1070.199999988079]","1","2","","","10579","41","1","2","win","no-go","0"
"pit-trial","166","1134933","0.0-46.0","battery-v0.2","","""event"",""trial"",""time""
""fullscreenenter"",""1"",""1945""
","
","
","""event"",""trial"",""time""
""fullscreenenter"",""1"",""1945""
","
","","","136.39999997615814","","","11","10579","4934","a","elianto","#f73b6a7A"," "," ","1","0","[986.8999999761581,1297.3999999761581,1326.5,1329.2999999523163,1338.2999999523163,1341.2999999523163,1370.7999999523163,1373.2999999523163,1382.199999988079,1385.199999988079,1393.3999999761581,1405.199999988079,1408.2999999523163,1417.5,1420.2999999523163,1448.2999999523163,1451.199999988079,1460.199999988079,1463.3999999761581,1471.5999999642372,1483.3999999761581,1486.2999999523163,1495.2999999523163,1498.3999999761581,1526.2999999523163,1535.199999988079,1544.3999999761581,1558.2999999523163,1568.5,1578.199999988079,1586.2999999523163,1609.2999999523163,1617.2999999523163,1625.2999999523163,1633.2999999523163,1693.2999999523163,1727.199999988079,1733.2999999523163,1738.199999988079,1741.2999999523163,1743.199999988079,1772.199999988079,1778.2999999523163,1784.2999999523163,1787.3999999761581,1789.2999999523163,1801.2999999523163,1810.2999999523163,1818.2999999523163,1846.2999999523163,1855.2999999523163,1864.2999999523163,1878.2999999523163,1887.5,1896.199999988079,1925.199999988079,1934.199999988079,1943.199999988079,1972.2999999523163,1981.199999988079,1990.2999999523163,2004.5,2013.199999988079,2022.199999988079,2024.3999999761581,2054.199999988079,2060.2999999523163,2069.2999999523163,2071.5,2086.2999999523163,2095.2999999523163,2103.2999999523163,2129.2999999523163,2133.2999999523163,2136.5,2148.2999999523163,2156.399999976158,2211.2999999523163,2217.2999999523163,2223.2999999523163,2228.2999999523163,2231.2999999523163,2234.2999999523163,2245.2999999523163,2254.2999999523163,2282.2999999523163,2291.199999988079,2300.2999999523163,2328.2999999523163,2337.199999988079,2346.199999988079,2359.199999988079,2368.399999976158,2377.199999988079,2407.199999988079,2416.2999999523163,2426.199999988079,2439.2999999523163,2448.199999988079,2457.2999999523163,2487.199999988079,2495.2999999523163,2503.2999999523163,2511.2999999523163,2564.2999999523163,2570.399999976158,2576.2999999523163,2582.2999999523163,2585.2999999523163,2587.2999999523163,2614.199999988079,2623.2999999523163,2631.199999988079,2641.2999999523163,2650.2999999523163,2659.7999999523163,2661.2999999523163,2690.199999988079,2699.199999988079,2716.2999999523163,2738.199999988079,2766.2999999523163,2775.2999999523163,2784.5,2811.2999999523163,2820.2999999523163,2829.199999988079,2843.2999999523163,2852.199999988079,2861.199999988079,2890.199999988079,2899.199999988079,2908.199999988079,2920.2999999523163,2929.2999999523163,2938.2999999523163,2967.2999999523163,2977.199999988079,2985.199999988079]","139","2","","","10579","42","2","3","lose","go","0"
"pit-trial","167","1137791","0.0-47.0","battery-v0.2","","""event"",""trial"",""time""
""fullscreenenter"",""1"",""1945""
","
","
","""event"",""trial"",""time""
""fullscreenenter"",""1"",""1945""
","
","","","5.300000011920929","","","11","10579","4934","g","elianto","#f73b6a7A","-1"," ","0","0","[3.899999976158142,55.89999997615814,64.80000001192093,73.80000001192093,101.80000001192093,110.89999997615814,119.89999997615814,133.80000001192093,142.89999997615814,151.80000001192093,181.80000001192093,191.30000001192093,199.89999997615814,213.89999997615814,222.80000001192093,231.80000001192093,259.80000001192093,268.89999997615814,277.89999997615814,289.80000001192093,298.89999997615814,307.89999997615814,337.89999997615814,346.80000001192093,355,362.80000001192093,416.89999997615814,424.89999997615814,435.89999997615814,440.89999997615814,448.89999997615814,454.80000001192093,460.89999997615814,466.80000001192093,470.10000002384186,471.80000001192093,502.80000001192093,508.89999997615814,514.8999999761581,517.8999999761581,519.8000000119209,531.8000000119209,540.8999999761581,548.8000000119209,575.8999999761581,585.3000000119209,593.8999999761581,622.8999999761581,634.8999999761581,640.8999999761581,643.8999999761581,646,661.3999999761581,666.8999999761581,671.8000000119209,713.8999999761581,721.8999999761581,734,742.8999999761581,751.8999999761581,781,789.8999999761581,817.8999999761581,826.8999999761581,856,864.8999999761581,873.8999999761581]","67","2","","","10579","43","3","4","lose","no-go","1"
"pit-trial","168","1142642","0.0-48.0","battery-v0.2","","""event"",""trial"",""time""
""fullscreenenter"",""1"",""1945""
","
","
","""event"",""trial"",""time""
""fullscreenenter"",""1"",""1945""
","
","","","-1","","","11","10579","4934","u","elianto","#f73b6a7A"," ","-1","0","-10","[]","0","2","","","10579","44","0","3","lose","go","0"
"pit-trial","169","1147493","0.0-49.0","battery-v0.2","","""event"",""trial"",""time""
""fullscreenenter"",""1"",""1945""
","
","
","""event"",""trial"",""time""
""fullscreenenter"",""1"",""1945""
","
","","","-1","","","11","10579","4934","a","elianto","#f73b6a7A"," ","-1","0","-10","[]","0","2","","","10579","45","2","3","lose","go","0"
"pit-trial","170","1152346","0.0-50.0","battery-v0.2","","""event"",""trial"",""time""
""fullscreenenter"",""1"",""1945""
","
","
","""event"",""trial"",""time""
""fullscreenenter"",""1"",""1945""
","
","","","-1","","","11","10579","4934","g","elianto","#f73b6a7A","-1","-1","1","-10","[]","0","2","","","10579","46","3","4","lose","no-go","1"
"pit-trial","171","1155680","0.0-51.0","battery-v0.2","","""event"",""trial"",""time""
""fullscreenenter"",""1"",""1945""
","
","
","""event"",""trial"",""time""
""fullscreenenter"",""1"",""1945""
","
","","","482.19999998807907","","","11","10579","4934","l","elianto","#3366ff99","-1"," ","0","+10","[1332.5]","1","2","","","10579","47","1","2","win","no-go","1"
"pit-trial","172","1158828","0.0-52.0","battery-v0.2","","""event"",""trial"",""time""
""fullscreenenter"",""1"",""1945""
","
","
","""event"",""trial"",""time""
""fullscreenenter"",""1"",""1945""
","
","","","295.2000000476837","","","11","10579","4934","u","elianto","#f73b6a7A"," "," ","1","-10","[1145.9000000357628]","1","2","","","10579","48","0","3","lose","go","1"
"pit-trial","173","1162133","0.0-53.0","battery-v0.2","","""event"",""trial"",""time""
""fullscreenenter"",""1"",""1945""
","
","
","""event"",""trial"",""time""
""fullscreenenter"",""1"",""1945""
","
","","","453.4000000357628","","","11","10579","4934","u","elianto","#f73b6a7A"," "," ","1","0","[1303.5]","1","2","","","10579","49","0","3","lose","go","0"
"pit-trial","174","1166986","0.0-54.0","battery-v0.2","","""event"",""trial"",""time""
""fullscreenenter"",""1"",""1945""
","
","
","""event"",""trial"",""time""
""fullscreenenter"",""1"",""1945""
","
","","","-1","","","11","10579","4934","g","elianto","#f73b6a7A","-1","-1","1","0","[]","0","2","","","10579","50","3","4","lose","no-go","0"
"pit-trial","175","1171839","0.0-55.0","battery-v0.2","","""event"",""trial"",""time""
""fullscreenenter"",""1"",""1945""
","
","
","""event"",""trial"",""time""
""fullscreenenter"",""1"",""1945""
","
","","","-1","","","11","10579","4934","a","elianto","#f73b6a7A"," ","-1","0","0","[]","0","2","","","10579","51","2","3","lose","go","1"
"pit-trial","176","1175719","0.0-56.0","battery-v0.2","","""event"",""trial"",""time""
""fullscreenenter"",""1"",""1945""
","
","
","""event"",""trial"",""time""
""fullscreenenter"",""1"",""1945""
","
","","","1028.6000000238419","","","11","10579","4934","l","elianto","#3366ff99","-1"," ","0","0","[1879,2209.699999988079]","2","2","","","10579","52","1","2","win","no-go","0"
"pit-trial","177","1179210","0.0-57.0","battery-v0.2","","""event"",""trial"",""time""
""fullscreenenter"",""1"",""1945""
","
","
","""event"",""trial"",""time""
""fullscreenenter"",""1"",""1945""
","
","","","639.9000000357628","","","11","10579","4934","l","elianto","#3366ff99","-1"," ","0","0","[1490.300000011921]","1","2","","","10579","53","1","2","win","no-go","0"
"pit-trial","178","1184061","0.0-58.0","battery-v0.2","","""event"",""trial"",""time""
""fullscreenenter"",""1"",""1945""
","
","
","""event"",""trial"",""time""
""fullscreenenter"",""1"",""1945""
","
","","","-1","","","11","10579","4934","u","elianto","#f73b6a7A"," ","-1","0","-10","[]","0","2","","","10579","54","0","3","lose","go","0"
"pit-trial","179","1188192","0.0-59.0","battery-v0.2","","""event"",""trial"",""time""
""fullscreenenter"",""1"",""1945""
","
","
","""event"",""trial"",""time""
""fullscreenenter"",""1"",""1945""
","
","","","1278.5","","","11","10579","4934","a","elianto","#f73b6a7A"," "," ","1","0","[2128.800000011921,2535.400000035763,2541.400000035763]","3","2","","","10579","55","2","3","lose","go","0"
"pit-trial","180","1193045","0.0-60.0","battery-v0.2","","""event"",""trial"",""time""
""fullscreenenter"",""1"",""1945""
","
","
","""event"",""trial"",""time""
""fullscreenenter"",""1"",""1945""
","
","","","-1","","","11","10579","4934","g","elianto","#f73b6a7A","-1","-1","1","0","[]","0","2","","","10579","56","3","4","lose","no-go","0"
"pit-trial","181","1197899","0.0-61.0","battery-v0.2","","""event"",""trial"",""time""
""fullscreenenter"",""1"",""1945""
","
","
","""event"",""trial"",""time""
""fullscreenenter"",""1"",""1945""
","
","","","-1","","","11","10579","4934","g","elianto","#f73b6a7A","-1","-1","1","0","[]","0","2","","","10579","57","3","4","lose","no-go","0"
"pit-trial","182","1201529","0.0-62.0","battery-v0.2","","""event"",""trial"",""time""
""fullscreenenter"",""1"",""1945""
","
","
","""event"",""trial"",""time""
""fullscreenenter"",""1"",""1945""
","
","","","777.6000000238419","","","11","10579","4934","p","elianto","#3366ff99"," "," ","1","+10","[1627.7000000476837]","1","2","","","10579","58","4","1","win","go","0"
"pit-trial","183","1206381","0.0-63.0","battery-v0.2","","""event"",""trial"",""time""
""fullscreenenter"",""1"",""1945""
","
","
","""event"",""trial"",""time""
""fullscreenenter"",""1"",""1945""
","
","","","-1","","","11","10579","4934","u","elianto","#f73b6a7A"," ","-1","0","-10","[3532.400000035763]","1","2","","","10579","59","0","3","lose","go","0"
"pit-trial","184","1211234","0.0-64.0","battery-v0.2","","""event"",""trial"",""time""
""fullscreenenter"",""1"",""1945""
","
","
","""event"",""trial"",""time""
""fullscreenenter"",""1"",""1945""
","
","","","-1","","","11","10579","4934","a","elianto","#f73b6a7A"," ","-1","0","-10","[]","0","2","","","10579","60","2","3","lose","go","0"
"pit-trial","185","1216086","0.0-65.0","battery-v0.2","","""event"",""trial"",""time""
""fullscreenenter"",""1"",""1945""
","
","
","""event"",""trial"",""time""
""fullscreenenter"",""1"",""1945""
","
","","","-1","","","11","10579","4934","l","elianto","#3366ff99","-1","-1","1","0","[]","0","2","","","10579","61","1","2","win","no-go","1"
"pit-trial","186","1220937","0.0-66.0","battery-v0.2","","""event"",""trial"",""time""
""fullscreenenter"",""1"",""1945""
","
","
","""event"",""trial"",""time""
""fullscreenenter"",""1"",""1945""
","
","","","-1","","","11","10579","4934","a","elianto","#f73b6a7A"," ","-1","0","-10","[3105.199999988079]","1","2","","","10579","62","2","3","lose","go","0"
"pit-trial","187","1225791","0.0-67.0","battery-v0.2","","""event"",""trial"",""time""
""fullscreenenter"",""1"",""1945""
","
","
","""event"",""trial"",""time""
""fullscreenenter"",""1"",""1945""
","
","","","-1","","","11","10579","4934","p","elianto","#3366ff99"," ","-1","0","0","[]","0","2","","","10579","63","4","1","win","go","0"
"pit-trial","188","1228757","0.0-68.0","battery-v0.2","","""event"",""trial"",""time""
""fullscreenenter"",""1"",""1945""
","
","
","""event"",""trial"",""time""
""fullscreenenter"",""1"",""1945""
","
","","","113.30000001192093","","","11","10579","4934","g","elianto","#f73b6a7A","-1"," ","0","-10","[185.19999998807907,626.0999999642372,964,1870.0999999642372]","4","2","","","10579","64","3","4","lose","no-go","0"
"pit-trial","189","1232202","0.0-69.0","battery-v0.2","","""event"",""trial"",""time""
""fullscreenenter"",""1"",""1945""
","
","
","""event"",""trial"",""time""
""fullscreenenter"",""1"",""1945""
","
","","","591.6000000238419","","","11","10579","4934","p","elianto","#3366ff99"," "," ","1","+10","[46.90000003576279,1441.9000000357628]","2","2","","","10579","65","4","1","win","go","0"
"pit-trial","190","1235897","0.0-70.0","battery-v0.2","","""event"",""trial"",""time""
""fullscreenenter"",""1"",""1945""
","
","
","""event"",""trial"",""time""
""fullscreenenter"",""1"",""1945""
","
","","","843.1999999880791","","","11","10579","4934","g","elianto","#f73b6a7A","-1"," ","0","0","[1693.800000011921]","1","2","","","10579","66","3","4","lose","no-go","1"
"pit-trial","191","1239434","0.0-71.0","battery-v0.2","","""event"",""trial"",""time""
""fullscreenenter"",""1"",""1945""
","
","
","""event"",""trial"",""time""
""fullscreenenter"",""1"",""1945""
","
","","","684.8000000119209","","","11","10579","4934","s","elianto","#3366ff99","-1"," ","0","0","[1535]","1","2","","","10579","67","5","2","win","no-go","0"
"pit-trial","192","1242650","0.0-72.0","battery-v0.2","","""event"",""trial"",""time""
""fullscreenenter"",""1"",""1945""
","
","
","""event"",""trial"",""time""
""fullscreenenter"",""1"",""1945""
","
","","","363.4000000357628","","","11","10579","4934","l","elianto","#3366ff99","-1"," ","0","0","[1214.199999988079]","1","2","","","10579","68","1","2","win","no-go","0"
"pit-trial","193","1245952","0.0-73.0","battery-v0.2","","""event"",""trial"",""time""
""fullscreenenter"",""1"",""1945""
","
","
","""event"",""trial"",""time""
""fullscreenenter"",""1"",""1945""
","
","","","449.9000000357628","","","11","10579","4934","s","elianto","#3366ff99","-1"," ","0","0","[60.10000002384186,1299.9000000357628,2897.100000023842]","3","2","","","10579","69","5","2","win","no-go","0"
"pit-trial","194","1249382","0.0-74.0","battery-v0.2","","""event"",""trial"",""time""
""fullscreenenter"",""1"",""1945""
","
","
","""event"",""trial"",""time""
""fullscreenenter"",""1"",""1945""
","
","","","578.3000000119209","","","11","10579","4934","l","elianto","#3366ff99","-1"," ","0","0","[1428.699999988079]","1","2","","","10579","70","1","2","win","no-go","0"
"pit-trial","195","1254234","0.0-75.0","battery-v0.2","","""event"",""trial"",""time""
""fullscreenenter"",""1"",""1945""
","
","
","""event"",""trial"",""time""
""fullscreenenter"",""1"",""1945""
","
","","","-1","","","11","10579","4934","p","elianto","#3366ff99"," ","-1","0","0","[]","0","2","","","10579","71","4","1","win","go","0"
"pit-trial","196","1259088","0.0-76.0","battery-v0.2","","""event"",""trial"",""time""
""fullscreenenter"",""1"",""1945""
","
","
","""event"",""trial"",""time""
""fullscreenenter"",""1"",""1945""
","
","","","-1","","","11","10579","4934","a","elianto","#f73b6a7A"," ","-1","0","-10","[]","0","2","","","10579","72","2","3","lose","go","0"
"pit-trial","197","1262678","0.0-77.0","battery-v0.2","","""event"",""trial"",""time""
""fullscreenenter"",""1"",""1945""
","
","
","""event"",""trial"",""time""
""fullscreenenter"",""1"",""1945""
","
","","","737.5999999642372","","","11","10579","4934","p","elianto","#3366ff99"," "," ","1","+10","[1588.5]","1","2","","","10579","73","4","1","win","go","0"
"pit-trial","198","1266240","0.0-78.0","battery-v0.2","","""event"",""trial"",""time""
""fullscreenenter"",""1"",""1945""
","
","
","""event"",""trial"",""time""
""fullscreenenter"",""1"",""1945""
","
","","","709.8999999761581","","","11","10579","4934","s","elianto","#3366ff99","-1"," ","0","+10","[1560.300000011921]","1","2","","","10579","74","5","2","win","no-go","1"
"pit-trial","199","1269821","0.0-79.0","battery-v0.2","","""event"",""trial"",""time""
""fullscreenenter"",""1"",""1945""
","
","
","""event"",""trial"",""time""
""fullscreenenter"",""1"",""1945""
","
","","","728","","","11","10579","4934","l","elianto","#3366ff99","-1"," ","0","0","[1578.7000000476837]","1","2","","","10579","75","1","2","win","no-go","0"
"pit-trial","200","1274674","0.0-80.0","battery-v0.2","","""event"",""trial"",""time""
""fullscreenenter"",""1"",""1945""
","
","
","""event"",""trial"",""time""
""fullscreenenter"",""1"",""1945""
","
","","","-1","","","11","10579","4934","g","elianto","#f73b6a7A","-1","-1","1","0","[]","0","2","","","10579","76","3","4","lose","no-go","0"
"pit-trial","201","1278440","0.0-81.0","battery-v0.2","","""event"",""trial"",""time""
""fullscreenenter"",""1"",""1945""
","
","
","""event"",""trial"",""time""
""fullscreenenter"",""1"",""1945""
","
","","","913.2000000476837","","","11","10579","4934","p","elianto","#3366ff99"," "," ","1","+10","[1763.6000000238419]","1","2","","","10579","77","4","1","win","go","0"
"pit-trial","202","1282940","0.0-82.0","battery-v0.2","","""event"",""trial"",""time""
""fullscreenenter"",""1"",""1945""
","
","
","""event"",""trial"",""time""
""fullscreenenter"",""1"",""1945""
","
","","","1646.9000000357628","","","11","10579","4934","p","elianto","#3366ff99"," "," ","1","+10","[2497.7000000476837]","1","2","","","10579","78","4","1","win","go","0"
"pit-trial","203","1287792","0.0-83.0","battery-v0.2","","""event"",""trial"",""time""
""fullscreenenter"",""1"",""1945""
","
","
","""event"",""trial"",""time""
""fullscreenenter"",""1"",""1945""
","
","","","-1","","","11","10579","4934","s","elianto","#3366ff99","-1","-1","1","+10","[]","0","2","","","10579","79","5","2","win","no-go","0"
"pit-trial","204","1290772","0.0-84.0","battery-v0.2","","""event"",""trial"",""time""
""fullscreenenter"",""1"",""1945""
","
","
","""event"",""trial"",""time""
""fullscreenenter"",""1"",""1945""
","
","","","126.60000002384186","","","11","10579","4934","g","elianto","#f73b6a7A","-1"," ","0","-10","[977.3000000119209]","1","2","","","10579","80","3","4","lose","no-go","0"
"pit-trial","205","1295624","0.0-85.0","battery-v0.2","","""event"",""trial"",""time""
""fullscreenenter"",""1"",""1945""
","
","
","""event"",""trial"",""time""
""fullscreenenter"",""1"",""1945""
","
","","","-1","","","11","10579","4934","p","elianto","#3366ff99"," ","-1","0","0","[]","0","2","","","10579","81","4","1","win","go","0"
"pit-trial","206","1300477","0.0-86.0","battery-v0.2","","""event"",""trial"",""time""
""fullscreenenter"",""1"",""1945""
","
","
","""event"",""trial"",""time""
""fullscreenenter"",""1"",""1945""
","
","","","-1","","","11","10579","4934","e","elianto","#f73b6a7A","-1","-1","1","0","[]","0","2","","","10579","82","7","4","lose","no-go","0"
"pit-trial","207","1304321","0.0-87.0","battery-v0.2","","""event"",""trial"",""time""
""fullscreenenter"",""1"",""1945""
","
","
","""event"",""trial"",""time""
""fullscreenenter"",""1"",""1945""
","
","","","991.3000000119209","","","11","10579","4934","s","elianto","#3366ff99","-1"," ","0","0","[1841.8999999761581]","1","2","","","10579","83","5","2","win","no-go","0"
"pit-trial","208","1309173","0.0-88.0","battery-v0.2","","""event"",""trial"",""time""
""fullscreenenter"",""1"",""1945""
","
","
","""event"",""trial"",""time""
""fullscreenenter"",""1"",""1945""
","
","","","-1","","","11","10579","4934","g","elianto","#f73b6a7A","-1","-1","1","0","[]","0","2","","","10579","84","3","4","lose","no-go","0"
"pit-trial","209","1312967","0.0-89.0","battery-v0.2","","""event"",""trial"",""time""
""fullscreenenter"",""1"",""1945""
","
","
","""event"",""trial"",""time""
""fullscreenenter"",""1"",""1945""
","
","","","942.1999999880791","","","11","10579","4934","s","elianto","#3366ff99","-1"," ","0","0","[1792.199999988079]","1","2","","","10579","85","5","2","win","no-go","0"
"pit-trial","210","1317821","0.0-90.0","battery-v0.2","","""event"",""trial"",""time""
""fullscreenenter"",""1"",""1945""
","
","
","""event"",""trial"",""time""
""fullscreenenter"",""1"",""1945""
","
","","","-1","","","11","10579","4934","w","elianto","#f73b6a7A"," ","-1","0","-10","[4238.099999964237,4273.699999988079,4351.599999964237,4371.5]","4","2","","","10579","86","6","3","lose","go","0"
"pit-trial","211","1322673","0.0-91.0","battery-v0.2","","""event"",""trial"",""time""
""fullscreenenter"",""1"",""1945""
","
","
","""event"",""trial"",""time""
""fullscreenenter"",""1"",""1945""
","
","","","-1","","","11","10579","4934","e","elianto","#f73b6a7A","-1","-1","1","0","[]","0","2","","","10579","87","7","4","lose","no-go","0"
"pit-trial","212","1326018","0.0-92.0","battery-v0.2","","""event"",""trial"",""time""
""fullscreenenter"",""1"",""1945""
","
","
","""event"",""trial"",""time""
""fullscreenenter"",""1"",""1945""
","
","","","492.80000001192093","","","11","10579","4934","p","elianto","#3366ff99"," "," ","1","+10","[1343.4000000357628]","1","2","","","10579","88","4","1","win","go","0"
"pit-trial","213","1330871","0.0-93.0","battery-v0.2","","""event"",""trial"",""time""
""fullscreenenter"",""1"",""1945""
","
","
","""event"",""trial"",""time""
""fullscreenenter"",""1"",""1945""
","
","","","-1","","","11","10579","4934","w","elianto","#f73b6a7A"," ","-1","0","0","[3784.400000035763]","1","2","","","10579","89","6","3","lose","go","1"
"pit-trial","214","1334445","0.0-94.0","battery-v0.2","","""event"",""trial"",""time""
""fullscreenenter"",""1"",""1945""
","
","
","""event"",""trial"",""time""
""fullscreenenter"",""1"",""1945""
","
","","","723","","","11","10579","4934","p","elianto","#3366ff99"," "," ","1","+10","[1573.300000011921,1817,3270.300000011921]","3","2","","","10579","90","4","1","win","go","0"
"pit-trial","215","1339298","0.0-95.0","battery-v0.2","","""event"",""trial"",""time""
""fullscreenenter"",""1"",""1945""
","
","
","""event"",""trial"",""time""
""fullscreenenter"",""1"",""1945""
","
","","","-1","","","11","10579","4934","e","elianto","#f73b6a7A","-1","-1","1","-10","[]","0","2","","","10579","91","7","4","lose","no-go","1"
"pit-trial","216","1342827","0.0-96.0","battery-v0.2","","""event"",""trial"",""time""
""fullscreenenter"",""1"",""1945""
","
","
","""event"",""trial"",""time""
""fullscreenenter"",""1"",""1945""
","
","","","676.8000000119209","","","11","10579","4934","s","elianto","#3366ff99","-1"," ","0","+10","[1527.199999988079,1848.8999999761581,1893.800000011921,1939.800000011921,1970.8999999761581,2014.800000011921,2019.800000011921,2063.100000023842,2086.699999988079]","9","2","","","10579","92","5","2","win","no-go","1"
"pit-trial","217","1347670","0.0-97.0","battery-v0.2","","""event"",""trial"",""time""
""fullscreenenter"",""1"",""1945""
","
","
","""event"",""trial"",""time""
""fullscreenenter"",""1"",""1945""
","
","","","1991.5","","","11","10579","4934","d","elianto","#3366ff99"," "," ","1","+10","[2841.800000011921]","1","2","","","10579","93","8","1","win","go","0"
"pit-trial","218","1352338","0.0-98.0","battery-v0.2","","""event"",""trial"",""time""
""fullscreenenter"",""1"",""1945""
","
","
","""event"",""trial"",""time""
""fullscreenenter"",""1"",""1945""
","
","","","1815.4000000357628","","","11","10579","4934","w","elianto","#f73b6a7A"," "," ","1","0","[2666.300000011921]","1","2","","","10579","94","6","3","lose","go","0"
"pit-trial","219","1355635","0.0-99.0","battery-v0.2","","""event"",""trial"",""time""
""fullscreenenter"",""1"",""1945""
","
","
","""event"",""trial"",""time""
""fullscreenenter"",""1"",""1945""
","
","","","444.69999998807907","","","11","10579","4934","s","elianto","#3366ff99","-1"," ","0","0","[1295.300000011921]","1","2","","","10579","95","5","2","win","no-go","0"
"pit-trial","220","1360488","0.0-100.0","battery-v0.2","","""event"",""trial"",""time""
""fullscreenenter"",""1"",""1945""
","
","
","""event"",""trial"",""time""
""fullscreenenter"",""1"",""1945""
","
","","","-1","","","11","10579","4934","e","elianto","#f73b6a7A","-1","-1","1","0","[]","0","2","","","10579","96","7","4","lose","no-go","0"
"pit-trial","221","1365341","0.0-101.0","battery-v0.2","","""event"",""trial"",""time""
""fullscreenenter"",""1"",""1945""
","
","
","""event"",""trial"",""time""
""fullscreenenter"",""1"",""1945""
","
","","","-1","","","11","10579","4934","w","elianto","#f73b6a7A"," ","-1","0","-10","[]","0","2","","","10579","97","6","3","lose","go","0"
"pit-trial","222","1369865","0.0-102.0","battery-v0.2","","""event"",""trial"",""time""
""fullscreenenter"",""1"",""1945""
","
","
","""event"",""trial"",""time""
""fullscreenenter"",""1"",""1945""
","
","","","1672.6000000238419","","","11","10579","4934","s","elianto","#3366ff99","-1"," ","0","0","[2522.900000035763]","1","2","","","10579","98","5","2","win","no-go","0"
"pit-trial","223","1373935","0.0-103.0","battery-v0.2","","""event"",""trial"",""time""
""fullscreenenter"",""1"",""1945""
","
","
","""event"",""trial"",""time""
""fullscreenenter"",""1"",""1945""
","
","","","1218.1000000238419","","","11","10579","4934","d","elianto","#3366ff99"," "," ","1","+10","[2069,4035.899999976158]","2","2","","","10579","99","8","1","win","go","0"
"pit-trial","224","1378787","0.0-104.0","battery-v0.2","","""event"",""trial"",""time""
""fullscreenenter"",""1"",""1945""
","
","
","""event"",""trial"",""time""
""fullscreenenter"",""1"",""1945""
","
","","","-1","","","11","10579","4934","e","elianto","#f73b6a7A","-1","-1","1","0","[]","0","2","","","10579","100","7","4","lose","no-go","0"
"pit-trial","225","1382099","0.0-105.0","battery-v0.2","","""event"",""trial"",""time""
""fullscreenenter"",""1"",""1945""
","
","
","""event"",""trial"",""time""
""fullscreenenter"",""1"",""1945""
","
","","","459.39999997615814","","","11","10579","4934","s","elianto","#3366ff99","-1"," ","0","0","[1310.199999988079]","1","2","","","10579","101","5","2","win","no-go","0"
"pit-trial","226","1385201","0.0-106.0","battery-v0.2","","""event"",""trial"",""time""
""fullscreenenter"",""1"",""1945""
","
","
","""event"",""trial"",""time""
""fullscreenenter"",""1"",""1945""
","
","","","250.69999998807907","","","11","10579","4934","j","elianto","#3366ff99"," "," ","1","+10","[1101.5999999642372]","1","2","","","10579","102","9","1","win","go","0"
"pit-trial","227","1389695","0.0-107.0","battery-v0.2","","""event"",""trial"",""time""
""fullscreenenter"",""1"",""1945""
","
","
","""event"",""trial"",""time""
""fullscreenenter"",""1"",""1945""
","
","","","1641.5999999642372","","","11","10579","4934","d","elianto","#3366ff99"," "," ","1","+10","[2492]","1","2","","","10579","103","8","1","win","go","0"
"pit-trial","228","1393173","0.0-108.0","battery-v0.2","","""event"",""trial"",""time""
""fullscreenenter"",""1"",""1945""
","
","
","""event"",""trial"",""time""
""fullscreenenter"",""1"",""1945""
","
","","","626","","","11","10579","4934","e","elianto","#f73b6a7A","-1"," ","0","0","[1476.2999999523163]","1","2","","","10579","104","7","4","lose","no-go","1"
"pit-trial","229","1398026","0.0-109.0","battery-v0.2","","""event"",""trial"",""time""
""fullscreenenter"",""1"",""1945""
","
","
","""event"",""trial"",""time""
""fullscreenenter"",""1"",""1945""
","
","","","-1","","","11","10579","4934","j","elianto","#3366ff99"," ","-1","0","+10","[]","0","2","","","10579","105","9","1","win","go","1"
"pit-trial","230","1402879","0.0-110.0","battery-v0.2","","""event"",""trial"",""time""
""fullscreenenter"",""1"",""1945""
","
","
","""event"",""trial"",""time""
""fullscreenenter"",""1"",""1945""
","
","","","-1","","","11","10579","4934","w","elianto","#f73b6a7A"," ","-1","0","-10","[4823.900000035763]","1","2","","","10579","106","6","3","lose","go","0"
"pit-trial","231","1407732","0.0-111.0","battery-v0.2","","""event"",""trial"",""time""
""fullscreenenter"",""1"",""1945""
","
","
","""event"",""trial"",""time""
""fullscreenenter"",""1"",""1945""
","
","","","-1","","","11","10579","4934","p","elianto","#3366ff99"," ","-1","0","0","[360.19999998807907,2979.399999976158]","2","2","","","10579","107","4","1","win","go","0"
"pit-trial","232","1411700","0.0-112.0","battery-v0.2","","""event"",""trial"",""time""
""fullscreenenter"",""1"",""1945""
","
","
","""event"",""trial"",""time""
""fullscreenenter"",""1"",""1945""
","
","","","1116.5","","","11","10579","4934","d","elianto","#3366ff99"," "," ","1","+10","[1966.9000000357628,3182,3652.800000011921]","3","2","","","10579","108","8","1","win","go","0"
"pit-trial","233","1415015","0.0-113.0","battery-v0.2","","""event"",""trial"",""time""
""fullscreenenter"",""1"",""1945""
","
","
","""event"",""trial"",""time""
""fullscreenenter"",""1"",""1945""
","
","","","463.5","","","11","10579","4934","j","elianto","#3366ff99"," "," ","1","+10","[98.80000001192093,263,407.89999997615814,659.5999999642372,1314,1646.800000011921,1872.699999988079,2090,2379.800000011921,2620.800000011921]","10","2","","","10579","109","9","1","win","go","0"
"pit-trial","234","1418539","0.0-114.0","battery-v0.2","","""event"",""trial"",""time""
""fullscreenenter"",""1"",""1945""
","
","
","""event"",""trial"",""time""
""fullscreenenter"",""1"",""1945""
","
","","","671","","","11","10579","4934","d","elianto","#3366ff99"," "," ","1","+10","[403.2000000476837,1521.4000000357628,2666.300000011921]","3","2","","","10579","110","8","1","win","go","0"
"pit-trial","235","1421936","0.0-115.0","battery-v0.2","","""event"",""trial"",""time""
""fullscreenenter"",""1"",""1945""
","
","
","""event"",""trial"",""time""
""fullscreenenter"",""1"",""1945""
","
","","","544.5","","","11","10579","4934","s","elianto","#3366ff99","-1"," ","0","+10","[126.69999998807907,1394.5999999642372]","2","2","","","10579","111","5","2","win","no-go","1"
"pit-trial","236","1425095","0.0-116.0","battery-v0.2","","""event"",""trial"",""time""
""fullscreenenter"",""1"",""1945""
","
","
","""event"",""trial"",""time""
""fullscreenenter"",""1"",""1945""
","
","","","307.5","","","11","10579","4934","w","elianto","#f73b6a7A"," "," ","1","0","[1157.800000011921]","1","2","","","10579","112","6","3","lose","go","0"
"pit-trial","237","1429203","0.0-117.0","battery-v0.2","","""event"",""trial"",""time""
""fullscreenenter"",""1"",""1945""
","
","
","""event"",""trial"",""time""
""fullscreenenter"",""1"",""1945""
","
","","","1257.1000000238419","","","11","10579","4934","d","elianto","#3366ff99"," "," ","1","+10","[2107.5,2550.800000011921]","2","2","","","10579","113","8","1","win","go","0"
"pit-trial","238","1432799","0.0-118.0","battery-v0.2","","""event"",""trial"",""time""
""fullscreenenter"",""1"",""1945""
","
","
","""event"",""trial"",""time""
""fullscreenenter"",""1"",""1945""
","
","","","744.8000000119209","","","11","10579","4934","j","elianto","#3366ff99"," "," ","1","0","[1594.9000000357628,2037.1000000238419]","2","2","","","10579","114","9","1","win","go","1"
"pit-trial","239","1436384","0.0-119.0","battery-v0.2","","""event"",""trial"",""time""
""fullscreenenter"",""1"",""1945""
","
","
","""event"",""trial"",""time""
""fullscreenenter"",""1"",""1945""
","
","","","731.6999999880791","","","11","10579","4934","w","elianto","#f73b6a7A"," "," ","1","-10","[233,586,1582.6000000238419,1585.6000000238419]","4","2","","","10579","115","6","3","lose","go","1"
"pit-trial","240","1439944","0.0-120.0","battery-v0.2","","""event"",""trial"",""time""
""fullscreenenter"",""1"",""1945""
","
","
","""event"",""trial"",""time""
""fullscreenenter"",""1"",""1945""
","
","","","709","","","11","10579","4934","s","elianto","#3366ff99","-1"," ","0","+10","[839.8999999761581,1559.0999999642372,1965.800000011921]","3","2","","","10579","116","5","2","win","no-go","1"
"pit-trial","241","1444661","0.0-121.0","battery-v0.2","","""event"",""trial"",""time""
""fullscreenenter"",""1"",""1945""
","
","
","""event"",""trial"",""time""
""fullscreenenter"",""1"",""1945""
","
","","","1864.7999999523163","","","11","10579","4934","d","elianto","#3366ff99"," "," ","1","+10","[2715.199999988079,4159]","2","2","","","10579","117","8","1","win","go","0"
"pit-trial","242","1449514","0.0-122.0","battery-v0.2","","""event"",""trial"",""time""
""fullscreenenter"",""1"",""1945""
","
","
","""event"",""trial"",""time""
""fullscreenenter"",""1"",""1945""
","
","","","-1","","","11","10579","4934","s","elianto","#3366ff99","-1","-1","1","+10","[3166.300000011921]","1","2","","","10579","118","5","2","win","no-go","0"
"pit-trial","243","1452684","0.0-123.0","battery-v0.2","","""event"",""trial"",""time""
""fullscreenenter"",""1"",""1945""
","
","
","""event"",""trial"",""time""
""fullscreenenter"",""1"",""1945""
","
","","","317.60000002384186","","","11","10579","4934","w","elianto","#f73b6a7A"," "," ","1","0","[1168.300000011921]","1","2","","","10579","119","6","3","lose","go","0"
"pit-trial","244","1455780","0.0-124.0","battery-v0.2","","""event"",""trial"",""time""
""fullscreenenter"",""1"",""1945""
","
","
","""event"",""trial"",""time""
""fullscreenenter"",""1"",""1945""
","
","","","244","","","11","10579","4934","j","elianto","#3366ff99"," "," ","1","0","[1094.4000000357628]","1","2","","","10579","120","9","1","win","go","1"
"pit-trial","245","1459041","0.0-125.0","battery-v0.2","","""event"",""trial"",""time""
""fullscreenenter"",""1"",""1945""
","
","
","""event"",""trial"",""time""
""fullscreenenter"",""1"",""1945""
","
","","","408.80000001192093","","","11","10579","4934","e","elianto","#f73b6a7A","-1"," ","0","-10","[1259.4000000357628]","1","2","","","10579","121","7","4","lose","no-go","0"
"pit-trial","246","1463405","0.0-126.0","battery-v0.2","","""event"",""trial"",""time""
""fullscreenenter"",""1"",""1945""
","
","
","""event"",""trial"",""time""
""fullscreenenter"",""1"",""1945""
","
","","","1508.3999999761581","","","11","10579","4934","j","elianto","#3366ff99"," "," ","1","+10","[2361.899999976158]","1","2","","","10579","122","9","1","win","go","0"
"pit-trial","247","1466521","0.0-127.0","battery-v0.2","","""event"",""trial"",""time""
""fullscreenenter"",""1"",""1945""
","
","
","""event"",""trial"",""time""
""fullscreenenter"",""1"",""1945""
","
","","","263.9000000357628","","","11","10579","4934","d","elianto","#3366ff99"," "," ","1","+10","[1114.300000011921]","1","2","","","10579","123","8","1","win","go","0"
"pit-trial","248","1471375","0.0-128.0","battery-v0.2","","""event"",""trial"",""time""
""fullscreenenter"",""1"",""1945""
","
","
","""event"",""trial"",""time""
""fullscreenenter"",""1"",""1945""
","
","","","-1","","","11","10579","4934","w","elianto","#f73b6a7A"," ","-1","0","-10","[]","0","2","","","10579","124","6","3","lose","go","0"
"pit-trial","249","1475155","0.0-129.0","battery-v0.2","","""event"",""trial"",""time""
""fullscreenenter"",""1"",""1945""
","
","
","""event"",""trial"",""time""
""fullscreenenter"",""1"",""1945""
","
","","","928.1000000238419","","","11","10579","4934","j","elianto","#3366ff99"," "," ","1","+10","[1778.3999999761581,2538.2999999523163]","2","2","","","10579","125","9","1","win","go","0"
"pit-trial","250","1479372","0.0-130.0","battery-v0.2","","""event"",""trial"",""time""
""fullscreenenter"",""1"",""1945""
","
","
","""event"",""trial"",""time""
""fullscreenenter"",""1"",""1945""
","
","","","1364.2999999523163","","","11","10579","4934","w","elianto","#f73b6a7A"," "," ","1","0","[2214.5]","1","2","","","10579","126","6","3","lose","go","0"
"pit-trial","251","1482764","0.0-131.0","battery-v0.2","","""event"",""trial"",""time""
""fullscreenenter"",""1"",""1945""
","
","
","""event"",""trial"",""time""
""fullscreenenter"",""1"",""1945""
","
","","","540.6000000238419","","","11","10579","4934","e","elianto","#f73b6a7A","-1"," ","0","0","[1390.6000000238419]","1","2","","","10579","127","7","4","lose","no-go","1"
"pit-trial","252","1485795","0.0-132.0","battery-v0.2","","""event"",""trial"",""time""
""fullscreenenter"",""1"",""1945""
","
","
","""event"",""trial"",""time""
""fullscreenenter"",""1"",""1945""
","
","","","178.29999995231628","","","11","10579","4934","d","elianto","#3366ff99"," "," ","1","+10","[1028.9000000357628]","1","2","","","10579","128","8","1","win","go","0"
"pit-trial","253","1490077","0.0-133.0","battery-v0.2","","""event"",""trial"",""time""
