"trial_type","trial_index","time_elapsed","internal_node_id","task_version","subject_id","interactions","blur_events","focus_events","fullscreenenter_events","fullscreenexit_events","success","view_history","rt","responses","num_errors","age","subject","participantId","rune","rune_set","hex","correct","choice","accuracy","outcome","keys","total_keys","block","practice","value","sub","trial","stimulus","robot","valence","action","sham"
"pavlovia","0","25","0.0-0.0","battery-v0.2","","""event"",""trial"",""time""
""focus"",""0"",""2""
""fullscreenenter"",""1"",""3162""
","
","""event"",""trial"",""time""
""focus"",""0"",""2""
","""event"",""trial"",""time""
""fullscreenenter"",""1"",""3162""
","
","","","","","","","","","","","","","","","","","","","","","","","","","","",""
"fullscreen","1","4103","0.0-1.0","battery-v0.2","","""event"",""trial"",""time""
""focus"",""0"",""2""
""fullscreenenter"",""1"",""3162""
","
","""event"",""trial"",""time""
""focus"",""0"",""2""
","""event"",""trial"",""time""
""fullscreenenter"",""1"",""3162""
","
","true","","","","","","","","","","","","","","","","","","","","","","","","","",""
"pit-instructions","2","8567","0.0-2.0-0.0","battery-v0.2","","""event"",""trial"",""time""
""focus"",""0"",""2""
""fullscreenenter"",""1"",""3162""
","
","""event"",""trial"",""time""
""focus"",""0"",""2""
","""event"",""trial"",""time""
""fullscreenenter"",""1"",""3162""
","
","","[{""page_index"":0,""viewing_time"":4454}]","4455","","","","","","","","","","","","","","","","","","","","","","","",""
"pit-comprehension","3","11848","0.0-2.0-1.0-0.0","battery-v0.2","","""event"",""trial"",""time""
""focus"",""0"",""2""
""fullscreenenter"",""1"",""3162""
","
","""event"",""trial"",""time""
""focus"",""0"",""2""
","""event"",""trial"",""time""
""fullscreenenter"",""1"",""3162""
","
","","","3273","[""shark""]","0","25","16962","6573","","","","","","","","","","","","","","","","","","",""
"pit-instructions","4","13950","0.0-2.0-1.0-1.0","battery-v0.2","","""event"",""trial"",""time""
""focus"",""0"",""2""
""fullscreenenter"",""1"",""3162""
","
","""event"",""trial"",""time""
""focus"",""0"",""2""
","""event"",""trial"",""time""
""fullscreenenter"",""1"",""3162""
","
","","[{""page_index"":0,""viewing_time"":2096}]","2096","","","","","","","","","","","","","","","","","","","","","","","",""
"pit-comprehension","5","17669","0.0-2.0-2.0-0.0","battery-v0.2","","""event"",""trial"",""time""
""focus"",""0"",""2""
""fullscreenenter"",""1"",""3162""
","
","""event"",""trial"",""time""
""focus"",""0"",""2""
","""event"",""trial"",""time""
""fullscreenenter"",""1"",""3162""
","
","","","3714","[""tiger""]","0","25","16962","6573","","","","","","","","","","","","","","","","","","",""
"pit-instructions","6","18700","0.0-2.0-2.0-1.0","battery-v0.2","","""event"",""trial"",""time""
""focus"",""0"",""2""
""fullscreenenter"",""1"",""3162""
","
","""event"",""trial"",""time""
""focus"",""0"",""2""
","""event"",""trial"",""time""
""fullscreenenter"",""1"",""3162""
","
","","[{""page_index"":0,""viewing_time"":1026}]","1027","","","","","","","","","","","","","","","","","","","","","","","",""
"pit-instructions","7","157285","0.0-2.0-3.0","battery-v0.2","","""event"",""trial"",""time""
""focus"",""0"",""2""
""fullscreenenter"",""1"",""3162""
","
","""event"",""trial"",""time""
""focus"",""0"",""2""
","""event"",""trial"",""time""
""fullscreenenter"",""1"",""3162""
","
","","[{""page_index"":0,""viewing_time"":9562},{""page_index"":1,""viewing_time"":7333},{""page_index"":2,""viewing_time"":6200},{""page_index"":3,""viewing_time"":6400},{""page_index"":4,""viewing_time"":33552},{""page_index"":5,""viewing_time"":11216},{""page_index"":6,""viewing_time"":9633},{""page_index"":7,""viewing_time"":7949},{""page_index"":8,""viewing_time"":7501},{""page_index"":9,""viewing_time"":8400},{""page_index"":10,""viewing_time"":8383},{""page_index"":11,""viewing_time"":8369},{""page_index"":12,""viewing_time"":7381},{""page_index"":13,""viewing_time"":6700}]","138580","","","","","","","","","","","","","","","","","","","","","","","",""
"pit-trial","8","160943","0.0-2.0-4.0-0.0","battery-v0.2","","""event"",""trial"",""time""
""focus"",""0"",""2""
""fullscreenenter"",""1"",""3162""
","
","""event"",""trial"",""time""
""focus"",""0"",""2""
","""event"",""trial"",""time""
""fullscreenenter"",""1"",""3162""
","
","","","799","","","25","16962","6573","&#9784;","elianto","#FFFFF080"," "," ","1","&#10004","[1650]","1","0","0","","","","","","","",""
"pit-trial","9","164543","0.0-2.0-4.1-0.1","battery-v0.2","","""event"",""trial"",""time""
""focus"",""0"",""2""
""fullscreenenter"",""1"",""3162""
","
","""event"",""trial"",""time""
""focus"",""0"",""2""
","""event"",""trial"",""time""
""fullscreenenter"",""1"",""3162""
","
","","","740","","","25","16962","6573","&#9784;","elianto","#FFFFF080"," "," ","1","&#10004","[1591]","1","0","0","","","","","","","",""
"pit-trial","10","168090","0.0-2.0-4.2-0.2","battery-v0.2","","""event"",""trial"",""time""
""focus"",""0"",""2""
""fullscreenenter"",""1"",""3162""
","
","""event"",""trial"",""time""
""focus"",""0"",""2""
","""event"",""trial"",""time""
""fullscreenenter"",""1"",""3162""
","
","","","689","","","25","16962","6573","&#9784;","elianto","#FFFFF080"," "," ","1","&#10004","[1540]","1","0","0","","","","","","","",""
"pit-trial","11","171654","0.0-2.0-4.3-0.3","battery-v0.2","","""event"",""trial"",""time""
""focus"",""0"",""2""
""fullscreenenter"",""1"",""3162""
","
","""event"",""trial"",""time""
""focus"",""0"",""2""
","""event"",""trial"",""time""
""fullscreenenter"",""1"",""3162""
","
","","","653","","","25","16962","6573","&#9784;","elianto","#FFFFF080"," "," ","1","&#10004","[1557]","1","0","0","","","","","","","",""
"pit-trial","12","175171","0.0-2.0-4.4-0.4","battery-v0.2","","""event"",""trial"",""time""
""focus"",""0"",""2""
""fullscreenenter"",""1"",""3162""
","
","""event"",""trial"",""time""
""focus"",""0"",""2""
","""event"",""trial"",""time""
""fullscreenenter"",""1"",""3162""
","
","","","660","","","25","16962","6573","&#9784;","elianto","#FFFFF080"," "," ","1","&#10004","[1511]","1","0","0","","","","","","","",""
"pit-instructions","13","202184","0.0-2.0-5.0","battery-v0.2","","""event"",""trial"",""time""
""focus"",""0"",""2""
""fullscreenenter"",""1"",""3162""
","
","""event"",""trial"",""time""
""focus"",""0"",""2""
","""event"",""trial"",""time""
""fullscreenenter"",""1"",""3162""
","
","","[{""page_index"":0,""viewing_time"":7157},{""page_index"":1,""viewing_time"":6485},{""page_index"":2,""viewing_time"":5932},{""page_index"":3,""viewing_time"":7433}]","27008","","","","","","","","","","","","","","","","","","","","","","","",""
"pit-trial","14","207045","0.0-2.0-6.0-0.0","battery-v0.2","","""event"",""trial"",""time""
""focus"",""0"",""2""
""fullscreenenter"",""1"",""3162""
","
","""event"",""trial"",""time""
""focus"",""0"",""2""
","""event"",""trial"",""time""
""fullscreenenter"",""1"",""3162""
","
","","","-1","","","25","16962","6573","&#9854;","elianto","#FFFFF080","-1","-1","1","&#10004","[]","0","0","1","","","","","","","",""
"pit-trial","15","211988","0.0-2.0-6.1-0.1","battery-v0.2","","""event"",""trial"",""time""
""focus"",""0"",""2""
""fullscreenenter"",""1"",""3162""
","
","""event"",""trial"",""time""
""focus"",""0"",""2""
","""event"",""trial"",""time""
""fullscreenenter"",""1"",""3162""
","
","","","-1","","","25","16962","6573","&#9854;","elianto","#FFFFF080","-1","-1","1","&#10004","[]","0","0","1","","","","","","","",""
"pit-trial","16","217083","0.0-2.0-6.2-0.2","battery-v0.2","","""event"",""trial"",""time""
""focus"",""0"",""2""
""fullscreenenter"",""1"",""3162""
","
","""event"",""trial"",""time""
""focus"",""0"",""2""
","""event"",""trial"",""time""
""fullscreenenter"",""1"",""3162""
","
","","","-1","","","25","16962","6573","&#9854;","elianto","#FFFFF080","-1","-1","1","&#10004","[]","0","0","1","","","","","","","",""
"pit-trial","17","221942","0.0-2.0-6.3-0.3","battery-v0.2","","""event"",""trial"",""time""
""focus"",""0"",""2""
""fullscreenenter"",""1"",""3162""
","
","""event"",""trial"",""time""
""focus"",""0"",""2""
","""event"",""trial"",""time""
""fullscreenenter"",""1"",""3162""
","
","","","-1","","","25","16962","6573","&#9854;","elianto","#FFFFF080","-1","-1","1","&#10004","[]","0","0","1","","","","","","","",""
"pit-trial","18","226801","0.0-2.0-6.4-0.4","battery-v0.2","","""event"",""trial"",""time""
""focus"",""0"",""2""
""fullscreenenter"",""1"",""3162""
","
","""event"",""trial"",""time""
""focus"",""0"",""2""
","""event"",""trial"",""time""
""fullscreenenter"",""1"",""3162""
","
","","","-1","","","25","16962","6573","&#9854;","elianto","#FFFFF080","-1","-1","1","&#10004","[]","0","0","1","","","","","","","",""
"pit-instructions","19","363818","0.0-2.0-7.0","battery-v0.2","","""event"",""trial"",""time""
""focus"",""0"",""2""
""fullscreenenter"",""1"",""3162""
","
","""event"",""trial"",""time""
""focus"",""0"",""2""
","""event"",""trial"",""time""
""fullscreenenter"",""1"",""3162""
","
","","[{""page_index"":0,""viewing_time"":5946},{""page_index"":1,""viewing_time"":7549},{""page_index"":2,""viewing_time"":6468},{""page_index"":3,""viewing_time"":7348},{""page_index"":4,""viewing_time"":5851},{""page_index"":5,""viewing_time"":6000},{""page_index"":6,""viewing_time"":5383},{""page_index"":7,""viewing_time"":8949},{""page_index"":8,""viewing_time"":9152},{""page_index"":9,""viewing_time"":6850},{""page_index"":10,""viewing_time"":10749},{""page_index"":11,""viewing_time"":6500},{""page_index"":12,""viewing_time"":8018},{""page_index"":13,""viewing_time"":7717},{""page_index"":14,""viewing_time"":7365},{""page_index"":15,""viewing_time"":8350},{""page_index"":16,""viewing_time"":11001},{""page_index"":17,""viewing_time"":7816}]","137012","","","","","","","","","","","","","","","","","","","","","","","",""
"pit-trial","20","367387","0.0-2.0-8.0-0.0","battery-v0.2","","""event"",""trial"",""time""
""focus"",""0"",""2""
""fullscreenenter"",""1"",""3162""
","
","""event"",""trial"",""time""
""focus"",""0"",""2""
","""event"",""trial"",""time""
""fullscreenenter"",""1"",""3162""
","
","","","709","","","25","16962","6573","&#9776;","elianto","#3366ff99"," "," ","1","+10","[1564]","1","0","1","","","","","","","",""
"pit-trial","21","371009","0.0-2.0-8.0-1.0","battery-v0.2","","""event"",""trial"",""time""
""focus"",""0"",""2""
""fullscreenenter"",""1"",""3162""
","
","""event"",""trial"",""time""
""focus"",""0"",""2""
","""event"",""trial"",""time""
""fullscreenenter"",""1"",""3162""
","
","","","692","","","25","16962","6573","&#9776;","elianto","#3366ff99"," "," ","1","+10","[1545]","1","0","1","","","","","","","",""
"pit-trial","22","374550","0.0-2.0-8.0-2.0","battery-v0.2","","""event"",""trial"",""time""
""focus"",""0"",""2""
""fullscreenenter"",""1"",""3162""
","
","""event"",""trial"",""time""
""focus"",""0"",""2""
","""event"",""trial"",""time""
""fullscreenenter"",""1"",""3162""
","
","","","657","","","25","16962","6573","&#9776;","elianto","#3366ff99"," "," ","1","+10","[1532]","1","0","1","","","","","","","",""
"pit-trial","23","378114","0.0-2.0-8.0-3.0","battery-v0.2","","""event"",""trial"",""time""
""focus"",""0"",""2""
""fullscreenenter"",""1"",""3162""
","
","""event"",""trial"",""time""
""focus"",""0"",""2""
","""event"",""trial"",""time""
""fullscreenenter"",""1"",""3162""
","
","","","702","","","25","16962","6573","&#9776;","elianto","#3366ff99"," "," ","1","0","[1556]","1","0","1","","","","","","","",""
"pit-trial","24","381656","0.0-2.0-8.0-4.0","battery-v0.2","","""event"",""trial"",""time""
""focus"",""0"",""2""
""fullscreenenter"",""1"",""3162""
","
","""event"",""trial"",""time""
""focus"",""0"",""2""
","""event"",""trial"",""time""
""fullscreenenter"",""1"",""3162""
","
","","","684","","","25","16962","6573","&#9776;","elianto","#3366ff99"," "," ","1","+10","[1535]","1","0","1","","","","","","","",""
"pit-trial","25","385127","0.0-2.0-8.1-0.1","battery-v0.2","","""event"",""trial"",""time""
""focus"",""0"",""2""
""fullscreenenter"",""1"",""3162""
","
","""event"",""trial"",""time""
""focus"",""0"",""2""
","""event"",""trial"",""time""
""fullscreenenter"",""1"",""3162""
","
","","","613","","","25","16962","6573","&#9776;","elianto","#3366ff99"," "," ","1","+10","[1467]","1","0","1","","","","","","","",""
"pit-trial","26","388610","0.0-2.0-8.1-1.1","battery-v0.2","","""event"",""trial"",""time""
""focus"",""0"",""2""
""fullscreenenter"",""1"",""3162""
","
","""event"",""trial"",""time""
""focus"",""0"",""2""
","""event"",""trial"",""time""
""fullscreenenter"",""1"",""3162""
","
","","","579","","","25","16962","6573","&#9776;","elianto","#3366ff99"," "," ","1","+10","[1481]","1","0","1","","","","","","","",""
"pit-trial","27","392101","0.0-2.0-8.1-2.1","battery-v0.2","","""event"",""trial"",""time""
""focus"",""0"",""2""
""fullscreenenter"",""1"",""3162""
","
","""event"",""trial"",""time""
""focus"",""0"",""2""
","""event"",""trial"",""time""
""fullscreenenter"",""1"",""3162""
","
","","","586","","","25","16962","6573","&#9776;","elianto","#3366ff99"," "," ","1","+10","[1437]","1","0","1","","","","","","","",""
"pit-trial","28","395623","0.0-2.0-8.1-3.1","battery-v0.2","","""event"",""trial"",""time""
""focus"",""0"",""2""
""fullscreenenter"",""1"",""3162""
","
","""event"",""trial"",""time""
""focus"",""0"",""2""
","""event"",""trial"",""time""
""fullscreenenter"",""1"",""3162""
","
","","","665","","","25","16962","6573","&#9776;","elianto","#3366ff99"," "," ","1","0","[1518]","1","0","1","","","","","","","",""
"pit-trial","29","399570","0.0-2.0-8.1-4.1","battery-v0.2","","""event"",""trial"",""time""
""focus"",""0"",""2""
""fullscreenenter"",""1"",""3162""
","
","""event"",""trial"",""time""
""focus"",""0"",""2""
","""event"",""trial"",""time""
""fullscreenenter"",""1"",""3162""
","
","","","1088","","","25","16962","6573","&#9776;","elianto","#3366ff99"," "," ","1","+10","[1943]","1","0","1","","","","","","","",""
"pit-trial","30","403306","0.0-2.0-8.2-0.2","battery-v0.2","","""event"",""trial"",""time""
""focus"",""0"",""2""
""fullscreenenter"",""1"",""3162""
","
","""event"",""trial"",""time""
""focus"",""0"",""2""
","""event"",""trial"",""time""
""fullscreenenter"",""1"",""3162""
","
","","","877","","","25","16962","6573","&#9776;","elianto","#3366ff99"," "," ","1","+10","[1730]","1","0","1","","","","","","","",""
"pit-trial","31","406675","0.0-2.0-8.2-1.2","battery-v0.2","","""event"",""trial"",""time""
""focus"",""0"",""2""
""fullscreenenter"",""1"",""3162""
","
","""event"",""trial"",""time""
""focus"",""0"",""2""
","""event"",""trial"",""time""
""fullscreenenter"",""1"",""3162""
","
","","","511","","","25","16962","6573","&#9776;","elianto","#3366ff99"," "," ","1","+10","[1366]","1","0","1","","","","","","","",""
"pit-trial","32","410261","0.0-2.0-8.2-2.2","battery-v0.2","","""event"",""trial"",""time""
""focus"",""0"",""2""
""fullscreenenter"",""1"",""3162""
","
","""event"",""trial"",""time""
""focus"",""0"",""2""
","""event"",""trial"",""time""
""fullscreenenter"",""1"",""3162""
","
","","","519","","","25","16962","6573","&#9776;","elianto","#3366ff99"," "," ","1","+10","[1372]","1","0","1","","","","","","","",""
"pit-trial","33","413646","0.0-2.0-8.2-3.2","battery-v0.2","","""event"",""trial"",""time""
""focus"",""0"",""2""
""fullscreenenter"",""1"",""3162""
","
","""event"",""trial"",""time""
""focus"",""0"",""2""
","""event"",""trial"",""time""
""fullscreenenter"",""1"",""3162""
","
","","","529","","","25","16962","6573","&#9776;","elianto","#3366ff99"," "," ","1","0","[1379]","1","0","1","","","","","","","",""
"pit-trial","34","416983","0.0-2.0-8.2-4.2","battery-v0.2","","""event"",""trial"",""time""
""focus"",""0"",""2""
""fullscreenenter"",""1"",""3162""
","
","""event"",""trial"",""time""
""focus"",""0"",""2""
","""event"",""trial"",""time""
""fullscreenenter"",""1"",""3162""
","
","","","479","","","25","16962","6573","&#9776;","elianto","#3366ff99"," "," ","1","+10","[1330]","1","0","1","","","","","","","",""
"call-function","35","416985","0.0-2.0-9.0","battery-v0.2","","""event"",""trial"",""time""
""focus"",""0"",""2""
""fullscreenenter"",""1"",""3162""
","
","""event"",""trial"",""time""
""focus"",""0"",""2""
","""event"",""trial"",""time""
""fullscreenenter"",""1"",""3162""
","
","","","","","","","","","","","","","","","","","","","","","","","","","","",""
"pit-instructions","36","464168","0.0-2.0-10.0","battery-v0.2","","""event"",""trial"",""time""
""focus"",""0"",""2""
""fullscreenenter"",""1"",""3162""
","
","""event"",""trial"",""time""
""focus"",""0"",""2""
","""event"",""trial"",""time""
""fullscreenenter"",""1"",""3162""
","
","","[{""page_index"":0,""viewing_time"":10215},{""page_index"":1,""viewing_time"":9133},{""page_index"":2,""viewing_time"":10600},{""page_index"":3,""viewing_time"":9301},{""page_index"":4,""viewing_time"":7933}]","47183","","","","","","","","","","","","","","","","","","","","","","","",""
"pit-trial","37","467854","0.0-2.0-11.0-0.0","battery-v0.2","","""event"",""trial"",""time""
""focus"",""0"",""2""
""fullscreenenter"",""1"",""3162""
","
","""event"",""trial"",""time""
""focus"",""0"",""2""
","""event"",""trial"",""time""
""fullscreenenter"",""1"",""3162""
","
","","","827","","","25","16962","6573","&#9761;","elianto","#3366ff99","-1"," ","0","0","[1677]","1","0","2","","","","","","","",""
"pit-trial","38","472712","0.0-2.0-11.0-1.0","battery-v0.2","","""event"",""trial"",""time""
""focus"",""0"",""2""
""fullscreenenter"",""1"",""3162""
","
","""event"",""trial"",""time""
""focus"",""0"",""2""
","""event"",""trial"",""time""
""fullscreenenter"",""1"",""3162""
","
","","","-1","","","25","16962","6573","&#9761;","elianto","#3366ff99","-1","-1","1","+10","[]","0","0","2","","","","","","","",""
"pit-trial","39","477574","0.0-2.0-11.0-2.0","battery-v0.2","","""event"",""trial"",""time""
""focus"",""0"",""2""
""fullscreenenter"",""1"",""3162""
","
","""event"",""trial"",""time""
""focus"",""0"",""2""
","""event"",""trial"",""time""
""fullscreenenter"",""1"",""3162""
","
","","","-1","","","25","16962","6573","&#9761;","elianto","#3366ff99","-1","-1","1","+10","[]","0","0","2","","","","","","","",""
"pit-trial","40","482437","0.0-2.0-11.0-3.0","battery-v0.2","","""event"",""trial"",""time""
""focus"",""0"",""2""
""fullscreenenter"",""1"",""3162""
","
","""event"",""trial"",""time""
""focus"",""0"",""2""
","""event"",""trial"",""time""
""fullscreenenter"",""1"",""3162""
","
","","","-1","","","25","16962","6573","&#9761;","elianto","#3366ff99","-1","-1","1","0","[]","0","0","2","","","","","","","",""
"pit-trial","41","487295","0.0-2.0-11.0-4.0","battery-v0.2","","""event"",""trial"",""time""
""focus"",""0"",""2""
""fullscreenenter"",""1"",""3162""
","
","""event"",""trial"",""time""
""focus"",""0"",""2""
","""event"",""trial"",""time""
""fullscreenenter"",""1"",""3162""
","
","","","-1","","","25","16962","6573","&#9761;","elianto","#3366ff99","-1","-1","1","+10","[]","0","0","2","","","","","","","",""
"pit-trial","42","492157","0.0-2.0-11.1-0.1","battery-v0.2","","""event"",""trial"",""time""
""focus"",""0"",""2""
""fullscreenenter"",""1"",""3162""
","
","""event"",""trial"",""time""
""focus"",""0"",""2""
","""event"",""trial"",""time""
""fullscreenenter"",""1"",""3162""
","
","","","-1","","","25","16962","6573","&#9761;","elianto","#3366ff99","-1","-1","1","+10","[]","0","0","2","","","","","","","",""
"pit-trial","43","497020","0.0-2.0-11.1-1.1","battery-v0.2","","""event"",""trial"",""time""
""focus"",""0"",""2""
""fullscreenenter"",""1"",""3162""
","
","""event"",""trial"",""time""
""focus"",""0"",""2""
","""event"",""trial"",""time""
""fullscreenenter"",""1"",""3162""
","
","","","-1","","","25","16962","6573","&#9761;","elianto","#3366ff99","-1","-1","1","+10","[]","0","0","2","","","","","","","",""
"pit-trial","44","501877","0.0-2.0-11.1-2.1","battery-v0.2","","""event"",""trial"",""time""
""focus"",""0"",""2""
""fullscreenenter"",""1"",""3162""
","
","""event"",""trial"",""time""
""focus"",""0"",""2""
","""event"",""trial"",""time""
""fullscreenenter"",""1"",""3162""
","
","","","-1","","","25","16962","6573","&#9761;","elianto","#3366ff99","-1","-1","1","+10","[]","0","0","2","","","","","","","",""
"pit-trial","45","506742","0.0-2.0-11.1-3.1","battery-v0.2","","""event"",""trial"",""time""
""focus"",""0"",""2""
""fullscreenenter"",""1"",""3162""
","
","""event"",""trial"",""time""
""focus"",""0"",""2""
","""event"",""trial"",""time""
""fullscreenenter"",""1"",""3162""
","
","","","-1","","","25","16962","6573","&#9761;","elianto","#3366ff99","-1","-1","1","0","[]","0","0","2","","","","","","","",""
"pit-trial","46","511603","0.0-2.0-11.1-4.1","battery-v0.2","","""event"",""trial"",""time""
""focus"",""0"",""2""
""fullscreenenter"",""1"",""3162""
","
","""event"",""trial"",""time""
""focus"",""0"",""2""
","""event"",""trial"",""time""
""fullscreenenter"",""1"",""3162""
","
","","","-1","","","25","16962","6573","&#9761;","elianto","#3366ff99","-1","-1","1","+10","[]","0","0","2","","","","","","","",""
"pit-trial","47","516464","0.0-2.0-11.2-0.2","battery-v0.2","","""event"",""trial"",""time""
""focus"",""0"",""2""
""fullscreenenter"",""1"",""3162""
","
","""event"",""trial"",""time""
""focus"",""0"",""2""
","""event"",""trial"",""time""
""fullscreenenter"",""1"",""3162""
","
","","","-1","","","25","16962","6573","&#9761;","elianto","#3366ff99","-1","-1","1","+10","[]","0","0","2","","","","","","","",""
"pit-trial","48","521323","0.0-2.0-11.2-1.2","battery-v0.2","","""event"",""trial"",""time""
""focus"",""0"",""2""
""fullscreenenter"",""1"",""3162""
","
","""event"",""trial"",""time""
""focus"",""0"",""2""
","""event"",""trial"",""time""
""fullscreenenter"",""1"",""3162""
","
","","","-1","","","25","16962","6573","&#9761;","elianto","#3366ff99","-1","-1","1","+10","[]","0","0","2","","","","","","","",""
"pit-trial","49","526186","0.0-2.0-11.2-2.2","battery-v0.2","","""event"",""trial"",""time""
""focus"",""0"",""2""
""fullscreenenter"",""1"",""3162""
","
","""event"",""trial"",""time""
""focus"",""0"",""2""
","""event"",""trial"",""time""
""fullscreenenter"",""1"",""3162""
","
","","","-1","","","25","16962","6573","&#9761;","elianto","#3366ff99","-1","-1","1","+10","[]","0","0","2","","","","","","","",""
"pit-trial","50","531048","0.0-2.0-11.2-3.2","battery-v0.2","","""event"",""trial"",""time""
""focus"",""0"",""2""
""fullscreenenter"",""1"",""3162""
","
","""event"",""trial"",""time""
""focus"",""0"",""2""
","""event"",""trial"",""time""
""fullscreenenter"",""1"",""3162""
","
","","","-1","","","25","16962","6573","&#9761;","elianto","#3366ff99","-1","-1","1","0","[]","0","0","2","","","","","","","",""
"pit-trial","51","535906","0.0-2.0-11.2-4.2","battery-v0.2","","""event"",""trial"",""time""
""focus"",""0"",""2""
""fullscreenenter"",""1"",""3162""
","
","""event"",""trial"",""time""
""focus"",""0"",""2""
","""event"",""trial"",""time""
""fullscreenenter"",""1"",""3162""
","
","","","-1","","","25","16962","6573","&#9761;","elianto","#3366ff99","-1","-1","1","+10","[]","0","0","2","","","","","","","",""
"pit-trial","52","540768","0.0-2.0-11.3-0.3","battery-v0.2","","""event"",""trial"",""time""
""focus"",""0"",""2""
""fullscreenenter"",""1"",""3162""
","
","""event"",""trial"",""time""
""focus"",""0"",""2""
","""event"",""trial"",""time""
""fullscreenenter"",""1"",""3162""
","
","","","-1","","","25","16962","6573","&#9761;","elianto","#3366ff99","-1","-1","1","+10","[]","0","0","2","","","","","","","",""
"pit-trial","53","545630","0.0-2.0-11.3-1.3","battery-v0.2","","""event"",""trial"",""time""
""focus"",""0"",""2""
""fullscreenenter"",""1"",""3162""
","
","""event"",""trial"",""time""
""focus"",""0"",""2""
","""event"",""trial"",""time""
""fullscreenenter"",""1"",""3162""
","
","","","-1","","","25","16962","6573","&#9761;","elianto","#3366ff99","-1","-1","1","+10","[]","0","0","2","","","","","","","",""
"pit-trial","54","550488","0.0-2.0-11.3-2.3","battery-v0.2","","""event"",""trial"",""time""
""focus"",""0"",""2""
""fullscreenenter"",""1"",""3162""
","
","""event"",""trial"",""time""
""focus"",""0"",""2""
","""event"",""trial"",""time""
""fullscreenenter"",""1"",""3162""
","
","","","-1","","","25","16962","6573","&#9761;","elianto","#3366ff99","-1","-1","1","+10","[]","0","0","2","","","","","","","",""
"pit-trial","55","555350","0.0-2.0-11.3-3.3","battery-v0.2","","""event"",""trial"",""time""
""focus"",""0"",""2""
""fullscreenenter"",""1"",""3162""
","
","""event"",""trial"",""time""
""focus"",""0"",""2""
","""event"",""trial"",""time""
""fullscreenenter"",""1"",""3162""
","
","","","-1","","","25","16962","6573","&#9761;","elianto","#3366ff99","-1","-1","1","0","[]","0","0","2","","","","","","","",""
"pit-trial","56","560209","0.0-2.0-11.3-4.3","battery-v0.2","","""event"",""trial"",""time""
""focus"",""0"",""2""
""fullscreenenter"",""1"",""3162""
","
","""event"",""trial"",""time""
""focus"",""0"",""2""
","""event"",""trial"",""time""
""fullscreenenter"",""1"",""3162""
","
","","","-1","","","25","16962","6573","&#9761;","elianto","#3366ff99","-1","-1","1","+10","[]","0","0","2","","","","","","","",""
"call-function","57","560211","0.0-2.0-12.0","battery-v0.2","","""event"",""trial"",""time""
""focus"",""0"",""2""
""fullscreenenter"",""1"",""3162""
","
","""event"",""trial"",""time""
""focus"",""0"",""2""
","""event"",""trial"",""time""
""fullscreenenter"",""1"",""3162""
","
","","","","","","","","","","","","","","","","","","","","","","","","","","",""
"pit-instructions","58","593117","0.0-2.0-13.0","battery-v0.2","","""event"",""trial"",""time""
""focus"",""0"",""2""
""fullscreenenter"",""1"",""3162""
","
","""event"",""trial"",""time""
""focus"",""0"",""2""
","""event"",""trial"",""time""
""fullscreenenter"",""1"",""3162""
","
","","[{""page_index"":0,""viewing_time"":5822},{""page_index"":1,""viewing_time"":7217},{""page_index"":2,""viewing_time"":4200},{""page_index"":3,""viewing_time"":10751},{""page_index"":4,""viewing_time"":4915}]","32906","","","","","","","","","","","","","","","","","","","","","","","",""
"pit-trial","59","596995","0.0-2.0-14.0-0.0","battery-v0.2","","""event"",""trial"",""time""
""focus"",""0"",""2""
""fullscreenenter"",""1"",""3162""
","
","""event"",""trial"",""time""
""focus"",""0"",""2""
","""event"",""trial"",""time""
""fullscreenenter"",""1"",""3162""
","
","","","1018","","","25","16962","6573","&#9826;","elianto","#f73b6a7A","-1"," ","0","-10","[1871]","1","0","3","","","","","","","",""
"pit-trial","60","601921","0.0-2.0-14.0-1.0","battery-v0.2","","""event"",""trial"",""time""
""focus"",""0"",""2""
""fullscreenenter"",""1"",""3162""
","
","""event"",""trial"",""time""
""focus"",""0"",""2""
","""event"",""trial"",""time""
""fullscreenenter"",""1"",""3162""
","
","","","-1","","","25","16962","6573","&#9826;","elianto","#f73b6a7A","-1","-1","1","0","[]","0","0","3","","","","","","","",""
"pit-trial","61","606778","0.0-2.0-14.0-2.0","battery-v0.2","","""event"",""trial"",""time""
""focus"",""0"",""2""
""fullscreenenter"",""1"",""3162""
","
","""event"",""trial"",""time""
""focus"",""0"",""2""
","""event"",""trial"",""time""
""fullscreenenter"",""1"",""3162""
","
","","","-1","","","25","16962","6573","&#9826;","elianto","#f73b6a7A","-1","-1","1","0","[]","0","0","3","","","","","","","",""
"pit-trial","62","611631","0.0-2.0-14.0-3.0","battery-v0.2","","""event"",""trial"",""time""
""focus"",""0"",""2""
""fullscreenenter"",""1"",""3162""
","
","""event"",""trial"",""time""
""focus"",""0"",""2""
","""event"",""trial"",""time""
""fullscreenenter"",""1"",""3162""
","
","","","-1","","","25","16962","6573","&#9826;","elianto","#f73b6a7A","-1","-1","1","-10","[]","0","0","3","","","","","","","",""
"pit-trial","63","616491","0.0-2.0-14.0-4.0","battery-v0.2","","""event"",""trial"",""time""
""focus"",""0"",""2""
""fullscreenenter"",""1"",""3162""
","
","""event"",""trial"",""time""
""focus"",""0"",""2""
","""event"",""trial"",""time""
""fullscreenenter"",""1"",""3162""
","
","","","-1","","","25","16962","6573","&#9826;","elianto","#f73b6a7A","-1","-1","1","0","[]","0","0","3","","","","","","","",""
"pit-trial","64","621350","0.0-2.0-14.1-0.1","battery-v0.2","","""event"",""trial"",""time""
""focus"",""0"",""2""
""fullscreenenter"",""1"",""3162""
","
","""event"",""trial"",""time""
""focus"",""0"",""2""
","""event"",""trial"",""time""
""fullscreenenter"",""1"",""3162""
","
","","","-1","","","25","16962","6573","&#9826;","elianto","#f73b6a7A","-1","-1","1","0","[]","0","0","3","","","","","","","",""
"pit-trial","65","626208","0.0-2.0-14.1-1.1","battery-v0.2","","""event"",""trial"",""time""
""focus"",""0"",""2""
""fullscreenenter"",""1"",""3162""
","
","""event"",""trial"",""time""
""focus"",""0"",""2""
","""event"",""trial"",""time""
""fullscreenenter"",""1"",""3162""
","
","","","-1","","","25","16962","6573","&#9826;","elianto","#f73b6a7A","-1","-1","1","0","[]","0","0","3","","","","","","","",""
"pit-trial","66","631068","0.0-2.0-14.1-2.1","battery-v0.2","","""event"",""trial"",""time""
""focus"",""0"",""2""
""fullscreenenter"",""1"",""3162""
","
","""event"",""trial"",""time""
""focus"",""0"",""2""
","""event"",""trial"",""time""
""fullscreenenter"",""1"",""3162""
","
","","","-1","","","25","16962","6573","&#9826;","elianto","#f73b6a7A","-1","-1","1","0","[]","0","0","3","","","","","","","",""
"pit-trial","67","635926","0.0-2.0-14.1-3.1","battery-v0.2","","""event"",""trial"",""time""
""focus"",""0"",""2""
""fullscreenenter"",""1"",""3162""
","
","""event"",""trial"",""time""
""focus"",""0"",""2""
","""event"",""trial"",""time""
""fullscreenenter"",""1"",""3162""
","
","","","-1","","","25","16962","6573","&#9826;","elianto","#f73b6a7A","-1","-1","1","-10","[]","0","0","3","","","","","","","",""
"pit-trial","68","640786","0.0-2.0-14.1-4.1","battery-v0.2","","""event"",""trial"",""time""
""focus"",""0"",""2""
""fullscreenenter"",""1"",""3162""
","
","""event"",""trial"",""time""
""focus"",""0"",""2""
","""event"",""trial"",""time""
""fullscreenenter"",""1"",""3162""
","
","","","-1","","","25","16962","6573","&#9826;","elianto","#f73b6a7A","-1","-1","1","0","[]","0","0","3","","","","","","","",""
"pit-trial","69","645644","0.0-2.0-14.2-0.2","battery-v0.2","","""event"",""trial"",""time""
""focus"",""0"",""2""
""fullscreenenter"",""1"",""3162""
","
","""event"",""trial"",""time""
""focus"",""0"",""2""
","""event"",""trial"",""time""
""fullscreenenter"",""1"",""3162""
","
","","","-1","","","25","16962","6573","&#9826;","elianto","#f73b6a7A","-1","-1","1","0","[]","0","0","3","","","","","","","",""
"pit-trial","70","650503","0.0-2.0-14.2-1.2","battery-v0.2","","""event"",""trial"",""time""
""focus"",""0"",""2""
""fullscreenenter"",""1"",""3162""
","
","""event"",""trial"",""time""
""focus"",""0"",""2""
","""event"",""trial"",""time""
""fullscreenenter"",""1"",""3162""
","
","","","-1","","","25","16962","6573","&#9826;","elianto","#f73b6a7A","-1","-1","1","0","[]","0","0","3","","","","","","","",""
"pit-trial","71","655367","0.0-2.0-14.2-2.2","battery-v0.2","","""event"",""trial"",""time""
""focus"",""0"",""2""
""fullscreenenter"",""1"",""3162""
","
","""event"",""trial"",""time""
""focus"",""0"",""2""
","""event"",""trial"",""time""
""fullscreenenter"",""1"",""3162""
","
","","","-1","","","25","16962","6573","&#9826;","elianto","#f73b6a7A","-1","-1","1","0","[]","0","0","3","","","","","","","",""
"pit-trial","72","660226","0.0-2.0-14.2-3.2","battery-v0.2","","""event"",""trial"",""time""
""focus"",""0"",""2""
""fullscreenenter"",""1"",""3162""
","
","""event"",""trial"",""time""
""focus"",""0"",""2""
","""event"",""trial"",""time""
""fullscreenenter"",""1"",""3162""
","
","","","-1","","","25","16962","6573","&#9826;","elianto","#f73b6a7A","-1","-1","1","-10","[]","0","0","3","","","","","","","",""
"pit-trial","73","665088","0.0-2.0-14.2-4.2","battery-v0.2","","""event"",""trial"",""time""
""focus"",""0"",""2""
""fullscreenenter"",""1"",""3162""
","
","""event"",""trial"",""time""
""focus"",""0"",""2""
","""event"",""trial"",""time""
""fullscreenenter"",""1"",""3162""
","
","","","-1","","","25","16962","6573","&#9826;","elianto","#f73b6a7A","-1","-1","1","0","[]","0","0","3","","","","","","","",""
"pit-trial","74","669952","0.0-2.0-14.3-0.3","battery-v0.2","","""event"",""trial"",""time""
""focus"",""0"",""2""
""fullscreenenter"",""1"",""3162""
","
","""event"",""trial"",""time""
""focus"",""0"",""2""
","""event"",""trial"",""time""
""fullscreenenter"",""1"",""3162""
","
","","","-1","","","25","16962","6573","&#9826;","elianto","#f73b6a7A","-1","-1","1","0","[]","0","0","3","","","","","","","",""
"pit-trial","75","674815","0.0-2.0-14.3-1.3","battery-v0.2","","""event"",""trial"",""time""
""focus"",""0"",""2""
""fullscreenenter"",""1"",""3162""
","
","""event"",""trial"",""time""
""focus"",""0"",""2""
","""event"",""trial"",""time""
""fullscreenenter"",""1"",""3162""
","
","","","-1","","","25","16962","6573","&#9826;","elianto","#f73b6a7A","-1","-1","1","0","[]","0","0","3","","","","","","","",""
"pit-trial","76","679673","0.0-2.0-14.3-2.3","battery-v0.2","","""event"",""trial"",""time""
""focus"",""0"",""2""
""fullscreenenter"",""1"",""3162""
","
","""event"",""trial"",""time""
""focus"",""0"",""2""
","""event"",""trial"",""time""
""fullscreenenter"",""1"",""3162""
","
","","","-1","","","25","16962","6573","&#9826;","elianto","#f73b6a7A","-1","-1","1","0","[]","0","0","3","","","","","","","",""
"pit-trial","77","684534","0.0-2.0-14.3-3.3","battery-v0.2","","""event"",""trial"",""time""
""focus"",""0"",""2""
""fullscreenenter"",""1"",""3162""
","
","""event"",""trial"",""time""
""focus"",""0"",""2""
","""event"",""trial"",""time""
""fullscreenenter"",""1"",""3162""
","
","","","-1","","","25","16962","6573","&#9826;","elianto","#f73b6a7A","-1","-1","1","-10","[]","0","0","3","","","","","","","",""
"pit-trial","78","689396","0.0-2.0-14.3-4.3","battery-v0.2","","""event"",""trial"",""time""
""focus"",""0"",""2""
""fullscreenenter"",""1"",""3162""
","
","""event"",""trial"",""time""
""focus"",""0"",""2""
","""event"",""trial"",""time""
""fullscreenenter"",""1"",""3162""
","
","","","-1","","","25","16962","6573","&#9826;","elianto","#f73b6a7A","-1","-1","1","0","[]","0","0","3","","","","","","","",""
"call-function","79","689399","0.0-2.0-15.0","battery-v0.2","","""event"",""trial"",""time""
""focus"",""0"",""2""
""fullscreenenter"",""1"",""3162""
","
","""event"",""trial"",""time""
""focus"",""0"",""2""
","""event"",""trial"",""time""
""fullscreenenter"",""1"",""3162""
","
","","","","","","","","","","","","","","","","","","","","","","","","","","",""
"pit-instructions","80","714268","0.0-2.0-16.0","battery-v0.2","","""event"",""trial"",""time""
""focus"",""0"",""2""
""fullscreenenter"",""1"",""3162""
","
","""event"",""trial"",""time""
""focus"",""0"",""2""
","""event"",""trial"",""time""
""fullscreenenter"",""1"",""3162""
","
","","[{""page_index"":0,""viewing_time"":6638},{""page_index"":1,""viewing_time"":8047},{""page_index"":2,""viewing_time"":4451},{""page_index"":3,""viewing_time"":5733}]","24870","","","","","","","","","","","","","","","","","","","","","","","",""
"pit-trial","81","717707","0.0-2.0-17.0-0.0","battery-v0.2","","""event"",""trial"",""time""
""focus"",""0"",""2""
""fullscreenenter"",""1"",""3162""
","
","""event"",""trial"",""time""
""focus"",""0"",""2""
","""event"",""trial"",""time""
""fullscreenenter"",""1"",""3162""
","
","","","579","","","25","16962","6573","&#9789;","elianto","#f73b6a7A"," "," ","1","0","[1432]","1","0","4","","","","","","","",""
"pit-trial","82","721120","0.0-2.0-17.0-1.0","battery-v0.2","","""event"",""trial"",""time""
""focus"",""0"",""2""
""fullscreenenter"",""1"",""3162""
","
","""event"",""trial"",""time""
""focus"",""0"",""2""
","""event"",""trial"",""time""
""fullscreenenter"",""1"",""3162""
","
","","","555","","","25","16962","6573","&#9789;","elianto","#f73b6a7A"," "," ","1","0","[1407]","1","0","4","","","","","","","",""
"pit-trial","83","724511","0.0-2.0-17.0-2.0","battery-v0.2","","""event"",""trial"",""time""
""focus"",""0"",""2""
""fullscreenenter"",""1"",""3162""
","
","""event"",""trial"",""time""
""focus"",""0"",""2""
","""event"",""trial"",""time""
""fullscreenenter"",""1"",""3162""
","
","","","531","","","25","16962","6573","&#9789;","elianto","#f73b6a7A"," "," ","1","0","[1384]","1","0","4","","","","","","","",""
"pit-trial","84","727894","0.0-2.0-17.0-3.0","battery-v0.2","","""event"",""trial"",""time""
""focus"",""0"",""2""
""fullscreenenter"",""1"",""3162""
","
","""event"",""trial"",""time""
""focus"",""0"",""2""
","""event"",""trial"",""time""
""fullscreenenter"",""1"",""3162""
","
","","","525","","","25","16962","6573","&#9789;","elianto","#f73b6a7A"," "," ","1","-10","[1376]","1","0","4","","","","","","","",""
"pit-trial","85","731383","0.0-2.0-17.0-4.0","battery-v0.2","","""event"",""trial"",""time""
""focus"",""0"",""2""
""fullscreenenter"",""1"",""3162""
","
","""event"",""trial"",""time""
""focus"",""0"",""2""
","""event"",""trial"",""time""
""fullscreenenter"",""1"",""3162""
","
","","","520","","","25","16962","6573","&#9789;","elianto","#f73b6a7A"," "," ","1","0","[1372]","1","0","4","","","","","","","",""
"pit-trial","86","734818","0.0-2.0-17.1-0.1","battery-v0.2","","""event"",""trial"",""time""
""focus"",""0"",""2""
""fullscreenenter"",""1"",""3162""
","
","""event"",""trial"",""time""
""focus"",""0"",""2""
","""event"",""trial"",""time""
""fullscreenenter"",""1"",""3162""
","
","","","572","","","25","16962","6573","&#9789;","elianto","#f73b6a7A"," "," ","1","0","[1425]","1","0","4","","","","","","","",""
"pit-trial","87","738279","0.0-2.0-17.1-1.1","battery-v0.2","","""event"",""trial"",""time""
""focus"",""0"",""2""
""fullscreenenter"",""1"",""3162""
","
","""event"",""trial"",""time""
""focus"",""0"",""2""
","""event"",""trial"",""time""
""fullscreenenter"",""1"",""3162""
","
","","","600","","","25","16962","6573","&#9789;","elianto","#f73b6a7A"," "," ","1","0","[1453]","1","0","4","","","","","","","",""
"pit-trial","88","741724","0.0-2.0-17.1-2.1","battery-v0.2","","""event"",""trial"",""time""
""focus"",""0"",""2""
""fullscreenenter"",""1"",""3162""
","
","""event"",""trial"",""time""
""focus"",""0"",""2""
","""event"",""trial"",""time""
""fullscreenenter"",""1"",""3162""
","
","","","589","","","25","16962","6573","&#9789;","elianto","#f73b6a7A"," "," ","1","0","[1440]","1","0","4","","","","","","","",""
"pit-trial","89","745144","0.0-2.0-17.1-3.1","battery-v0.2","","""event"",""trial"",""time""
""focus"",""0"",""2""
""fullscreenenter"",""1"",""3162""
","
","""event"",""trial"",""time""
""focus"",""0"",""2""
","""event"",""trial"",""time""
""fullscreenenter"",""1"",""3162""
","
","","","565","","","25","16962","6573","&#9789;","elianto","#f73b6a7A"," "," ","1","-10","[1415]","1","0","4","","","","","","","",""
"pit-trial","90","748606","0.0-2.0-17.1-4.1","battery-v0.2","","""event"",""trial"",""time""
""focus"",""0"",""2""
""fullscreenenter"",""1"",""3162""
","
","""event"",""trial"",""time""
""focus"",""0"",""2""
","""event"",""trial"",""time""
""fullscreenenter"",""1"",""3162""
","
","","","467","","","25","16962","6573","&#9789;","elianto","#f73b6a7A"," "," ","1","0","[1318]","1","0","4","","","","","","","",""
"pit-trial","91","752023","0.0-2.0-17.2-0.2","battery-v0.2","","""event"",""trial"",""time""
""focus"",""0"",""2""
""fullscreenenter"",""1"",""3162""
","
","""event"",""trial"",""time""
""focus"",""0"",""2""
","""event"",""trial"",""time""
""fullscreenenter"",""1"",""3162""
","
","","","559","","","25","16962","6573","&#9789;","elianto","#f73b6a7A"," "," ","1","0","[1409]","1","0","4","","","","","","","",""
"pit-trial","92","755430","0.0-2.0-17.2-1.2","battery-v0.2","","""event"",""trial"",""time""
""focus"",""0"",""2""
""fullscreenenter"",""1"",""3162""
","
","""event"",""trial"",""time""
""focus"",""0"",""2""
","""event"",""trial"",""time""
""fullscreenenter"",""1"",""3162""
","
","","","549","","","25","16962","6573","&#9789;","elianto","#f73b6a7A"," "," ","1","0","[1402]","1","0","4","","","","","","","",""
"pit-trial","93","758770","0.0-2.0-17.2-2.2","battery-v0.2","","""event"",""trial"",""time""
""focus"",""0"",""2""
""fullscreenenter"",""1"",""3162""
","
","""event"",""trial"",""time""
""focus"",""0"",""2""
","""event"",""trial"",""time""
""fullscreenenter"",""1"",""3162""
","
","","","482","","","25","16962","6573","&#9789;","elianto","#f73b6a7A"," "," ","1","0","[1333]","1","0","4","","","","","","","",""
"pit-trial","94","762099","0.0-2.0-17.2-3.2","battery-v0.2","","""event"",""trial"",""time""
""focus"",""0"",""2""
""fullscreenenter"",""1"",""3162""
","
","""event"",""trial"",""time""
""focus"",""0"",""2""
","""event"",""trial"",""time""
""fullscreenenter"",""1"",""3162""
","
","","","467","","","25","16962","6573","&#9789;","elianto","#f73b6a7A"," "," ","1","-10","[1322]","1","0","4","","","","","","","",""
"pit-trial","95","765517","0.0-2.0-17.2-4.2","battery-v0.2","","""event"",""trial"",""time""
""focus"",""0"",""2""
""fullscreenenter"",""1"",""3162""
","
","""event"",""trial"",""time""
""focus"",""0"",""2""
","""event"",""trial"",""time""
""fullscreenenter"",""1"",""3162""
","
","","","562","","","25","16962","6573","&#9789;","elianto","#f73b6a7A"," "," ","1","0","[1413]","1","0","4","","","","","","","",""
"pit-trial","96","768942","0.0-2.0-17.3-0.3","battery-v0.2","","""event"",""trial"",""time""
""focus"",""0"",""2""
""fullscreenenter"",""1"",""3162""
","
","""event"",""trial"",""time""
""focus"",""0"",""2""
","""event"",""trial"",""time""
""fullscreenenter"",""1"",""3162""
","
","","","567","","","25","16962","6573","&#9789;","elianto","#f73b6a7A"," "," ","1","0","[1422]","1","0","4","","","","","","","",""
"pit-trial","97","772402","0.0-2.0-17.3-1.3","battery-v0.2","","""event"",""trial"",""time""
""focus"",""0"",""2""
""fullscreenenter"",""1"",""3162""
","
","""event"",""trial"",""time""
""focus"",""0"",""2""
","""event"",""trial"",""time""
""fullscreenenter"",""1"",""3162""
","
","","","604","","","25","16962","6573","&#9789;","elianto","#f73b6a7A"," "," ","1","0","[1456]","1","0","4","","","","","","","",""
"pit-trial","98","775780","0.0-2.0-17.3-2.3","battery-v0.2","","""event"",""trial"",""time""
""focus"",""0"",""2""
""fullscreenenter"",""1"",""3162""
","
","""event"",""trial"",""time""
""focus"",""0"",""2""
","""event"",""trial"",""time""
""fullscreenenter"",""1"",""3162""
","
","","","520","","","25","16962","6573","&#9789;","elianto","#f73b6a7A"," "," ","1","0","[1374]","1","0","4","","","","","","","",""
"pit-trial","99","779108","0.0-2.0-17.3-3.3","battery-v0.2","","""event"",""trial"",""time""
""focus"",""0"",""2""
""fullscreenenter"",""1"",""3162""
","
","""event"",""trial"",""time""
""focus"",""0"",""2""
","""event"",""trial"",""time""
""fullscreenenter"",""1"",""3162""
","
","","","470","","","25","16962","6573","&#9789;","elianto","#f73b6a7A"," "," ","1","-10","[1321]","1","0","4","","","","","","","",""
"pit-trial","100","782493","0.0-2.0-17.3-4.3","battery-v0.2","","""event"",""trial"",""time""
""focus"",""0"",""2""
""fullscreenenter"",""1"",""3162""
","
","""event"",""trial"",""time""
""focus"",""0"",""2""
","""event"",""trial"",""time""
""fullscreenenter"",""1"",""3162""
","
","","","528","","","25","16962","6573","&#9789;","elianto","#f73b6a7A"," "," ","1","0","[1380]","1","0","4","","","","","","","",""
"call-function","101","782494","0.0-2.0-18.0","battery-v0.2","","""event"",""trial"",""time""
""focus"",""0"",""2""
""fullscreenenter"",""1"",""3162""
","
","""event"",""trial"",""time""
""focus"",""0"",""2""
","""event"",""trial"",""time""
""fullscreenenter"",""1"",""3162""
","
","","","","","","","","","","","","","","","","","","","","","","","","","","",""
"pit-instructions","102","856816","0.0-2.0-19.0","battery-v0.2","","""event"",""trial"",""time""
""focus"",""0"",""2""
""fullscreenenter"",""1"",""3162""
","
","""event"",""trial"",""time""
""focus"",""0"",""2""
","""event"",""trial"",""time""
""fullscreenenter"",""1"",""3162""
","
","","[{""page_index"":0,""viewing_time"":7558},{""page_index"":1,""viewing_time"":6035},{""page_index"":2,""viewing_time"":15448},{""page_index"":3,""viewing_time"":8084},{""page_index"":4,""viewing_time"":9899},{""page_index"":5,""viewing_time"":8400},{""page_index"":6,""viewing_time"":8567},{""page_index"":7,""viewing_time"":6316},{""page_index"":8,""viewing_time"":4015}]","74322","","","","","","","","","","","","","","","","","","","","","","","",""
"pit-comprehension","103","861854","0.0-2.0-20.0-0.0","battery-v0.2","","""event"",""trial"",""time""
""focus"",""0"",""2""
""fullscreenenter"",""1"",""3162""
","
","""event"",""trial"",""time""
""focus"",""0"",""2""
","""event"",""trial"",""time""
""fullscreenenter"",""1"",""3162""
","
","","","5033","[""SPACE""]","0","25","16962","6573","","","","","","","","","","","","","","","","","","",""
"pit-instructions","104","865236","0.0-2.0-20.0-1.0","battery-v0.2","","""event"",""trial"",""time""
""focus"",""0"",""2""
""fullscreenenter"",""1"",""3162""
","
","""event"",""trial"",""time""
""focus"",""0"",""2""
","""event"",""trial"",""time""
""fullscreenenter"",""1"",""3162""
","
","","[{""page_index"":0,""viewing_time"":3355}]","3355","","","","","","","","","","","","","","","","","","","","","","","",""
"pit-comprehension","105","870394","0.0-2.0-21.0-0.0","battery-v0.2","","""event"",""trial"",""time""
""focus"",""0"",""2""
""fullscreenenter"",""1"",""3162""
","
","""event"",""trial"",""time""
""focus"",""0"",""2""
","""event"",""trial"",""time""
""fullscreenenter"",""1"",""3162""
","
","","","5148","[""10""]","0","25","16962","6573","","","","","","","","","","","","","","","","","","",""
"pit-instructions","106","872514","0.0-2.0-21.0-1.0","battery-v0.2","","""event"",""trial"",""time""
""focus"",""0"",""2""
""fullscreenenter"",""1"",""3162""
","
","""event"",""trial"",""time""
""focus"",""0"",""2""
","""event"",""trial"",""time""
""fullscreenenter"",""1"",""3162""
","
","","[{""page_index"":0,""viewing_time"":2088}]","2088","","","","","","","","","","","","","","","","","","","","","","","",""
"pit-comprehension","107","879392","0.0-2.0-22.0-0.0","battery-v0.2","","""event"",""trial"",""time""
""focus"",""0"",""2""
""fullscreenenter"",""1"",""3162""
","
","""event"",""trial"",""time""
""focus"",""0"",""2""
","""event"",""trial"",""time""
""fullscreenenter"",""1"",""3162""
","
","","","6864","[""0""]","0","25","16962","6573","","","","","","","","","","","","","","","","","","",""
"pit-instructions","108","882461","0.0-2.0-22.0-1.0","battery-v0.2","","""event"",""trial"",""time""
""focus"",""0"",""2""
""fullscreenenter"",""1"",""3162""
","
","""event"",""trial"",""time""
""focus"",""0"",""2""
","""event"",""trial"",""time""
""fullscreenenter"",""1"",""3162""
","
","","[{""page_index"":0,""viewing_time"":3039}]","3039","","","","","","","","","","","","","","","","","","","","","","","",""
"pit-comprehension","109","891085","0.0-2.0-23.0-0.0","battery-v0.2","","""event"",""trial"",""time""
""focus"",""0"",""2""
""fullscreenenter"",""1"",""3162""
","
","""event"",""trial"",""time""
""focus"",""0"",""2""
","""event"",""trial"",""time""
""fullscreenenter"",""1"",""3162""
","
","","","8615","[""True""]","0","25","16962","6573","","","","","","","","","","","","","","","","","","",""
"pit-instructions","110","893968","0.0-2.0-23.0-1.0","battery-v0.2","","""event"",""trial"",""time""
""focus"",""0"",""2""
""fullscreenenter"",""1"",""3162""
","
","""event"",""trial"",""time""
""focus"",""0"",""2""
","""event"",""trial"",""time""
""fullscreenenter"",""1"",""3162""
","
","","[{""page_index"":0,""viewing_time"":2855}]","2855","","","","","","","","","","","","","","","","","","","","","","","",""
"pit-comprehension","111","901973","0.0-2.0-24.0-0.0","battery-v0.2","","""event"",""trial"",""time""
""focus"",""0"",""2""
""fullscreenenter"",""1"",""3162""
","
","""event"",""trial"",""time""
""focus"",""0"",""2""
","""event"",""trial"",""time""
""fullscreenenter"",""1"",""3162""
","
","","","7998","[""True""]","0","25","16962","6573","","","","","","","","","","","","","","","","","","",""
"pit-instructions","112","903489","0.0-2.0-24.0-1.0","battery-v0.2","","""event"",""trial"",""time""
""focus"",""0"",""2""
""fullscreenenter"",""1"",""3162""
","
","""event"",""trial"",""time""
""focus"",""0"",""2""
","""event"",""trial"",""time""
""fullscreenenter"",""1"",""3162""
","
","","[{""page_index"":0,""viewing_time"":1487}]","1489","","","","","","","","","","","","","","","","","","","","","","","",""
"pit-comprehension","113","910243","0.0-2.0-25.0-0.0","battery-v0.2","","""event"",""trial"",""time""
""focus"",""0"",""2""
""fullscreenenter"",""1"",""3162""
","
","""event"",""trial"",""time""
""focus"",""0"",""2""
","""event"",""trial"",""time""
""fullscreenenter"",""1"",""3162""
","
","","","6748","[""True""]","0","25","16962","6573","","","","","","","","","","","","","","","","","","",""
"pit-instructions","114","911723","0.0-2.0-25.0-1.0","battery-v0.2","","""event"",""trial"",""time""
""focus"",""0"",""2""
""fullscreenenter"",""1"",""3162""
","
","""event"",""trial"",""time""
""focus"",""0"",""2""
","""event"",""trial"",""time""
""fullscreenenter"",""1"",""3162""
","
","","[{""page_index"":0,""viewing_time"":1452}]","1453","","","","","","","","","","","","","","","","","","","","","","","",""
"pit-comprehension","115","916926","0.0-2.0-26.0-0.0","battery-v0.2","","""event"",""trial"",""time""
""focus"",""0"",""2""
""fullscreenenter"",""1"",""3162""
","
","""event"",""trial"",""time""
""focus"",""0"",""2""
","""event"",""trial"",""time""
""fullscreenenter"",""1"",""3162""
","
","","","5197","[""False""]","0","25","16962","6573","","","","","","","","","","","","","","","","","","",""
"pit-instructions","116","918639","0.0-2.0-26.0-1.0","battery-v0.2","","""event"",""trial"",""time""
""focus"",""0"",""2""
""fullscreenenter"",""1"",""3162""
","
","""event"",""trial"",""time""
""focus"",""0"",""2""
","""event"",""trial"",""time""
""fullscreenenter"",""1"",""3162""
","
","","[{""page_index"":0,""viewing_time"":1685}]","1685","","","","","","","","","","","","","","","","","","","","","","","",""
"pit-instructions","117","945144","0.0-3.0","battery-v0.2","","""event"",""trial"",""time""
""focus"",""0"",""2""
""fullscreenenter"",""1"",""3162""
","
","""event"",""trial"",""time""
""focus"",""0"",""2""
","""event"",""trial"",""time""
""fullscreenenter"",""1"",""3162""
","
","","[{""page_index"":0,""viewing_time"":4384},{""page_index"":1,""viewing_time"":5115},{""page_index"":2,""viewing_time"":17003}]","26502","","","","","","","","","","","","","","","","","","","","","","","",""
"pit-trial","118","948764","0.0-4.0","battery-v0.2","","""event"",""trial"",""time""
""focus"",""0"",""2""
""fullscreenenter"",""1"",""3162""
","
","""event"",""trial"",""time""
""focus"",""0"",""2""
","""event"",""trial"",""time""
""fullscreenenter"",""1"",""3162""
","
","","","759","","","25","16962","6573","&#9730;","elianto","#3366ff99"," "," ","1","0","[1614]","1","1","","","16962","1","1","1","win","go","1"
"pit-trial","119","952537","0.0-5.0","battery-v0.2","","""event"",""trial"",""time""
""focus"",""0"",""2""
""fullscreenenter"",""1"",""3162""
","
","""event"",""trial"",""time""
""focus"",""0"",""2""
","""event"",""trial"",""time""
""fullscreenenter"",""1"",""3162""
","
","","","915","","","25","16962","6573","&#9728;","elianto","#f73b6a7A","-1"," ","0","0","[1769]","1","1","","","16962","2","0","4","lose","no-go","1"
"pit-trial","120","956518","0.0-6.0","battery-v0.2","","""event"",""trial"",""time""
""focus"",""0"",""2""
""fullscreenenter"",""1"",""3162""
","
","""event"",""trial"",""time""
""focus"",""0"",""2""
","""event"",""trial"",""time""
""fullscreenenter"",""1"",""3162""
","
","","","1123","","","25","16962","6573","&#9733;","elianto","#3366ff99","-1"," ","0","+10","[1973]","1","1","","","16962","3","2","2","win","no-go","1"
"pit-trial","121","960328","0.0-7.0","battery-v0.2","","""event"",""trial"",""time""
""focus"",""0"",""2""
""fullscreenenter"",""1"",""3162""
","
","""event"",""trial"",""time""
""focus"",""0"",""2""
","""event"",""trial"",""time""
""fullscreenenter"",""1"",""3162""
","
","","","953","","","25","16962","6573","&#9752;","elianto","#f73b6a7A"," "," ","1","-10","[1805]","1","1","","","16962","4","3","3","lose","go","1"
"pit-trial","122","964059","0.0-8.0","battery-v0.2","","""event"",""trial"",""time""
""focus"",""0"",""2""
""fullscreenenter"",""1"",""3162""
","
","""event"",""trial"",""time""
""focus"",""0"",""2""
","""event"",""trial"",""time""
""fullscreenenter"",""1"",""3162""
","
","","","872","","","25","16962","6573","&#9728;","elianto","#f73b6a7A","-1"," ","0","0","[1727]","1","1","","","16962","5","0","4","lose","no-go","1"
"pit-trial","123","967562","0.0-9.0","battery-v0.2","","""event"",""trial"",""time""
""focus"",""0"",""2""
""fullscreenenter"",""1"",""3162""
","
","""event"",""trial"",""time""
""focus"",""0"",""2""
","""event"",""trial"",""time""
""fullscreenenter"",""1"",""3162""
","
","","","642","","","25","16962","6573","&#9733;","elianto","#3366ff99","-1"," ","0","0","[1494]","1","1","","","16962","6","2","2","win","no-go","0"
"pit-trial","124","972423","0.0-10.0","battery-v0.2","","""event"",""trial"",""time""
""focus"",""0"",""2""
""fullscreenenter"",""1"",""3162""
","
","""event"",""trial"",""time""
""focus"",""0"",""2""
","""event"",""trial"",""time""
""fullscreenenter"",""1"",""3162""
","
","","","-1","","","25","16962","6573","&#9752;","elianto","#f73b6a7A"," ","-1","0","-10","[]","0","1","","","16962","7","3","3","lose","go","0"
"pit-trial","125","977427","0.0-11.0","battery-v0.2","","""event"",""trial"",""time""
""focus"",""0"",""2""
""fullscreenenter"",""1"",""3162""
","
","""event"",""trial"",""time""
""focus"",""0"",""2""
","""event"",""trial"",""time""
""fullscreenenter"",""1"",""3162""
","
","","","-1","","","25","16962","6573","&#9730;","elianto","#3366ff99"," ","-1","0","+10","[]","0","1","","","16962","8","1","1","win","go","1"
"pit-trial","126","981226","0.0-12.0","battery-v0.2","","""event"",""trial"",""time""
""focus"",""0"",""2""
""fullscreenenter"",""1"",""3162""
","
","""event"",""trial"",""time""
""focus"",""0"",""2""
","""event"",""trial"",""time""
""fullscreenenter"",""1"",""3162""
","
","","","939","","","25","16962","6573","&#9733;","elianto","#3366ff99","-1"," ","0","0","[1794]","1","1","","","16962","9","2","2","win","no-go","0"
"pit-trial","127","985796","0.0-13.0","battery-v0.2","","""event"",""trial"",""time""
""focus"",""0"",""2""
""fullscreenenter"",""1"",""3162""
","
","""event"",""trial"",""time""
""focus"",""0"",""2""
","""event"",""trial"",""time""
""fullscreenenter"",""1"",""3162""
","
","","","1711","","","25","16962","6573","&#9730;","elianto","#3366ff99"," "," ","1","+10","[2561]","1","1","","","16962","10","1","1","win","go","0"
"pit-trial","128","989654","0.0-14.0","battery-v0.2","","""event"",""trial"",""time""
""focus"",""0"",""2""
""fullscreenenter"",""1"",""3162""
","
","""event"",""trial"",""time""
""focus"",""0"",""2""
","""event"",""trial"",""time""
""fullscreenenter"",""1"",""3162""
","
","","","1000","","","25","16962","6573","&#9728;","elianto","#f73b6a7A","-1"," ","0","-10","[1850]","1","1","","","16962","11","0","4","lose","no-go","0"
"pit-trial","129","994659","0.0-15.0","battery-v0.2","","""event"",""trial"",""time""
""focus"",""0"",""2""
""fullscreenenter"",""1"",""3162""
","
","""event"",""trial"",""time""
""focus"",""0"",""2""
","""event"",""trial"",""time""
""fullscreenenter"",""1"",""3162""
","
","","","-1","","","25","16962","6573","&#9752;","elianto","#f73b6a7A"," ","-1","0","-10","[]","0","1","","","16962","12","3","3","lose","go","0"
"pit-trial","130","998303","0.0-16.0","battery-v0.2","","""event"",""trial"",""time""
""focus"",""0"",""2""
""fullscreenenter"",""1"",""3162""
","
","""event"",""trial"",""time""
""focus"",""0"",""2""
","""event"",""trial"",""time""
""fullscreenenter"",""1"",""3162""
","
","","","786","","","25","16962","6573","&#9730;","elianto","#3366ff99"," "," ","1","+10","[1636]","1","1","","","16962","13","1","1","win","go","0"
"pit-trial","131","1002272","0.0-17.0","battery-v0.2","","""event"",""trial"",""time""
""focus"",""0"",""2""
""fullscreenenter"",""1"",""3162""
","
","""event"",""trial"",""time""
""focus"",""0"",""2""
","""event"",""trial"",""time""
""fullscreenenter"",""1"",""3162""
","
","","","1112","","","25","16962","6573","&#9752;","elianto","#f73b6a7A"," "," ","1","0","[1964]","1","1","","","16962","14","3","3","lose","go","0"
"pit-trial","132","1007129","0.0-18.0","battery-v0.2","","""event"",""trial"",""time""
""focus"",""0"",""2""
""fullscreenenter"",""1"",""3162""
","
","""event"",""trial"",""time""
""focus"",""0"",""2""
","""event"",""trial"",""time""
""fullscreenenter"",""1"",""3162""
","
","","","-1","","","25","16962","6573","&#9733;","elianto","#3366ff99","-1","-1","1","+10","[]","0","1","","","16962","15","2","2","win","no-go","0"
"pit-trial","133","1011989","0.0-19.0","battery-v0.2","","""event"",""trial"",""time""
""focus"",""0"",""2""
""fullscreenenter"",""1"",""3162""
","
","""event"",""trial"",""time""
""focus"",""0"",""2""
","""event"",""trial"",""time""
""fullscreenenter"",""1"",""3162""
","
","","","-1","","","25","16962","6573","&#9728;","elianto","#f73b6a7A","-1","-1","1","0","[]","0","1","","","16962","16","0","4","lose","no-go","0"
"pit-trial","134","1016847","0.0-20.0","battery-v0.2","","""event"",""trial"",""time""
""focus"",""0"",""2""
""fullscreenenter"",""1"",""3162""
","
","""event"",""trial"",""time""
""focus"",""0"",""2""
","""event"",""trial"",""time""
""fullscreenenter"",""1"",""3162""
","
","","","-1","","","25","16962","6573","&#9733;","elianto","#3366ff99","-1","-1","1","+10","[]","0","1","","","16962","17","2","2","win","no-go","0"
"pit-trial","135","1020399","0.0-21.0","battery-v0.2","","""event"",""trial"",""time""
""focus"",""0"",""2""
""fullscreenenter"",""1"",""3162""
","
","""event"",""trial"",""time""
""focus"",""0"",""2""
","""event"",""trial"",""time""
""fullscreenenter"",""1"",""3162""
","
","","","696","","","25","16962","6573","&#9752;","elianto","#f73b6a7A"," "," ","1","-10","[1551]","1","1","","","16962","18","3","3","lose","go","1"
"pit-trial","136","1023824","0.0-22.0","battery-v0.2","","""event"",""trial"",""time""
""focus"",""0"",""2""
""fullscreenenter"",""1"",""3162""
","
","""event"",""trial"",""time""
""focus"",""0"",""2""
","""event"",""trial"",""time""
""fullscreenenter"",""1"",""3162""
","
","","","566","","","25","16962","6573","&#9730;","elianto","#3366ff99"," "," ","1","+10","[1420]","1","1","","","16962","19","1","1","win","go","0"
"pit-trial","137","1028827","0.0-23.0","battery-v0.2","","""event"",""trial"",""time""
""focus"",""0"",""2""
""fullscreenenter"",""1"",""3162""
","
","""event"",""trial"",""time""
""focus"",""0"",""2""
","""event"",""trial"",""time""
""fullscreenenter"",""1"",""3162""
","
","","","-1","","","25","16962","6573","&#9728;","elianto","#f73b6a7A","-1","-1","1","0","[]","0","1","","","16962","20","0","4","lose","no-go","0"
"pit-instructions","138","1042629","0.0-24.0","battery-v0.2","","""event"",""trial"",""time""
""focus"",""0"",""2""
""fullscreenenter"",""1"",""3162""
","
","""event"",""trial"",""time""
""focus"",""0"",""2""
","""event"",""trial"",""time""
""fullscreenenter"",""1"",""3162""
","
","","[{""page_index"":0,""viewing_time"":6619},{""page_index"":1,""viewing_time"":7183}]","13802","","","","","","","","","","","","","","","","","","","","","","","",""
"pit-trial","139","1046348","0.0-25.0","battery-v0.2","","""event"",""trial"",""time""
""focus"",""0"",""2""
""fullscreenenter"",""1"",""3162""
","
","""event"",""trial"",""time""
""focus"",""0"",""2""
","""event"",""trial"",""time""
""fullscreenenter"",""1"",""3162""
","
","","","807","","","25","16962","6573","n","elianto","#f73b6a7A"," "," ","1","-10","[1662]","1","2","","","16962","21","0","3","lose","go","1"
"pit-trial","140","1050110","0.0-26.0","battery-v0.2","","""event"",""trial"",""time""
""focus"",""0"",""2""
""fullscreenenter"",""1"",""3162""
","
","""event"",""trial"",""time""
""focus"",""0"",""2""
","""event"",""trial"",""time""
""fullscreenenter"",""1"",""3162""
","
","","","902","","","25","16962","6573","t","elianto","#f73b6a7A"," "," ","1","-10","[1756]","1","2","","","16962","22","2","3","lose","go","1"
"pit-trial","141","1053756","0.0-27.0","battery-v0.2","","""event"",""trial"",""time""
""focus"",""0"",""2""
""fullscreenenter"",""1"",""3162""
","
","""event"",""trial"",""time""
""focus"",""0"",""2""
","""event"",""trial"",""time""
""fullscreenenter"",""1"",""3162""
","
","","","787","","","25","16962","6573","b","elianto","#f73b6a7A","-1"," ","0","0","[1641]","1","2","","","16962","23","3","4","lose","no-go","1"
"pit-trial","142","1057262","0.0-28.0","battery-v0.2","","""event"",""trial"",""time""
""focus"",""0"",""2""
""fullscreenenter"",""1"",""3162""
","
","""event"",""trial"",""time""
""focus"",""0"",""2""
","""event"",""trial"",""time""
""fullscreenenter"",""1"",""3162""
","
","","","652","","","25","16962","6573","f","elianto","#3366ff99","-1"," ","0","+10","[1501]","1","2","","","16962","24","1","2","win","no-go","1"
"pit-trial","143","1062123","0.0-29.0","battery-v0.2","","""event"",""trial"",""time""
""focus"",""0"",""2""
""fullscreenenter"",""1"",""3162""
","
","""event"",""trial"",""time""
""focus"",""0"",""2""
","""event"",""trial"",""time""
""fullscreenenter"",""1"",""3162""
","
","","","-1","","","25","16962","6573","t","elianto","#f73b6a7A"," ","-1","0","-10","[]","0","2","","","16962","25","2","3","lose","go","0"
"pit-trial","144","1065679","0.0-30.0","battery-v0.2","","""event"",""trial"",""time""
""focus"",""0"",""2""
""fullscreenenter"",""1"",""3162""
","
","""event"",""trial"",""time""
""focus"",""0"",""2""
","""event"",""trial"",""time""
""fullscreenenter"",""1"",""3162""
","
","","","702","","","25","16962","6573","f","elianto","#3366ff99","-1"," ","0","0","[1552]","1","2","","","16962","26","1","2","win","no-go","0"
"pit-trial","145","1070561","0.0-31.0","battery-v0.2","","""event"",""trial"",""time""
""focus"",""0"",""2""
""fullscreenenter"",""1"",""3162""
","
","""event"",""trial"",""time""
""focus"",""0"",""2""
","""event"",""trial"",""time""
""fullscreenenter"",""1"",""3162""
","
","","","-1","","","25","16962","6573","n","elianto","#f73b6a7A"," ","-1","0","-10","[]","0","2","","","16962","27","0","3","lose","go","0"
"pit-trial","146","1074202","0.0-32.0","battery-v0.2","","""event"",""trial"",""time""
""focus"",""0"",""2""
""fullscreenenter"",""1"",""3162""
","
","""event"",""trial"",""time""
""focus"",""0"",""2""
","""event"",""trial"",""time""
""fullscreenenter"",""1"",""3162""
","
","","","782","","","25","16962","6573","b","elianto","#f73b6a7A","-1"," ","0","-10","[1633]","1","2","","","16962","28","3","4","lose","no-go","0"
"pit-trial","147","1077853","0.0-33.0","battery-v0.2","","""event"",""trial"",""time""
""focus"",""0"",""2""
""fullscreenenter"",""1"",""3162""
","
","""event"",""trial"",""time""
""focus"",""0"",""2""
","""event"",""trial"",""time""
""fullscreenenter"",""1"",""3162""
","
","","","789","","","25","16962","6573","n","elianto","#f73b6a7A"," "," ","1","0","[1644]","1","2","","","16962","29","0","3","lose","go","0"
"pit-trial","148","1081597","0.0-34.0","battery-v0.2","","""event"",""trial"",""time""
""focus"",""0"",""2""
""fullscreenenter"",""1"",""3162""
","
","""event"",""trial"",""time""
""focus"",""0"",""2""
","""event"",""trial"",""time""
""fullscreenenter"",""1"",""3162""
","
","","","885","","","25","16962","6573","t","elianto","#f73b6a7A"," "," ","1","0","[1738]","1","2","","","16962","30","2","3","lose","go","0"
"pit-trial","149","1085661","0.0-35.0","battery-v0.2","","""event"",""trial"",""time""
""focus"",""0"",""2""
""fullscreenenter"",""1"",""3162""
","
","""event"",""trial"",""time""
""focus"",""0"",""2""
","""event"",""trial"",""time""
""fullscreenenter"",""1"",""3162""
","
","","","1203","","","25","16962","6573","f","elianto","#3366ff99","-1"," ","0","+10","[2056]","1","2","","","16962","31","1","2","win","no-go","1"
"pit-trial","150","1089433","0.0-36.0","battery-v0.2","","""event"",""trial"",""time""
""focus"",""0"",""2""
""fullscreenenter"",""1"",""3162""
","
","""event"",""trial"",""time""
""focus"",""0"",""2""
","""event"",""trial"",""time""
""fullscreenenter"",""1"",""3162""
","
","","","915","","","25","16962","6573","b","elianto","#f73b6a7A","-1"," ","0","-10","[1766]","1","2","","","16962","32","3","4","lose","no-go","0"
"pit-trial","151","1092985","0.0-37.0","battery-v0.2","","""event"",""trial"",""time""
""focus"",""0"",""2""
""fullscreenenter"",""1"",""3162""
","
","""event"",""trial"",""time""
""focus"",""0"",""2""
","""event"",""trial"",""time""
""fullscreenenter"",""1"",""3162""
","
","","","691","","","25","16962","6573","n","elianto","#f73b6a7A"," "," ","1","0","[1545]","1","2","","","16962","33","0","3","lose","go","0"
"pit-trial","152","1096632","0.0-38.0","battery-v0.2","","""event"",""trial"",""time""
""focus"",""0"",""2""
""fullscreenenter"",""1"",""3162""
","
","""event"",""trial"",""time""
""focus"",""0"",""2""
","""event"",""trial"",""time""
""fullscreenenter"",""1"",""3162""
","
","","","788","","","25","16962","6573","f","elianto","#3366ff99","-1"," ","0","0","[1641]","1","2","","","16962","34","1","2","win","no-go","0"
"pit-trial","153","1101494","0.0-39.0","battery-v0.2","","""event"",""trial"",""time""
""focus"",""0"",""2""
""fullscreenenter"",""1"",""3162""
","
","""event"",""trial"",""time""
""focus"",""0"",""2""
","""event"",""trial"",""time""
""fullscreenenter"",""1"",""3162""
","
","","","-1","","","25","16962","6573","b","elianto","#f73b6a7A","-1","-1","1","-10","[]","0","2","","","16962","35","3","4","lose","no-go","1"
"pit-trial","154","1105326","0.0-40.0","battery-v0.2","","""event"",""trial"",""time""
""focus"",""0"",""2""
""fullscreenenter"",""1"",""3162""
","
","""event"",""trial"",""time""
""focus"",""0"",""2""
","""event"",""trial"",""time""
""fullscreenenter"",""1"",""3162""
","
","","","975","","","25","16962","6573","t","elianto","#f73b6a7A"," "," ","1","-10","[1825]","1","2","","","16962","36","2","3","lose","go","1"
"pit-trial","155","1108904","0.0-41.0","battery-v0.2","","""event"",""trial"",""time""
""focus"",""0"",""2""
""fullscreenenter"",""1"",""3162""
","
","""event"",""trial"",""time""
""focus"",""0"",""2""
","""event"",""trial"",""time""
""fullscreenenter"",""1"",""3162""
","
","","","721","","","25","16962","6573","n","elianto","#f73b6a7A"," "," ","1","-10","[1572]","1","2","","","16962","37","0","3","lose","go","1"
"pit-trial","156","1112771","0.0-42.0","battery-v0.2","","""event"",""trial"",""time""
""focus"",""0"",""2""
""fullscreenenter"",""1"",""3162""
","
","""event"",""trial"",""time""
""focus"",""0"",""2""
","""event"",""trial"",""time""
""fullscreenenter"",""1"",""3162""
","
","","","1012","","","25","16962","6573","f","elianto","#3366ff99","-1"," ","0","0","[1864]","1","2","","","16962","38","1","2","win","no-go","0"
"pit-trial","157","1117633","0.0-43.0","battery-v0.2","","""event"",""trial"",""time""
""focus"",""0"",""2""
""fullscreenenter"",""1"",""3162""
","
","""event"",""trial"",""time""
""focus"",""0"",""2""
","""event"",""trial"",""time""
""fullscreenenter"",""1"",""3162""
","
","","","-1","","","25","16962","6573","t","elianto","#f73b6a7A"," ","-1","0","0","[]","0","2","","","16962","39","2","3","lose","go","1"
"pit-trial","158","1122495","0.0-44.0","battery-v0.2","","""event"",""trial"",""time""
""focus"",""0"",""2""
""fullscreenenter"",""1"",""3162""
","
","""event"",""trial"",""time""
""focus"",""0"",""2""
","""event"",""trial"",""time""
""fullscreenenter"",""1"",""3162""
","
","","","-1","","","25","16962","6573","b","elianto","#f73b6a7A","-1","-1","1","0","[]","0","2","","","16962","40","3","4","lose","no-go","0"
"pit-trial","159","1126076","0.0-45.0","battery-v0.2","","""event"",""trial"",""time""
""focus"",""0"",""2""
""fullscreenenter"",""1"",""3162""
","
","""event"",""trial"",""time""
""focus"",""0"",""2""
","""event"",""trial"",""time""
""fullscreenenter"",""1"",""3162""
","
","","","722","","","25","16962","6573","f","elianto","#3366ff99","-1"," ","0","+10","[1573]","1","2","","","16962","41","1","2","win","no-go","1"
"pit-trial","160","1131077","0.0-46.0","battery-v0.2","","""event"",""trial"",""time""
""focus"",""0"",""2""
""fullscreenenter"",""1"",""3162""
","
","""event"",""trial"",""time""
""focus"",""0"",""2""
","""event"",""trial"",""time""
""fullscreenenter"",""1"",""3162""
","
","","","-1","","","25","16962","6573","t","elianto","#f73b6a7A"," ","-1","0","0","[]","0","2","","","16962","42","2","3","lose","go","1"
"pit-trial","161","1136197","0.0-47.0","battery-v0.2","","""event"",""trial"",""time""
""focus"",""0"",""2""
""fullscreenenter"",""1"",""3162""
","
","""event"",""trial"",""time""
""focus"",""0"",""2""
","""event"",""trial"",""time""
""fullscreenenter"",""1"",""3162""
","
","","","-1","","","25","16962","6573","b","elianto","#f73b6a7A","-1","-1","1","0","[]","0","2","","","16962","43","3","4","lose","no-go","0"
"pit-trial","162","1139679","0.0-48.0","battery-v0.2","","""event"",""trial"",""time""
""focus"",""0"",""2""
""fullscreenenter"",""1"",""3162""
","
","""event"",""trial"",""time""
""focus"",""0"",""2""
","""event"",""trial"",""time""
""fullscreenenter"",""1"",""3162""
","
","","","627","","","25","16962","6573","n","elianto","#f73b6a7A"," "," ","1","-10","[1475]","1","2","","","16962","44","0","3","lose","go","1"
"pit-trial","163","1144679","0.0-49.0","battery-v0.2","","""event"",""trial"",""time""
""focus"",""0"",""2""
""fullscreenenter"",""1"",""3162""
","
","""event"",""trial"",""time""
""focus"",""0"",""2""
","""event"",""trial"",""time""
""fullscreenenter"",""1"",""3162""
","
","","","-1","","","25","16962","6573","t","elianto","#f73b6a7A"," ","-1","0","-10","[]","0","2","","","16962","45","2","3","lose","go","0"
"pit-trial","164","1149688","0.0-50.0","battery-v0.2","","""event"",""trial"",""time""
""focus"",""0"",""2""
""fullscreenenter"",""1"",""3162""
","
","""event"",""trial"",""time""
""focus"",""0"",""2""
","""event"",""trial"",""time""
""fullscreenenter"",""1"",""3162""
","
","","","-1","","","25","16962","6573","n","elianto","#f73b6a7A"," ","-1","0","-10","[]","0","2","","","16962","46","0","3","lose","go","0"
"pit-trial","165","1153395","0.0-51.0","battery-v0.2","","""event"",""trial"",""time""
""focus"",""0"",""2""
""fullscreenenter"",""1"",""3162""
","
","""event"",""trial"",""time""
""focus"",""0"",""2""
","""event"",""trial"",""time""
""fullscreenenter"",""1"",""3162""
","
","","","848","","","25","16962","6573","f","elianto","#3366ff99","-1"," ","0","+10","[1698]","1","2","","","16962","47","1","2","win","no-go","1"
"pit-trial","166","1158395","0.0-52.0","battery-v0.2","","""event"",""trial"",""time""
""focus"",""0"",""2""
""fullscreenenter"",""1"",""3162""
","
","""event"",""trial"",""time""
""focus"",""0"",""2""
","""event"",""trial"",""time""
""fullscreenenter"",""1"",""3162""
","
","","","-1","","","25","16962","6573","b","elianto","#f73b6a7A","-1","-1","1","0","[]","0","2","","","16962","48","3","4","lose","no-go","0"
"pit-trial","167","1163400","0.0-53.0","battery-v0.2","","""event"",""trial"",""time""
""focus"",""0"",""2""
""fullscreenenter"",""1"",""3162""
","
","""event"",""trial"",""time""
""focus"",""0"",""2""
","""event"",""trial"",""time""
""fullscreenenter"",""1"",""3162""
","
","","","-1","","","25","16962","6573","b","elianto","#f73b6a7A","-1","-1","1","0","[]","0","2","","","16962","49","3","4","lose","no-go","0"
"pit-trial","168","1166921","0.0-54.0","battery-v0.2","","""event"",""trial"",""time""
""focus"",""0"",""2""
""fullscreenenter"",""1"",""3162""
","
","""event"",""trial"",""time""
""focus"",""0"",""2""
","""event"",""trial"",""time""
""fullscreenenter"",""1"",""3162""
","
","","","667","","","25","16962","6573","t","elianto","#f73b6a7A"," "," ","1","0","[1518]","1","2","","","16962","50","2","3","lose","go","0"
"pit-trial","169","1170534","0.0-55.0","battery-v0.2","","""event"",""trial"",""time""
""focus"",""0"",""2""
""fullscreenenter"",""1"",""3162""
","
","""event"",""trial"",""time""
""focus"",""0"",""2""
","""event"",""trial"",""time""
""fullscreenenter"",""1"",""3162""
","
","","","757","","","25","16962","6573","f","elianto","#3366ff99","-1"," ","0","0","[1610]","1","2","","","16962","51","1","2","win","no-go","0"
"pit-trial","170","1175393","0.0-56.0","battery-v0.2","","""event"",""trial"",""time""
""focus"",""0"",""2""
""fullscreenenter"",""1"",""3162""
","
","""event"",""trial"",""time""
""focus"",""0"",""2""
","""event"",""trial"",""time""
""fullscreenenter"",""1"",""3162""
","
","","","-1","","","25","16962","6573","n","elianto","#f73b6a7A"," ","-1","0","-10","[]","0","2","","","16962","52","0","3","lose","go","0"
"pit-trial","171","1178996","0.0-57.0","battery-v0.2","","""event"",""trial"",""time""
""focus"",""0"",""2""
""fullscreenenter"",""1"",""3162""
","
","""event"",""trial"",""time""
""focus"",""0"",""2""
","""event"",""trial"",""time""
""fullscreenenter"",""1"",""3162""
","
","","","750","","","25","16962","6573","t","elianto","#f73b6a7A"," "," ","1","0","[1599]","1","2","","","16962","53","2","3","lose","go","0"
"pit-trial","172","1182671","0.0-58.0","battery-v0.2","","""event"",""trial"",""time""
""focus"",""0"",""2""
""fullscreenenter"",""1"",""3162""
","
","""event"",""trial"",""time""
""focus"",""0"",""2""
","""event"",""trial"",""time""
""fullscreenenter"",""1"",""3162""
","
","","","817","","","25","16962","6573","f","elianto","#3366ff99","-1"," ","0","+10","[1668]","1","2","","","16962","54","1","2","win","no-go","1"
"pit-trial","173","1187532","0.0-59.0","battery-v0.2","","""event"",""trial"",""time""
""focus"",""0"",""2""
""fullscreenenter"",""1"",""3162""
","
","""event"",""trial"",""time""
""focus"",""0"",""2""
","""event"",""trial"",""time""
""fullscreenenter"",""1"",""3162""
","
","","","-1","","","25","16962","6573","b","elianto","#f73b6a7A","-1","-1","1","0","[]","0","2","","","16962","55","3","4","lose","no-go","0"
"pit-trial","174","1191314","0.0-60.0","battery-v0.2","","""event"",""trial"",""time""
""focus"",""0"",""2""
""fullscreenenter"",""1"",""3162""
","
","""event"",""trial"",""time""
""focus"",""0"",""2""
","""event"",""trial"",""time""
""fullscreenenter"",""1"",""3162""
","
","","","928","","","25","16962","6573","n","elianto","#f73b6a7A"," "," ","1","0","[1780]","1","2","","","16962","56","0","3","lose","go","0"
"pit-trial","175","1196324","0.0-61.0","battery-v0.2","","""event"",""trial"",""time""
""focus"",""0"",""2""
""fullscreenenter"",""1"",""3162""
","
","""event"",""trial"",""time""
""focus"",""0"",""2""
","""event"",""trial"",""time""
""fullscreenenter"",""1"",""3162""
","
","","","-1","","","25","16962","6573","c","elianto","#3366ff99"," ","-1","0","0","[]","0","2","","","16962","57","4","1","win","go","0"
"pit-trial","176","1199952","0.0-62.0","battery-v0.2","","""event"",""trial"",""time""
""focus"",""0"",""2""
""fullscreenenter"",""1"",""3162""
","
","""event"",""trial"",""time""
""focus"",""0"",""2""
","""event"",""trial"",""time""
""fullscreenenter"",""1"",""3162""
","
","","","772","","","25","16962","6573","n","elianto","#f73b6a7A"," "," ","1","-10","[1623]","1","2","","","16962","58","0","3","lose","go","1"
"pit-trial","177","1204814","0.0-63.0","battery-v0.2","","""event"",""trial"",""time""
""focus"",""0"",""2""
""fullscreenenter"",""1"",""3162""
","
","""event"",""trial"",""time""
""focus"",""0"",""2""
","""event"",""trial"",""time""
""fullscreenenter"",""1"",""3162""
","
","","","-1","","","25","16962","6573","b","elianto","#f73b6a7A","-1","-1","1","-10","[]","0","2","","","16962","59","3","4","lose","no-go","1"
"pit-trial","178","1208831","0.0-64.0","battery-v0.2","","""event"",""trial"",""time""
""focus"",""0"",""2""
""fullscreenenter"",""1"",""3162""
","
","""event"",""trial"",""time""
""focus"",""0"",""2""
","""event"",""trial"",""time""
""fullscreenenter"",""1"",""3162""
","
","","","1142","","","25","16962","6573","t","elianto","#f73b6a7A"," "," ","1","-10","[1993]","1","2","","","16962","60","2","3","lose","go","1"
"pit-trial","179","1213815","0.0-65.0","battery-v0.2","","""event"",""trial"",""time""
""focus"",""0"",""2""
""fullscreenenter"",""1"",""3162""
","
","""event"",""trial"",""time""
""focus"",""0"",""2""
","""event"",""trial"",""time""
""fullscreenenter"",""1"",""3162""
","
","","","-1","","","25","16962","6573","b","elianto","#f73b6a7A","-1","-1","1","-10","[]","0","2","","","16962","61","3","4","lose","no-go","1"
"pit-trial","180","1217437","0.0-66.0","battery-v0.2","","""event"",""trial"",""time""
""focus"",""0"",""2""
""fullscreenenter"",""1"",""3162""
","
","""event"",""trial"",""time""
""focus"",""0"",""2""
","""event"",""trial"",""time""
""fullscreenenter"",""1"",""3162""
","
","","","770","","","25","16962","6573","t","elianto","#f73b6a7A"," "," ","1","0","[1619]","1","2","","","16962","62","2","3","lose","go","0"
"pit-trial","181","1221777","0.0-67.0","battery-v0.2","","""event"",""trial"",""time""
""focus"",""0"",""2""
""fullscreenenter"",""1"",""3162""
","
","""event"",""trial"",""time""
""focus"",""0"",""2""
","""event"",""trial"",""time""
""fullscreenenter"",""1"",""3162""
","
","","","1479","","","25","16962","6573","c","elianto","#3366ff99"," "," ","1","0","[2330]","1","2","","","16962","63","4","1","win","go","1"
"pit-trial","182","1225495","0.0-68.0","battery-v0.2","","""event"",""trial"",""time""
""focus"",""0"",""2""
""fullscreenenter"",""1"",""3162""
","
","""event"",""trial"",""time""
""focus"",""0"",""2""
","""event"",""trial"",""time""
""fullscreenenter"",""1"",""3162""
","
","","","802","","","25","16962","6573","f","elianto","#3366ff99","-1"," ","0","0","[1713]","1","2","","","16962","64","1","2","win","no-go","0"
"pit-trial","183","1230357","0.0-69.0","battery-v0.2","","""event"",""trial"",""time""
""focus"",""0"",""2""
""fullscreenenter"",""1"",""3162""
","
","""event"",""trial"",""time""
""focus"",""0"",""2""
","""event"",""trial"",""time""
""fullscreenenter"",""1"",""3162""
","
","","","-1","","","25","16962","6573","c","elianto","#3366ff99"," ","-1","0","0","[]","0","2","","","16962","65","4","1","win","go","0"
"pit-trial","184","1235220","0.0-70.0","battery-v0.2","","""event"",""trial"",""time""
""focus"",""0"",""2""
""fullscreenenter"",""1"",""3162""
","
","""event"",""trial"",""time""
""focus"",""0"",""2""
","""event"",""trial"",""time""
""fullscreenenter"",""1"",""3162""
","
","","","-1","","","25","16962","6573","b","elianto","#f73b6a7A","-1","-1","1","0","[]","0","2","","","16962","66","3","4","lose","no-go","0"
"pit-trial","185","1239041","0.0-71.0","battery-v0.2","","""event"",""trial"",""time""
""focus"",""0"",""2""
""fullscreenenter"",""1"",""3162""
","
","""event"",""trial"",""time""
""focus"",""0"",""2""
","""event"",""trial"",""time""
""fullscreenenter"",""1"",""3162""
","
","","","962","","","25","16962","6573","f","elianto","#3366ff99","-1"," ","0","+10","[1816]","1","2","","","16962","67","1","2","win","no-go","1"
"pit-trial","186","1243247","0.0-72.0","battery-v0.2","","""event"",""trial"",""time""
""focus"",""0"",""2""
""fullscreenenter"",""1"",""3162""
","
","""event"",""trial"",""time""
""focus"",""0"",""2""
","""event"",""trial"",""time""
""fullscreenenter"",""1"",""3162""
","
","","","1351","","","25","16962","6573","z","elianto","#3366ff99","-1"," ","0","0","[2203]","1","2","","","16962","68","5","2","win","no-go","0"
"pit-trial","187","1246959","0.0-73.0","battery-v0.2","","""event"",""trial"",""time""
""focus"",""0"",""2""
""fullscreenenter"",""1"",""3162""
","
","""event"",""trial"",""time""
""focus"",""0"",""2""
","""event"",""trial"",""time""
""fullscreenenter"",""1"",""3162""
","
","","","854","","","25","16962","6573","f","elianto","#3366ff99","-1"," ","0","0","[1704]","1","2","","","16962","69","1","2","win","no-go","0"
"pit-trial","188","1251822","0.0-74.0","battery-v0.2","","""event"",""trial"",""time""
""focus"",""0"",""2""
""fullscreenenter"",""1"",""3162""
","
","""event"",""trial"",""time""
""focus"",""0"",""2""
","""event"",""trial"",""time""
""fullscreenenter"",""1"",""3162""
","
","","","-1","","","25","16962","6573","c","elianto","#3366ff99"," ","-1","0","0","[]","0","2","","","16962","70","4","1","win","go","0"
"pit-trial","189","1256680","0.0-75.0","battery-v0.2","","""event"",""trial"",""time""
""focus"",""0"",""2""
""fullscreenenter"",""1"",""3162""
","
","""event"",""trial"",""time""
""focus"",""0"",""2""
","""event"",""trial"",""time""
""fullscreenenter"",""1"",""3162""
","
","","","-1","","","25","16962","6573","z","elianto","#3366ff99","-1","-1","1","+10","[]","0","2","","","16962","71","5","2","win","no-go","0"
"pit-trial","190","1260729","0.0-76.0","battery-v0.2","","""event"",""trial"",""time""
""focus"",""0"",""2""
""fullscreenenter"",""1"",""3162""
","
","""event"",""trial"",""time""
""focus"",""0"",""2""
","""event"",""trial"",""time""
""fullscreenenter"",""1"",""3162""
","
","","","1075","","","25","16962","6573","t","elianto","#f73b6a7A"," "," ","1","0","[1925]","1","2","","","16962","72","2","3","lose","go","0"
"pit-trial","191","1265611","0.0-77.0","battery-v0.2","","""event"",""trial"",""time""
""focus"",""0"",""2""
""fullscreenenter"",""1"",""3162""
","
","""event"",""trial"",""time""
""focus"",""0"",""2""
","""event"",""trial"",""time""
""fullscreenenter"",""1"",""3162""
","
","","","-1","","","25","16962","6573","c","elianto","#3366ff99"," ","-1","0","0","[]","0","2","","","16962","73","4","1","win","go","0"
"pit-trial","192","1270616","0.0-78.0","battery-v0.2","","""event"",""trial"",""time""
""focus"",""0"",""2""
""fullscreenenter"",""1"",""3162""
","
","""event"",""trial"",""time""
""focus"",""0"",""2""
","""event"",""trial"",""time""
""fullscreenenter"",""1"",""3162""
","
","","","-1","","","25","16962","6573","b","elianto","#f73b6a7A","-1","-1","1","0","[]","0","2","","","16962","74","3","4","lose","no-go","0"
"pit-trial","193","1274247","0.0-79.0","battery-v0.2","","""event"",""trial"",""time""
""focus"",""0"",""2""
""fullscreenenter"",""1"",""3162""
","
","""event"",""trial"",""time""
""focus"",""0"",""2""
","""event"",""trial"",""time""
""fullscreenenter"",""1"",""3162""
","
","","","770","","","25","16962","6573","f","elianto","#3366ff99","-1"," ","0","+10","[1624]","1","2","","","16962","75","1","2","win","no-go","1"
"pit-trial","194","1278002","0.0-80.0","battery-v0.2","","""event"",""trial"",""time""
""focus"",""0"",""2""
""fullscreenenter"",""1"",""3162""
","
","""event"",""trial"",""time""
""focus"",""0"",""2""
","""event"",""trial"",""time""
""fullscreenenter"",""1"",""3162""
","
","","","897","","","25","16962","6573","z","elianto","#3366ff99","-1"," ","0","+10","[1749]","1","2","","","16962","76","5","2","win","no-go","1"
"pit-trial","195","1282861","0.0-81.0","battery-v0.2","","""event"",""trial"",""time""
""focus"",""0"",""2""
""fullscreenenter"",""1"",""3162""
","
","""event"",""trial"",""time""
""focus"",""0"",""2""
","""event"",""trial"",""time""
""fullscreenenter"",""1"",""3162""
","
","","","-1","","","25","16962","6573","b","elianto","#f73b6a7A","-1","-1","1","0","[]","0","2","","","16962","77","3","4","lose","no-go","0"
"pit-trial","196","1287818","0.0-82.0","battery-v0.2","","""event"",""trial"",""time""
""focus"",""0"",""2""
""fullscreenenter"",""1"",""3162""
","
","""event"",""trial"",""time""
""focus"",""0"",""2""
","""event"",""trial"",""time""
""fullscreenenter"",""1"",""3162""
","
","","","-1","","","25","16962","6573","c","elianto","#3366ff99"," ","-1","0","0","[]","0","2","","","16962","78","4","1","win","go","0"
"pit-trial","197","1291418","0.0-83.0","battery-v0.2","","""event"",""trial"",""time""
""focus"",""0"",""2""
""fullscreenenter"",""1"",""3162""
","
","""event"",""trial"",""time""
""focus"",""0"",""2""
","""event"",""trial"",""time""
""fullscreenenter"",""1"",""3162""
","
","","","741","","","25","16962","6573","c","elianto","#3366ff99"," "," ","1","+10","[1591]","1","2","","","16962","79","4","1","win","go","0"
"pit-trial","198","1295133","0.0-84.0","battery-v0.2","","""event"",""trial"",""time""
""focus"",""0"",""2""
""fullscreenenter"",""1"",""3162""
","
","""event"",""trial"",""time""
""focus"",""0"",""2""
","""event"",""trial"",""time""
""fullscreenenter"",""1"",""3162""
","
","","","852","","","25","16962","6573","z","elianto","#3366ff99","-1"," ","0","0","[1707]","1","2","","","16962","80","5","2","win","no-go","0"
"pit-trial","199","1299996","0.0-85.0","battery-v0.2","","""event"",""trial"",""time""
""focus"",""0"",""2""
""fullscreenenter"",""1"",""3162""
","
","""event"",""trial"",""time""
""focus"",""0"",""2""
","""event"",""trial"",""time""
""fullscreenenter"",""1"",""3162""
","
","","","-1","","","25","16962","6573","y","elianto","#f73b6a7A","-1","-1","1","-10","[]","0","2","","","16962","81","7","4","lose","no-go","1"
"pit-trial","200","1303675","0.0-86.0","battery-v0.2","","""event"",""trial"",""time""
""focus"",""0"",""2""
""fullscreenenter"",""1"",""3162""
","
","""event"",""trial"",""time""
""focus"",""0"",""2""
","""event"",""trial"",""time""
""fullscreenenter"",""1"",""3162""
","
","","","822","","","25","16962","6573","c","elianto","#3366ff99"," "," ","1","+10","[1673]","1","2","","","16962","82","4","1","win","go","0"
"pit-trial","201","1307266","0.0-87.0","battery-v0.2","","""event"",""trial"",""time""
""focus"",""0"",""2""
""fullscreenenter"",""1"",""3162""
","
","""event"",""trial"",""time""
""focus"",""0"",""2""
","""event"",""trial"",""time""
""fullscreenenter"",""1"",""3162""
","
","","","735","","","25","16962","6573","z","elianto","#3366ff99","-1"," ","0","0","[1588]","1","2","","","16962","83","5","2","win","no-go","0"
"pit-trial","202","1312128","0.0-88.0","battery-v0.2","","""event"",""trial"",""time""
""focus"",""0"",""2""
""fullscreenenter"",""1"",""3162""
","
","""event"",""trial"",""time""
""focus"",""0"",""2""
","""event"",""trial"",""time""
""fullscreenenter"",""1"",""3162""
","
","","","-1","","","25","16962","6573","b","elianto","#f73b6a7A","-1","-1","1","0","[]","0","2","","","16962","84","3","4","lose","no-go","0"
"pit-trial","203","1315736","0.0-89.0","battery-v0.2","","""event"",""trial"",""time""
""focus"",""0"",""2""
""fullscreenenter"",""1"",""3162""
","
","""event"",""trial"",""time""
""focus"",""0"",""2""
","""event"",""trial"",""time""
""fullscreenenter"",""1"",""3162""
","
","","","753","","","25","16962","6573","z","elianto","#3366ff99","-1"," ","0","0","[1605]","1","2","","","16962","85","5","2","win","no-go","0"
"pit-trial","204","1320177","0.0-90.0","battery-v0.2","","""event"",""trial"",""time""
""focus"",""0"",""2""
""fullscreenenter"",""1"",""3162""
","
","""event"",""trial"",""time""
""focus"",""0"",""2""
","""event"",""trial"",""time""
""fullscreenenter"",""1"",""3162""
","
","","","1518","","","25","16962","6573","h","elianto","#f73b6a7A"," "," ","1","0","[2370]","1","2","","","16962","86","6","3","lose","go","0"
"pit-trial","205","1323864","0.0-91.0","battery-v0.2","","""event"",""trial"",""time""
""focus"",""0"",""2""
""fullscreenenter"",""1"",""3162""
","
","""event"",""trial"",""time""
""focus"",""0"",""2""
","""event"",""trial"",""time""
""fullscreenenter"",""1"",""3162""
","
","","","827","","","25","16962","6573","c","elianto","#3366ff99"," "," ","1","0","[1679]","1","2","","","16962","87","4","1","win","go","1"
"pit-trial","206","1327906","0.0-92.0","battery-v0.2","","""event"",""trial"",""time""
""focus"",""0"",""2""
""fullscreenenter"",""1"",""3162""
","
","""event"",""trial"",""time""
""focus"",""0"",""2""
","""event"",""trial"",""time""
""fullscreenenter"",""1"",""3162""
","
","","","1104","","","25","16962","6573","y","elianto","#f73b6a7A","-1"," ","0","0","[1954]","1","2","","","16962","88","7","4","lose","no-go","1"
"pit-trial","207","1332136","0.0-93.0","battery-v0.2","","""event"",""trial"",""time""
""focus"",""0"",""2""
""fullscreenenter"",""1"",""3162""
","
","""event"",""trial"",""time""
""focus"",""0"",""2""
","""event"",""trial"",""time""
""fullscreenenter"",""1"",""3162""
","
","","","1370","","","25","16962","6573","h","elianto","#f73b6a7A"," "," ","1","-10","[2223]","1","2","","","16962","89","6","3","lose","go","1"
"pit-trial","208","1335862","0.0-94.0","battery-v0.2","","""event"",""trial"",""time""
""focus"",""0"",""2""
""fullscreenenter"",""1"",""3162""
","
","""event"",""trial"",""time""
""focus"",""0"",""2""
","""event"",""trial"",""time""
""fullscreenenter"",""1"",""3162""
","
","","","867","","","25","16962","6573","y","elianto","#f73b6a7A","-1"," ","0","-10","[1722]","1","2","","","16962","90","7","4","lose","no-go","0"
"pit-trial","209","1339470","0.0-95.0","battery-v0.2","","""event"",""trial"",""time""
""focus"",""0"",""2""
""fullscreenenter"",""1"",""3162""
","
","""event"",""trial"",""time""
""focus"",""0"",""2""
","""event"",""trial"",""time""
""fullscreenenter"",""1"",""3162""
","
","","","747","","","25","16962","6573","c","elianto","#3366ff99"," "," ","1","+10","[1600]","1","2","","","16962","91","4","1","win","go","0"
"pit-trial","210","1343175","0.0-96.0","battery-v0.2","","""event"",""trial"",""time""
""focus"",""0"",""2""
""fullscreenenter"",""1"",""3162""
","
","""event"",""trial"",""time""
""focus"",""0"",""2""
","""event"",""trial"",""time""
""fullscreenenter"",""1"",""3162""
","
","","","850","","","25","16962","6573","z","elianto","#3366ff99","-1"," ","0","0","[1703]","1","2","","","16962","92","5","2","win","no-go","0"
"pit-trial","211","1348038","0.0-97.0","battery-v0.2","","""event"",""trial"",""time""
""focus"",""0"",""2""
""fullscreenenter"",""1"",""3162""
","
","""event"",""trial"",""time""
""focus"",""0"",""2""
","""event"",""trial"",""time""
""fullscreenenter"",""1"",""3162""
","
","","","-1","","","25","16962","6573","z","elianto","#3366ff99","-1","-1","1","+10","[]","0","2","","","16962","93","5","2","win","no-go","0"
"pit-trial","212","1352900","0.0-98.0","battery-v0.2","","""event"",""trial"",""time""
""focus"",""0"",""2""
""fullscreenenter"",""1"",""3162""
","
","""event"",""trial"",""time""
""focus"",""0"",""2""
","""event"",""trial"",""time""
""fullscreenenter"",""1"",""3162""
","
","","","-1","","","25","16962","6573","r","elianto","#3366ff99"," ","-1","0","0","[]","0","2","","","16962","94","8","1","win","go","0"
"pit-trial","213","1357759","0.0-99.0","battery-v0.2","","""event"",""trial"",""time""
""focus"",""0"",""2""
""fullscreenenter"",""1"",""3162""
","
","""event"",""trial"",""time""
""focus"",""0"",""2""
","""event"",""trial"",""time""
""fullscreenenter"",""1"",""3162""
","
","","","-1","","","25","16962","6573","h","elianto","#f73b6a7A"," ","-1","0","-10","[]","0","2","","","16962","95","6","3","lose","go","0"
"pit-trial","214","1361810","0.0-100.0","battery-v0.2","","""event"",""trial"",""time""
""focus"",""0"",""2""
""fullscreenenter"",""1"",""3162""
","
","""event"",""trial"",""time""
""focus"",""0"",""2""
","""event"",""trial"",""time""
""fullscreenenter"",""1"",""3162""
","
","","","1190","","","25","16962","6573","y","elianto","#f73b6a7A","-1"," ","0","-10","[2043]","1","2","","","16962","96","7","4","lose","no-go","0"
"pit-trial","215","1366812","0.0-101.0","battery-v0.2","","""event"",""trial"",""time""
""focus"",""0"",""2""
""fullscreenenter"",""1"",""3162""
","
","""event"",""trial"",""time""
""focus"",""0"",""2""
","""event"",""trial"",""time""
""fullscreenenter"",""1"",""3162""
","
","","","-1","","","25","16962","6573","y","elianto","#f73b6a7A","-1","-1","1","0","[]","0","2","","","16962","97","7","4","lose","no-go","0"
"pit-trial","216","1371816","0.0-102.0","battery-v0.2","","""event"",""trial"",""time""
""focus"",""0"",""2""
""fullscreenenter"",""1"",""3162""
","
","""event"",""trial"",""time""
""focus"",""0"",""2""
","""event"",""trial"",""time""
""fullscreenenter"",""1"",""3162""
","
","","","-1","","","25","16962","6573","z","elianto","#3366ff99","-1","-1","1","+10","[]","0","2","","","16962","98","5","2","win","no-go","0"
"pit-trial","217","1376159","0.0-103.0","battery-v0.2","","""event"",""trial"",""time""
""focus"",""0"",""2""
""fullscreenenter"",""1"",""3162""
","
","""event"",""trial"",""time""
""focus"",""0"",""2""
","""event"",""trial"",""time""
""fullscreenenter"",""1"",""3162""
","
","","","1485","","","25","16962","6573","r","elianto","#3366ff99"," "," ","1","+10","[2336]","1","2","","","16962","99","8","1","win","go","0"
"pit-trial","218","1381160","0.0-104.0","battery-v0.2","","""event"",""trial"",""time""
""focus"",""0"",""2""
""fullscreenenter"",""1"",""3162""
","
","""event"",""trial"",""time""
""focus"",""0"",""2""
","""event"",""trial"",""time""
""fullscreenenter"",""1"",""3162""
","
","","","-1","","","25","16962","6573","h","elianto","#f73b6a7A"," ","-1","0","-10","[]","0","2","","","16962","100","6","3","lose","go","0"
"pit-trial","219","1386166","0.0-105.0","battery-v0.2","","""event"",""trial"",""time""
""focus"",""0"",""2""
""fullscreenenter"",""1"",""3162""
","
","""event"",""trial"",""time""
""focus"",""0"",""2""
","""event"",""trial"",""time""
""fullscreenenter"",""1"",""3162""
","
","","","-1","","","25","16962","6573","z","elianto","#3366ff99","-1","-1","1","+10","[]","0","2","","","16962","101","5","2","win","no-go","0"
"pit-trial","220","1390813","0.0-106.0","battery-v0.2","","""event"",""trial"",""time""
""focus"",""0"",""2""
""fullscreenenter"",""1"",""3162""
","
","""event"",""trial"",""time""
""focus"",""0"",""2""
","""event"",""trial"",""time""
""fullscreenenter"",""1"",""3162""
","
","","","1788","","","25","16962","6573","m","elianto","#3366ff99"," "," ","1","0","[2639]","1","2","","","16962","102","9","1","win","go","1"
"pit-trial","221","1395812","0.0-107.0","battery-v0.2","","""event"",""trial"",""time""
""focus"",""0"",""2""
""fullscreenenter"",""1"",""3162""
","
","""event"",""trial"",""time""
""focus"",""0"",""2""
","""event"",""trial"",""time""
""fullscreenenter"",""1"",""3162""
","
","","","-1","","","25","16962","6573","y","elianto","#f73b6a7A","-1","-1","1","0","[]","0","2","","","16962","103","7","4","lose","no-go","0"
"pit-trial","222","1399242","0.0-108.0","battery-v0.2","","""event"",""trial"",""time""
""focus"",""0"",""2""
""fullscreenenter"",""1"",""3162""
","
","""event"",""trial"",""time""
""focus"",""0"",""2""
","""event"",""trial"",""time""
""fullscreenenter"",""1"",""3162""
","
","","","572","","","25","16962","6573","r","elianto","#3366ff99"," "," ","1","0","[1424]","1","2","","","16962","104","8","1","win","go","1"
"pit-trial","223","1404246","0.0-109.0","battery-v0.2","","""event"",""trial"",""time""
""focus"",""0"",""2""
""fullscreenenter"",""1"",""3162""
","
","""event"",""trial"",""time""
""focus"",""0"",""2""
","""event"",""trial"",""time""
""fullscreenenter"",""1"",""3162""
","
","","","-1","","","25","16962","6573","m","elianto","#3366ff99"," ","-1","0","0","[]","0","2","","","16962","105","9","1","win","go","0"
"pit-trial","224","1407887","0.0-110.0","battery-v0.2","","""event"",""trial"",""time""
""focus"",""0"",""2""
""fullscreenenter"",""1"",""3162""
","
","""event"",""trial"",""time""
""focus"",""0"",""2""
","""event"",""trial"",""time""
""fullscreenenter"",""1"",""3162""
","
","","","781","","","25","16962","6573","h","elianto","#f73b6a7A"," "," ","1","-10","[1633]","1","2","","","16962","106","6","3","lose","go","1"
"pit-trial","225","1411916","0.0-111.0","battery-v0.2","","""event"",""trial"",""time""
""focus"",""0"",""2""
""fullscreenenter"",""1"",""3162""
","
","""event"",""trial"",""time""
""focus"",""0"",""2""
","""event"",""trial"",""time""
""fullscreenenter"",""1"",""3162""
","
","","","1175","","","25","16962","6573","c","elianto","#3366ff99"," "," ","1","+10","[2025]","1","2","","","16962","107","4","1","win","go","0"
"pit-trial","226","1416055","0.0-112.0","battery-v0.2","","""event"",""trial"",""time""
""focus"",""0"",""2""
""fullscreenenter"",""1"",""3162""
","
","""event"",""trial"",""time""
""focus"",""0"",""2""
","""event"",""trial"",""time""
""fullscreenenter"",""1"",""3162""
","
","","","1283","","","25","16962","6573","r","elianto","#3366ff99"," "," ","1","+10","[2134]","1","2","","","16962","108","8","1","win","go","0"
"pit-trial","227","1419846","0.0-113.0","battery-v0.2","","""event"",""trial"",""time""
""focus"",""0"",""2""
""fullscreenenter"",""1"",""3162""
","
","""event"",""trial"",""time""
""focus"",""0"",""2""
","""event"",""trial"",""time""
""fullscreenenter"",""1"",""3162""
","
","","","935","","","25","16962","6573","r","elianto","#3366ff99"," "," ","1","+10","[1784]","1","2","","","16962","109","8","1","win","go","0"
"pit-trial","228","1424704","0.0-114.0","battery-v0.2","","""event"",""trial"",""time""
""focus"",""0"",""2""
""fullscreenenter"",""1"",""3162""
","
","""event"",""trial"",""time""
""focus"",""0"",""2""
","""event"",""trial"",""time""
""fullscreenenter"",""1"",""3162""
","
","","","-1","","","25","16962","6573","z","elianto","#3366ff99","-1","-1","1","+10","[]","0","2","","","16962","110","5","2","win","no-go","0"
"pit-trial","229","1428511","0.0-115.0","battery-v0.2","","""event"",""trial"",""time""
""focus"",""0"",""2""
""fullscreenenter"",""1"",""3162""
","
","""event"",""trial"",""time""
""focus"",""0"",""2""
","""event"",""trial"",""time""
""fullscreenenter"",""1"",""3162""
","
","","","946","","","25","16962","6573","m","elianto","#3366ff99"," "," ","1","+10","[1800]","1","2","","","16962","111","9","1","win","go","0"
"pit-trial","230","1432722","0.0-116.0","battery-v0.2","","""event"",""trial"",""time""
""focus"",""0"",""2""
