"trial_type","trial_index","time_elapsed","internal_node_id","task_version","subject_id","interactions","blur_events","focus_events","fullscreenenter_events","fullscreenexit_events","success","view_history","rt","responses","num_errors","age","subject","participantId","rune","rune_set","hex","correct","choice","accuracy","outcome","keys","total_keys","block","practice","value","sub","trial","stimulus","robot","valence","action","sham"
"pavlovia","0","9","0.0-0.0","battery-v0.2","","""event"",""trial"",""time""
""fullscreenenter"",""1"",""1333""
","
","
","""event"",""trial"",""time""
""fullscreenenter"",""1"",""1333""
","
","","","","","","","","","","","","","","","","","","","","","","","","","","",""
"fullscreen","1","2325","0.0-1.0","battery-v0.2","","""event"",""trial"",""time""
""fullscreenenter"",""1"",""1333""
","
","
","""event"",""trial"",""time""
""fullscreenenter"",""1"",""1333""
","
","true","","","","","","","","","","","","","","","","","","","","","","","","","",""
"pit-instructions","2","9544","0.0-2.0-0.0","battery-v0.2","","""event"",""trial"",""time""
""fullscreenenter"",""1"",""1333""
","
","
","""event"",""trial"",""time""
""fullscreenenter"",""1"",""1333""
","
","","[{""page_index"":0,""viewing_time"":7215.199999988079}]","7215.5999999940395","","","","","","","","","","","","","","","","","","","","","","","",""
"pit-comprehension","3","12450","0.0-2.0-1.0-0.0","battery-v0.2","","""event"",""trial"",""time""
""fullscreenenter"",""1"",""1333""
","
","
","""event"",""trial"",""time""
""fullscreenenter"",""1"",""1333""
","
","","","2903.5","[""shark""]","0","19","3929","2430","","","","","","","","","","","","","","","","","","",""
"pit-instructions","4","16835","0.0-2.0-1.0-1.0","battery-v0.2","","""event"",""trial"",""time""
""fullscreenenter"",""1"",""1333""
","
","
","""event"",""trial"",""time""
""fullscreenenter"",""1"",""1333""
","
","","[{""page_index"":0,""viewing_time"":4379}]","4379.300000011921","","","","","","","","","","","","","","","","","","","","","","","",""
"pit-comprehension","5","19443","0.0-2.0-2.0-0.0","battery-v0.2","","""event"",""trial"",""time""
""fullscreenenter"",""1"",""1333""
","
","
","""event"",""trial"",""time""
""fullscreenenter"",""1"",""1333""
","
","","","2604.5","[""tiger""]","0","19","3929","2430","","","","","","","","","","","","","","","","","","",""
"pit-instructions","6","19964","0.0-2.0-2.0-1.0","battery-v0.2","","""event"",""trial"",""time""
""fullscreenenter"",""1"",""1333""
""fullscreenexit"",""7"",""105238""
","
","
","""event"",""trial"",""time""
""fullscreenenter"",""1"",""1333""
","""event"",""trial"",""time""
""fullscreenexit"",""7"",""105238""
","","[{""page_index"":0,""viewing_time"":518.1999999880791}]","518.5999999940395","","","","","","","","","","","","","","","","","","","","","","","",""
"pit-instructions","7","112760","0.0-2.0-3.0","battery-v0.2","","""event"",""trial"",""time""
""fullscreenenter"",""1"",""1333""
""fullscreenexit"",""7"",""105238""
","
","
","""event"",""trial"",""time""
""fullscreenenter"",""1"",""1333""
","""event"",""trial"",""time""
""fullscreenexit"",""7"",""105238""
","","[{""page_index"":0,""viewing_time"":8725.5},{""page_index"":1,""viewing_time"":5408},{""page_index"":2,""viewing_time"":6209.4000000059605},{""page_index"":3,""viewing_time"":5872},{""page_index"":4,""viewing_time"":5949.899999976158},{""page_index"":5,""viewing_time"":6430.700000017881},{""page_index"":6,""viewing_time"":5617.699999988079},{""page_index"":7,""viewing_time"":6907.9000000059605},{""page_index"":8,""viewing_time"":6322.199999988079},{""page_index"":9,""viewing_time"":8821.5},{""page_index"":10,""viewing_time"":8082},{""page_index"":11,""viewing_time"":6725.800000011921},{""page_index"":12,""viewing_time"":6792.300000011921},{""page_index"":13,""viewing_time"":4927.699999988079}]","92793","","","","","","","","","","","","","","","","","","","","","","","",""
"pit-trial","8","116170","0.0-2.0-4.0-0.0","battery-v0.2","","""event"",""trial"",""time""
""fullscreenenter"",""1"",""1333""
""fullscreenexit"",""7"",""105238""
","
","
","""event"",""trial"",""time""
""fullscreenenter"",""1"",""1333""
","""event"",""trial"",""time""
""fullscreenexit"",""7"",""105238""
","","","549","","","19","3929","2430","&#9784;","elianto","#FFFFF080"," "," ","1","&#10004","[1399.2000000178814]","1","0","0","","","","","","","",""
"pit-trial","9","119756","0.0-2.0-4.1-0.1","battery-v0.2","","""event"",""trial"",""time""
""fullscreenenter"",""1"",""1333""
""fullscreenexit"",""7"",""105238""
","
","
","""event"",""trial"",""time""
""fullscreenenter"",""1"",""1333""
","""event"",""trial"",""time""
""fullscreenexit"",""7"",""105238""
","","","726.5","","","19","3929","2430","&#9784;","elianto","#FFFFF080"," "," ","1","&#10004","[1580.4000000059605]","1","0","0","","","","","","","",""
"pit-trial","10","123405","0.0-2.0-4.2-0.2","battery-v0.2","","""event"",""trial"",""time""
""fullscreenenter"",""1"",""1333""
""fullscreenexit"",""7"",""105238""
","
","
","""event"",""trial"",""time""
""fullscreenenter"",""1"",""1333""
","""event"",""trial"",""time""
""fullscreenexit"",""7"",""105238""
","","","784.9000000059605","","","19","3929","2430","&#9784;","elianto","#FFFFF080"," "," ","1","&#10004","[1635.5]","1","0","0","","","","","","","",""
"pit-trial","11","126974","0.0-2.0-4.3-0.3","battery-v0.2","","""event"",""trial"",""time""
""fullscreenenter"",""1"",""1333""
""fullscreenexit"",""7"",""105238""
","
","
","""event"",""trial"",""time""
""fullscreenenter"",""1"",""1333""
","""event"",""trial"",""time""
""fullscreenexit"",""7"",""105238""
","","","710.6999999880791","","","19","3929","2430","&#9784;","elianto","#FFFFF080"," "," ","1","&#10004","[1561.4000000059605]","1","0","0","","","","","","","",""
"pit-trial","12","130535","0.0-2.0-4.4-0.4","battery-v0.2","","""event"",""trial"",""time""
""fullscreenenter"",""1"",""1333""
""fullscreenexit"",""7"",""105238""
","
","
","""event"",""trial"",""time""
""fullscreenenter"",""1"",""1333""
","""event"",""trial"",""time""
""fullscreenexit"",""7"",""105238""
","","","694.8000000119209","","","19","3929","2430","&#9784;","elianto","#FFFFF080"," "," ","1","&#10004","[1552.300000011921]","1","0","0","","","","","","","",""
"pit-instructions","13","150792","0.0-2.0-5.0","battery-v0.2","","""event"",""trial"",""time""
""fullscreenenter"",""1"",""1333""
""fullscreenexit"",""7"",""105238""
","
","
","""event"",""trial"",""time""
""fullscreenenter"",""1"",""1333""
","""event"",""trial"",""time""
""fullscreenexit"",""7"",""105238""
","","[{""page_index"":0,""viewing_time"":4942.5999999940395},{""page_index"":1,""viewing_time"":5132.199999988079},{""page_index"":2,""viewing_time"":4840.100000023842},{""page_index"":3,""viewing_time"":5339.899999976158}]","20255","","","","","","","","","","","","","","","","","","","","","","","",""
"pit-trial","14","154906","0.0-2.0-6.0-0.0","battery-v0.2","","""event"",""trial"",""time""
""fullscreenenter"",""1"",""1333""
""fullscreenexit"",""7"",""105238""
","
","
","""event"",""trial"",""time""
""fullscreenenter"",""1"",""1333""
","""event"",""trial"",""time""
""fullscreenexit"",""7"",""105238""
","","","1246.0999999940395","","","19","3929","2430","&#9854;","elianto","#FFFFF080","-1"," ","0","&#10060","[2103.5999999940395]","1","0","1","","","","","","","",""
"pit-trial","15","159785","0.0-2.0-6.1-0.1","battery-v0.2","","""event"",""trial"",""time""
""fullscreenenter"",""1"",""1333""
""fullscreenexit"",""7"",""105238""
","
","
","""event"",""trial"",""time""
""fullscreenenter"",""1"",""1333""
","""event"",""trial"",""time""
""fullscreenexit"",""7"",""105238""
","","","-1","","","19","3929","2430","&#9854;","elianto","#FFFFF080","-1","-1","1","&#10004","[]","0","0","1","","","","","","","",""
"pit-trial","16","164671","0.0-2.0-6.2-0.2","battery-v0.2","","""event"",""trial"",""time""
""fullscreenenter"",""1"",""1333""
""fullscreenexit"",""7"",""105238""
","
","
","""event"",""trial"",""time""
""fullscreenenter"",""1"",""1333""
","""event"",""trial"",""time""
""fullscreenexit"",""7"",""105238""
","","","-1","","","19","3929","2430","&#9854;","elianto","#FFFFF080","-1","-1","1","&#10004","[]","0","0","1","","","","","","","",""
"pit-trial","17","169537","0.0-2.0-6.3-0.3","battery-v0.2","","""event"",""trial"",""time""
""fullscreenenter"",""1"",""1333""
""fullscreenexit"",""7"",""105238""
","
","
","""event"",""trial"",""time""
""fullscreenenter"",""1"",""1333""
","""event"",""trial"",""time""
""fullscreenexit"",""7"",""105238""
","","","-1","","","19","3929","2430","&#9854;","elianto","#FFFFF080","-1","-1","1","&#10004","[]","0","0","1","","","","","","","",""
"pit-trial","18","174402","0.0-2.0-6.4-0.4","battery-v0.2","","""event"",""trial"",""time""
""fullscreenenter"",""1"",""1333""
""fullscreenexit"",""7"",""105238""
","
","
","""event"",""trial"",""time""
""fullscreenenter"",""1"",""1333""
","""event"",""trial"",""time""
""fullscreenexit"",""7"",""105238""
","","","-1","","","19","3929","2430","&#9854;","elianto","#FFFFF080","-1","-1","1","&#10004","[]","0","0","1","","","","","","","",""
"pit-instructions","19","283516","0.0-2.0-7.0","battery-v0.2","","""event"",""trial"",""time""
""fullscreenenter"",""1"",""1333""
""fullscreenexit"",""7"",""105238""
","
","
","""event"",""trial"",""time""
""fullscreenenter"",""1"",""1333""
","""event"",""trial"",""time""
""fullscreenexit"",""7"",""105238""
","","[{""page_index"":0,""viewing_time"":5503.5},{""page_index"":1,""viewing_time"":6368},{""page_index"":2,""viewing_time"":5596.5},{""page_index"":3,""viewing_time"":6018.200000017881},{""page_index"":4,""viewing_time"":5435.5},{""page_index"":5,""viewing_time"":5066.199999988079},{""page_index"":6,""viewing_time"":4465.800000011921},{""page_index"":7,""viewing_time"":7498.299999982119},{""page_index"":8,""viewing_time"":6429.5},{""page_index"":9,""viewing_time"":5556.200000017881},{""page_index"":10,""viewing_time"":6489.9000000059605},{""page_index"":11,""viewing_time"":4187.899999976158},{""page_index"":12,""viewing_time"":7012.4000000059605},{""page_index"":13,""viewing_time"":7001.700000017881},{""page_index"":14,""viewing_time"":6918.199999988079},{""page_index"":15,""viewing_time"":6187.9000000059605},{""page_index"":16,""viewing_time"":6374.199999988079},{""page_index"":17,""viewing_time"":7001.800000011921}]","109112","","","","","","","","","","","","","","","","","","","","","","","",""
"pit-trial","20","286982","0.0-2.0-8.0-0.0","battery-v0.2","","""event"",""trial"",""time""
""fullscreenenter"",""1"",""1333""
""fullscreenexit"",""7"",""105238""
","
","
","""event"",""trial"",""time""
""fullscreenenter"",""1"",""1333""
","""event"",""trial"",""time""
""fullscreenexit"",""7"",""105238""
","","","600.3000000119209","","","19","3929","2430","&#9776;","elianto","#3366ff99"," "," ","1","+10","[1450.4000000059605]","1","0","1","","","","","","","",""
"pit-trial","21","290388","0.0-2.0-8.0-1.0","battery-v0.2","","""event"",""trial"",""time""
""fullscreenenter"",""1"",""1333""
""fullscreenexit"",""7"",""105238""
","
","
","""event"",""trial"",""time""
""fullscreenenter"",""1"",""1333""
","""event"",""trial"",""time""
""fullscreenexit"",""7"",""105238""
","","","527.8000000119209","","","19","3929","2430","&#9776;","elianto","#3366ff99"," "," ","1","+10","[1393.199999988079]","1","0","1","","","","","","","",""
"pit-trial","22","293714","0.0-2.0-8.0-2.0","battery-v0.2","","""event"",""trial"",""time""
""fullscreenenter"",""1"",""1333""
""fullscreenexit"",""7"",""105238""
","
","
","""event"",""trial"",""time""
""fullscreenenter"",""1"",""1333""
","""event"",""trial"",""time""
""fullscreenexit"",""7"",""105238""
","","","464.19999998807907","","","19","3929","2430","&#9776;","elianto","#3366ff99"," "," ","1","+10","[1316.8999999761581]","1","0","1","","","","","","","",""
"pit-trial","23","297091","0.0-2.0-8.0-3.0","battery-v0.2","","""event"",""trial"",""time""
""fullscreenenter"",""1"",""1333""
""fullscreenexit"",""7"",""105238""
","
","
","""event"",""trial"",""time""
""fullscreenenter"",""1"",""1333""
","""event"",""trial"",""time""
""fullscreenexit"",""7"",""105238""
","","","509.5","","","19","3929","2430","&#9776;","elianto","#3366ff99"," "," ","1","0","[1363.800000011921]","1","0","1","","","","","","","",""
"pit-trial","24","300388","0.0-2.0-8.0-4.0","battery-v0.2","","""event"",""trial"",""time""
""fullscreenenter"",""1"",""1333""
""fullscreenexit"",""7"",""105238""
","
","
","""event"",""trial"",""time""
""fullscreenenter"",""1"",""1333""
","""event"",""trial"",""time""
""fullscreenexit"",""7"",""105238""
","","","432.7000000178814","","","19","3929","2430","&#9776;","elianto","#3366ff99"," "," ","1","+10","[1283.300000011921]","1","0","1","","","","","","","",""
"pit-trial","25","303617","0.0-2.0-8.1-0.1","battery-v0.2","","""event"",""trial"",""time""
""fullscreenenter"",""1"",""1333""
""fullscreenexit"",""7"",""105238""
","
","
","""event"",""trial"",""time""
""fullscreenenter"",""1"",""1333""
","""event"",""trial"",""time""
""fullscreenexit"",""7"",""105238""
","","","366.59999999403954","","","19","3929","2430","&#9776;","elianto","#3366ff99"," "," ","1","+10","[1218]","1","0","1","","","","","","","",""
"pit-trial","26","306930","0.0-2.0-8.1-1.1","battery-v0.2","","""event"",""trial"",""time""
""fullscreenenter"",""1"",""1333""
""fullscreenexit"",""7"",""105238""
","
","
","""event"",""trial"",""time""
""fullscreenenter"",""1"",""1333""
","""event"",""trial"",""time""
""fullscreenexit"",""7"",""105238""
","","","439.90000000596046","","","19","3929","2430","&#9776;","elianto","#3366ff99"," "," ","1","+10","[1293.5]","1","0","1","","","","","","","",""
"pit-trial","27","310209","0.0-2.0-8.1-2.1","battery-v0.2","","""event"",""trial"",""time""
""fullscreenenter"",""1"",""1333""
""fullscreenexit"",""7"",""105238""
","
","
","""event"",""trial"",""time""
""fullscreenenter"",""1"",""1333""
","""event"",""trial"",""time""
""fullscreenexit"",""7"",""105238""
","","","408.30000001192093","","","19","3929","2430","&#9776;","elianto","#3366ff99"," "," ","1","+10","[1261.7000000178814]","1","0","1","","","","","","","",""
"pit-trial","28","313569","0.0-2.0-8.1-3.1","battery-v0.2","","""event"",""trial"",""time""
""fullscreenenter"",""1"",""1333""
""fullscreenexit"",""7"",""105238""
","
","
","""event"",""trial"",""time""
""fullscreenenter"",""1"",""1333""
","""event"",""trial"",""time""
""fullscreenexit"",""7"",""105238""
","","","503.2000000178814","","","19","3929","2430","&#9776;","elianto","#3366ff99"," "," ","1","0","[1357]","1","0","1","","","","","","","",""
"pit-trial","29","316858","0.0-2.0-8.1-4.1","battery-v0.2","","""event"",""trial"",""time""
""fullscreenenter"",""1"",""1333""
""fullscreenexit"",""7"",""105238""
","
","
","""event"",""trial"",""time""
""fullscreenenter"",""1"",""1333""
","""event"",""trial"",""time""
""fullscreenexit"",""7"",""105238""
","","","430.7999999821186","","","19","3929","2430","&#9776;","elianto","#3366ff99"," "," ","1","+10","[1286.199999988079]","1","0","1","","","","","","","",""
"pit-trial","30","320137","0.0-2.0-8.2-0.2","battery-v0.2","","""event"",""trial"",""time""
""fullscreenenter"",""1"",""1333""
""fullscreenexit"",""7"",""105238""
","
","
","""event"",""trial"",""time""
""fullscreenenter"",""1"",""1333""
","""event"",""trial"",""time""
""fullscreenexit"",""7"",""105238""
","","","422","","","19","3929","2430","&#9776;","elianto","#3366ff99"," "," ","1","+10","[1275.800000011921]","1","0","1","","","","","","","",""
"pit-trial","31","323506","0.0-2.0-8.2-1.2","battery-v0.2","","""event"",""trial"",""time""
""fullscreenenter"",""1"",""1333""
""fullscreenexit"",""7"",""105238""
","
","
","""event"",""trial"",""time""
""fullscreenenter"",""1"",""1333""
","""event"",""trial"",""time""
""fullscreenexit"",""7"",""105238""
","","","510.59999999403954","","","19","3929","2430","&#9776;","elianto","#3366ff99"," "," ","1","+10","[1366.0999999940395]","1","0","1","","","","","","","",""
"pit-trial","32","326538","0.0-2.0-8.2-2.2","battery-v0.2","","""event"",""trial"",""time""
""fullscreenenter"",""1"",""1333""
""fullscreenexit"",""7"",""105238""
","
","
","""event"",""trial"",""time""
""fullscreenenter"",""1"",""1333""
","""event"",""trial"",""time""
""fullscreenexit"",""7"",""105238""
","","","174","","","19","3929","2430","&#9776;","elianto","#3366ff99"," "," ","1","+10","[1028.300000011921]","1","0","1","","","","","","","",""
"pit-trial","33","329738","0.0-2.0-8.2-3.2","battery-v0.2","","""event"",""trial"",""time""
""fullscreenenter"",""1"",""1333""
""fullscreenexit"",""7"",""105238""
","
","
","""event"",""trial"",""time""
""fullscreenenter"",""1"",""1333""
","""event"",""trial"",""time""
""fullscreenexit"",""7"",""105238""
","","","342.69999998807907","","","19","3929","2430","&#9776;","elianto","#3366ff99"," "," ","1","0","[1196.2999999821186]","1","0","1","","","","","","","",""
"pit-trial","34","332794","0.0-2.0-8.2-4.2","battery-v0.2","","""event"",""trial"",""time""
""fullscreenenter"",""1"",""1333""
""fullscreenexit"",""7"",""105238""
","
","
","""event"",""trial"",""time""
""fullscreenenter"",""1"",""1333""
","""event"",""trial"",""time""
""fullscreenexit"",""7"",""105238""
","","","192.7000000178814","","","19","3929","2430","&#9776;","elianto","#3366ff99"," "," ","1","+10","[1045.2000000178814]","1","0","1","","","","","","","",""
"call-function","35","332796","0.0-2.0-9.0","battery-v0.2","","""event"",""trial"",""time""
""fullscreenenter"",""1"",""1333""
""fullscreenexit"",""7"",""105238""
","
","
","""event"",""trial"",""time""
""fullscreenenter"",""1"",""1333""
","""event"",""trial"",""time""
""fullscreenexit"",""7"",""105238""
","","","","","","","","","","","","","","","","","","","","","","","","","","",""
"pit-instructions","36","370237","0.0-2.0-10.0","battery-v0.2","","""event"",""trial"",""time""
""fullscreenenter"",""1"",""1333""
""fullscreenexit"",""7"",""105238""
","
","
","""event"",""trial"",""time""
""fullscreenenter"",""1"",""1333""
","""event"",""trial"",""time""
""fullscreenexit"",""7"",""105238""
","","[{""page_index"":0,""viewing_time"":5718.799999982119},{""page_index"":1,""viewing_time"":7106.5},{""page_index"":2,""viewing_time"":9217.800000011921},{""page_index"":3,""viewing_time"":8019.9000000059605},{""page_index"":4,""viewing_time"":7377.5999999940395}]","37440.79999998212","","","","","","","","","","","","","","","","","","","","","","","",""
"pit-trial","37","373954","0.0-2.0-11.0-0.0","battery-v0.2","","""event"",""trial"",""time""
""fullscreenenter"",""1"",""1333""
""fullscreenexit"",""7"",""105238""
","
","
","""event"",""trial"",""time""
""fullscreenenter"",""1"",""1333""
","""event"",""trial"",""time""
""fullscreenexit"",""7"",""105238""
","","","855.2999999821186","","","19","3929","2430","&#9761;","elianto","#3366ff99","-1"," ","0","0","[1705.800000011921]","1","0","2","","","","","","","",""
"pit-trial","38","377251","0.0-2.0-11.0-1.0","battery-v0.2","","""event"",""trial"",""time""
""fullscreenenter"",""1"",""1333""
""fullscreenexit"",""7"",""105238""
","
","
","""event"",""trial"",""time""
""fullscreenenter"",""1"",""1333""
","""event"",""trial"",""time""
""fullscreenexit"",""7"",""105238""
","","","438.40000000596046","","","19","3929","2430","&#9761;","elianto","#3366ff99","-1"," ","0","0","[1293]","1","0","2","","","","","","","",""
"pit-trial","39","380492","0.0-2.0-11.0-2.0","battery-v0.2","","""event"",""trial"",""time""
""fullscreenenter"",""1"",""1333""
""fullscreenexit"",""7"",""105238""
","
","
","""event"",""trial"",""time""
""fullscreenenter"",""1"",""1333""
","""event"",""trial"",""time""
""fullscreenexit"",""7"",""105238""
","","","382.5","","","19","3929","2430","&#9761;","elianto","#3366ff99","-1"," ","0","0","[1235.7000000178814]","1","0","2","","","","","","","",""
"pit-trial","40","383722","0.0-2.0-11.0-3.0","battery-v0.2","","""event"",""trial"",""time""
""fullscreenenter"",""1"",""1333""
""fullscreenexit"",""7"",""105238""
","
","
","""event"",""trial"",""time""
""fullscreenenter"",""1"",""1333""
","""event"",""trial"",""time""
""fullscreenexit"",""7"",""105238""
","","","374.30000001192093","","","19","3929","2430","&#9761;","elianto","#3366ff99","-1"," ","0","+10","[1226.300000011921]","1","0","2","","","","","","","",""
"pit-trial","41","386982","0.0-2.0-11.0-4.0","battery-v0.2","","""event"",""trial"",""time""
""fullscreenenter"",""1"",""1333""
""fullscreenexit"",""7"",""105238""
","
","
","""event"",""trial"",""time""
""fullscreenenter"",""1"",""1333""
","""event"",""trial"",""time""
""fullscreenexit"",""7"",""105238""
","","","398.09999999403954","","","19","3929","2430","&#9761;","elianto","#3366ff99","-1"," ","0","0","[1252]","1","0","2","","","","","","","",""
"pit-trial","42","390240","0.0-2.0-11.1-0.1","battery-v0.2","","""event"",""trial"",""time""
""fullscreenenter"",""1"",""1333""
""fullscreenexit"",""7"",""105238""
","
","
","""event"",""trial"",""time""
""fullscreenenter"",""1"",""1333""
","""event"",""trial"",""time""
""fullscreenexit"",""7"",""105238""
","","","381.7999999821186","","","19","3929","2430","&#9761;","elianto","#3366ff99","-1"," ","0","0","[1239.199999988079]","1","0","2","","","","","","","",""
"pit-trial","43","393547","0.0-2.0-11.1-1.1","battery-v0.2","","""event"",""trial"",""time""
""fullscreenenter"",""1"",""1333""
""fullscreenexit"",""7"",""105238""
","
","
","""event"",""trial"",""time""
""fullscreenenter"",""1"",""1333""
","""event"",""trial"",""time""
""fullscreenexit"",""7"",""105238""
","","","444.5","","","19","3929","2430","&#9761;","elianto","#3366ff99","-1"," ","0","0","[1295.2999999821186]","1","0","2","","","","","","","",""
"pit-trial","44","396763","0.0-2.0-11.1-2.1","battery-v0.2","","""event"",""trial"",""time""
""fullscreenenter"",""1"",""1333""
""fullscreenexit"",""7"",""105238""
","
","
","""event"",""trial"",""time""
""fullscreenenter"",""1"",""1333""
","""event"",""trial"",""time""
""fullscreenexit"",""7"",""105238""
","","","343","","","19","3929","2430","&#9761;","elianto","#3366ff99","-1"," ","0","0","[1196.0999999940395]","1","0","2","","","","","","","",""
"pit-trial","45","400042","0.0-2.0-11.1-3.1","battery-v0.2","","""event"",""trial"",""time""
""fullscreenenter"",""1"",""1333""
""fullscreenexit"",""7"",""105238""
","
","
","""event"",""trial"",""time""
""fullscreenenter"",""1"",""1333""
","""event"",""trial"",""time""
""fullscreenexit"",""7"",""105238""
","","","422.19999998807907","","","19","3929","2430","&#9761;","elianto","#3366ff99","-1"," ","0","+10","[1275.9000000059605]","1","0","2","","","","","","","",""
"pit-trial","46","403282","0.0-2.0-11.1-4.1","battery-v0.2","","""event"",""trial"",""time""
""fullscreenenter"",""1"",""1333""
""fullscreenexit"",""7"",""105238""
","
","
","""event"",""trial"",""time""
""fullscreenenter"",""1"",""1333""
","""event"",""trial"",""time""
""fullscreenexit"",""7"",""105238""
","","","382.30000001192093","","","19","3929","2430","&#9761;","elianto","#3366ff99","-1"," ","0","0","[1236.800000011921]","1","0","2","","","","","","","",""
"pit-trial","47","406562","0.0-2.0-11.2-0.2","battery-v0.2","","""event"",""trial"",""time""
""fullscreenenter"",""1"",""1333""
""fullscreenexit"",""7"",""105238""
","
","
","""event"",""trial"",""time""
""fullscreenenter"",""1"",""1333""
","""event"",""trial"",""time""
""fullscreenexit"",""7"",""105238""
","","","425.90000000596046","","","19","3929","2430","&#9761;","elianto","#3366ff99","-1"," ","0","0","[1276.6000000238419]","1","0","2","","","","","","","",""
"pit-trial","48","409841","0.0-2.0-11.2-1.2","battery-v0.2","","""event"",""trial"",""time""
""fullscreenenter"",""1"",""1333""
""fullscreenexit"",""7"",""105238""
","
","
","""event"",""trial"",""time""
""fullscreenenter"",""1"",""1333""
","""event"",""trial"",""time""
""fullscreenexit"",""7"",""105238""
","","","423.90000000596046","","","19","3929","2430","&#9761;","elianto","#3366ff99","-1"," ","0","0","[1276.6000000238419]","1","0","2","","","","","","","",""
"pit-trial","49","414705","0.0-2.0-11.2-2.2","battery-v0.2","","""event"",""trial"",""time""
""fullscreenenter"",""1"",""1333""
""fullscreenexit"",""7"",""105238""
","
","
","""event"",""trial"",""time""
""fullscreenenter"",""1"",""1333""
","""event"",""trial"",""time""
""fullscreenexit"",""7"",""105238""
","","","-1","","","19","3929","2430","&#9761;","elianto","#3366ff99","-1","-1","1","+10","[]","0","0","2","","","","","","","",""
"pit-trial","50","419577","0.0-2.0-11.2-3.2","battery-v0.2","","""event"",""trial"",""time""
""fullscreenenter"",""1"",""1333""
""fullscreenexit"",""7"",""105238""
","
","
","""event"",""trial"",""time""
""fullscreenenter"",""1"",""1333""
","""event"",""trial"",""time""
""fullscreenexit"",""7"",""105238""
","","","-1","","","19","3929","2430","&#9761;","elianto","#3366ff99","-1","-1","1","0","[]","0","0","2","","","","","","","",""
"pit-trial","51","422786","0.0-2.0-11.2-4.2","battery-v0.2","","""event"",""trial"",""time""
""fullscreenenter"",""1"",""1333""
""fullscreenexit"",""7"",""105238""
","
","
","""event"",""trial"",""time""
""fullscreenenter"",""1"",""1333""
","""event"",""trial"",""time""
""fullscreenexit"",""7"",""105238""
","","","342.5","","","19","3929","2430","&#9761;","elianto","#3366ff99","-1"," ","0","0","[1197.1000000238419]","1","0","2","","","","","","","",""
"pit-trial","52","425778","0.0-2.0-11.3-0.3","battery-v0.2","","""event"",""trial"",""time""
""fullscreenenter"",""1"",""1333""
""fullscreenexit"",""7"",""105238""
","
","
","""event"",""trial"",""time""
""fullscreenenter"",""1"",""1333""
","""event"",""trial"",""time""
""fullscreenexit"",""7"",""105238""
","","","135.30000001192093","","","19","3929","2430","&#9761;","elianto","#3366ff99","-1"," ","0","0","[987.8000000119209]","1","0","2","","","","","","","",""
"pit-trial","53","428825","0.0-2.0-11.3-1.3","battery-v0.2","","""event"",""trial"",""time""
""fullscreenenter"",""1"",""1333""
""fullscreenexit"",""7"",""105238""
","
","
","""event"",""trial"",""time""
""fullscreenenter"",""1"",""1333""
","""event"",""trial"",""time""
""fullscreenexit"",""7"",""105238""
","","","182.80000001192093","","","19","3929","2430","&#9761;","elianto","#3366ff99","-1"," ","0","0","[1036.9000000059605]","1","0","2","","","","","","","",""
"pit-trial","54","433689","0.0-2.0-11.3-2.3","battery-v0.2","","""event"",""trial"",""time""
""fullscreenenter"",""1"",""1333""
""fullscreenexit"",""7"",""105238""
","
","
","""event"",""trial"",""time""
""fullscreenenter"",""1"",""1333""
","""event"",""trial"",""time""
""fullscreenexit"",""7"",""105238""
","","","-1","","","19","3929","2430","&#9761;","elianto","#3366ff99","-1","-1","1","+10","[]","0","0","2","","","","","","","",""
"pit-trial","55","438553","0.0-2.0-11.3-3.3","battery-v0.2","","""event"",""trial"",""time""
""fullscreenenter"",""1"",""1333""
""fullscreenexit"",""7"",""105238""
","
","
","""event"",""trial"",""time""
""fullscreenenter"",""1"",""1333""
","""event"",""trial"",""time""
""fullscreenexit"",""7"",""105238""
","","","-1","","","19","3929","2430","&#9761;","elianto","#3366ff99","-1","-1","1","0","[]","0","0","2","","","","","","","",""
"pit-trial","56","441897","0.0-2.0-11.3-4.3","battery-v0.2","","""event"",""trial"",""time""
""fullscreenenter"",""1"",""1333""
""fullscreenexit"",""7"",""105238""
","
","
","""event"",""trial"",""time""
""fullscreenenter"",""1"",""1333""
","""event"",""trial"",""time""
""fullscreenexit"",""7"",""105238""
","","","490.7999999821186","","","19","3929","2430","&#9761;","elianto","#3366ff99","-1"," ","0","0","[1341.2999999821186]","1","0","2","","","","","","","",""
"call-function","57","441898","0.0-2.0-12.0","battery-v0.2","","""event"",""trial"",""time""
""fullscreenenter"",""1"",""1333""
""fullscreenexit"",""7"",""105238""
","
","
","""event"",""trial"",""time""
""fullscreenenter"",""1"",""1333""
","""event"",""trial"",""time""
""fullscreenexit"",""7"",""105238""
","","","","","","","","","","","","","","","","","","","","","","","","","","",""
"pit-instructions","58","472251","0.0-2.0-13.0","battery-v0.2","","""event"",""trial"",""time""
""fullscreenenter"",""1"",""1333""
""fullscreenexit"",""7"",""105238""
","
","
","""event"",""trial"",""time""
""fullscreenenter"",""1"",""1333""
","""event"",""trial"",""time""
""fullscreenexit"",""7"",""105238""
","","[{""page_index"":0,""viewing_time"":5762.0999999940395},{""page_index"":1,""viewing_time"":6972},{""page_index"":2,""viewing_time"":3234.0999999940395},{""page_index"":3,""viewing_time"":10282.200000017881},{""page_index"":4,""viewing_time"":4101.699999988079}]","30352.5","","","","","","","","","","","","","","","","","","","","","","","",""
"pit-trial","59","475730","0.0-2.0-14.0-0.0","battery-v0.2","","""event"",""trial"",""time""
""fullscreenenter"",""1"",""1333""
""fullscreenexit"",""7"",""105238""
","
","
","""event"",""trial"",""time""
""fullscreenenter"",""1"",""1333""
","""event"",""trial"",""time""
""fullscreenexit"",""7"",""105238""
","","","623.3000000119209","","","19","3929","2430","&#9826;","elianto","#f73b6a7A","-1"," ","0","-10","[1475.300000011921]","1","0","3","","","","","","","",""
"pit-trial","60","480607","0.0-2.0-14.0-1.0","battery-v0.2","","""event"",""trial"",""time""
""fullscreenenter"",""1"",""1333""
""fullscreenexit"",""7"",""105238""
","
","
","""event"",""trial"",""time""
""fullscreenenter"",""1"",""1333""
","""event"",""trial"",""time""
""fullscreenexit"",""7"",""105238""
","","","-1","","","19","3929","2430","&#9826;","elianto","#f73b6a7A","-1","-1","1","0","[]","0","0","3","","","","","","","",""
"pit-trial","61","485485","0.0-2.0-14.0-2.0","battery-v0.2","","""event"",""trial"",""time""
""fullscreenenter"",""1"",""1333""
""fullscreenexit"",""7"",""105238""
","
","
","""event"",""trial"",""time""
""fullscreenenter"",""1"",""1333""
","""event"",""trial"",""time""
""fullscreenexit"",""7"",""105238""
","","","-1","","","19","3929","2430","&#9826;","elianto","#f73b6a7A","-1","-1","1","0","[]","0","0","3","","","","","","","",""
"pit-trial","62","490354","0.0-2.0-14.0-3.0","battery-v0.2","","""event"",""trial"",""time""
""fullscreenenter"",""1"",""1333""
""fullscreenexit"",""7"",""105238""
","
","
","""event"",""trial"",""time""
""fullscreenenter"",""1"",""1333""
","""event"",""trial"",""time""
""fullscreenexit"",""7"",""105238""
","","","-1","","","19","3929","2430","&#9826;","elianto","#f73b6a7A","-1","-1","1","-10","[]","0","0","3","","","","","","","",""
"pit-trial","63","493983","0.0-2.0-14.0-4.0","battery-v0.2","","""event"",""trial"",""time""
""fullscreenenter"",""1"",""1333""
""fullscreenexit"",""7"",""105238""
","
","
","""event"",""trial"",""time""
""fullscreenenter"",""1"",""1333""
","""event"",""trial"",""time""
""fullscreenexit"",""7"",""105238""
","","","765.8999999761581","","","19","3929","2430","&#9826;","elianto","#f73b6a7A","-1"," ","0","-10","[1620.5]","1","0","3","","","","","","","",""
"pit-trial","64","498864","0.0-2.0-14.1-0.1","battery-v0.2","","""event"",""trial"",""time""
""fullscreenenter"",""1"",""1333""
""fullscreenexit"",""7"",""105238""
","
","
","""event"",""trial"",""time""
""fullscreenenter"",""1"",""1333""
","""event"",""trial"",""time""
""fullscreenexit"",""7"",""105238""
","","","-1","","","19","3929","2430","&#9826;","elianto","#f73b6a7A","-1","-1","1","0","[]","0","0","3","","","","","","","",""
"pit-trial","65","503730","0.0-2.0-14.1-1.1","battery-v0.2","","""event"",""trial"",""time""
""fullscreenenter"",""1"",""1333""
""fullscreenexit"",""7"",""105238""
","
","
","""event"",""trial"",""time""
""fullscreenenter"",""1"",""1333""
","""event"",""trial"",""time""
""fullscreenexit"",""7"",""105238""
","","","-1","","","19","3929","2430","&#9826;","elianto","#f73b6a7A","-1","-1","1","0","[]","0","0","3","","","","","","","",""
"pit-trial","66","508593","0.0-2.0-14.1-2.1","battery-v0.2","","""event"",""trial"",""time""
""fullscreenenter"",""1"",""1333""
""fullscreenexit"",""7"",""105238""
","
","
","""event"",""trial"",""time""
""fullscreenenter"",""1"",""1333""
","""event"",""trial"",""time""
""fullscreenexit"",""7"",""105238""
","","","-1","","","19","3929","2430","&#9826;","elianto","#f73b6a7A","-1","-1","1","0","[]","0","0","3","","","","","","","",""
"pit-trial","67","513458","0.0-2.0-14.1-3.1","battery-v0.2","","""event"",""trial"",""time""
""fullscreenenter"",""1"",""1333""
""fullscreenexit"",""7"",""105238""
","
","
","""event"",""trial"",""time""
""fullscreenenter"",""1"",""1333""
","""event"",""trial"",""time""
""fullscreenexit"",""7"",""105238""
","","","-1","","","19","3929","2430","&#9826;","elianto","#f73b6a7A","-1","-1","1","-10","[]","0","0","3","","","","","","","",""
"pit-trial","68","518321","0.0-2.0-14.1-4.1","battery-v0.2","","""event"",""trial"",""time""
""fullscreenenter"",""1"",""1333""
""fullscreenexit"",""7"",""105238""
","
","
","""event"",""trial"",""time""
""fullscreenenter"",""1"",""1333""
","""event"",""trial"",""time""
""fullscreenexit"",""7"",""105238""
","","","-1","","","19","3929","2430","&#9826;","elianto","#f73b6a7A","-1","-1","1","0","[]","0","0","3","","","","","","","",""
"pit-trial","69","523185","0.0-2.0-14.2-0.2","battery-v0.2","","""event"",""trial"",""time""
""fullscreenenter"",""1"",""1333""
""fullscreenexit"",""7"",""105238""
","
","
","""event"",""trial"",""time""
""fullscreenenter"",""1"",""1333""
","""event"",""trial"",""time""
""fullscreenexit"",""7"",""105238""
","","","-1","","","19","3929","2430","&#9826;","elianto","#f73b6a7A","-1","-1","1","0","[]","0","0","3","","","","","","","",""
"pit-trial","70","528050","0.0-2.0-14.2-1.2","battery-v0.2","","""event"",""trial"",""time""
""fullscreenenter"",""1"",""1333""
""fullscreenexit"",""7"",""105238""
","
","
","""event"",""trial"",""time""
""fullscreenenter"",""1"",""1333""
","""event"",""trial"",""time""
""fullscreenexit"",""7"",""105238""
","","","-1","","","19","3929","2430","&#9826;","elianto","#f73b6a7A","-1","-1","1","0","[]","0","0","3","","","","","","","",""
"pit-trial","71","532913","0.0-2.0-14.2-2.2","battery-v0.2","","""event"",""trial"",""time""
""fullscreenenter"",""1"",""1333""
""fullscreenexit"",""7"",""105238""
","
","
","""event"",""trial"",""time""
""fullscreenenter"",""1"",""1333""
","""event"",""trial"",""time""
""fullscreenexit"",""7"",""105238""
","","","-1","","","19","3929","2430","&#9826;","elianto","#f73b6a7A","-1","-1","1","0","[]","0","0","3","","","","","","","",""
"pit-trial","72","537778","0.0-2.0-14.2-3.2","battery-v0.2","","""event"",""trial"",""time""
""fullscreenenter"",""1"",""1333""
""fullscreenexit"",""7"",""105238""
","
","
","""event"",""trial"",""time""
""fullscreenenter"",""1"",""1333""
","""event"",""trial"",""time""
""fullscreenexit"",""7"",""105238""
","","","-1","","","19","3929","2430","&#9826;","elianto","#f73b6a7A","-1","-1","1","-10","[]","0","0","3","","","","","","","",""
"pit-trial","73","542642","0.0-2.0-14.2-4.2","battery-v0.2","","""event"",""trial"",""time""
""fullscreenenter"",""1"",""1333""
""fullscreenexit"",""7"",""105238""
","
","
","""event"",""trial"",""time""
""fullscreenenter"",""1"",""1333""
","""event"",""trial"",""time""
""fullscreenexit"",""7"",""105238""
","","","-1","","","19","3929","2430","&#9826;","elianto","#f73b6a7A","-1","-1","1","0","[]","0","0","3","","","","","","","",""
"pit-trial","74","545930","0.0-2.0-14.3-0.3","battery-v0.2","","""event"",""trial"",""time""
""fullscreenenter"",""1"",""1333""
""fullscreenexit"",""7"",""105238""
","
","
","""event"",""trial"",""time""
""fullscreenenter"",""1"",""1333""
","""event"",""trial"",""time""
""fullscreenexit"",""7"",""105238""
","","","430.40000000596046","","","19","3929","2430","&#9826;","elianto","#f73b6a7A","-1"," ","0","-10","[1284.0999999940395]","1","0","3","","","","","","","",""
"pit-trial","75","550794","0.0-2.0-14.3-1.3","battery-v0.2","","""event"",""trial"",""time""
""fullscreenenter"",""1"",""1333""
""fullscreenexit"",""7"",""105238""
","
","
","""event"",""trial"",""time""
""fullscreenenter"",""1"",""1333""
","""event"",""trial"",""time""
""fullscreenexit"",""7"",""105238""
","","","-1","","","19","3929","2430","&#9826;","elianto","#f73b6a7A","-1","-1","1","0","[]","0","0","3","","","","","","","",""
"pit-trial","76","555657","0.0-2.0-14.3-2.3","battery-v0.2","","""event"",""trial"",""time""
""fullscreenenter"",""1"",""1333""
""fullscreenexit"",""7"",""105238""
","
","
","""event"",""trial"",""time""
""fullscreenenter"",""1"",""1333""
","""event"",""trial"",""time""
""fullscreenexit"",""7"",""105238""
","","","-1","","","19","3929","2430","&#9826;","elianto","#f73b6a7A","-1","-1","1","0","[]","0","0","3","","","","","","","",""
"pit-trial","77","560529","0.0-2.0-14.3-3.3","battery-v0.2","","""event"",""trial"",""time""
""fullscreenenter"",""1"",""1333""
""fullscreenexit"",""7"",""105238""
","
","
","""event"",""trial"",""time""
""fullscreenenter"",""1"",""1333""
","""event"",""trial"",""time""
""fullscreenexit"",""7"",""105238""
","","","-1","","","19","3929","2430","&#9826;","elianto","#f73b6a7A","-1","-1","1","-10","[]","0","0","3","","","","","","","",""
"pit-trial","78","565393","0.0-2.0-14.3-4.3","battery-v0.2","","""event"",""trial"",""time""
""fullscreenenter"",""1"",""1333""
""fullscreenexit"",""7"",""105238""
","
","
","""event"",""trial"",""time""
""fullscreenenter"",""1"",""1333""
","""event"",""trial"",""time""
""fullscreenexit"",""7"",""105238""
","","","-1","","","19","3929","2430","&#9826;","elianto","#f73b6a7A","-1","-1","1","0","[]","0","0","3","","","","","","","",""
"call-function","79","565394","0.0-2.0-15.0","battery-v0.2","","""event"",""trial"",""time""
""fullscreenenter"",""1"",""1333""
""fullscreenexit"",""7"",""105238""
","
","
","""event"",""trial"",""time""
""fullscreenenter"",""1"",""1333""
","""event"",""trial"",""time""
""fullscreenexit"",""7"",""105238""
","","","","","","","","","","","","","","","","","","","","","","","","","","",""
"pit-instructions","80","613295","0.0-2.0-16.0","battery-v0.2","","""event"",""trial"",""time""
""fullscreenenter"",""1"",""1333""
""fullscreenexit"",""7"",""105238""
","
","
","""event"",""trial"",""time""
""fullscreenenter"",""1"",""1333""
","""event"",""trial"",""time""
""fullscreenexit"",""7"",""105238""
","","[{""page_index"":0,""viewing_time"":9614.699999988079},{""page_index"":1,""viewing_time"":29181.69999998808},{""page_index"":2,""viewing_time"":4101.9000000059605},{""page_index"":3,""viewing_time"":5001.300000011921}]","47899.89999997616","","","","","","","","","","","","","","","","","","","","","","","",""
"pit-trial","81","617347","0.0-2.0-17.0-0.0","battery-v0.2","","""event"",""trial"",""time""
""fullscreenenter"",""1"",""1333""
""fullscreenexit"",""7"",""105238""
","
","
","""event"",""trial"",""time""
""fullscreenenter"",""1"",""1333""
","""event"",""trial"",""time""
""fullscreenexit"",""7"",""105238""
","","","1183.2999999821186","","","19","3929","2430","&#9789;","elianto","#f73b6a7A"," "," ","1","0","[2040.199999988079]","1","0","4","","","","","","","",""
"pit-trial","82","620420","0.0-2.0-17.0-1.0","battery-v0.2","","""event"",""trial"",""time""
""fullscreenenter"",""1"",""1333""
""fullscreenexit"",""7"",""105238""
","
","
","""event"",""trial"",""time""
""fullscreenenter"",""1"",""1333""
","""event"",""trial"",""time""
""fullscreenexit"",""7"",""105238""
","","","207.80000001192093","","","19","3929","2430","&#9789;","elianto","#f73b6a7A"," "," ","1","0","[1059.6000000238419]","1","0","4","","","","","","","",""
"pit-trial","83","623602","0.0-2.0-17.0-2.0","battery-v0.2","","""event"",""trial"",""time""
""fullscreenenter"",""1"",""1333""
""fullscreenexit"",""7"",""105238""
","
","
","""event"",""trial"",""time""
""fullscreenenter"",""1"",""1333""
","""event"",""trial"",""time""
""fullscreenexit"",""7"",""105238""
","","","318","","","19","3929","2430","&#9789;","elianto","#f73b6a7A"," "," ","1","0","[818.5999999940395,1170.5]","2","0","4","","","","","","","",""
"pit-trial","84","626652","0.0-2.0-17.0-3.0","battery-v0.2","","""event"",""trial"",""time""
""fullscreenenter"",""1"",""1333""
""fullscreenexit"",""7"",""105238""
","
","
","""event"",""trial"",""time""
""fullscreenenter"",""1"",""1333""
","""event"",""trial"",""time""
""fullscreenexit"",""7"",""105238""
","","","182.09999999403954","","","19","3929","2430","&#9789;","elianto","#f73b6a7A"," "," ","1","-10","[1036]","1","0","4","","","","","","","",""
"pit-trial","85","629579","0.0-2.0-17.0-4.0","battery-v0.2","","""event"",""trial"",""time""
""fullscreenenter"",""1"",""1333""
""fullscreenexit"",""7"",""105238""
","
","
","""event"",""trial"",""time""
""fullscreenenter"",""1"",""1333""
","""event"",""trial"",""time""
""fullscreenexit"",""7"",""105238""
","","","60.900000005960464","","","19","3929","2430","&#9789;","elianto","#f73b6a7A"," "," ","1","0","[913.8000000119209]","1","0","4","","","","","","","",""
"pit-trial","86","632642","0.0-2.0-17.1-0.1","battery-v0.2","","""event"",""trial"",""time""
""fullscreenenter"",""1"",""1333""
""fullscreenexit"",""7"",""105238""
","
","
","""event"",""trial"",""time""
""fullscreenenter"",""1"",""1333""
","""event"",""trial"",""time""
""fullscreenexit"",""7"",""105238""
","","","206.30000001192093","","","19","3929","2430","&#9789;","elianto","#f73b6a7A"," "," ","1","0","[1058.0999999940395]","1","0","4","","","","","","","",""
"pit-trial","87","635648","0.0-2.0-17.1-1.1","battery-v0.2","","""event"",""trial"",""time""
""fullscreenenter"",""1"",""1333""
""fullscreenexit"",""7"",""105238""
","
","
","""event"",""trial"",""time""
""fullscreenenter"",""1"",""1333""
","""event"",""trial"",""time""
""fullscreenexit"",""7"",""105238""
","","","123.5","","","19","3929","2430","&#9789;","elianto","#f73b6a7A"," "," ","1","0","[988]","1","0","4","","","","","","","",""
"pit-trial","88","638718","0.0-2.0-17.1-2.1","battery-v0.2","","""event"",""trial"",""time""
""fullscreenenter"",""1"",""1333""
""fullscreenexit"",""7"",""105238""
","
","
","""event"",""trial"",""time""
""fullscreenenter"",""1"",""1333""
","""event"",""trial"",""time""
""fullscreenexit"",""7"",""105238""
","","","197.40000000596046","","","19","3929","2430","&#9789;","elianto","#f73b6a7A"," "," ","1","0","[1053.4000000059605]","1","0","4","","","","","","","",""
"pit-trial","89","641892","0.0-2.0-17.1-3.1","battery-v0.2","","""event"",""trial"",""time""
""fullscreenenter"",""1"",""1333""
""fullscreenexit"",""7"",""105238""
","
","
","""event"",""trial"",""time""
""fullscreenenter"",""1"",""1333""
","""event"",""trial"",""time""
""fullscreenexit"",""7"",""105238""
","","","316.5","","","19","3929","2430","&#9789;","elianto","#f73b6a7A"," "," ","1","-10","[1167.8999999761581]","1","0","4","","","","","","","",""
"pit-trial","90","646754","0.0-2.0-17.1-4.1","battery-v0.2","","""event"",""trial"",""time""
""fullscreenenter"",""1"",""1333""
""fullscreenexit"",""7"",""105238""
","
","
","""event"",""trial"",""time""
""fullscreenenter"",""1"",""1333""
","""event"",""trial"",""time""
""fullscreenexit"",""7"",""105238""
","","","-1","","","19","3929","2430","&#9789;","elianto","#f73b6a7A"," ","-1","0","-10","[]","0","0","4","","","","","","","",""
"pit-trial","91","651611","0.0-2.0-17.2-0.2","battery-v0.2","","""event"",""trial"",""time""
""fullscreenenter"",""1"",""1333""
""fullscreenexit"",""7"",""105238""
","
","
","""event"",""trial"",""time""
""fullscreenenter"",""1"",""1333""
","""event"",""trial"",""time""
""fullscreenexit"",""7"",""105238""
","","","-1","","","19","3929","2430","&#9789;","elianto","#f73b6a7A"," ","-1","0","-10","[]","0","0","4","","","","","","","",""
"pit-trial","92","656474","0.0-2.0-17.2-1.2","battery-v0.2","","""event"",""trial"",""time""
""fullscreenenter"",""1"",""1333""
""fullscreenexit"",""7"",""105238""
","
","
","""event"",""trial"",""time""
""fullscreenenter"",""1"",""1333""
","""event"",""trial"",""time""
""fullscreenexit"",""7"",""105238""
","","","-1","","","19","3929","2430","&#9789;","elianto","#f73b6a7A"," ","-1","0","-10","[]","0","0","4","","","","","","","",""
"pit-trial","93","661337","0.0-2.0-17.2-2.2","battery-v0.2","","""event"",""trial"",""time""
""fullscreenenter"",""1"",""1333""
""fullscreenexit"",""7"",""105238""
","
","
","""event"",""trial"",""time""
""fullscreenenter"",""1"",""1333""
","""event"",""trial"",""time""
""fullscreenexit"",""7"",""105238""
","","","-1","","","19","3929","2430","&#9789;","elianto","#f73b6a7A"," ","-1","0","-10","[]","0","0","4","","","","","","","",""
"pit-trial","94","666201","0.0-2.0-17.2-3.2","battery-v0.2","","""event"",""trial"",""time""
""fullscreenenter"",""1"",""1333""
""fullscreenexit"",""7"",""105238""
","
","
","""event"",""trial"",""time""
""fullscreenenter"",""1"",""1333""
","""event"",""trial"",""time""
""fullscreenexit"",""7"",""105238""
","","","-1","","","19","3929","2430","&#9789;","elianto","#f73b6a7A"," ","-1","0","0","[]","0","0","4","","","","","","","",""
"pit-trial","95","671065","0.0-2.0-17.2-4.2","battery-v0.2","","""event"",""trial"",""time""
""fullscreenenter"",""1"",""1333""
""fullscreenexit"",""7"",""105238""
","
","
","""event"",""trial"",""time""
""fullscreenenter"",""1"",""1333""
","""event"",""trial"",""time""
""fullscreenexit"",""7"",""105238""
","","","-1","","","19","3929","2430","&#9789;","elianto","#f73b6a7A"," ","-1","0","-10","[]","0","0","4","","","","","","","",""
"pit-trial","96","674360","0.0-2.0-17.3-0.3","battery-v0.2","","""event"",""trial"",""time""
""fullscreenenter"",""1"",""1333""
""fullscreenexit"",""7"",""105238""
","
","
","""event"",""trial"",""time""
""fullscreenenter"",""1"",""1333""
","""event"",""trial"",""time""
""fullscreenexit"",""7"",""105238""
","","","438.2000000178814","","","19","3929","2430","&#9789;","elianto","#f73b6a7A"," "," ","1","0","[1292.2000000178814]","1","0","4","","","","","","","",""
"pit-trial","97","679226","0.0-2.0-17.3-1.3","battery-v0.2","","""event"",""trial"",""time""
""fullscreenenter"",""1"",""1333""
""fullscreenexit"",""7"",""105238""
","
","
","""event"",""trial"",""time""
""fullscreenenter"",""1"",""1333""
","""event"",""trial"",""time""
""fullscreenexit"",""7"",""105238""
","","","-1","","","19","3929","2430","&#9789;","elianto","#f73b6a7A"," ","-1","0","-10","[]","0","0","4","","","","","","","",""
"pit-trial","98","684097","0.0-2.0-17.3-2.3","battery-v0.2","","""event"",""trial"",""time""
""fullscreenenter"",""1"",""1333""
""fullscreenexit"",""7"",""105238""
","
","
","""event"",""trial"",""time""
""fullscreenenter"",""1"",""1333""
","""event"",""trial"",""time""
""fullscreenexit"",""7"",""105238""
","","","-1","","","19","3929","2430","&#9789;","elianto","#f73b6a7A"," ","-1","0","-10","[]","0","0","4","","","","","","","",""
"pit-trial","99","688962","0.0-2.0-17.3-3.3","battery-v0.2","","""event"",""trial"",""time""
""fullscreenenter"",""1"",""1333""
""fullscreenexit"",""7"",""105238""
","
","
","""event"",""trial"",""time""
""fullscreenenter"",""1"",""1333""
","""event"",""trial"",""time""
""fullscreenexit"",""7"",""105238""
","","","-1","","","19","3929","2430","&#9789;","elianto","#f73b6a7A"," ","-1","0","0","[]","0","0","4","","","","","","","",""
"pit-trial","100","693826","0.0-2.0-17.3-4.3","battery-v0.2","","""event"",""trial"",""time""
""fullscreenenter"",""1"",""1333""
""fullscreenexit"",""7"",""105238""
","
","
","""event"",""trial"",""time""
""fullscreenenter"",""1"",""1333""
","""event"",""trial"",""time""
""fullscreenexit"",""7"",""105238""
","","","-1","","","19","3929","2430","&#9789;","elianto","#f73b6a7A"," ","-1","0","-10","[]","0","0","4","","","","","","","",""
"call-function","101","693827","0.0-2.0-18.0","battery-v0.2","","""event"",""trial"",""time""
""fullscreenenter"",""1"",""1333""
""fullscreenexit"",""7"",""105238""
","
","
","""event"",""trial"",""time""
""fullscreenenter"",""1"",""1333""
","""event"",""trial"",""time""
""fullscreenexit"",""7"",""105238""
","","","","","","","","","","","","","","","","","","","","","","","","","","",""
"pit-instructions","102","756183","0.0-2.0-19.0","battery-v0.2","","""event"",""trial"",""time""
""fullscreenenter"",""1"",""1333""
""fullscreenexit"",""7"",""105238""
","
","
","""event"",""trial"",""time""
""fullscreenenter"",""1"",""1333""
","""event"",""trial"",""time""
""fullscreenexit"",""7"",""105238""
","","[{""page_index"":0,""viewing_time"":6402.899999976158},{""page_index"":1,""viewing_time"":4476.200000017881},{""page_index"":2,""viewing_time"":9662.09999999404},{""page_index"":3,""viewing_time"":6939.9000000059605},{""page_index"":4,""viewing_time"":8447.699999988079},{""page_index"":5,""viewing_time"":8576.300000011921},{""page_index"":6,""viewing_time"":8174.299999982119},{""page_index"":7,""viewing_time"":5979.300000011921},{""page_index"":8,""viewing_time"":3696.699999988079}]","62355.69999998808","","","","","","","","","","","","","","","","","","","","","","","",""
"pit-comprehension","103","760939","0.0-2.0-20.0-0.0","battery-v0.2","","""event"",""trial"",""time""
""fullscreenenter"",""1"",""1333""
""fullscreenexit"",""7"",""105238""
","
","
","""event"",""trial"",""time""
""fullscreenenter"",""1"",""1333""
","""event"",""trial"",""time""
""fullscreenexit"",""7"",""105238""
","","","4753.5","[""SPACE""]","0","19","3929","2430","","","","","","","","","","","","","","","","","","",""
"pit-instructions","104","764523","0.0-2.0-20.0-1.0","battery-v0.2","","""event"",""trial"",""time""
""fullscreenenter"",""1"",""1333""
""fullscreenexit"",""7"",""105238""
","
","
","""event"",""trial"",""time""
""fullscreenenter"",""1"",""1333""
","""event"",""trial"",""time""
""fullscreenexit"",""7"",""105238""
","","[{""page_index"":0,""viewing_time"":3551.0999999940395}]","3551.399999976158","","","","","","","","","","","","","","","","","","","","","","","",""
"pit-comprehension","105","769451","0.0-2.0-21.0-0.0","battery-v0.2","","""event"",""trial"",""time""
""fullscreenenter"",""1"",""1333""
""fullscreenexit"",""7"",""105238""
","
","
","""event"",""trial"",""time""
""fullscreenenter"",""1"",""1333""
","""event"",""trial"",""time""
""fullscreenexit"",""7"",""105238""
","","","4926.5","[""10""]","0","19","3929","2430","","","","","","","","","","","","","","","","","","",""
"pit-instructions","106","772187","0.0-2.0-21.0-1.0","battery-v0.2","","""event"",""trial"",""time""
""fullscreenenter"",""1"",""1333""
""fullscreenexit"",""7"",""105238""
","
","
","""event"",""trial"",""time""
""fullscreenenter"",""1"",""1333""
","""event"",""trial"",""time""
""fullscreenexit"",""7"",""105238""
","","[{""page_index"":0,""viewing_time"":2707.0999999940395}]","2707.4000000059605","","","","","","","","","","","","","","","","","","","","","","","",""
"pit-comprehension","107","784200","0.0-2.0-22.0-0.0","battery-v0.2","","""event"",""trial"",""time""
""fullscreenenter"",""1"",""1333""
""fullscreenexit"",""7"",""105238""
","
","
","""event"",""trial"",""time""
""fullscreenenter"",""1"",""1333""
","""event"",""trial"",""time""
""fullscreenexit"",""7"",""105238""
","","","12011.40000000596","[""0""]","0","19","3929","2430","","","","","","","","","","","","","","","","","","",""
"pit-instructions","108","787743","0.0-2.0-22.0-1.0","battery-v0.2","","""event"",""trial"",""time""
""fullscreenenter"",""1"",""1333""
""fullscreenexit"",""7"",""105238""
","
","
","""event"",""trial"",""time""
""fullscreenenter"",""1"",""1333""
","""event"",""trial"",""time""
""fullscreenexit"",""7"",""105238""
","","[{""page_index"":0,""viewing_time"":3510.4000000059605}]","3510.7000000178814","","","","","","","","","","","","","","","","","","","","","","","",""
"pit-comprehension","109","796144","0.0-2.0-23.0-0.0","battery-v0.2","","""event"",""trial"",""time""
""fullscreenenter"",""1"",""1333""
""fullscreenexit"",""7"",""105238""
","
","
","""event"",""trial"",""time""
""fullscreenenter"",""1"",""1333""
","""event"",""trial"",""time""
""fullscreenexit"",""7"",""105238""
","","","8398.90000000596","[""True""]","0","19","3929","2430","","","","","","","","","","","","","","","","","","",""
"pit-instructions","110","799566","0.0-2.0-23.0-1.0","battery-v0.2","","""event"",""trial"",""time""
""fullscreenenter"",""1"",""1333""
""fullscreenexit"",""7"",""105238""
","
","
","""event"",""trial"",""time""
""fullscreenenter"",""1"",""1333""
","""event"",""trial"",""time""
""fullscreenexit"",""7"",""105238""
","","[{""page_index"":0,""viewing_time"":3390.300000011921}]","3390.5999999940395","","","","","","","","","","","","","","","","","","","","","","","",""
"pit-comprehension","111","807503","0.0-2.0-24.0-0.0","battery-v0.2","","""event"",""trial"",""time""
""fullscreenenter"",""1"",""1333""
""fullscreenexit"",""7"",""105238""
","
","
","""event"",""trial"",""time""
""fullscreenenter"",""1"",""1333""
","""event"",""trial"",""time""
""fullscreenexit"",""7"",""105238""
","","","7934.9000000059605","[""True""]","0","19","3929","2430","","","","","","","","","","","","","","","","","","",""
"pit-instructions","112","809323","0.0-2.0-24.0-1.0","battery-v0.2","","""event"",""trial"",""time""
""fullscreenenter"",""1"",""1333""
""fullscreenexit"",""7"",""105238""
","
","
","""event"",""trial"",""time""
""fullscreenenter"",""1"",""1333""
","""event"",""trial"",""time""
""fullscreenexit"",""7"",""105238""
","","[{""page_index"":0,""viewing_time"":1786.5}]","1786.7999999821186","","","","","","","","","","","","","","","","","","","","","","","",""
"pit-comprehension","113","815502","0.0-2.0-25.0-0.0","battery-v0.2","","""event"",""trial"",""time""
""fullscreenenter"",""1"",""1333""
""fullscreenexit"",""7"",""105238""
","
","
","""event"",""trial"",""time""
""fullscreenenter"",""1"",""1333""
","""event"",""trial"",""time""
""fullscreenexit"",""7"",""105238""
","","","6175.9000000059605","[""True""]","0","19","3929","2430","","","","","","","","","","","","","","","","","","",""
"pit-instructions","114","818383","0.0-2.0-25.0-1.0","battery-v0.2","","""event"",""trial"",""time""
""fullscreenenter"",""1"",""1333""
""fullscreenexit"",""7"",""105238""
","
","
","""event"",""trial"",""time""
""fullscreenenter"",""1"",""1333""
","""event"",""trial"",""time""
""fullscreenexit"",""7"",""105238""
","","[{""page_index"":0,""viewing_time"":2849.4000000059605}]","2849.5999999940395","","","","","","","","","","","","","","","","","","","","","","","",""
"pit-comprehension","115","823409","0.0-2.0-26.0-0.0","battery-v0.2","","""event"",""trial"",""time""
""fullscreenenter"",""1"",""1333""
""fullscreenexit"",""7"",""105238""
","
","
","""event"",""trial"",""time""
""fullscreenenter"",""1"",""1333""
","""event"",""trial"",""time""
""fullscreenexit"",""7"",""105238""
","","","5023.700000017881","[""False""]","0","19","3929","2430","","","","","","","","","","","","","","","","","","",""
"pit-instructions","116","825177","0.0-2.0-26.0-1.0","battery-v0.2","","""event"",""trial"",""time""
""fullscreenenter"",""1"",""1333""
""fullscreenexit"",""7"",""105238""
","
","
","""event"",""trial"",""time""
""fullscreenenter"",""1"",""1333""
","""event"",""trial"",""time""
""fullscreenexit"",""7"",""105238""
","","[{""page_index"":0,""viewing_time"":1733.199999988079}]","1733.2999999821186","","","","","","","","","","","","","","","","","","","","","","","",""
"pit-instructions","117","841875","0.0-3.0","battery-v0.2","","""event"",""trial"",""time""
""fullscreenenter"",""1"",""1333""
""fullscreenexit"",""7"",""105238""
","
","
","""event"",""trial"",""time""
""fullscreenenter"",""1"",""1333""
","""event"",""trial"",""time""
""fullscreenexit"",""7"",""105238""
","","[{""page_index"":0,""viewing_time"":3566},{""page_index"":1,""viewing_time"":5662.600000023842},{""page_index"":2,""viewing_time"":7467.799999982119}]","16696.70000001788","","","","","","","","","","","","","","","","","","","","","","","",""
"pit-trial","118","845586","0.0-4.0","battery-v0.2","","""event"",""trial"",""time""
""fullscreenenter"",""1"",""1333""
""fullscreenexit"",""7"",""105238""
","
","
","""event"",""trial"",""time""
""fullscreenenter"",""1"",""1333""
","""event"",""trial"",""time""
""fullscreenexit"",""7"",""105238""
","","","855.5999999940395","","","19","3929","2430","&#9733;","elianto","#3366ff99","-1"," ","0","0","[1705.9000000059605]","1","1","","","3929","1","2","2","win","no-go","0"
"pit-trial","119","849272","0.0-5.0","battery-v0.2","","""event"",""trial"",""time""
""fullscreenenter"",""1"",""1333""
""fullscreenexit"",""7"",""105238""
","
","
","""event"",""trial"",""time""
""fullscreenenter"",""1"",""1333""
","""event"",""trial"",""time""
""fullscreenexit"",""7"",""105238""
","","","814.5","","","19","3929","2430","&#9730;","elianto","#3366ff99"," "," ","1","+10","[1668.699999988079]","1","1","","","3929","2","1","1","win","go","0"
"pit-trial","120","853347","0.0-6.0","battery-v0.2","","""event"",""trial"",""time""
""fullscreenenter"",""1"",""1333""
""fullscreenexit"",""7"",""105238""
","
","
","""event"",""trial"",""time""
""fullscreenenter"",""1"",""1333""
","""event"",""trial"",""time""
""fullscreenexit"",""7"",""105238""
","","","1211.300000011921","","","19","3929","2430","&#9752;","elianto","#f73b6a7A"," "," ","1","0","[2062.2000000178814]","1","1","","","3929","3","3","3","lose","go","0"
"pit-trial","121","857151","0.0-7.0","battery-v0.2","","""event"",""trial"",""time""
""fullscreenenter"",""1"",""1333""
""fullscreenexit"",""7"",""105238""
","
","
","""event"",""trial"",""time""
""fullscreenenter"",""1"",""1333""
","""event"",""trial"",""time""
""fullscreenexit"",""7"",""105238""
","","","934.2999999821186","","","19","3929","2430","&#9728;","elianto","#f73b6a7A","-1"," ","0","0","[1787.2999999821186]","1","1","","","3929","4","0","4","lose","no-go","1"
"pit-trial","122","862034","0.0-8.0","battery-v0.2","","""event"",""trial"",""time""
""fullscreenenter"",""1"",""1333""
""fullscreenexit"",""7"",""105238""
","
","
","""event"",""trial"",""time""
""fullscreenenter"",""1"",""1333""
","""event"",""trial"",""time""
""fullscreenexit"",""7"",""105238""
","","","-1","","","19","3929","2430","&#9733;","elianto","#3366ff99","-1","-1","1","+10","[]","0","1","","","3929","5","2","2","win","no-go","0"
"pit-trial","123","865739","0.0-9.0","battery-v0.2","","""event"",""trial"",""time""
""fullscreenenter"",""1"",""1333""
""fullscreenexit"",""7"",""105238""
","
","
","""event"",""trial"",""time""
""fullscreenenter"",""1"",""1333""
","""event"",""trial"",""time""
""fullscreenexit"",""7"",""105238""
","","","845.9000000059605","","","19","3929","2430","&#9730;","elianto","#3366ff99"," "," ","1","+10","[1700.5]","1","1","","","3929","6","1","1","win","go","0"
"pit-trial","124","870619","0.0-10.0","battery-v0.2","","""event"",""trial"",""time""
""fullscreenenter"",""1"",""1333""
""fullscreenexit"",""7"",""105238""
","
","
","""event"",""trial"",""time""
""fullscreenenter"",""1"",""1333""
","""event"",""trial"",""time""
""fullscreenexit"",""7"",""105238""
","","","-1","","","19","3929","2430","&#9728;","elianto","#f73b6a7A","-1","-1","1","0","[]","0","1","","","3929","7","0","4","lose","no-go","0"
"pit-trial","125","874850","0.0-11.0","battery-v0.2","","""event"",""trial"",""time""
""fullscreenenter"",""1"",""1333""
""fullscreenexit"",""7"",""105238""
","
","
","""event"",""trial"",""time""
""fullscreenenter"",""1"",""1333""
","""event"",""trial"",""time""
""fullscreenexit"",""7"",""105238""
","","","1374","","","19","3929","2430","&#9752;","elianto","#f73b6a7A"," "," ","1","0","[2227.5]","1","1","","","3929","8","3","3","lose","go","0"
"pit-trial","126","879714","0.0-12.0","battery-v0.2","","""event"",""trial"",""time""
""fullscreenenter"",""1"",""1333""
""fullscreenexit"",""7"",""105238""
","
","
","""event"",""trial"",""time""
""fullscreenenter"",""1"",""1333""
","""event"",""trial"",""time""
""fullscreenexit"",""7"",""105238""
","","","-1","","","19","3929","2430","&#9728;","elianto","#f73b6a7A","-1","-1","1","-10","[]","0","1","","","3929","9","0","4","lose","no-go","1"
"pit-trial","127","883354","0.0-13.0","battery-v0.2","","""event"",""trial"",""time""
""fullscreenenter"",""1"",""1333""
""fullscreenexit"",""7"",""105238""
","
","
","""event"",""trial"",""time""
""fullscreenenter"",""1"",""1333""
","""event"",""trial"",""time""
""fullscreenexit"",""7"",""105238""
","","","782.3000000119209","","","19","3929","2430","&#9730;","elianto","#3366ff99"," "," ","1","+10","[1636.7000000178814]","1","1","","","3929","10","1","1","win","go","0"
"pit-trial","128","888218","0.0-14.0","battery-v0.2","","""event"",""trial"",""time""
""fullscreenenter"",""1"",""1333""
""fullscreenexit"",""7"",""105238""
","
","
","""event"",""trial"",""time""
""fullscreenenter"",""1"",""1333""
","""event"",""trial"",""time""
""fullscreenexit"",""7"",""105238""
","","","-1","","","19","3929","2430","&#9733;","elianto","#3366ff99","-1","-1","1","0","[]","0","1","","","3929","11","2","2","win","no-go","1"
"pit-trial","129","893082","0.0-15.0","battery-v0.2","","""event"",""trial"",""time""
""fullscreenenter"",""1"",""1333""
""fullscreenexit"",""7"",""105238""
","
","
","""event"",""trial"",""time""
""fullscreenenter"",""1"",""1333""
","""event"",""trial"",""time""
""fullscreenexit"",""7"",""105238""
","","","-1","","","19","3929","2430","&#9752;","elianto","#f73b6a7A"," ","-1","0","0","[]","0","1","","","3929","12","3","3","lose","go","1"
"pit-trial","130","896721","0.0-16.0","battery-v0.2","","""event"",""trial"",""time""
""fullscreenenter"",""1"",""1333""
""fullscreenexit"",""7"",""105238""
","
","
","""event"",""trial"",""time""
""fullscreenenter"",""1"",""1333""
","""event"",""trial"",""time""
""fullscreenexit"",""7"",""105238""
","","","786","","","19","3929","2430","&#9730;","elianto","#3366ff99"," "," ","1","+10","[1636.199999988079]","1","1","","","3929","13","1","1","win","go","0"
"pit-trial","131","901595","0.0-17.0","battery-v0.2","","""event"",""trial"",""time""
""fullscreenenter"",""1"",""1333""
""fullscreenexit"",""7"",""105238""
","
","
","""event"",""trial"",""time""
""fullscreenenter"",""1"",""1333""
","""event"",""trial"",""time""
""fullscreenexit"",""7"",""105238""
","","","-1","","","19","3929","2430","&#9752;","elianto","#f73b6a7A"," ","-1","0","-10","[]","0","1","","","3929","14","3","3","lose","go","0"
"pit-trial","132","906458","0.0-18.0","battery-v0.2","","""event"",""trial"",""time""
""fullscreenenter"",""1"",""1333""
""fullscreenexit"",""7"",""105238""
","
","
","""event"",""trial"",""time""
""fullscreenenter"",""1"",""1333""
","""event"",""trial"",""time""
""fullscreenexit"",""7"",""105238""
","","","-1","","","19","3929","2430","&#9733;","elianto","#3366ff99","-1","-1","1","+10","[]","0","1","","","3929","15","2","2","win","no-go","0"
"pit-trial","133","911153","0.0-19.0","battery-v0.2","","""event"",""trial"",""time""
""fullscreenenter"",""1"",""1333""
""fullscreenexit"",""7"",""105238""
","
","
","""event"",""trial"",""time""
""fullscreenenter"",""1"",""1333""
","""event"",""trial"",""time""
""fullscreenexit"",""7"",""105238""
","","","1837","","","19","3929","2430","&#9728;","elianto","#f73b6a7A","-1"," ","0","0","[2691.7999999821186]","1","1","","","3929","16","0","4","lose","no-go","1"
"pit-trial","134","914738","0.0-20.0","battery-v0.2","","""event"",""trial"",""time""
""fullscreenenter"",""1"",""1333""
""fullscreenexit"",""7"",""105238""
","
","
","""event"",""trial"",""time""
""fullscreenenter"",""1"",""1333""
","""event"",""trial"",""time""
""fullscreenexit"",""7"",""105238""
","","","728.6999999880791","","","19","3929","2430","&#9730;","elianto","#3366ff99"," "," ","1","+10","[1579.4000000059605]","1","1","","","3929","17","1","1","win","go","0"
"pit-trial","135","918265","0.0-21.0","battery-v0.2","","""event"",""trial"",""time""
""fullscreenenter"",""1"",""1333""
""fullscreenexit"",""7"",""105238""
","
","
","""event"",""trial"",""time""
""fullscreenenter"",""1"",""1333""
","""event"",""trial"",""time""
""fullscreenexit"",""7"",""105238""
","","","669","","","19","3929","2430","&#9752;","elianto","#f73b6a7A"," "," ","1","-10","[1523.4000000059605]","1","1","","","3929","18","3","3","lose","go","1"
"pit-trial","136","922460","0.0-22.0","battery-v0.2","","""event"",""trial"",""time""
""fullscreenenter"",""1"",""1333""
""fullscreenexit"",""7"",""105238""
","
","
","""event"",""trial"",""time""
""fullscreenenter"",""1"",""1333""
","""event"",""trial"",""time""
""fullscreenexit"",""7"",""105238""
","","","1338.5","","","19","3929","2430","&#9728;","elianto","#f73b6a7A","-1"," ","0","-10","[2189.699999988079]","1","1","","","3929","19","0","4","lose","no-go","0"
"pit-trial","137","927321","0.0-23.0","battery-v0.2","","""event"",""trial"",""time""
""fullscreenenter"",""1"",""1333""
""fullscreenexit"",""7"",""105238""
","
","
","""event"",""trial"",""time""
""fullscreenenter"",""1"",""1333""
","""event"",""trial"",""time""
""fullscreenexit"",""7"",""105238""
","","","-1","","","19","3929","2430","&#9733;","elianto","#3366ff99","-1","-1","1","+10","[]","0","1","","","3929","20","2","2","win","no-go","0"
"pit-instructions","138","940042","0.0-24.0","battery-v0.2","","""event"",""trial"",""time""
""fullscreenenter"",""1"",""1333""
""fullscreenexit"",""7"",""105238""
","
","
","""event"",""trial"",""time""
""fullscreenenter"",""1"",""1333""
","""event"",""trial"",""time""
""fullscreenexit"",""7"",""105238""
","","[{""page_index"":0,""viewing_time"":5635.0999999940395},{""page_index"":1,""viewing_time"":7085.300000011921}]","12720.699999988079","","","","","","","","","","","","","","","","","","","","","","","",""
"pit-trial","139","943822","0.0-25.0","battery-v0.2","","""event"",""trial"",""time""
""fullscreenenter"",""1"",""1333""
""fullscreenexit"",""7"",""105238""
","
","
","""event"",""trial"",""time""
""fullscreenenter"",""1"",""1333""
","""event"",""trial"",""time""
""fullscreenexit"",""7"",""105238""
","","","917.5","","","19","3929","2430","g","elianto","#f73b6a7A"," "," ","1","0","[1770.2999999821186]","1","2","","","3929","21","3","3","lose","go","0"
"pit-trial","140","948703","0.0-26.0","battery-v0.2","","""event"",""trial"",""time""
""fullscreenenter"",""1"",""1333""
""fullscreenexit"",""7"",""105238""
","
","
","""event"",""trial"",""time""
""fullscreenenter"",""1"",""1333""
","""event"",""trial"",""time""
""fullscreenexit"",""7"",""105238""
","","","-1","","","19","3929","2430","a","elianto","#f73b6a7A","-1","-1","1","0","[]","0","2","","","3929","22","2","4","lose","no-go","0"
"pit-trial","141","952411","0.0-27.0","battery-v0.2","","""event"",""trial"",""time""
""fullscreenenter"",""1"",""1333""
""fullscreenexit"",""7"",""105238""
","
","
","""event"",""trial"",""time""
""fullscreenenter"",""1"",""1333""
","""event"",""trial"",""time""
""fullscreenexit"",""7"",""105238""
","","","845.7999999821186","","","19","3929","2430","l","elianto","#3366ff99"," "," ","1","0","[1702.3999999761581]","1","2","","","3929","23","1","1","win","go","1"
"pit-trial","142","956381","0.0-28.0","battery-v0.2","","""event"",""trial"",""time""
""fullscreenenter"",""1"",""1333""
""fullscreenexit"",""7"",""105238""
","
","
","""event"",""trial"",""time""
""fullscreenenter"",""1"",""1333""
","""event"",""trial"",""time""
""fullscreenexit"",""7"",""105238""
","","","1101.5","","","19","3929","2430","u","elianto","#f73b6a7A","-1"," ","0","-10","[1954]","1","2","","","3929","24","0","4","lose","no-go","0"
"pit-trial","143","961264","0.0-29.0","battery-v0.2","","""event"",""trial"",""time""
""fullscreenenter"",""1"",""1333""
""fullscreenexit"",""7"",""105238""
","
","
","""event"",""trial"",""time""
""fullscreenenter"",""1"",""1333""
","""event"",""trial"",""time""
""fullscreenexit"",""7"",""105238""
","","","-1","","","19","3929","2430","l","elianto","#3366ff99"," ","-1","0","0","[]","0","2","","","3929","25","1","1","win","go","0"
"pit-trial","144","966132","0.0-30.0","battery-v0.2","","""event"",""trial"",""time""
""fullscreenenter"",""1"",""1333""
""fullscreenexit"",""7"",""105238""
","
","
","""event"",""trial"",""time""
""fullscreenenter"",""1"",""1333""
","""event"",""trial"",""time""
""fullscreenexit"",""7"",""105238""
","","","-1","","","19","3929","2430","a","elianto","#f73b6a7A","-1","-1","1","0","[]","0","2","","","3929","26","2","4","lose","no-go","0"
"pit-trial","145","971002","0.0-31.0","battery-v0.2","","""event"",""trial"",""time""
""fullscreenenter"",""1"",""1333""
""fullscreenexit"",""7"",""105238""
","
","
","""event"",""trial"",""time""
""fullscreenenter"",""1"",""1333""
","""event"",""trial"",""time""
""fullscreenexit"",""7"",""105238""
","","","-1","","","19","3929","2430","u","elianto","#f73b6a7A","-1","-1","1","-10","[]","0","2","","","3929","27","0","4","lose","no-go","1"
"pit-trial","146","975866","0.0-32.0","battery-v0.2","","""event"",""trial"",""time""
""fullscreenenter"",""1"",""1333""
""fullscreenexit"",""7"",""105238""
","
","
","""event"",""trial"",""time""
""fullscreenenter"",""1"",""1333""
","""event"",""trial"",""time""
""fullscreenexit"",""7"",""105238""
","","","-1","","","19","3929","2430","g","elianto","#f73b6a7A"," ","-1","0","-10","[]","0","2","","","3929","28","3","3","lose","go","0"
"pit-trial","147","979858","0.0-33.0","battery-v0.2","","""event"",""trial"",""time""
""fullscreenenter"",""1"",""1333""
""fullscreenexit"",""7"",""105238""
","
","
","""event"",""trial"",""time""
""fullscreenenter"",""1"",""1333""
","""event"",""trial"",""time""
""fullscreenexit"",""7"",""105238""
","","","1127.5","","","19","3929","2430","g","elianto","#f73b6a7A"," "," ","1","0","[1979.4000000059605]","1","2","","","3929","29","3","3","lose","go","0"
"pit-trial","148","983795","0.0-34.0","battery-v0.2","","""event"",""trial"",""time""
""fullscreenenter"",""1"",""1333""
""fullscreenexit"",""7"",""105238""
","
","
","""event"",""trial"",""time""
""fullscreenenter"",""1"",""1333""
","""event"",""trial"",""time""
""fullscreenexit"",""7"",""105238""
","","","1078.0999999940395","","","19","3929","2430","u","elianto","#f73b6a7A","-1"," ","0","-10","[1932.2999999821186]","1","2","","","3929","30","0","4","lose","no-go","0"
"pit-trial","149","987794","0.0-35.0","battery-v0.2","","""event"",""trial"",""time""
""fullscreenenter"",""1"",""1333""
""fullscreenexit"",""7"",""105238""
","
","
","""event"",""trial"",""time""
""fullscreenenter"",""1"",""1333""
","""event"",""trial"",""time""
""fullscreenexit"",""7"",""105238""
","","","1142.9000000059605","","","19","3929","2430","l","elianto","#3366ff99"," "," ","1","0","[1995.2999999821186]","1","2","","","3929","31","1","1","win","go","1"
"pit-trial","150","992658","0.0-36.0","battery-v0.2","","""event"",""trial"",""time""
""fullscreenenter"",""1"",""1333""
""fullscreenexit"",""7"",""105238""
","
","
","""event"",""trial"",""time""
""fullscreenenter"",""1"",""1333""
","""event"",""trial"",""time""
""fullscreenexit"",""7"",""105238""
","","","-1","","","19","3929","2430","a","elianto","#f73b6a7A","-1","-1","1","0","[]","0","2","","","3929","32","2","4","lose","no-go","0"
"pit-trial","151","996370","0.0-37.0","battery-v0.2","","""event"",""trial"",""time""
""fullscreenenter"",""1"",""1333""
""fullscreenexit"",""7"",""105238""
","
","
","""event"",""trial"",""time""
""fullscreenenter"",""1"",""1333""
","""event"",""trial"",""time""
""fullscreenexit"",""7"",""105238""
","","","857.5999999940395","","","19","3929","2430","l","elianto","#3366ff99"," "," ","1","+10","[1707.8999999761581]","1","2","","","3929","33","1","1","win","go","0"
"pit-trial","152","1001241","0.0-38.0","battery-v0.2","","""event"",""trial"",""time""
""fullscreenenter"",""1"",""1333""
""fullscreenexit"",""7"",""105238""
","
","
","""event"",""trial"",""time""
""fullscreenenter"",""1"",""1333""
","""event"",""trial"",""time""
""fullscreenexit"",""7"",""105238""
","","","-1","","","19","3929","2430","a","elianto","#f73b6a7A","-1","-1","1","-10","[]","0","2","","","3929","34","2","4","lose","no-go","1"
"pit-trial","153","1006106","0.0-39.0","battery-v0.2","","""event"",""trial"",""time""
""fullscreenenter"",""1"",""1333""
""fullscreenexit"",""7"",""105238""
","
","
","""event"",""trial"",""time""
""fullscreenenter"",""1"",""1333""
","""event"",""trial"",""time""
""fullscreenexit"",""7"",""105238""
","","","-1","","","19","3929","2430","g","elianto","#f73b6a7A"," ","-1","0","-10","[]","0","2","","","3929","35","3","3","lose","go","0"
"pit-trial","154","1010098","0.0-40.0","battery-v0.2","","""event"",""trial"",""time""
""fullscreenenter"",""1"",""1333""
""fullscreenexit"",""7"",""105238""
","
","
","""event"",""trial"",""time""
""fullscreenenter"",""1"",""1333""
","""event"",""trial"",""time""
""fullscreenexit"",""7"",""105238""
","","","1132.2999999821186","","","19","3929","2430","u","elianto","#f73b6a7A","-1"," ","0","-10","[1987.199999988079]","1","2","","","3929","36","0","4","lose","no-go","0"
"pit-trial","155","1014976","0.0-41.0","battery-v0.2","","""event"",""trial"",""time""
""fullscreenenter"",""1"",""1333""
""fullscreenexit"",""7"",""105238""
","
","
","""event"",""trial"",""time""
""fullscreenenter"",""1"",""1333""
","""event"",""trial"",""time""
""fullscreenexit"",""7"",""105238""
","","","-1","","","19","3929","2430","u","elianto","#f73b6a7A","-1","-1","1","-10","[]","0","2","","","3929","37","0","4","lose","no-go","1"
"pit-trial","156","1018530","0.0-42.0","battery-v0.2","","""event"",""trial"",""time""
""fullscreenenter"",""1"",""1333""
""fullscreenexit"",""7"",""105238""
","
","
","""event"",""trial"",""time""
""fullscreenenter"",""1"",""1333""
","""event"",""trial"",""time""
""fullscreenexit"",""7"",""105238""
","","","696.7000000178814","","","19","3929","2430","g","elianto","#f73b6a7A"," "," ","1","0","[1549.8999999761581]","1","2","","","3929","38","3","3","lose","go","0"
"pit-trial","157","1022210","0.0-43.0","battery-v0.2","","""event"",""trial"",""time""
""fullscreenenter"",""1"",""1333""
""fullscreenexit"",""7"",""105238""
","
","
","""event"",""trial"",""time""
""fullscreenenter"",""1"",""1333""
","""event"",""trial"",""time""
""fullscreenexit"",""7"",""105238""
","","","821.8999999761581","","","19","3929","2430","l","elianto","#3366ff99"," "," ","1","+10","[1676.0999999940395]","1","2","","","3929","39","1","1","win","go","0"
"pit-trial","158","1027086","0.0-44.0","battery-v0.2","","""event"",""trial"",""time""
""fullscreenenter"",""1"",""1333""
""fullscreenexit"",""7"",""105238""
","
","
","""event"",""trial"",""time""
""fullscreenenter"",""1"",""1333""
","""event"",""trial"",""time""
""fullscreenexit"",""7"",""105238""
","","","-1","","","19","3929","2430","a","elianto","#f73b6a7A","-1","-1","1","0","[]","0","2","","","3929","40","2","4","lose","no-go","0"
"pit-trial","159","1031954","0.0-45.0","battery-v0.2","","""event"",""trial"",""time""
""fullscreenenter"",""1"",""1333""
""fullscreenexit"",""7"",""105238""
","
","
","""event"",""trial"",""time""
""fullscreenenter"",""1"",""1333""
","""event"",""trial"",""time""
""fullscreenexit"",""7"",""105238""
","","","-1","","","19","3929","2430","a","elianto","#f73b6a7A","-1","-1","1","-10","[]","0","2","","","3929","41","2","4","lose","no-go","1"
"pit-trial","160","1035675","0.0-46.0","battery-v0.2","","""event"",""trial"",""time""
""fullscreenenter"",""1"",""1333""
""fullscreenexit"",""7"",""105238""
","
","
","""event"",""trial"",""time""
""fullscreenenter"",""1"",""1333""
","""event"",""trial"",""time""
""fullscreenexit"",""7"",""105238""
","","","858.5","","","19","3929","2430","l","elianto","#3366ff99"," "," ","1","0","[1709.5999999940395]","1","2","","","3929","42","1","1","win","go","1"
"pit-trial","161","1039642","0.0-47.0","battery-v0.2","","""event"",""trial"",""time""
""fullscreenenter"",""1"",""1333""
""fullscreenexit"",""7"",""105238""
","
","
","""event"",""trial"",""time""
""fullscreenenter"",""1"",""1333""
","""event"",""trial"",""time""
""fullscreenexit"",""7"",""105238""
","","","1109.5999999940395","","","19","3929","2430","u","elianto","#f73b6a7A","-1"," ","0","0","[1962.800000011921]","1","2","","","3929","43","0","4","lose","no-go","1"
"pit-trial","162","1043123","0.0-48.0","battery-v0.2","","""event"",""trial"",""time""
""fullscreenenter"",""1"",""1333""
""fullscreenexit"",""7"",""105238""
","
","
","""event"",""trial"",""time""
""fullscreenenter"",""1"",""1333""
","""event"",""trial"",""time""
""fullscreenexit"",""7"",""105238""
","","","621.3000000119209","","","19","3929","2430","g","elianto","#f73b6a7A"," "," ","1","0","[1475.5]","1","2","","","3929","44","3","3","lose","go","0"
"pit-trial","163","1046804","0.0-49.0","battery-v0.2","","""event"",""trial"",""time""
""fullscreenenter"",""1"",""1333""
""fullscreenexit"",""7"",""105238""
","
","
","""event"",""trial"",""time""
""fullscreenenter"",""1"",""1333""
","""event"",""trial"",""time""
""fullscreenexit"",""7"",""105238""
","","","821.7000000178814","","","19","3929","2430","g","elianto","#f73b6a7A"," "," ","1","0","[1675.5999999940395]","1","2","","","3929","45","3","3","lose","go","0"
"pit-trial","164","1051665","0.0-50.0","battery-v0.2","","""event"",""trial"",""time""
""fullscreenenter"",""1"",""1333""
""fullscreenexit"",""7"",""105238""
","
","
","""event"",""trial"",""time""
""fullscreenenter"",""1"",""1333""
","""event"",""trial"",""time""
""fullscreenexit"",""7"",""105238""
","","","-1","","","19","3929","2430","u","elianto","#f73b6a7A","-1","-1","1","0","[]","0","2","","","3929","46","0","4","lose","no-go","0"
"pit-trial","165","1055673","0.0-51.0","battery-v0.2","","""event"",""trial"",""time""
""fullscreenenter"",""1"",""1333""
""fullscreenexit"",""7"",""105238""
","
","
","""event"",""trial"",""time""
""fullscreenenter"",""1"",""1333""
","""event"",""trial"",""time""
""fullscreenexit"",""7"",""105238""
","","","1148.9000000059605","","","19","3929","2430","a","elianto","#f73b6a7A","-1"," ","0","-10","[2004]","1","2","","","3929","47","2","4","lose","no-go","0"
"pit-trial","166","1059386","0.0-52.0","battery-v0.2","","""event"",""trial"",""time""
""fullscreenenter"",""1"",""1333""
""fullscreenexit"",""7"",""105238""
","
","
","""event"",""trial"",""time""
""fullscreenenter"",""1"",""1333""
","""event"",""trial"",""time""
""fullscreenexit"",""7"",""105238""
","","","856.1999999880791","","","19","3929","2430","p","elianto","#3366ff99","-1"," ","0","+10","[1707.7999999821186]","1","2","","","3929","48","4","2","win","no-go","1"
"pit-trial","167","1063414","0.0-53.0","battery-v0.2","","""event"",""trial"",""time""
""fullscreenenter"",""1"",""1333""
""fullscreenexit"",""7"",""105238""
","
","
","""event"",""trial"",""time""
""fullscreenenter"",""1"",""1333""
","""event"",""trial"",""time""
""fullscreenexit"",""7"",""105238""
","","","1159.5","","","19","3929","2430","g","elianto","#f73b6a7A"," "," ","1","-10","[2012]","1","2","","","3929","49","3","3","lose","go","1"
"pit-trial","168","1067482","0.0-54.0","battery-v0.2","","""event"",""trial"",""time""
""fullscreenenter"",""1"",""1333""
""fullscreenexit"",""7"",""105238""
","
","
","""event"",""trial"",""time""
""fullscreenenter"",""1"",""1333""
","""event"",""trial"",""time""
""fullscreenexit"",""7"",""105238""
","","","1208.800000011921","","","19","3929","2430","u","elianto","#f73b6a7A","-1"," ","0","-10","[2063.800000011921]","1","2","","","3929","50","0","4","lose","no-go","0"
"pit-trial","169","1071146","0.0-55.0","battery-v0.2","","""event"",""trial"",""time""
""fullscreenenter"",""1"",""1333""
""fullscreenexit"",""7"",""105238""
","
","
","""event"",""trial"",""time""
""fullscreenenter"",""1"",""1333""
","""event"",""trial"",""time""
""fullscreenexit"",""7"",""105238""
","","","807.6000000238419","","","19","3929","2430","p","elianto","#3366ff99","-1"," ","0","0","[1659.7000000178814]","1","2","","","3929","51","4","2","win","no-go","0"
"pit-trial","170","1074698","0.0-56.0","battery-v0.2","","""event"",""trial"",""time""
""fullscreenenter"",""1"",""1333""
""fullscreenexit"",""7"",""105238""
","
","
","""event"",""trial"",""time""
""fullscreenenter"",""1"",""1333""
","""event"",""trial"",""time""
""fullscreenexit"",""7"",""105238""
","","","696.8000000119209","","","19","3929","2430","l","elianto","#3366ff99"," "," ","1","+10","[1548.699999988079]","1","2","","","3929","52","1","1","win","go","0"
"pit-trial","171","1079562","0.0-57.0","battery-v0.2","","""event"",""trial"",""time""
""fullscreenenter"",""1"",""1333""
""fullscreenexit"",""7"",""105238""
","
","
","""event"",""trial"",""time""
""fullscreenenter"",""1"",""1333""
","""event"",""trial"",""time""
""fullscreenexit"",""7"",""105238""
","","","-1","","","19","3929","2430","u","elianto","#f73b6a7A","-1","-1","1","0","[]","0","2","","","3929","53","0","4","lose","no-go","0"
"pit-trial","172","1083081","0.0-58.0","battery-v0.2","","""event"",""trial"",""time""
""fullscreenenter"",""1"",""1333""
""fullscreenexit"",""7"",""105238""
","
","
","""event"",""trial"",""time""
""fullscreenenter"",""1"",""1333""
","""event"",""trial"",""time""
""fullscreenexit"",""7"",""105238""
","","","661.2999999821186","","","19","3929","2430","l","elianto","#3366ff99"," "," ","1","+10","[1515]","1","2","","","3929","54","1","1","win","go","0"
"pit-trial","173","1086834","0.0-59.0","battery-v0.2","","""event"",""trial"",""time""
""fullscreenenter"",""1"",""1333""
""fullscreenexit"",""7"",""105238""
","
","
","""event"",""trial"",""time""
""fullscreenenter"",""1"",""1333""
","""event"",""trial"",""time""
""fullscreenexit"",""7"",""105238""
","","","893.6999999880791","","","19","3929","2430","p","elianto","#3366ff99","-1"," ","0","0","[1748.7999999821186]","1","2","","","3929","55","4","2","win","no-go","0"
"pit-trial","174","1091602","0.0-60.0","battery-v0.2","","""event"",""trial"",""time""
""fullscreenenter"",""1"",""1333""
""fullscreenexit"",""7"",""105238""
","
","
","""event"",""trial"",""time""
""fullscreenenter"",""1"",""1333""
","""event"",""trial"",""time""
""fullscreenexit"",""7"",""105238""
","","","1908.9000000059605","","","19","3929","2430","a","elianto","#f73b6a7A","-1"," ","0","0","[2762.800000011921]","1","2","","","3929","56","2","4","lose","no-go","1"
"pit-trial","175","1096471","0.0-61.0","battery-v0.2","","""event"",""trial"",""time""
""fullscreenenter"",""1"",""1333""
""fullscreenexit"",""7"",""105238""
","
","
","""event"",""trial"",""time""
""fullscreenenter"",""1"",""1333""
","""event"",""trial"",""time""
""fullscreenexit"",""7"",""105238""
","","","-1","","","19","3929","2430","u","elianto","#f73b6a7A","-1","-1","1","-10","[]","0","2","","","3929","57","0","4","lose","no-go","1"
"pit-trial","176","1100034","0.0-62.0","battery-v0.2","","""event"",""trial"",""time""
""fullscreenenter"",""1"",""1333""
""fullscreenexit"",""7"",""105238""
","
","
","""event"",""trial"",""time""
""fullscreenenter"",""1"",""1333""
","""event"",""trial"",""time""
""fullscreenexit"",""7"",""105238""
","","","701.9000000059605","","","19","3929","2430","l","elianto","#3366ff99"," "," ","1","+10","[1557.699999988079]","1","2","","","3929","58","1","1","win","go","0"
"pit-trial","177","1103706","0.0-63.0","battery-v0.2","","""event"",""trial"",""time""
""fullscreenenter"",""1"",""1333""
""fullscreenexit"",""7"",""105238""
","
","
","""event"",""trial"",""time""
""fullscreenenter"",""1"",""1333""
","""event"",""trial"",""time""
""fullscreenexit"",""7"",""105238""
","","","813.1999999880791","","","19","3929","2430","p","elianto","#3366ff99","-1"," ","0","0","[1666.3999999761581]","1","2","","","3929","59","4","2","win","no-go","0"
"pit-trial","178","1107577","0.0-64.0","battery-v0.2","","""event"",""trial"",""time""
""fullscreenenter"",""1"",""1333""
""fullscreenexit"",""7"",""105238""
","
","
","""event"",""trial"",""time""
""fullscreenenter"",""1"",""1333""
","""event"",""trial"",""time""
""fullscreenexit"",""7"",""105238""
","","","1013.6999999880791","","","19","3929","2430","g","elianto","#f73b6a7A"," "," ","1","0","[1867.5999999940395]","1","2","","","3929","60","3","3","lose","go","0"
"pit-trial","179","1111169","0.0-65.0","battery-v0.2","","""event"",""trial"",""time""
""fullscreenenter"",""1"",""1333""
""fullscreenexit"",""7"",""105238""
","
","
","""event"",""trial"",""time""
""fullscreenenter"",""1"",""1333""
","""event"",""trial"",""time""
""fullscreenexit"",""7"",""105238""
","","","737.0999999940395","","","19","3929","2430","l","elianto","#3366ff99"," "," ","1","+10","[1588]","1","2","","","3929","61","1","1","win","go","0"
"pit-trial","180","1116033","0.0-66.0","battery-v0.2","","""event"",""trial"",""time""
""fullscreenenter"",""1"",""1333""
""fullscreenexit"",""7"",""105238""
","
","
","""event"",""trial"",""time""
""fullscreenenter"",""1"",""1333""
","""event"",""trial"",""time""
""fullscreenexit"",""7"",""105238""
","","","-1","","","19","3929","2430","p","elianto","#3366ff99","-1","-1","1","0","[]","0","2","","","3929","62","4","2","win","no-go","1"
"pit-trial","181","1120666","0.0-67.0","battery-v0.2","","""event"",""trial"",""time""
""fullscreenenter"",""1"",""1333""
""fullscreenexit"",""7"",""105238""
","
","
","""event"",""trial"",""time""
""fullscreenenter"",""1"",""1333""
","""event"",""trial"",""time""
""fullscreenexit"",""7"",""105238""
","","","1774.5","","","19","3929","2430","a","elianto","#f73b6a7A","-1"," ","0","0","[2628.199999988079]","1","2","","","3929","63","2","4","lose","no-go","1"
"pit-trial","182","1124466","0.0-68.0","battery-v0.2","","""event"",""trial"",""time""
""fullscreenenter"",""1"",""1333""
""fullscreenexit"",""7"",""105238""
","
","
","""event"",""trial"",""time""
""fullscreenenter"",""1"",""1333""
","""event"",""trial"",""time""
""fullscreenexit"",""7"",""105238""
","","","941.0999999940395","","","19","3929","2430","g","elianto","#f73b6a7A"," "," ","1","-10","[1794.7000000178814]","1","2","","","3929","64","3","3","lose","go","1"
"pit-trial","183","1128929","0.0-69.0","battery-v0.2","","""event"",""trial"",""time""
""fullscreenenter"",""1"",""1333""
""fullscreenexit"",""7"",""105238""
","
","
","""event"",""trial"",""time""
""fullscreenenter"",""1"",""1333""
","""event"",""trial"",""time""
""fullscreenexit"",""7"",""105238""
","","","1606.2999999821186","","","19","3929","2430","l","elianto","#3366ff99"," "," ","1","+10","[2459.2999999821186]","1","2","","","3929","65","1","1","win","go","0"
"pit-trial","184","1133794","0.0-70.0","battery-v0.2","","""event"",""trial"",""time""
""fullscreenenter"",""1"",""1333""
""fullscreenexit"",""7"",""105238""
","
","
","""event"",""trial"",""time""
""fullscreenenter"",""1"",""1333""
","""event"",""trial"",""time""
""fullscreenexit"",""7"",""105238""
","","","-1","","","19","3929","2430","g","elianto","#f73b6a7A"," ","-1","0","-10","[]","0","2","","","3929","66","3","3","lose","go","0"
"pit-trial","185","1137522","0.0-71.0","battery-v0.2","","""event"",""trial"",""time""
""fullscreenenter"",""1"",""1333""
""fullscreenexit"",""7"",""105238""
","
","
","""event"",""trial"",""time""
""fullscreenenter"",""1"",""1333""
","""event"",""trial"",""time""
""fullscreenexit"",""7"",""105238""
","","","871.1999999880791","","","19","3929","2430","a","elianto","#f73b6a7A","-1"," ","0","0","[1723.9000000059605]","1","2","","","3929","67","2","4","lose","no-go","1"
"pit-trial","186","1141105","0.0-72.0","battery-v0.2","","""event"",""trial"",""time""
""fullscreenenter"",""1"",""1333""
""fullscreenexit"",""7"",""105238""
","
","
","""event"",""trial"",""time""
""fullscreenenter"",""1"",""1333""
","""event"",""trial"",""time""
""fullscreenexit"",""7"",""105238""
","","","725.4000000059605","","","19","3929","2430","p","elianto","#3366ff99","-1"," ","0","0","[1579.300000011921]","1","2","","","3929","68","4","2","win","no-go","0"
"pit-trial","187","1144952","0.0-73.0","battery-v0.2","","""event"",""trial"",""time""
""fullscreenenter"",""1"",""1333""
""fullscreenexit"",""7"",""105238""
","
","
","""event"",""trial"",""time""
""fullscreenenter"",""1"",""1333""
","""event"",""trial"",""time""
""fullscreenexit"",""7"",""105238""
","","","974","","","19","3929","2430","g","elianto","#f73b6a7A"," "," ","1","-10","[1827.8999999761581]","1","2","","","3929","69","3","3","lose","go","1"
"pit-trial","188","1148506","0.0-74.0","battery-v0.2","","""event"",""trial"",""time""
""fullscreenenter"",""1"",""1333""
""fullscreenexit"",""7"",""105238""
","
","
","""event"",""trial"",""time""
""fullscreenenter"",""1"",""1333""
","""event"",""trial"",""time""
""fullscreenexit"",""7"",""105238""
","","","694.1999999880791","","","19","3929","2430","l","elianto","#3366ff99"," "," ","1","+10","[1549.7999999821186]","1","2","","","3929","70","1","1","win","go","0"
"pit-trial","189","1152157","0.0-75.0","battery-v0.2","","""event"",""trial"",""time""
""fullscreenenter"",""1"",""1333""
""fullscreenexit"",""7"",""105238""
","
","
","""event"",""trial"",""time""
""fullscreenenter"",""1"",""1333""
","""event"",""trial"",""time""
""fullscreenexit"",""7"",""105238""
","","","792.2000000178814","","","19","3929","2430","p","elianto","#3366ff99","-1"," ","0","0","[1643]","1","2","","","3929","71","4","2","win","no-go","0"
"pit-trial","190","1156194","0.0-76.0","battery-v0.2","","""event"",""trial"",""time""
""fullscreenenter"",""1"",""1333""
""fullscreenexit"",""7"",""105238""
","
","
","""event"",""trial"",""time""
""fullscreenenter"",""1"",""1333""
","""event"",""trial"",""time""
""fullscreenexit"",""7"",""105238""
","","","1165","","","19","3929","2430","s","elianto","#3366ff99"," "," ","1","+10","[2023.7999999821186]","1","2","","","3929","72","5","1","win","go","0"
"pit-trial","191","1161057","0.0-77.0","battery-v0.2","","""event"",""trial"",""time""
""fullscreenenter"",""1"",""1333""
""fullscreenexit"",""7"",""105238""
","
","
","""event"",""trial"",""time""
""fullscreenenter"",""1"",""1333""
","""event"",""trial"",""time""
""fullscreenexit"",""7"",""105238""
","","","-1","","","19","3929","2430","p","elianto","#3366ff99","-1","-1","1","+10","[]","0","2","","","3929","73","4","2","win","no-go","0"
"pit-trial","192","1164802","0.0-78.0","battery-v0.2","","""event"",""trial"",""time""
""fullscreenenter"",""1"",""1333""
""fullscreenexit"",""7"",""105238""
","
","
","""event"",""trial"",""time""
""fullscreenenter"",""1"",""1333""
","""event"",""trial"",""time""
""fullscreenexit"",""7"",""105238""
","","","886.3999999761581","","","19","3929","2430","l","elianto","#3366ff99"," "," ","1","0","[1740.5]","1","2","","","3929","74","1","1","win","go","1"
"pit-trial","193","1168642","0.0-79.0","battery-v0.2","","""event"",""trial"",""time""
""fullscreenenter"",""1"",""1333""
""fullscreenexit"",""7"",""105238""
","
","
","""event"",""trial"",""time""
""fullscreenenter"",""1"",""1333""
","""event"",""trial"",""time""
""fullscreenexit"",""7"",""105238""
","","","982.3000000119209","","","19","3929","2430","g","elianto","#f73b6a7A"," "," ","1","0","[1836]","1","2","","","3929","75","3","3","lose","go","0"
"pit-trial","194","1172203","0.0-80.0","battery-v0.2","","""event"",""trial"",""time""
""fullscreenenter"",""1"",""1333""
""fullscreenexit"",""7"",""105238""
","
","
","""event"",""trial"",""time""
""fullscreenenter"",""1"",""1333""
","""event"",""trial"",""time""
""fullscreenexit"",""7"",""105238""
","","","702.7999999821186","","","19","3929","2430","s","elianto","#3366ff99"," "," ","1","+10","[1555.8999999761581]","1","2","","","3929","76","5","1","win","go","0"
"pit-trial","195","1177065","0.0-81.0","battery-v0.2","","""event"",""trial"",""time""
""fullscreenenter"",""1"",""1333""
""fullscreenexit"",""7"",""105238""
","
","
","""event"",""trial"",""time""
""fullscreenenter"",""1"",""1333""
","""event"",""trial"",""time""
""fullscreenexit"",""7"",""105238""
","","","-1","","","19","3929","2430","p","elianto","#3366ff99","-1","-1","1","+10","[]","0","2","","","3929","77","4","2","win","no-go","0"
"pit-trial","196","1181601","0.0-82.0","battery-v0.2","","""event"",""trial"",""time""
""fullscreenenter"",""1"",""1333""
""fullscreenexit"",""7"",""105238""
","
","
","""event"",""trial"",""time""
""fullscreenenter"",""1"",""1333""
","""event"",""trial"",""time""
""fullscreenexit"",""7"",""105238""
","","","1678.199999988079","","","19","3929","2430","w","elianto","#f73b6a7A","-1"," ","0","-10","[2532.9000000059605]","1","2","","","3929","78","6","4","lose","no-go","0"
"pit-trial","197","1185267","0.0-83.0","battery-v0.2","","""event"",""trial"",""time""
""fullscreenenter"",""1"",""1333""
""fullscreenexit"",""7"",""105238""
","
","
","""event"",""trial"",""time""
""fullscreenenter"",""1"",""1333""
","""event"",""trial"",""time""
""fullscreenexit"",""7"",""105238""
","","","807.5999999940395","","","19","3929","2430","g","elianto","#f73b6a7A"," "," ","1","0","[1660.5]","1","2","","","3929","79","3","3","lose","go","0"
"pit-trial","198","1189137","0.0-84.0","battery-v0.2","","""event"",""trial"",""time""
""fullscreenenter"",""1"",""1333""
""fullscreenexit"",""7"",""105238""
","
","
","""event"",""trial"",""time""
""fullscreenenter"",""1"",""1333""
","""event"",""trial"",""time""
""fullscreenexit"",""7"",""105238""
","","","1015.0999999940395","","","19","3929","2430","s","elianto","#3366ff99"," "," ","1","+10","[1867.0999999940395]","1","2","","","3929","80","5","1","win","go","0"
"pit-trial","199","1194002","0.0-85.0","battery-v0.2","","""event"",""trial"",""time""
""fullscreenenter"",""1"",""1333""
""fullscreenexit"",""7"",""105238""
","
","
","""event"",""trial"",""time""
""fullscreenenter"",""1"",""1333""
","""event"",""trial"",""time""
""fullscreenexit"",""7"",""105238""
","","","-1","","","19","3929","2430","e","elianto","#f73b6a7A"," ","-1","0","-10","[]","0","2","","","3929","81","7","3","lose","go","0"
"pit-trial","200","1197714","0.0-86.0","battery-v0.2","","""event"",""trial"",""time""
""fullscreenenter"",""1"",""1333""
""fullscreenexit"",""7"",""105238""
","
","
","""event"",""trial"",""time""
""fullscreenenter"",""1"",""1333""
","""event"",""trial"",""time""
""fullscreenexit"",""7"",""105238""
","","","853.9000000059605","","","19","3929","2430","s","elianto","#3366ff99"," "," ","1","0","[1706.6000000238419]","1","2","","","3929","82","5","1","win","go","1"
"pit-trial","201","1201450","0.0-87.0","battery-v0.2","","""event"",""trial"",""time""
""fullscreenenter"",""1"",""1333""
""fullscreenexit"",""7"",""105238""
","
","
","""event"",""trial"",""time""
""fullscreenenter"",""1"",""1333""
","""event"",""trial"",""time""
""fullscreenexit"",""7"",""105238""
","","","877.5","","","19","3929","2430","p","elianto","#3366ff99","-1"," ","0","+10","[1731.0999999940395]","1","2","","","3929","83","4","2","win","no-go","1"
"pit-trial","202","1206314","0.0-88.0","battery-v0.2","","""event"",""trial"",""time""
""fullscreenenter"",""1"",""1333""
""fullscreenexit"",""7"",""105238""
","
","
","""event"",""trial"",""time""
""fullscreenenter"",""1"",""1333""
","""event"",""trial"",""time""
""fullscreenexit"",""7"",""105238""
","","","-1","","","19","3929","2430","w","elianto","#f73b6a7A","-1","-1","1","0","[]","0","2","","","3929","84","6","4","lose","no-go","0"
"pit-trial","203","1209930","0.0-89.0","battery-v0.2","","""event"",""trial"",""time""
""fullscreenenter"",""1"",""1333""
""fullscreenexit"",""7"",""105238""
","
","
","""event"",""trial"",""time""
""fullscreenenter"",""1"",""1333""
","""event"",""trial"",""time""
""fullscreenexit"",""7"",""105238""
","","","756","","","19","3929","2430","s","elianto","#3366ff99"," "," ","1","+10","[1611.300000011921]","1","2","","","3929","85","5","1","win","go","0"
"pit-trial","204","1213562","0.0-90.0","battery-v0.2","","""event"",""trial"",""time""
""fullscreenenter"",""1"",""1333""
""fullscreenexit"",""7"",""105238""
","
","
","""event"",""trial"",""time""
""fullscreenenter"",""1"",""1333""
","""event"",""trial"",""time""
""fullscreenexit"",""7"",""105238""
","","","772.5","","","19","3929","2430","p","elianto","#3366ff99","-1"," ","0","0","[1627.199999988079]","1","2","","","3929","86","4","2","win","no-go","0"
"pit-trial","205","1218425","0.0-91.0","battery-v0.2","","""event"",""trial"",""time""
""fullscreenenter"",""1"",""1333""
""fullscreenexit"",""7"",""105238""
","
","
","""event"",""trial"",""time""
""fullscreenenter"",""1"",""1333""
","""event"",""trial"",""time""
""fullscreenexit"",""7"",""105238""
","","","-1","","","19","3929","2430","w","elianto","#f73b6a7A","-1","-1","1","0","[]","0","2","","","3929","87","6","4","lose","no-go","0"
"pit-trial","206","1223137","0.0-92.0","battery-v0.2","","""event"",""trial"",""time""
""fullscreenenter"",""1"",""1333""
""fullscreenexit"",""7"",""105238""
","
","
","""event"",""trial"",""time""
""fullscreenenter"",""1"",""1333""
","""event"",""trial"",""time""
""fullscreenexit"",""7"",""105238""
","","","1854.300000011921","","","19","3929","2430","e","elianto","#f73b6a7A"," "," ","1","0","[2708.800000011921]","1","2","","","3929","88","7","3","lose","go","0"
"pit-trial","207","1228001","0.0-93.0","battery-v0.2","","""event"",""trial"",""time""
""fullscreenenter"",""1"",""1333""
""fullscreenexit"",""7"",""105238""
","
","
","""event"",""trial"",""time""
""fullscreenenter"",""1"",""1333""
","""event"",""trial"",""time""
""fullscreenexit"",""7"",""105238""
","","","-1","","","19","3929","2430","p","elianto","#3366ff99","-1","-1","1","+10","[]","0","2","","","3929","89","4","2","win","no-go","0"
"pit-trial","208","1232865","0.0-94.0","battery-v0.2","","""event"",""trial"",""time""
""fullscreenenter"",""1"",""1333""
""fullscreenexit"",""7"",""105238""
","
","
","""event"",""trial"",""time""
""fullscreenenter"",""1"",""1333""
","""event"",""trial"",""time""
""fullscreenexit"",""7"",""105238""
","","","-1","","","19","3929","2430","e","elianto","#f73b6a7A"," ","-1","0","-10","[]","0","2","","","3929","90","7","3","lose","go","0"
"pit-trial","209","1236465","0.0-95.0","battery-v0.2","","""event"",""trial"",""time""
""fullscreenenter"",""1"",""1333""
""fullscreenexit"",""7"",""105238""
","
","
","""event"",""trial"",""time""
""fullscreenenter"",""1"",""1333""
","""event"",""trial"",""time""
""fullscreenexit"",""7"",""105238""
","","","741.3000000119209","","","19","3929","2430","s","elianto","#3366ff99"," "," ","1","+10","[1596.9000000059605]","1","2","","","3929","91","5","1","win","go","0"
"pit-trial","210","1241330","0.0-96.0","battery-v0.2","","""event"",""trial"",""time""
""fullscreenenter"",""1"",""1333""
