"trial_type","trial_index","time_elapsed","internal_node_id","task_version","subject_id","interactions","blur_events","focus_events","fullscreenenter_events","fullscreenexit_events","success","view_history","rt","responses","num_errors","age","subject","participantId","rune","rune_set","hex","correct","choice","accuracy","outcome","keys","total_keys","block","practice","value","sub","trial","stimulus","robot","valence","action","sham"
"pavlovia","0","28","0.0-0.0","battery-v0.2","","""event"",""trial"",""time""
""fullscreenenter"",""1"",""4725""
","
","
","""event"",""trial"",""time""
""fullscreenenter"",""1"",""4725""
","
","","","","","","","","","","","","","","","","","","","","","","","","","","",""
"fullscreen","1","5708","0.0-1.0","battery-v0.2","","""event"",""trial"",""time""
""fullscreenenter"",""1"",""4725""
","
","
","""event"",""trial"",""time""
""fullscreenenter"",""1"",""4725""
","
","true","","","","","","","","","","","","","","","","","","","","","","","","","",""
"pit-instructions","2","14834","0.0-2.0-0.0","battery-v0.2","","""event"",""trial"",""time""
""fullscreenenter"",""1"",""4725""
","
","
","""event"",""trial"",""time""
""fullscreenenter"",""1"",""4725""
","
","","[{""page_index"":0,""viewing_time"":9116.300000000745}]","9118","","","","","","","","","","","","","","","","","","","","","","","",""
"pit-comprehension","3","19399","0.0-2.0-1.0-0.0","battery-v0.2","","""event"",""trial"",""time""
""fullscreenenter"",""1"",""4725""
","
","
","""event"",""trial"",""time""
""fullscreenenter"",""1"",""4725""
","
","","","4555.9000000003725","[""shark""]","0","12","6101","3521","","","","","","","","","","","","","","","","","","",""
"pit-instructions","4","20834","0.0-2.0-1.0-1.0","battery-v0.2","","""event"",""trial"",""time""
""fullscreenenter"",""1"",""4725""
","
","
","""event"",""trial"",""time""
""fullscreenenter"",""1"",""4725""
","
","","[{""page_index"":0,""viewing_time"":1405.5}]","1406.6000000014901","","","","","","","","","","","","","","","","","","","","","","","",""
"pit-comprehension","5","23865","0.0-2.0-2.0-0.0","battery-v0.2","","""event"",""trial"",""time""
""fullscreenenter"",""1"",""4725""
","
","
","""event"",""trial"",""time""
""fullscreenenter"",""1"",""4725""
","
","","","3022","[""tiger""]","0","12","6101","3521","","","","","","","","","","","","","","","","","","",""
"pit-instructions","6","25341","0.0-2.0-2.0-1.0","battery-v0.2","","""event"",""trial"",""time""
""fullscreenenter"",""1"",""4725""
","
","
","""event"",""trial"",""time""
""fullscreenenter"",""1"",""4725""
","
","","[{""page_index"":0,""viewing_time"":1468.199999999255}]","1469.199999999255","","","","","","","","","","","","","","","","","","","","","","","",""
"pit-instructions","7","129974","0.0-2.0-3.0","battery-v0.2","","""event"",""trial"",""time""
""fullscreenenter"",""1"",""4725""
","
","
","""event"",""trial"",""time""
""fullscreenenter"",""1"",""4725""
","
","","[{""page_index"":0,""viewing_time"":9334.5},{""page_index"":1,""viewing_time"":7997.0999999996275},{""page_index"":2,""viewing_time"":6856.800000000745},{""page_index"":3,""viewing_time"":5213.9000000003725},{""page_index"":4,""viewing_time"":7678.9000000003725},{""page_index"":5,""viewing_time"":7397.5},{""page_index"":6,""viewing_time"":8178.0999999996275},{""page_index"":7,""viewing_time"":8121.5999999996275},{""page_index"":8,""viewing_time"":7629.5999999996275},{""page_index"":9,""viewing_time"":9283.400000000373},{""page_index"":10,""viewing_time"":7328.199999999255},{""page_index"":11,""viewing_time"":5974.9000000003725},{""page_index"":12,""viewing_time"":7089.5999999996275},{""page_index"":13,""viewing_time"":6539.700000001118}]","104625.40000000037","","","","","","","","","","","","","","","","","","","","","","","",""
"pit-trial","8","132920","0.0-2.0-4.0-0.0","battery-v0.2","","""event"",""trial"",""time""
""fullscreenenter"",""1"",""4725""
","
","
","""event"",""trial"",""time""
""fullscreenenter"",""1"",""4725""
","
","","","89.79999999888241","","","12","6101","3521","&#9784;","elianto","#FFFFF080"," "," ","1","&#10004","[940.0999999996275]","1","0","0","","","","","","","",""
"pit-trial","9","136198","0.0-2.0-4.1-0.1","battery-v0.2","","""event"",""trial"",""time""
""fullscreenenter"",""1"",""4725""
","
","
","""event"",""trial"",""time""
""fullscreenenter"",""1"",""4725""
","
","","","419.90000000037253","","","12","6101","3521","&#9784;","elianto","#FFFFF080"," "," ","1","&#10004","[1270]","1","0","0","","","","","","","",""
"pit-trial","10","139601","0.0-2.0-4.2-0.2","battery-v0.2","","""event"",""trial"",""time""
""fullscreenenter"",""1"",""4725""
","
","
","""event"",""trial"",""time""
""fullscreenenter"",""1"",""4725""
","
","","","542.3000000007451","","","12","6101","3521","&#9784;","elianto","#FFFFF080"," "," ","1","&#10004","[1395.199999999255]","1","0","0","","","","","","","",""
"pit-trial","11","143260","0.0-2.0-4.3-0.3","battery-v0.2","","""event"",""trial"",""time""
""fullscreenenter"",""1"",""4725""
","
","
","""event"",""trial"",""time""
""fullscreenenter"",""1"",""4725""
","
","","","803.5999999996275","","","12","6101","3521","&#9784;","elianto","#FFFFF080"," "," ","1","&#10004","[1653.5999999996275]","1","0","0","","","","","","","",""
"pit-trial","12","146709","0.0-2.0-4.4-0.4","battery-v0.2","","""event"",""trial"",""time""
""fullscreenenter"",""1"",""4725""
","
","
","""event"",""trial"",""time""
""fullscreenenter"",""1"",""4725""
","
","","","587.7999999988824","","","12","6101","3521","&#9784;","elianto","#FFFFF080"," "," ","1","&#10004","[1442.699999999255]","1","0","0","","","","","","","",""
"pit-instructions","13","167849","0.0-2.0-5.0","battery-v0.2","","""event"",""trial"",""time""
""fullscreenenter"",""1"",""4725""
","
","
","""event"",""trial"",""time""
""fullscreenenter"",""1"",""4725""
","
","","[{""page_index"":0,""viewing_time"":5395.0999999996275},{""page_index"":1,""viewing_time"":5746},{""page_index"":2,""viewing_time"":4769.5999999996275},{""page_index"":3,""viewing_time"":5221.4000000003725}]","21133.299999998882","","","","","","","","","","","","","","","","","","","","","","","",""
"pit-trial","14","172704","0.0-2.0-6.0-0.0","battery-v0.2","","""event"",""trial"",""time""
""fullscreenenter"",""1"",""4725""
","
","
","""event"",""trial"",""time""
""fullscreenenter"",""1"",""4725""
","
","","","-1","","","12","6101","3521","&#9854;","elianto","#FFFFF080","-1","-1","1","&#10004","[]","0","0","1","","","","","","","",""
"pit-trial","15","177561","0.0-2.0-6.1-0.1","battery-v0.2","","""event"",""trial"",""time""
""fullscreenenter"",""1"",""4725""
","
","
","""event"",""trial"",""time""
""fullscreenenter"",""1"",""4725""
","
","","","-1","","","12","6101","3521","&#9854;","elianto","#FFFFF080","-1","-1","1","&#10004","[]","0","0","1","","","","","","","",""
"pit-trial","16","182418","0.0-2.0-6.2-0.2","battery-v0.2","","""event"",""trial"",""time""
""fullscreenenter"",""1"",""4725""
","
","
","""event"",""trial"",""time""
""fullscreenenter"",""1"",""4725""
","
","","","-1","","","12","6101","3521","&#9854;","elianto","#FFFFF080","-1","-1","1","&#10004","[]","0","0","1","","","","","","","",""
"pit-trial","17","187273","0.0-2.0-6.3-0.3","battery-v0.2","","""event"",""trial"",""time""
""fullscreenenter"",""1"",""4725""
","
","
","""event"",""trial"",""time""
""fullscreenenter"",""1"",""4725""
","
","","","-1","","","12","6101","3521","&#9854;","elianto","#FFFFF080","-1","-1","1","&#10004","[]","0","0","1","","","","","","","",""
"pit-trial","18","192130","0.0-2.0-6.4-0.4","battery-v0.2","","""event"",""trial"",""time""
""fullscreenenter"",""1"",""4725""
","
","
","""event"",""trial"",""time""
""fullscreenenter"",""1"",""4725""
","
","","","-1","","","12","6101","3521","&#9854;","elianto","#FFFFF080","-1","-1","1","&#10004","[]","0","0","1","","","","","","","",""
"pit-instructions","19","313313","0.0-2.0-7.0","battery-v0.2","","""event"",""trial"",""time""
""fullscreenenter"",""1"",""4725""
","
","
","""event"",""trial"",""time""
""fullscreenenter"",""1"",""4725""
","
","","[{""page_index"":0,""viewing_time"":6053},{""page_index"":1,""viewing_time"":7139.299999998882},{""page_index"":2,""viewing_time"":5975.4000000003725},{""page_index"":3,""viewing_time"":6763.5999999996275},{""page_index"":4,""viewing_time"":7023.300000000745},{""page_index"":5,""viewing_time"":5998.799999998882},{""page_index"":6,""viewing_time"":4315},{""page_index"":7,""viewing_time"":9531.200000001118},{""page_index"":8,""viewing_time"":6224.199999999255},{""page_index"":9,""viewing_time"":7445},{""page_index"":10,""viewing_time"":6556.9000000003725},{""page_index"":11,""viewing_time"":4353.9000000003725},{""page_index"":12,""viewing_time"":7005.4000000003725},{""page_index"":13,""viewing_time"":7145.199999999255},{""page_index"":14,""viewing_time"":7545.199999999255},{""page_index"":15,""viewing_time"":7435.9000000003725},{""page_index"":16,""viewing_time"":6764},{""page_index"":17,""viewing_time"":7900.4000000003725}]","121176.69999999925","","","","","","","","","","","","","","","","","","","","","","","",""
"pit-trial","20","317052","0.0-2.0-8.0-0.0","battery-v0.2","","""event"",""trial"",""time""
""fullscreenenter"",""1"",""4725""
","
","
","""event"",""trial"",""time""
""fullscreenenter"",""1"",""4725""
","
","","","884.8000000007451","","","12","6101","3521","&#9776;","elianto","#3366ff99"," "," ","1","+10","[1735.300000000745]","1","0","1","","","","","","","",""
"pit-trial","21","321406","0.0-2.0-8.0-1.0","battery-v0.2","","""event"",""trial"",""time""
""fullscreenenter"",""1"",""4725""
","
","
","""event"",""trial"",""time""
""fullscreenenter"",""1"",""4725""
","
","","","1498.3999999985099","","","12","6101","3521","&#9776;","elianto","#3366ff99"," "," ","1","+10","[2348.699999999255]","1","0","1","","","","","","","",""
"pit-trial","22","325309","0.0-2.0-8.0-2.0","battery-v0.2","","""event"",""trial"",""time""
""fullscreenenter"",""1"",""4725""
","
","
","""event"",""trial"",""time""
""fullscreenenter"",""1"",""4725""
","
","","","1048.699999999255","","","12","6101","3521","&#9776;","elianto","#3366ff99"," "," ","1","+10","[1899]","1","0","1","","","","","","","",""
"pit-trial","23","328995","0.0-2.0-8.0-3.0","battery-v0.2","","""event"",""trial"",""time""
""fullscreenenter"",""1"",""4725""
","
","
","""event"",""trial"",""time""
""fullscreenenter"",""1"",""4725""
","
","","","829.4000000003725","","","12","6101","3521","&#9776;","elianto","#3366ff99"," "," ","1","0","[1680.2000000011176]","1","0","1","","","","","","","",""
"pit-trial","24","333019","0.0-2.0-8.0-4.0","battery-v0.2","","""event"",""trial"",""time""
""fullscreenenter"",""1"",""4725""
","
","
","""event"",""trial"",""time""
""fullscreenenter"",""1"",""4725""
","
","","","1168.800000000745","","","12","6101","3521","&#9776;","elianto","#3366ff99"," "," ","1","+10","[2019.2000000011176]","1","0","1","","","","","","","",""
"pit-trial","25","336733","0.0-2.0-8.1-0.1","battery-v0.2","","""event"",""trial"",""time""
""fullscreenenter"",""1"",""4725""
","
","
","""event"",""trial"",""time""
""fullscreenenter"",""1"",""4725""
","
","","","855.8000000007451","","","12","6101","3521","&#9776;","elianto","#3366ff99"," "," ","1","+10","[1705.9000000003725]","1","0","1","","","","","","","",""
"pit-trial","26","340300","0.0-2.0-8.1-1.1","battery-v0.2","","""event"",""trial"",""time""
""fullscreenenter"",""1"",""4725""
","
","
","""event"",""trial"",""time""
""fullscreenenter"",""1"",""4725""
","
","","","708.1999999992549","","","12","6101","3521","&#9776;","elianto","#3366ff99"," "," ","1","+10","[1563]","1","0","1","","","","","","","",""
"pit-trial","27","345155","0.0-2.0-8.1-2.1","battery-v0.2","","""event"",""trial"",""time""
""fullscreenenter"",""1"",""4725""
","
","
","""event"",""trial"",""time""
""fullscreenenter"",""1"",""4725""
","
","","","-1","","","12","6101","3521","&#9776;","elianto","#3366ff99"," ","-1","0","0","[]","0","0","1","","","","","","","",""
"pit-trial","28","348557","0.0-2.0-8.1-3.1","battery-v0.2","","""event"",""trial"",""time""
""fullscreenenter"",""1"",""4725""
","
","
","""event"",""trial"",""time""
""fullscreenenter"",""1"",""4725""
","
","","","547.5999999996275","","","12","6101","3521","&#9776;","elianto","#3366ff99"," "," ","1","0","[1398]","1","0","1","","","","","","","",""
"pit-trial","29","351826","0.0-2.0-8.1-4.1","battery-v0.2","","""event"",""trial"",""time""
""fullscreenenter"",""1"",""4725""
","
","
","""event"",""trial"",""time""
""fullscreenenter"",""1"",""4725""
","
","","","408.30000000074506","","","12","6101","3521","&#9776;","elianto","#3366ff99"," "," ","1","+10","[1264.0999999996275]","1","0","1","","","","","","","",""
"pit-trial","30","355381","0.0-2.0-8.2-0.2","battery-v0.2","","""event"",""trial"",""time""
""fullscreenenter"",""1"",""4725""
","
","
","""event"",""trial"",""time""
""fullscreenenter"",""1"",""4725""
","
","","","698.4000000003725","","","12","6101","3521","&#9776;","elianto","#3366ff99"," "," ","1","+10","[1548.5]","1","0","1","","","","","","","",""
"pit-trial","31","359455","0.0-2.0-8.2-1.2","battery-v0.2","","""event"",""trial"",""time""
""fullscreenenter"",""1"",""4725""
","
","
","""event"",""trial"",""time""
""fullscreenenter"",""1"",""4725""
","
","","","1219","","","12","6101","3521","&#9776;","elianto","#3366ff99"," "," ","1","+10","[2069.39999999851]","1","0","1","","","","","","","",""
"pit-trial","32","363032","0.0-2.0-8.2-2.2","battery-v0.2","","""event"",""trial"",""time""
""fullscreenenter"",""1"",""4725""
","
","
","""event"",""trial"",""time""
""fullscreenenter"",""1"",""4725""
","
","","","722.0999999996275","","","12","6101","3521","&#9776;","elianto","#3366ff99"," "," ","1","+10","[1572.2000000011176]","1","0","1","","","","","","","",""
"pit-trial","33","366910","0.0-2.0-8.2-3.2","battery-v0.2","","""event"",""trial"",""time""
""fullscreenenter"",""1"",""4725""
","
","
","""event"",""trial"",""time""
""fullscreenenter"",""1"",""4725""
","
","","","1018.7000000011176","","","12","6101","3521","&#9776;","elianto","#3366ff99"," "," ","1","0","[1872.5999999996275]","1","0","1","","","","","","","",""
"pit-trial","34","370215","0.0-2.0-8.2-4.2","battery-v0.2","","""event"",""trial"",""time""
""fullscreenenter"",""1"",""4725""
","
","
","""event"",""trial"",""time""
""fullscreenenter"",""1"",""4725""
","
","","","449.59999999962747","","","12","6101","3521","&#9776;","elianto","#3366ff99"," "," ","1","+10","[1300.0999999996275]","1","0","1","","","","","","","",""
"call-function","35","370219","0.0-2.0-9.0","battery-v0.2","","""event"",""trial"",""time""
""fullscreenenter"",""1"",""4725""
","
","
","""event"",""trial"",""time""
""fullscreenenter"",""1"",""4725""
","
","","","","","","","","","","","","","","","","","","","","","","","","","","",""
"pit-instructions","36","413405","0.0-2.0-10.0","battery-v0.2","","""event"",""trial"",""time""
""fullscreenenter"",""1"",""4725""
","
","
","""event"",""trial"",""time""
""fullscreenenter"",""1"",""4725""
","
","","[{""page_index"":0,""viewing_time"":5755.300000000745},{""page_index"":1,""viewing_time"":8437.099999999627},{""page_index"":2,""viewing_time"":9490.5},{""page_index"":3,""viewing_time"":10071},{""page_index"":4,""viewing_time"":9429.300000000745}]","43184.70000000112","","","","","","","","","","","","","","","","","","","","","","","",""
"pit-trial","37","418260","0.0-2.0-11.0-0.0","battery-v0.2","","""event"",""trial"",""time""
""fullscreenenter"",""1"",""4725""
","
","
","""event"",""trial"",""time""
""fullscreenenter"",""1"",""4725""
","
","","","-1","","","12","6101","3521","&#9761;","elianto","#3366ff99","-1","-1","1","+10","[]","0","0","2","","","","","","","",""
"pit-trial","38","423115","0.0-2.0-11.0-1.0","battery-v0.2","","""event"",""trial"",""time""
""fullscreenenter"",""1"",""4725""
","
","
","""event"",""trial"",""time""
""fullscreenenter"",""1"",""4725""
","
","","","-1","","","12","6101","3521","&#9761;","elianto","#3366ff99","-1","-1","1","+10","[]","0","0","2","","","","","","","",""
"pit-trial","39","427971","0.0-2.0-11.0-2.0","battery-v0.2","","""event"",""trial"",""time""
""fullscreenenter"",""1"",""4725""
","
","
","""event"",""trial"",""time""
""fullscreenenter"",""1"",""4725""
","
","","","-1","","","12","6101","3521","&#9761;","elianto","#3366ff99","-1","-1","1","+10","[]","0","0","2","","","","","","","",""
"pit-trial","40","432826","0.0-2.0-11.0-3.0","battery-v0.2","","""event"",""trial"",""time""
""fullscreenenter"",""1"",""4725""
","
","
","""event"",""trial"",""time""
""fullscreenenter"",""1"",""4725""
","
","","","-1","","","12","6101","3521","&#9761;","elianto","#3366ff99","-1","-1","1","0","[]","0","0","2","","","","","","","",""
"pit-trial","41","437681","0.0-2.0-11.0-4.0","battery-v0.2","","""event"",""trial"",""time""
""fullscreenenter"",""1"",""4725""
","
","
","""event"",""trial"",""time""
""fullscreenenter"",""1"",""4725""
","
","","","-1","","","12","6101","3521","&#9761;","elianto","#3366ff99","-1","-1","1","+10","[]","0","0","2","","","","","","","",""
"pit-trial","42","442537","0.0-2.0-11.1-0.1","battery-v0.2","","""event"",""trial"",""time""
""fullscreenenter"",""1"",""4725""
","
","
","""event"",""trial"",""time""
""fullscreenenter"",""1"",""4725""
","
","","","-1","","","12","6101","3521","&#9761;","elianto","#3366ff99","-1","-1","1","+10","[]","0","0","2","","","","","","","",""
"pit-trial","43","447392","0.0-2.0-11.1-1.1","battery-v0.2","","""event"",""trial"",""time""
""fullscreenenter"",""1"",""4725""
","
","
","""event"",""trial"",""time""
""fullscreenenter"",""1"",""4725""
","
","","","-1","","","12","6101","3521","&#9761;","elianto","#3366ff99","-1","-1","1","+10","[]","0","0","2","","","","","","","",""
"pit-trial","44","452247","0.0-2.0-11.1-2.1","battery-v0.2","","""event"",""trial"",""time""
""fullscreenenter"",""1"",""4725""
","
","
","""event"",""trial"",""time""
""fullscreenenter"",""1"",""4725""
","
","","","-1","","","12","6101","3521","&#9761;","elianto","#3366ff99","-1","-1","1","+10","[]","0","0","2","","","","","","","",""
"pit-trial","45","457102","0.0-2.0-11.1-3.1","battery-v0.2","","""event"",""trial"",""time""
""fullscreenenter"",""1"",""4725""
","
","
","""event"",""trial"",""time""
""fullscreenenter"",""1"",""4725""
","
","","","-1","","","12","6101","3521","&#9761;","elianto","#3366ff99","-1","-1","1","0","[]","0","0","2","","","","","","","",""
"pit-trial","46","461956","0.0-2.0-11.1-4.1","battery-v0.2","","""event"",""trial"",""time""
""fullscreenenter"",""1"",""4725""
","
","
","""event"",""trial"",""time""
""fullscreenenter"",""1"",""4725""
","
","","","-1","","","12","6101","3521","&#9761;","elianto","#3366ff99","-1","-1","1","+10","[]","0","0","2","","","","","","","",""
"pit-trial","47","466813","0.0-2.0-11.2-0.2","battery-v0.2","","""event"",""trial"",""time""
""fullscreenenter"",""1"",""4725""
","
","
","""event"",""trial"",""time""
""fullscreenenter"",""1"",""4725""
","
","","","-1","","","12","6101","3521","&#9761;","elianto","#3366ff99","-1","-1","1","+10","[]","0","0","2","","","","","","","",""
"pit-trial","48","471668","0.0-2.0-11.2-1.2","battery-v0.2","","""event"",""trial"",""time""
""fullscreenenter"",""1"",""4725""
","
","
","""event"",""trial"",""time""
""fullscreenenter"",""1"",""4725""
","
","","","-1","","","12","6101","3521","&#9761;","elianto","#3366ff99","-1","-1","1","+10","[]","0","0","2","","","","","","","",""
"pit-trial","49","476522","0.0-2.0-11.2-2.2","battery-v0.2","","""event"",""trial"",""time""
""fullscreenenter"",""1"",""4725""
","
","
","""event"",""trial"",""time""
""fullscreenenter"",""1"",""4725""
","
","","","-1","","","12","6101","3521","&#9761;","elianto","#3366ff99","-1","-1","1","+10","[]","0","0","2","","","","","","","",""
"pit-trial","50","481377","0.0-2.0-11.2-3.2","battery-v0.2","","""event"",""trial"",""time""
""fullscreenenter"",""1"",""4725""
","
","
","""event"",""trial"",""time""
""fullscreenenter"",""1"",""4725""
","
","","","-1","","","12","6101","3521","&#9761;","elianto","#3366ff99","-1","-1","1","0","[]","0","0","2","","","","","","","",""
"pit-trial","51","486232","0.0-2.0-11.2-4.2","battery-v0.2","","""event"",""trial"",""time""
""fullscreenenter"",""1"",""4725""
","
","
","""event"",""trial"",""time""
""fullscreenenter"",""1"",""4725""
","
","","","-1","","","12","6101","3521","&#9761;","elianto","#3366ff99","-1","-1","1","+10","[]","0","0","2","","","","","","","",""
"pit-trial","52","491088","0.0-2.0-11.3-0.3","battery-v0.2","","""event"",""trial"",""time""
""fullscreenenter"",""1"",""4725""
","
","
","""event"",""trial"",""time""
""fullscreenenter"",""1"",""4725""
","
","","","-1","","","12","6101","3521","&#9761;","elianto","#3366ff99","-1","-1","1","+10","[]","0","0","2","","","","","","","",""
"pit-trial","53","495943","0.0-2.0-11.3-1.3","battery-v0.2","","""event"",""trial"",""time""
""fullscreenenter"",""1"",""4725""
","
","
","""event"",""trial"",""time""
""fullscreenenter"",""1"",""4725""
","
","","","-1","","","12","6101","3521","&#9761;","elianto","#3366ff99","-1","-1","1","+10","[]","0","0","2","","","","","","","",""
"pit-trial","54","500798","0.0-2.0-11.3-2.3","battery-v0.2","","""event"",""trial"",""time""
""fullscreenenter"",""1"",""4725""
","
","
","""event"",""trial"",""time""
""fullscreenenter"",""1"",""4725""
","
","","","-1","","","12","6101","3521","&#9761;","elianto","#3366ff99","-1","-1","1","+10","[]","0","0","2","","","","","","","",""
"pit-trial","55","505652","0.0-2.0-11.3-3.3","battery-v0.2","","""event"",""trial"",""time""
""fullscreenenter"",""1"",""4725""
","
","
","""event"",""trial"",""time""
""fullscreenenter"",""1"",""4725""
","
","","","-1","","","12","6101","3521","&#9761;","elianto","#3366ff99","-1","-1","1","0","[]","0","0","2","","","","","","","",""
"pit-trial","56","510507","0.0-2.0-11.3-4.3","battery-v0.2","","""event"",""trial"",""time""
""fullscreenenter"",""1"",""4725""
","
","
","""event"",""trial"",""time""
""fullscreenenter"",""1"",""4725""
","
","","","-1","","","12","6101","3521","&#9761;","elianto","#3366ff99","-1","-1","1","+10","[]","0","0","2","","","","","","","",""
"call-function","57","510511","0.0-2.0-12.0","battery-v0.2","","""event"",""trial"",""time""
""fullscreenenter"",""1"",""4725""
","
","
","""event"",""trial"",""time""
""fullscreenenter"",""1"",""4725""
","
","","","","","","","","","","","","","","","","","","","","","","","","","","",""
"pit-instructions","58","549134","0.0-2.0-13.0","battery-v0.2","","""event"",""trial"",""time""
""fullscreenenter"",""1"",""4725""
","
","
","""event"",""trial"",""time""
""fullscreenenter"",""1"",""4725""
","
","","[{""page_index"":0,""viewing_time"":6723.5999999996275},{""page_index"":1,""viewing_time"":9324.900000000373},{""page_index"":2,""viewing_time"":4804.9000000003725},{""page_index"":3,""viewing_time"":11229.5},{""page_index"":4,""viewing_time"":6537.5}]","38621.40000000037","","","","","","","","","","","","","","","","","","","","","","","",""
"pit-trial","59","553968","0.0-2.0-14.0-0.0","battery-v0.2","","""event"",""trial"",""time""
""fullscreenenter"",""1"",""4725""
","
","
","""event"",""trial"",""time""
""fullscreenenter"",""1"",""4725""
","
","","","1979.3999999985099","","","12","6101","3521","&#9826;","elianto","#f73b6a7A","-1"," ","0","-10","[2829.5999999996275]","1","0","3","","","","","","","",""
"pit-trial","60","558823","0.0-2.0-14.0-1.0","battery-v0.2","","""event"",""trial"",""time""
""fullscreenenter"",""1"",""4725""
","
","
","""event"",""trial"",""time""
""fullscreenenter"",""1"",""4725""
","
","","","-1","","","12","6101","3521","&#9826;","elianto","#f73b6a7A","-1","-1","1","0","[]","0","0","3","","","","","","","",""
"pit-trial","61","563678","0.0-2.0-14.0-2.0","battery-v0.2","","""event"",""trial"",""time""
""fullscreenenter"",""1"",""4725""
","
","
","""event"",""trial"",""time""
""fullscreenenter"",""1"",""4725""
","
","","","-1","","","12","6101","3521","&#9826;","elianto","#f73b6a7A","-1","-1","1","0","[]","0","0","3","","","","","","","",""
"pit-trial","62","568533","0.0-2.0-14.0-3.0","battery-v0.2","","""event"",""trial"",""time""
""fullscreenenter"",""1"",""4725""
","
","
","""event"",""trial"",""time""
""fullscreenenter"",""1"",""4725""
","
","","","-1","","","12","6101","3521","&#9826;","elianto","#f73b6a7A","-1","-1","1","-10","[]","0","0","3","","","","","","","",""
"pit-trial","63","573388","0.0-2.0-14.0-4.0","battery-v0.2","","""event"",""trial"",""time""
""fullscreenenter"",""1"",""4725""
","
","
","""event"",""trial"",""time""
""fullscreenenter"",""1"",""4725""
","
","","","-1","","","12","6101","3521","&#9826;","elianto","#f73b6a7A","-1","-1","1","0","[]","0","0","3","","","","","","","",""
"pit-trial","64","578244","0.0-2.0-14.1-0.1","battery-v0.2","","""event"",""trial"",""time""
""fullscreenenter"",""1"",""4725""
","
","
","""event"",""trial"",""time""
""fullscreenenter"",""1"",""4725""
","
","","","-1","","","12","6101","3521","&#9826;","elianto","#f73b6a7A","-1","-1","1","0","[]","0","0","3","","","","","","","",""
"pit-trial","65","583098","0.0-2.0-14.1-1.1","battery-v0.2","","""event"",""trial"",""time""
""fullscreenenter"",""1"",""4725""
","
","
","""event"",""trial"",""time""
""fullscreenenter"",""1"",""4725""
","
","","","-1","","","12","6101","3521","&#9826;","elianto","#f73b6a7A","-1","-1","1","0","[]","0","0","3","","","","","","","",""
"pit-trial","66","587953","0.0-2.0-14.1-2.1","battery-v0.2","","""event"",""trial"",""time""
""fullscreenenter"",""1"",""4725""
","
","
","""event"",""trial"",""time""
""fullscreenenter"",""1"",""4725""
","
","","","-1","","","12","6101","3521","&#9826;","elianto","#f73b6a7A","-1","-1","1","0","[]","0","0","3","","","","","","","",""
"pit-trial","67","592807","0.0-2.0-14.1-3.1","battery-v0.2","","""event"",""trial"",""time""
""fullscreenenter"",""1"",""4725""
","
","
","""event"",""trial"",""time""
""fullscreenenter"",""1"",""4725""
","
","","","-1","","","12","6101","3521","&#9826;","elianto","#f73b6a7A","-1","-1","1","-10","[]","0","0","3","","","","","","","",""
"pit-trial","68","597661","0.0-2.0-14.1-4.1","battery-v0.2","","""event"",""trial"",""time""
""fullscreenenter"",""1"",""4725""
","
","
","""event"",""trial"",""time""
""fullscreenenter"",""1"",""4725""
","
","","","-1","","","12","6101","3521","&#9826;","elianto","#f73b6a7A","-1","-1","1","0","[]","0","0","3","","","","","","","",""
"pit-trial","69","602518","0.0-2.0-14.2-0.2","battery-v0.2","","""event"",""trial"",""time""
""fullscreenenter"",""1"",""4725""
","
","
","""event"",""trial"",""time""
""fullscreenenter"",""1"",""4725""
","
","","","-1","","","12","6101","3521","&#9826;","elianto","#f73b6a7A","-1","-1","1","0","[]","0","0","3","","","","","","","",""
"pit-trial","70","607373","0.0-2.0-14.2-1.2","battery-v0.2","","""event"",""trial"",""time""
""fullscreenenter"",""1"",""4725""
","
","
","""event"",""trial"",""time""
""fullscreenenter"",""1"",""4725""
","
","","","-1","","","12","6101","3521","&#9826;","elianto","#f73b6a7A","-1","-1","1","0","[]","0","0","3","","","","","","","",""
"pit-trial","71","612227","0.0-2.0-14.2-2.2","battery-v0.2","","""event"",""trial"",""time""
""fullscreenenter"",""1"",""4725""
","
","
","""event"",""trial"",""time""
""fullscreenenter"",""1"",""4725""
","
","","","-1","","","12","6101","3521","&#9826;","elianto","#f73b6a7A","-1","-1","1","0","[]","0","0","3","","","","","","","",""
"pit-trial","72","617082","0.0-2.0-14.2-3.2","battery-v0.2","","""event"",""trial"",""time""
""fullscreenenter"",""1"",""4725""
","
","
","""event"",""trial"",""time""
""fullscreenenter"",""1"",""4725""
","
","","","-1","","","12","6101","3521","&#9826;","elianto","#f73b6a7A","-1","-1","1","-10","[]","0","0","3","","","","","","","",""
"pit-trial","73","621937","0.0-2.0-14.2-4.2","battery-v0.2","","""event"",""trial"",""time""
""fullscreenenter"",""1"",""4725""
","
","
","""event"",""trial"",""time""
""fullscreenenter"",""1"",""4725""
","
","","","-1","","","12","6101","3521","&#9826;","elianto","#f73b6a7A","-1","-1","1","0","[]","0","0","3","","","","","","","",""
"pit-trial","74","626793","0.0-2.0-14.3-0.3","battery-v0.2","","""event"",""trial"",""time""
""fullscreenenter"",""1"",""4725""
","
","
","""event"",""trial"",""time""
""fullscreenenter"",""1"",""4725""
","
","","","-1","","","12","6101","3521","&#9826;","elianto","#f73b6a7A","-1","-1","1","0","[]","0","0","3","","","","","","","",""
"pit-trial","75","631649","0.0-2.0-14.3-1.3","battery-v0.2","","""event"",""trial"",""time""
""fullscreenenter"",""1"",""4725""
","
","
","""event"",""trial"",""time""
""fullscreenenter"",""1"",""4725""
","
","","","-1","","","12","6101","3521","&#9826;","elianto","#f73b6a7A","-1","-1","1","0","[]","0","0","3","","","","","","","",""
"pit-trial","76","636504","0.0-2.0-14.3-2.3","battery-v0.2","","""event"",""trial"",""time""
""fullscreenenter"",""1"",""4725""
","
","
","""event"",""trial"",""time""
""fullscreenenter"",""1"",""4725""
","
","","","-1","","","12","6101","3521","&#9826;","elianto","#f73b6a7A","-1","-1","1","0","[]","0","0","3","","","","","","","",""
"pit-trial","77","641359","0.0-2.0-14.3-3.3","battery-v0.2","","""event"",""trial"",""time""
""fullscreenenter"",""1"",""4725""
","
","
","""event"",""trial"",""time""
""fullscreenenter"",""1"",""4725""
","
","","","-1","","","12","6101","3521","&#9826;","elianto","#f73b6a7A","-1","-1","1","-10","[]","0","0","3","","","","","","","",""
"pit-trial","78","646214","0.0-2.0-14.3-4.3","battery-v0.2","","""event"",""trial"",""time""
""fullscreenenter"",""1"",""4725""
","
","
","""event"",""trial"",""time""
""fullscreenenter"",""1"",""4725""
","
","","","-1","","","12","6101","3521","&#9826;","elianto","#f73b6a7A","-1","-1","1","0","[]","0","0","3","","","","","","","",""
"call-function","79","646218","0.0-2.0-15.0","battery-v0.2","","""event"",""trial"",""time""
""fullscreenenter"",""1"",""4725""
","
","
","""event"",""trial"",""time""
""fullscreenenter"",""1"",""4725""
","
","","","","","","","","","","","","","","","","","","","","","","","","","","",""
"pit-instructions","80","681380","0.0-2.0-16.0","battery-v0.2","","""event"",""trial"",""time""
""fullscreenenter"",""1"",""4725""
","
","
","""event"",""trial"",""time""
""fullscreenenter"",""1"",""4725""
","
","","[{""page_index"":0,""viewing_time"":8867.400000000373},{""page_index"":1,""viewing_time"":11792.699999999255},{""page_index"":2,""viewing_time"":7515.10000000149},{""page_index"":3,""viewing_time"":6985.799999998882}]","35161.800000000745","","","","","","","","","","","","","","","","","","","","","","","",""
"pit-trial","81","684726","0.0-2.0-17.0-0.0","battery-v0.2","","""event"",""trial"",""time""
""fullscreenenter"",""1"",""4725""
","
","
","""event"",""trial"",""time""
""fullscreenenter"",""1"",""4725""
","
","","","491.2000000011176","","","12","6101","3521","&#9789;","elianto","#f73b6a7A"," "," ","1","0","[1341.199999999255]","1","0","4","","","","","","","",""
"pit-trial","82","689072","0.0-2.0-17.0-1.0","battery-v0.2","","""event"",""trial"",""time""
""fullscreenenter"",""1"",""4725""
","
","
","""event"",""trial"",""time""
""fullscreenenter"",""1"",""4725""
","
","","","1490.8999999985099","","","12","6101","3521","&#9789;","elianto","#f73b6a7A"," "," ","1","0","[2341]","1","0","4","","","","","","","",""
"pit-trial","83","693732","0.0-2.0-17.0-2.0","battery-v0.2","","""event"",""trial"",""time""
""fullscreenenter"",""1"",""4725""
","
","
","""event"",""trial"",""time""
""fullscreenenter"",""1"",""4725""
","
","","","1805.1000000014901","","","12","6101","3521","&#9789;","elianto","#f73b6a7A"," "," ","1","0","[2655.300000000745]","1","0","4","","","","","","","",""
"pit-trial","84","698119","0.0-2.0-17.0-3.0","battery-v0.2","","""event"",""trial"",""time""
""fullscreenenter"",""1"",""4725""
","
","
","""event"",""trial"",""time""
""fullscreenenter"",""1"",""4725""
","
","","","1530.800000000745","","","12","6101","3521","&#9789;","elianto","#f73b6a7A"," "," ","1","-10","[2382.0999999996275]","1","0","4","","","","","","","",""
"pit-trial","85","702974","0.0-2.0-17.0-4.0","battery-v0.2","","""event"",""trial"",""time""
""fullscreenenter"",""1"",""4725""
","
","
","""event"",""trial"",""time""
""fullscreenenter"",""1"",""4725""
","
","","","-1","","","12","6101","3521","&#9789;","elianto","#f73b6a7A"," ","-1","0","-10","[]","0","0","4","","","","","","","",""
"pit-trial","86","707831","0.0-2.0-17.1-0.1","battery-v0.2","","""event"",""trial"",""time""
""fullscreenenter"",""1"",""4725""
","
","
","""event"",""trial"",""time""
""fullscreenenter"",""1"",""4725""
","
","","","-1","","","12","6101","3521","&#9789;","elianto","#f73b6a7A"," ","-1","0","-10","[3062]","1","0","4","","","","","","","",""
"pit-trial","87","712685","0.0-2.0-17.1-1.1","battery-v0.2","","""event"",""trial"",""time""
""fullscreenenter"",""1"",""4725""
","
","
","""event"",""trial"",""time""
""fullscreenenter"",""1"",""4725""
","
","","","-1","","","12","6101","3521","&#9789;","elianto","#f73b6a7A"," ","-1","0","-10","[]","0","0","4","","","","","","","",""
"pit-trial","88","717055","0.0-2.0-17.1-2.1","battery-v0.2","","""event"",""trial"",""time""
""fullscreenenter"",""1"",""4725""
","
","
","""event"",""trial"",""time""
""fullscreenenter"",""1"",""4725""
","
","","","1512.9000000003725","","","12","6101","3521","&#9789;","elianto","#f73b6a7A"," "," ","1","0","[2365.4000000003725]","1","0","4","","","","","","","",""
"pit-trial","89","721910","0.0-2.0-17.1-3.1","battery-v0.2","","""event"",""trial"",""time""
""fullscreenenter"",""1"",""4725""
","
","
","""event"",""trial"",""time""
""fullscreenenter"",""1"",""4725""
","
","","","-1","","","12","6101","3521","&#9789;","elianto","#f73b6a7A"," ","-1","0","0","[]","0","0","4","","","","","","","",""
"pit-trial","90","725802","0.0-2.0-17.1-4.1","battery-v0.2","","""event"",""trial"",""time""
""fullscreenenter"",""1"",""4725""
","
","
","""event"",""trial"",""time""
""fullscreenenter"",""1"",""4725""
","
","","","1031.9000000003725","","","12","6101","3521","&#9789;","elianto","#f73b6a7A"," "," ","1","0","[1887.1000000014901]","1","0","4","","","","","","","",""
"pit-trial","91","730657","0.0-2.0-17.2-0.2","battery-v0.2","","""event"",""trial"",""time""
""fullscreenenter"",""1"",""4725""
","
","
","""event"",""trial"",""time""
""fullscreenenter"",""1"",""4725""
","
","","","-1","","","12","6101","3521","&#9789;","elianto","#f73b6a7A"," ","-1","0","-10","[]","0","0","4","","","","","","","",""
"pit-trial","92","734009","0.0-2.0-17.2-1.2","battery-v0.2","","""event"",""trial"",""time""
""fullscreenenter"",""1"",""4725""
","
","
","""event"",""trial"",""time""
""fullscreenenter"",""1"",""4725""
","
","","","495.90000000037253","","","12","6101","3521","&#9789;","elianto","#f73b6a7A"," "," ","1","0","[1347.1000000014901]","1","0","4","","","","","","","",""
"pit-trial","93","738864","0.0-2.0-17.2-2.2","battery-v0.2","","""event"",""trial"",""time""
""fullscreenenter"",""1"",""4725""
","
","
","""event"",""trial"",""time""
""fullscreenenter"",""1"",""4725""
","
","","","-1","","","12","6101","3521","&#9789;","elianto","#f73b6a7A"," ","-1","0","-10","[]","0","0","4","","","","","","","",""
"pit-trial","94","743481","0.0-2.0-17.2-3.2","battery-v0.2","","""event"",""trial"",""time""
""fullscreenenter"",""1"",""4725""
","
","
","""event"",""trial"",""time""
""fullscreenenter"",""1"",""4725""
","
","","","1761","","","12","6101","3521","&#9789;","elianto","#f73b6a7A"," "," ","1","-10","[2611.5]","1","0","4","","","","","","","",""
"pit-trial","95","748336","0.0-2.0-17.2-4.2","battery-v0.2","","""event"",""trial"",""time""
""fullscreenenter"",""1"",""4725""
","
","
","""event"",""trial"",""time""
""fullscreenenter"",""1"",""4725""
","
","","","-1","","","12","6101","3521","&#9789;","elianto","#f73b6a7A"," ","-1","0","-10","[]","0","0","4","","","","","","","",""
"pit-trial","96","752170","0.0-2.0-17.3-0.3","battery-v0.2","","""event"",""trial"",""time""
""fullscreenenter"",""1"",""4725""
","
","
","""event"",""trial"",""time""
""fullscreenenter"",""1"",""4725""
","
","","","978.7999999988824","","","12","6101","3521","&#9789;","elianto","#f73b6a7A"," "," ","1","0","[1829.0999999996275]","1","0","4","","","","","","","",""
"pit-trial","97","757024","0.0-2.0-17.3-1.3","battery-v0.2","","""event"",""trial"",""time""
""fullscreenenter"",""1"",""4725""
","
","
","""event"",""trial"",""time""
""fullscreenenter"",""1"",""4725""
","
","","","-1","","","12","6101","3521","&#9789;","elianto","#f73b6a7A"," ","-1","0","-10","[]","0","0","4","","","","","","","",""
"pit-trial","98","760694","0.0-2.0-17.3-2.3","battery-v0.2","","""event"",""trial"",""time""
""fullscreenenter"",""1"",""4725""
","
","
","""event"",""trial"",""time""
""fullscreenenter"",""1"",""4725""
","
","","","815.1000000014901","","","12","6101","3521","&#9789;","elianto","#f73b6a7A"," "," ","1","0","[1665.7999999988824]","1","0","4","","","","","","","",""
"pit-trial","99","765549","0.0-2.0-17.3-3.3","battery-v0.2","","""event"",""trial"",""time""
""fullscreenenter"",""1"",""4725""
","
","
","""event"",""trial"",""time""
""fullscreenenter"",""1"",""4725""
","
","","","-1","","","12","6101","3521","&#9789;","elianto","#f73b6a7A"," ","-1","0","0","[]","0","0","4","","","","","","","",""
"pit-trial","100","770404","0.0-2.0-17.3-4.3","battery-v0.2","","""event"",""trial"",""time""
""fullscreenenter"",""1"",""4725""
","
","
","""event"",""trial"",""time""
""fullscreenenter"",""1"",""4725""
","
","","","-1","","","12","6101","3521","&#9789;","elianto","#f73b6a7A"," ","-1","0","-10","[]","0","0","4","","","","","","","",""
"call-function","101","770408","0.0-2.0-18.0","battery-v0.2","","""event"",""trial"",""time""
""fullscreenenter"",""1"",""4725""
","
","
","""event"",""trial"",""time""
""fullscreenenter"",""1"",""4725""
","
","","","","","","","","","","","","","","","","","","","","","","","","","","",""
"pit-instructions","102","855239","0.0-2.0-19.0","battery-v0.2","","""event"",""trial"",""time""
""fullscreenenter"",""1"",""4725""
","
","
","""event"",""trial"",""time""
""fullscreenenter"",""1"",""4725""
","
","","[{""page_index"":0,""viewing_time"":7921.4000000003725},{""page_index"":1,""viewing_time"":10757.300000000745},{""page_index"":2,""viewing_time"":14947.099999999627},{""page_index"":3,""viewing_time"":8403.5},{""page_index"":4,""viewing_time"":10340.199999999255},{""page_index"":5,""viewing_time"":8125.800000000745},{""page_index"":6,""viewing_time"":9873.400000000373},{""page_index"":7,""viewing_time"":6988.199999999255},{""page_index"":8,""viewing_time"":7472.200000001118}]","84829.80000000075","","","","","","","","","","","","","","","","","","","","","","","",""
"pit-comprehension","103","862109","0.0-2.0-20.0-0.0","battery-v0.2","","""event"",""trial"",""time""
""fullscreenenter"",""1"",""4725""
","
","
","""event"",""trial"",""time""
""fullscreenenter"",""1"",""4725""
","
","","","6861.0999999996275","[""SPACE""]","0","12","6101","3521","","","","","","","","","","","","","","","","","","",""
"pit-instructions","104","866313","0.0-2.0-20.0-1.0","battery-v0.2","","""event"",""trial"",""time""
""fullscreenenter"",""1"",""4725""
","
","
","""event"",""trial"",""time""
""fullscreenenter"",""1"",""4725""
","
","","[{""page_index"":0,""viewing_time"":4154.60000000149}]","4156","","","","","","","","","","","","","","","","","","","","","","","",""
"pit-comprehension","105","872319","0.0-2.0-21.0-0.0","battery-v0.2","","""event"",""trial"",""time""
""fullscreenenter"",""1"",""4725""
","
","
","""event"",""trial"",""time""
""fullscreenenter"",""1"",""4725""
","
","","","5998.5","[""10""]","0","12","6101","3521","","","","","","","","","","","","","","","","","","",""
"pit-instructions","106","878872","0.0-2.0-21.0-1.0","battery-v0.2","","""event"",""trial"",""time""
""fullscreenenter"",""1"",""4725""
","
","
","""event"",""trial"",""time""
""fullscreenenter"",""1"",""4725""
","
","","[{""page_index"":0,""viewing_time"":6507.699999999255}]","6508.799999998882","","","","","","","","","","","","","","","","","","","","","","","",""
"pit-comprehension","107","886148","0.0-2.0-22.0-0.0","battery-v0.2","","""event"",""trial"",""time""
""fullscreenenter"",""1"",""4725""
","
","
","""event"",""trial"",""time""
""fullscreenenter"",""1"",""4725""
","
","","","7266.5","[""0""]","0","12","6101","3521","","","","","","","","","","","","","","","","","","",""
"pit-instructions","108","887989","0.0-2.0-22.0-1.0","battery-v0.2","","""event"",""trial"",""time""
""fullscreenenter"",""1"",""4725""
","
","
","""event"",""trial"",""time""
""fullscreenenter"",""1"",""4725""
","
","","[{""page_index"":0,""viewing_time"":1794.4000000003725}]","1795.800000000745","","","","","","","","","","","","","","","","","","","","","","","",""
"pit-comprehension","109","905233","0.0-2.0-23.0-0.0","battery-v0.2","","""event"",""trial"",""time""
""fullscreenenter"",""1"",""4725""
","
","
","""event"",""trial"",""time""
""fullscreenenter"",""1"",""4725""
","
","","","17235.5","[""True""]","0","12","6101","3521","","","","","","","","","","","","","","","","","","",""
"pit-instructions","110","912447","0.0-2.0-23.0-1.0","battery-v0.2","","""event"",""trial"",""time""
""fullscreenenter"",""1"",""4725""
","
","
","""event"",""trial"",""time""
""fullscreenenter"",""1"",""4725""
","
","","[{""page_index"":0,""viewing_time"":7165.5999999996275}]","7167","","","","","","","","","","","","","","","","","","","","","","","",""
"pit-comprehension","111","922142","0.0-2.0-24.0-0.0","battery-v0.2","","""event"",""trial"",""time""
""fullscreenenter"",""1"",""4725""
","
","
","""event"",""trial"",""time""
""fullscreenenter"",""1"",""4725""
","
","","","9686.39999999851","[""True""]","0","12","6101","3521","","","","","","","","","","","","","","","","","","",""
"pit-instructions","112","927085","0.0-2.0-24.0-1.0","battery-v0.2","","""event"",""trial"",""time""
""fullscreenenter"",""1"",""4725""
","
","
","""event"",""trial"",""time""
""fullscreenenter"",""1"",""4725""
","
","","[{""page_index"":0,""viewing_time"":4896.5}]","4897.5","","","","","","","","","","","","","","","","","","","","","","","",""
"pit-comprehension","113","936169","0.0-2.0-25.0-0.0","battery-v0.2","","""event"",""trial"",""time""
""fullscreenenter"",""1"",""4725""
","
","
","""event"",""trial"",""time""
""fullscreenenter"",""1"",""4725""
","
","","","9075.5","[""True""]","0","12","6101","3521","","","","","","","","","","","","","","","","","","",""
"pit-instructions","114","937853","0.0-2.0-25.0-1.0","battery-v0.2","","""event"",""trial"",""time""
""fullscreenenter"",""1"",""4725""
","
","
","""event"",""trial"",""time""
""fullscreenenter"",""1"",""4725""
","
","","[{""page_index"":0,""viewing_time"":1635.4000000003725}]","1636.699999999255","","","","","","","","","","","","","","","","","","","","","","","",""
"pit-comprehension","115","944691","0.0-2.0-26.0-0.0","battery-v0.2","","""event"",""trial"",""time""
""fullscreenenter"",""1"",""4725""
","
","
","""event"",""trial"",""time""
""fullscreenenter"",""1"",""4725""
","
","","","6830","[""False""]","0","12","6101","3521","","","","","","","","","","","","","","","","","","",""
"pit-instructions","116","947128","0.0-2.0-26.0-1.0","battery-v0.2","","""event"",""trial"",""time""
""fullscreenenter"",""1"",""4725""
","
","
","""event"",""trial"",""time""
""fullscreenenter"",""1"",""4725""
","
","","[{""page_index"":0,""viewing_time"":2387.800000000745}]","2388.5999999996275","","","","","","","","","","","","","","","","","","","","","","","",""
"pit-instructions","117","965018","0.0-3.0","battery-v0.2","","""event"",""trial"",""time""
""fullscreenenter"",""1"",""4725""
","
","
","""event"",""trial"",""time""
""fullscreenenter"",""1"",""4725""
","
","","[{""page_index"":0,""viewing_time"":5172},{""page_index"":1,""viewing_time"":5050.300000000745},{""page_index"":2,""viewing_time"":7663.9000000003725}]","17886.800000000745","","","","","","","","","","","","","","","","","","","","","","","",""
"pit-trial","118","968878","0.0-4.0","battery-v0.2","","""event"",""trial"",""time""
""fullscreenenter"",""1"",""4725""
","
","
","""event"",""trial"",""time""
""fullscreenenter"",""1"",""4725""
","
","","","1000.7000000011176","","","12","6101","3521","&#9733;","elianto","#3366ff99","-1"," ","0","0","[1850.800000000745]","1","1","","","6101","1","2","2","win","no-go","0"
"pit-trial","119","973733","0.0-5.0","battery-v0.2","","""event"",""trial"",""time""
""fullscreenenter"",""1"",""4725""
","
","
","""event"",""trial"",""time""
""fullscreenenter"",""1"",""4725""
","
","","","-1","","","12","6101","3521","&#9752;","elianto","#f73b6a7A"," ","-1","0","0","[]","0","1","","","6101","2","3","3","lose","go","1"
"pit-trial","120","977831","0.0-6.0","battery-v0.2","","""event"",""trial"",""time""
""fullscreenenter"",""1"",""4725""
","
","
","""event"",""trial"",""time""
""fullscreenenter"",""1"",""4725""
","
","","","1242.2000000011176","","","12","6101","3521","&#9730;","elianto","#3366ff99"," "," ","1","+10","[2092.4000000003725]","1","1","","","6101","3","1","1","win","go","0"
"pit-trial","121","982452","0.0-7.0","battery-v0.2","","""event"",""trial"",""time""
""fullscreenenter"",""1"",""4725""
","
","
","""event"",""trial"",""time""
""fullscreenenter"",""1"",""4725""
","
","","","1765.7000000011176","","","12","6101","3521","&#9728;","elianto","#f73b6a7A","-1"," ","0","-10","[2615.89999999851]","1","1","","","6101","4","0","4","lose","no-go","0"
"pit-trial","122","985988","0.0-8.0","battery-v0.2","","""event"",""trial"",""time""
""fullscreenenter"",""1"",""4725""
","
","
","""event"",""trial"",""time""
""fullscreenenter"",""1"",""4725""
","
","","","680.6000000014901","","","12","6101","3521","&#9730;","elianto","#3366ff99"," "," ","1","+10","[1530.8999999985099]","1","1","","","6101","5","1","1","win","go","0"
"pit-trial","123","990844","0.0-9.0","battery-v0.2","","""event"",""trial"",""time""
""fullscreenenter"",""1"",""4725""
","
","
","""event"",""trial"",""time""
""fullscreenenter"",""1"",""4725""
","
","","","-1","","","12","6101","3521","&#9752;","elianto","#f73b6a7A"," ","-1","0","0","[]","0","1","","","6101","6","3","3","lose","go","1"
"pit-trial","124","994737","0.0-10.0","battery-v0.2","","""event"",""trial"",""time""
""fullscreenenter"",""1"",""4725""
","
","
","""event"",""trial"",""time""
""fullscreenenter"",""1"",""4725""
","
","","","1037.2000000011176","","","12","6101","3521","&#9733;","elianto","#3366ff99","-1"," ","0","+10","[1887.5999999996275]","1","1","","","6101","7","2","2","win","no-go","1"
"pit-trial","125","999593","0.0-11.0","battery-v0.2","","""event"",""trial"",""time""
""fullscreenenter"",""1"",""4725""
","
","
","""event"",""trial"",""time""
""fullscreenenter"",""1"",""4725""
","
","","","-1","","","12","6101","3521","&#9728;","elianto","#f73b6a7A","-1","-1","1","0","[]","0","1","","","6101","8","0","4","lose","no-go","0"
"pit-trial","126","1003475","0.0-12.0","battery-v0.2","","""event"",""trial"",""time""
""fullscreenenter"",""1"",""4725""
","
","
","""event"",""trial"",""time""
""fullscreenenter"",""1"",""4725""
","
","","","1021.9000000003725","","","12","6101","3521","&#9733;","elianto","#3366ff99","-1"," ","0","0","[1876.5999999996275]","1","1","","","6101","9","2","2","win","no-go","0"
"pit-trial","127","1008331","0.0-13.0","battery-v0.2","","""event"",""trial"",""time""
""fullscreenenter"",""1"",""4725""
","
","
","""event"",""trial"",""time""
""fullscreenenter"",""1"",""4725""
","
","","","-1","","","12","6101","3521","&#9728;","elianto","#f73b6a7A","-1","-1","1","-10","[]","0","1","","","6101","10","0","4","lose","no-go","1"
"pit-trial","128","1013186","0.0-14.0","battery-v0.2","","""event"",""trial"",""time""
""fullscreenenter"",""1"",""4725""
","
","
","""event"",""trial"",""time""
""fullscreenenter"",""1"",""4725""
","
","","","-1","","","12","6101","3521","&#9752;","elianto","#f73b6a7A"," ","-1","0","-10","[]","0","1","","","6101","11","3","3","lose","go","0"
"pit-trial","129","1016700","0.0-15.0","battery-v0.2","","""event"",""trial"",""time""
""fullscreenenter"",""1"",""4725""
","
","
","""event"",""trial"",""time""
""fullscreenenter"",""1"",""4725""
","
","","","656.0999999996275","","","12","6101","3521","&#9730;","elianto","#3366ff99"," "," ","1","0","[1508.0999999996275]","1","1","","","6101","12","1","1","win","go","1"
"pit-trial","130","1021557","0.0-16.0","battery-v0.2","","""event"",""trial"",""time""
""fullscreenenter"",""1"",""4725""
","
","
","""event"",""trial"",""time""
""fullscreenenter"",""1"",""4725""
","
","","","-1","","","12","6101","3521","&#9728;","elianto","#f73b6a7A","-1","-1","1","0","[]","0","1","","","6101","13","0","4","lose","no-go","0"
"pit-trial","131","1024947","0.0-17.0","battery-v0.2","","""event"",""trial"",""time""
""fullscreenenter"",""1"",""4725""
","
","
","""event"",""trial"",""time""
""fullscreenenter"",""1"",""4725""
","
","","","533.2999999988824","","","12","6101","3521","&#9730;","elianto","#3366ff99"," "," ","1","+10","[1383.5999999996275]","1","1","","","6101","14","1","1","win","go","0"
"pit-trial","132","1029115","0.0-18.0","battery-v0.2","","""event"",""trial"",""time""
""fullscreenenter"",""1"",""4725""
","
","
","""event"",""trial"",""time""
""fullscreenenter"",""1"",""4725""
","
","","","1312.5999999996275","","","12","6101","3521","&#9733;","elianto","#3366ff99","-1"," ","0","0","[2162.800000000745]","1","1","","","6101","15","2","2","win","no-go","0"
"pit-trial","133","1033972","0.0-19.0","battery-v0.2","","""event"",""trial"",""time""
""fullscreenenter"",""1"",""4725""
","
","
","""event"",""trial"",""time""
""fullscreenenter"",""1"",""4725""
","
","","","-1","","","12","6101","3521","&#9752;","elianto","#f73b6a7A"," ","-1","0","-10","[]","0","1","","","6101","16","3","3","lose","go","0"
"pit-trial","134","1038828","0.0-20.0","battery-v0.2","","""event"",""trial"",""time""
""fullscreenenter"",""1"",""4725""
","
","
","""event"",""trial"",""time""
""fullscreenenter"",""1"",""4725""
","
","","","-1","","","12","6101","3521","&#9728;","elianto","#f73b6a7A","-1","-1","1","0","[]","0","1","","","6101","17","0","4","lose","no-go","0"
"pit-trial","135","1043025","0.0-21.0","battery-v0.2","","""event"",""trial"",""time""
""fullscreenenter"",""1"",""4725""
","
","
","""event"",""trial"",""time""
""fullscreenenter"",""1"",""4725""
","
","","","1341.1000000014901","","","12","6101","3521","&#9733;","elianto","#3366ff99","-1"," ","0","0","[2191.5]","1","1","","","6101","18","2","2","win","no-go","0"
"pit-trial","136","1047881","0.0-22.0","battery-v0.2","","""event"",""trial"",""time""
""fullscreenenter"",""1"",""4725""
","
","
","""event"",""trial"",""time""
""fullscreenenter"",""1"",""4725""
","
","","","-1","","","12","6101","3521","&#9752;","elianto","#f73b6a7A"," ","-1","0","-10","[]","0","1","","","6101","19","3","3","lose","go","0"
"pit-trial","137","1051626","0.0-23.0","battery-v0.2","","""event"",""trial"",""time""
""fullscreenenter"",""1"",""4725""
","
","
","""event"",""trial"",""time""
""fullscreenenter"",""1"",""4725""
","
","","","889","","","12","6101","3521","&#9730;","elianto","#3366ff99"," "," ","1","+10","[1739.1000000014901]","1","1","","","6101","20","1","1","win","go","0"
"pit-instructions","138","1065039","0.0-24.0","battery-v0.2","","""event"",""trial"",""time""
""fullscreenenter"",""1"",""4725""
","
","
","""event"",""trial"",""time""
""fullscreenenter"",""1"",""4725""
","
","","[{""page_index"":0,""viewing_time"":6289.299999998882},{""page_index"":1,""viewing_time"":7119.5999999996275}]","13410","","","","","","","","","","","","","","","","","","","","","","","",""
"pit-trial","139","1069243","0.0-25.0","battery-v0.2","","""event"",""trial"",""time""
""fullscreenenter"",""1"",""4725""
","
","
","""event"",""trial"",""time""
""fullscreenenter"",""1"",""4725""
","
","","","1345.5","","","12","6101","3521","f","elianto","#3366ff99"," "," ","1","+10","[2195.699999999255]","1","2","","","6101","21","1","1","win","go","0"
"pit-trial","140","1074099","0.0-26.0","battery-v0.2","","""event"",""trial"",""time""
""fullscreenenter"",""1"",""4725""
","
","
","""event"",""trial"",""time""
""fullscreenenter"",""1"",""4725""
","
","","","-1","","","12","6101","3521","t","elianto","#f73b6a7A","-1","-1","1","-10","[]","0","2","","","6101","22","2","4","lose","no-go","1"
"pit-trial","141","1078955","0.0-27.0","battery-v0.2","","""event"",""trial"",""time""
""fullscreenenter"",""1"",""4725""
","
","
","""event"",""trial"",""time""
""fullscreenenter"",""1"",""4725""
","
","","","-1","","","12","6101","3521","n","elianto","#f73b6a7A","-1","-1","1","-10","[]","0","2","","","6101","23","0","4","lose","no-go","1"
"pit-trial","142","1083811","0.0-28.0","battery-v0.2","","""event"",""trial"",""time""
""fullscreenenter"",""1"",""4725""
","
","
","""event"",""trial"",""time""
""fullscreenenter"",""1"",""4725""
","
","","","-1","","","12","6101","3521","b","elianto","#f73b6a7A"," ","-1","0","0","[]","0","2","","","6101","24","3","3","lose","go","1"
"pit-trial","143","1088667","0.0-29.0","battery-v0.2","","""event"",""trial"",""time""
""fullscreenenter"",""1"",""4725""
","
","
","""event"",""trial"",""time""
""fullscreenenter"",""1"",""4725""
","
","","","-1","","","12","6101","3521","b","elianto","#f73b6a7A"," ","-1","0","-10","[]","0","2","","","6101","25","3","3","lose","go","0"
"pit-trial","144","1092414","0.0-30.0","battery-v0.2","","""event"",""trial"",""time""
""fullscreenenter"",""1"",""4725""
","
","
","""event"",""trial"",""time""
""fullscreenenter"",""1"",""4725""
","
","","","886.6999999992549","","","12","6101","3521","f","elianto","#3366ff99"," "," ","1","+10","[1742]","1","2","","","6101","26","1","1","win","go","0"
"pit-trial","145","1097270","0.0-31.0","battery-v0.2","","""event"",""trial"",""time""
""fullscreenenter"",""1"",""4725""
","
","
","""event"",""trial"",""time""
""fullscreenenter"",""1"",""4725""
","
","","","-1","","","12","6101","3521","n","elianto","#f73b6a7A","-1","-1","1","0","[]","0","2","","","6101","27","0","4","lose","no-go","0"
"pit-trial","146","1102126","0.0-32.0","battery-v0.2","","""event"",""trial"",""time""
""fullscreenenter"",""1"",""4725""
","
","
","""event"",""trial"",""time""
""fullscreenenter"",""1"",""4725""
","
","","","-1","","","12","6101","3521","t","elianto","#f73b6a7A","-1","-1","1","0","[]","0","2","","","6101","28","2","4","lose","no-go","0"
"pit-trial","147","1106982","0.0-33.0","battery-v0.2","","""event"",""trial"",""time""
""fullscreenenter"",""1"",""4725""
","
","
","""event"",""trial"",""time""
""fullscreenenter"",""1"",""4725""
","
","","","-1","","","12","6101","3521","n","elianto","#f73b6a7A","-1","-1","1","0","[]","0","2","","","6101","29","0","4","lose","no-go","0"
"pit-trial","148","1110499","0.0-34.0","battery-v0.2","","""event"",""trial"",""time""
""fullscreenenter"",""1"",""4725""
","
","
","""event"",""trial"",""time""
""fullscreenenter"",""1"",""4725""
","
","","","661.4000000003725","","","12","6101","3521","f","elianto","#3366ff99"," "," ","1","+10","[1511.800000000745]","1","2","","","6101","30","1","1","win","go","0"
"pit-trial","149","1115355","0.0-35.0","battery-v0.2","","""event"",""trial"",""time""
""fullscreenenter"",""1"",""4725""
","
","
","""event"",""trial"",""time""
""fullscreenenter"",""1"",""4725""
","
","","","-1","","","12","6101","3521","t","elianto","#f73b6a7A","-1","-1","1","0","[]","0","2","","","6101","31","2","4","lose","no-go","0"
"pit-trial","150","1120212","0.0-36.0","battery-v0.2","","""event"",""trial"",""time""
""fullscreenenter"",""1"",""4725""
","
","
","""event"",""trial"",""time""
""fullscreenenter"",""1"",""4725""
","
","","","-1","","","12","6101","3521","b","elianto","#f73b6a7A"," ","-1","0","-10","[]","0","2","","","6101","32","3","3","lose","go","0"
"pit-trial","151","1125068","0.0-37.0","battery-v0.2","","""event"",""trial"",""time""
""fullscreenenter"",""1"",""4725""
","
","
","""event"",""trial"",""time""
""fullscreenenter"",""1"",""4725""
","
","","","-1","","","12","6101","3521","n","elianto","#f73b6a7A","-1","-1","1","-10","[]","0","2","","","6101","33","0","4","lose","no-go","1"
"pit-trial","152","1128902","0.0-38.0","battery-v0.2","","""event"",""trial"",""time""
""fullscreenenter"",""1"",""4725""
","
","
","""event"",""trial"",""time""
""fullscreenenter"",""1"",""4725""
","
","","","978.5999999996275","","","12","6101","3521","b","elianto","#f73b6a7A"," "," ","1","0","[1828.9000000003725]","1","2","","","6101","34","3","3","lose","go","0"
"pit-trial","153","1133758","0.0-39.0","battery-v0.2","","""event"",""trial"",""time""
""fullscreenenter"",""1"",""4725""
","
","
","""event"",""trial"",""time""
""fullscreenenter"",""1"",""4725""
","
","","","-1","","","12","6101","3521","t","elianto","#f73b6a7A","-1","-1","1","-10","[]","0","2","","","6101","35","2","4","lose","no-go","1"
"pit-trial","154","1138613","0.0-40.0","battery-v0.2","","""event"",""trial"",""time""
""fullscreenenter"",""1"",""4725""
","
","
","""event"",""trial"",""time""
""fullscreenenter"",""1"",""4725""
","
","","","-1","","","12","6101","3521","f","elianto","#3366ff99"," ","-1","0","0","[]","0","2","","","6101","36","1","1","win","go","0"
"pit-trial","155","1143468","0.0-41.0","battery-v0.2","","""event"",""trial"",""time""
""fullscreenenter"",""1"",""4725""
","
","
","""event"",""trial"",""time""
""fullscreenenter"",""1"",""4725""
","
","","","-1","","","12","6101","3521","f","elianto","#3366ff99"," ","-1","0","0","[]","0","2","","","6101","37","1","1","win","go","0"
"pit-trial","156","1148323","0.0-42.0","battery-v0.2","","""event"",""trial"",""time""
""fullscreenenter"",""1"",""4725""
","
","
","""event"",""trial"",""time""
""fullscreenenter"",""1"",""4725""
","
","","","-1","","","12","6101","3521","t","elianto","#f73b6a7A","-1","-1","1","0","[]","0","2","","","6101","38","2","4","lose","no-go","0"
"pit-trial","157","1153177","0.0-43.0","battery-v0.2","","""event"",""trial"",""time""
""fullscreenenter"",""1"",""4725""
","
","
","""event"",""trial"",""time""
""fullscreenenter"",""1"",""4725""
","
","","","-1","","","12","6101","3521","n","elianto","#f73b6a7A","-1","-1","1","-10","[]","0","2","","","6101","39","0","4","lose","no-go","1"
"pit-trial","158","1158032","0.0-44.0","battery-v0.2","","""event"",""trial"",""time""
""fullscreenenter"",""1"",""4725""
","
","
","""event"",""trial"",""time""
""fullscreenenter"",""1"",""4725""
","
","","","-1","","","12","6101","3521","b","elianto","#f73b6a7A"," ","-1","0","-10","[]","0","2","","","6101","40","3","3","lose","go","0"
"pit-trial","159","1162157","0.0-45.0","battery-v0.2","","""event"",""trial"",""time""
""fullscreenenter"",""1"",""4725""
","
","
","""event"",""trial"",""time""
""fullscreenenter"",""1"",""4725""
","
","","","1267.3999999985099","","","12","6101","3521","b","elianto","#f73b6a7A"," "," ","1","0","[2117.5999999996275]","1","2","","","6101","41","3","3","lose","go","0"
"pit-trial","160","1167012","0.0-46.0","battery-v0.2","","""event"",""trial"",""time""
""fullscreenenter"",""1"",""4725""
","
","
","""event"",""trial"",""time""
""fullscreenenter"",""1"",""4725""
","
","","","-1","","","12","6101","3521","t","elianto","#f73b6a7A","-1","-1","1","0","[]","0","2","","","6101","42","2","4","lose","no-go","0"
"pit-trial","161","1171867","0.0-47.0","battery-v0.2","","""event"",""trial"",""time""
""fullscreenenter"",""1"",""4725""
","
","
","""event"",""trial"",""time""
""fullscreenenter"",""1"",""4725""
","
","","","-1","","","12","6101","3521","n","elianto","#f73b6a7A","-1","-1","1","0","[]","0","2","","","6101","43","0","4","lose","no-go","0"
"pit-trial","162","1176722","0.0-48.0","battery-v0.2","","""event"",""trial"",""time""
""fullscreenenter"",""1"",""4725""
","
","
","""event"",""trial"",""time""
""fullscreenenter"",""1"",""4725""
","
","","","-1","","","12","6101","3521","f","elianto","#3366ff99"," ","-1","0","+10","[3104]","1","2","","","6101","44","1","1","win","go","1"
"pit-trial","163","1181165","0.0-49.0","battery-v0.2","","""event"",""trial"",""time""
""fullscreenenter"",""1"",""4725""
","
","
","""event"",""trial"",""time""
""fullscreenenter"",""1"",""4725""
","
","","","1586.9000000003725","","","12","6101","3521","c","elianto","#3366ff99","-1"," ","0","0","[2437.4000000003725]","1","2","","","6101","45","4","2","win","no-go","0"
"pit-trial","164","1186021","0.0-50.0","battery-v0.2","","""event"",""trial"",""time""
""fullscreenenter"",""1"",""4725""
","
","
","""event"",""trial"",""time""
""fullscreenenter"",""1"",""4725""
","
","","","-1","","","12","6101","3521","b","elianto","#f73b6a7A"," ","-1","0","-10","[]","0","2","","","6101","46","3","3","lose","go","0"
"pit-trial","165","1190877","0.0-51.0","battery-v0.2","","""event"",""trial"",""time""
""fullscreenenter"",""1"",""4725""
","
","
","""event"",""trial"",""time""
""fullscreenenter"",""1"",""4725""
","
","","","-1","","","12","6101","3521","t","elianto","#f73b6a7A","-1","-1","1","0","[]","0","2","","","6101","47","2","4","lose","no-go","0"
"pit-trial","166","1195732","0.0-52.0","battery-v0.2","","""event"",""trial"",""time""
""fullscreenenter"",""1"",""4725""
","
","
","""event"",""trial"",""time""
""fullscreenenter"",""1"",""4725""
","
","","","-1","","","12","6101","3521","n","elianto","#f73b6a7A","-1","-1","1","0","[]","0","2","","","6101","48","0","4","lose","no-go","0"
"pit-trial","167","1200589","0.0-53.0","battery-v0.2","","""event"",""trial"",""time""
""fullscreenenter"",""1"",""4725""
","
","
","""event"",""trial"",""time""
""fullscreenenter"",""1"",""4725""
","
","","","-1","","","12","6101","3521","n","elianto","#f73b6a7A","-1","-1","1","0","[]","0","2","","","6101","49","0","4","lose","no-go","0"
"pit-trial","168","1205010","0.0-54.0","battery-v0.2","","""event"",""trial"",""time""
""fullscreenenter"",""1"",""4725""
","
","
","""event"",""trial"",""time""
""fullscreenenter"",""1"",""4725""
","
","","","1564.800000000745","","","12","6101","3521","b","elianto","#f73b6a7A"," "," ","1","0","[2415.0999999996275]","1","2","","","6101","50","3","3","lose","go","0"
"pit-trial","169","1209866","0.0-55.0","battery-v0.2","","""event"",""trial"",""time""
""fullscreenenter"",""1"",""4725""
","
","
","""event"",""trial"",""time""
""fullscreenenter"",""1"",""4725""
","
","","","-1","","","12","6101","3521","f","elianto","#3366ff99"," ","-1","0","0","[3242.7999999988824]","1","2","","","6101","51","1","1","win","go","0"
"pit-trial","170","1213683","0.0-56.0","battery-v0.2","","""event"",""trial"",""time""
""fullscreenenter"",""1"",""4725""
","
","
","""event"",""trial"",""time""
""fullscreenenter"",""1"",""4725""
","
","","","961.3000000007451","","","12","6101","3521","c","elianto","#3366ff99","-1"," ","0","0","[1811.7000000011176]","1","2","","","6101","52","4","2","win","no-go","0"
"pit-trial","171","1217324","0.0-57.0","battery-v0.2","","""event"",""trial"",""time""
""fullscreenenter"",""1"",""4725""
","
","
","""event"",""trial"",""time""
""fullscreenenter"",""1"",""4725""
","
","","","786.4000000003725","","","12","6101","3521","f","elianto","#3366ff99"," "," ","1","+10","[1636.699999999255]","1","2","","","6101","53","1","1","win","go","0"
"pit-trial","172","1222180","0.0-58.0","battery-v0.2","","""event"",""trial"",""time""
""fullscreenenter"",""1"",""4725""
","
","
","""event"",""trial"",""time""
""fullscreenenter"",""1"",""4725""
","
","","","-1","","","12","6101","3521","n","elianto","#f73b6a7A","-1","-1","1","0","[]","0","2","","","6101","54","0","4","lose","no-go","0"
"pit-trial","173","1226256","0.0-59.0","battery-v0.2","","""event"",""trial"",""time""
""fullscreenenter"",""1"",""4725""
","
","
","""event"",""trial"",""time""
""fullscreenenter"",""1"",""4725""
","
","","","1213.4000000003725","","","12","6101","3521","c","elianto","#3366ff99","-1"," ","0","0","[2071.0999999996275]","1","2","","","6101","55","4","2","win","no-go","0"
"pit-trial","174","1231112","0.0-60.0","battery-v0.2","","""event"",""trial"",""time""
""fullscreenenter"",""1"",""4725""
","
","
","""event"",""trial"",""time""
""fullscreenenter"",""1"",""4725""
","
","","","-1","","","12","6101","3521","t","elianto","#f73b6a7A","-1","-1","1","0","[]","0","2","","","6101","56","2","4","lose","no-go","0"
"pit-trial","175","1234880","0.0-61.0","battery-v0.2","","""event"",""trial"",""time""
""fullscreenenter"",""1"",""4725""
","
","
","""event"",""trial"",""time""
""fullscreenenter"",""1"",""4725""
","
","","","913.6000000014901","","","12","6101","3521","f","elianto","#3366ff99"," "," ","1","+10","[1763.699999999255]","1","2","","","6101","57","1","1","win","go","0"
"pit-trial","176","1239735","0.0-62.0","battery-v0.2","","""event"",""trial"",""time""
""fullscreenenter"",""1"",""4725""
","
","
","""event"",""trial"",""time""
""fullscreenenter"",""1"",""4725""
","
","","","-1","","","12","6101","3521","n","elianto","#f73b6a7A","-1","-1","1","0","[]","0","2","","","6101","58","0","4","lose","no-go","0"
"pit-trial","177","1243206","0.0-63.0","battery-v0.2","","""event"",""trial"",""time""
""fullscreenenter"",""1"",""4725""
","
","
","""event"",""trial"",""time""
""fullscreenenter"",""1"",""4725""
","
","","","613.0999999996275","","","12","6101","3521","c","elianto","#3366ff99","-1"," ","0","+10","[1465.300000000745]","1","2","","","6101","59","4","2","win","no-go","1"
"pit-trial","178","1246819","0.0-64.0","battery-v0.2","","""event"",""trial"",""time""
""fullscreenenter"",""1"",""4725""
","
","
","""event"",""trial"",""time""
""fullscreenenter"",""1"",""4725""
","
","","","757.5999999996275","","","12","6101","3521","b","elianto","#f73b6a7A"," "," ","1","-10","[1607.800000000745]","1","2","","","6101","60","3","3","lose","go","1"
"pit-trial","179","1251489","0.0-65.0","battery-v0.2","","""event"",""trial"",""time""
""fullscreenenter"",""1"",""4725""
","
","
","""event"",""trial"",""time""
""fullscreenenter"",""1"",""4725""
","
","","","1814.699999999255","","","12","6101","3521","c","elianto","#3366ff99","-1"," ","0","0","[2665.0999999996275]","1","2","","","6101","61","4","2","win","no-go","0"
"pit-trial","180","1255266","0.0-66.0","battery-v0.2","","""event"",""trial"",""time""
""fullscreenenter"",""1"",""4725""
","
","
","""event"",""trial"",""time""
""fullscreenenter"",""1"",""4725""
","
","","","921.5","","","12","6101","3521","f","elianto","#3366ff99"," "," ","1","+10","[1771.7999999988824]","1","2","","","6101","62","1","1","win","go","0"
"pit-trial","181","1258958","0.0-67.0","battery-v0.2","","""event"",""trial"",""time""
""fullscreenenter"",""1"",""4725""
","
","
","""event"",""trial"",""time""
""fullscreenenter"",""1"",""4725""
","
","","","835.9000000003725","","","12","6101","3521","b","elianto","#f73b6a7A"," "," ","1","0","[1686.300000000745]","1","2","","","6101","63","3","3","lose","go","0"
"pit-trial","182","1263814","0.0-68.0","battery-v0.2","","""event"",""trial"",""time""
""fullscreenenter"",""1"",""4725""
","
","
","""event"",""trial"",""time""
""fullscreenenter"",""1"",""4725""
","
","","","-1","","","12","6101","3521","t","elianto","#f73b6a7A","-1","-1","1","0","[]","0","2","","","6101","64","2","4","lose","no-go","0"
"pit-trial","183","1268670","0.0-69.0","battery-v0.2","","""event"",""trial"",""time""
""fullscreenenter"",""1"",""4725""
","
","
","""event"",""trial"",""time""
""fullscreenenter"",""1"",""4725""
","
","","","-1","","","12","6101","3521","c","elianto","#3366ff99","-1","-1","1","0","[]","0","2","","","6101","65","4","2","win","no-go","1"
"pit-trial","184","1273526","0.0-70.0","battery-v0.2","","""event"",""trial"",""time""
""fullscreenenter"",""1"",""4725""
","
","
","""event"",""trial"",""time""
""fullscreenenter"",""1"",""4725""
","
","","","-1","","","12","6101","3521","f","elianto","#3366ff99"," ","-1","0","+10","[]","0","2","","","6101","66","1","1","win","go","1"
"pit-trial","185","1278381","0.0-71.0","battery-v0.2","","""event"",""trial"",""time""
""fullscreenenter"",""1"",""4725""
","
","
","""event"",""trial"",""time""
""fullscreenenter"",""1"",""4725""
","
","","","-1","","","12","6101","3521","b","elianto","#f73b6a7A"," ","-1","0","-10","[]","0","2","","","6101","67","3","3","lose","go","0"
"pit-trial","186","1283238","0.0-72.0","battery-v0.2","","""event"",""trial"",""time""
""fullscreenenter"",""1"",""4725""
","
","
","""event"",""trial"",""time""
""fullscreenenter"",""1"",""4725""
","
","","","-1","","","12","6101","3521","t","elianto","#f73b6a7A","-1","-1","1","0","[]","0","2","","","6101","68","2","4","lose","no-go","0"
"pit-trial","187","1288094","0.0-73.0","battery-v0.2","","""event"",""trial"",""time""
""fullscreenenter"",""1"",""4725""
","
","
","""event"",""trial"",""time""
""fullscreenenter"",""1"",""4725""
","
","","","-1","","","12","6101","3521","b","elianto","#f73b6a7A"," ","-1","0","-10","[]","0","2","","","6101","69","3","3","lose","go","0"
"pit-trial","188","1292949","0.0-74.0","battery-v0.2","","""event"",""trial"",""time""
""fullscreenenter"",""1"",""4725""
","
","
","""event"",""trial"",""time""
""fullscreenenter"",""1"",""4725""
","
","","","-1","","","12","6101","3521","f","elianto","#3366ff99"," ","-1","0","0","[]","0","2","","","6101","70","1","1","win","go","0"
"pit-trial","189","1297805","0.0-75.0","battery-v0.2","","""event"",""trial"",""time""
""fullscreenenter"",""1"",""4725""
","
","
","""event"",""trial"",""time""
""fullscreenenter"",""1"",""4725""
","
","","","-1","","","12","6101","3521","c","elianto","#3366ff99","-1","-1","1","+10","[]","0","2","","","6101","71","4","2","win","no-go","0"
"pit-trial","190","1301370","0.0-76.0","battery-v0.2","","""event"",""trial"",""time""
""fullscreenenter"",""1"",""4725""
","
","
","""event"",""trial"",""time""
""fullscreenenter"",""1"",""4725""
","
","","","709.6000000014901","","","12","6101","3521","z","elianto","#3366ff99"," "," ","1","+10","[1559.7999999988824]","1","2","","","6101","72","5","1","win","go","0"
"pit-trial","191","1305443","0.0-77.0","battery-v0.2","","""event"",""trial"",""time""
""fullscreenenter"",""1"",""4725""
","
","
","""event"",""trial"",""time""
""fullscreenenter"",""1"",""4725""
","
","","","1218.0999999996275","","","12","6101","3521","z","elianto","#3366ff99"," "," ","1","+10","[2068.199999999255]","1","2","","","6101","73","5","1","win","go","0"
"pit-trial","192","1310298","0.0-78.0","battery-v0.2","","""event"",""trial"",""time""
""fullscreenenter"",""1"",""4725""
","
","
","""event"",""trial"",""time""
""fullscreenenter"",""1"",""4725""
","
","","","-1","","","12","6101","3521","c","elianto","#3366ff99","-1","-1","1","+10","[2933.39999999851]","1","2","","","6101","74","4","2","win","no-go","0"
"pit-trial","193","1315154","0.0-79.0","battery-v0.2","","""event"",""trial"",""time""
""fullscreenenter"",""1"",""4725""
","
","
","""event"",""trial"",""time""
""fullscreenenter"",""1"",""4725""
","
","","","-1","","","12","6101","3521","b","elianto","#f73b6a7A"," ","-1","0","-10","[2902.699999999255]","1","2","","","6101","75","3","3","lose","go","0"
"pit-trial","194","1320010","0.0-80.0","battery-v0.2","","""event"",""trial"",""time""
""fullscreenenter"",""1"",""4725""
","
","
","""event"",""trial"",""time""
""fullscreenenter"",""1"",""4725""
","
","","","-1","","","12","6101","3521","f","elianto","#3366ff99"," ","-1","0","0","[]","0","2","","","6101","76","1","1","win","go","0"
"pit-trial","195","1324865","0.0-81.0","battery-v0.2","","""event"",""trial"",""time""
""fullscreenenter"",""1"",""4725""
","
","
","""event"",""trial"",""time""
""fullscreenenter"",""1"",""4725""
","
","","","-1","","","12","6101","3521","c","elianto","#3366ff99","-1","-1","1","+10","[]","0","2","","","6101","77","4","2","win","no-go","0"
"pit-trial","196","1329721","0.0-82.0","battery-v0.2","","""event"",""trial"",""time""
""fullscreenenter"",""1"",""4725""
","
","
","""event"",""trial"",""time""
""fullscreenenter"",""1"",""4725""
","
","","","-1","","","12","6101","3521","b","elianto","#f73b6a7A"," ","-1","0","-10","[]","0","2","","","6101","78","3","3","lose","go","0"
"pit-trial","197","1334576","0.0-83.0","battery-v0.2","","""event"",""trial"",""time""
""fullscreenenter"",""1"",""4725""
","
","
","""event"",""trial"",""time""
""fullscreenenter"",""1"",""4725""
","
","","","-1","","","12","6101","3521","z","elianto","#3366ff99"," ","-1","0","0","[]","0","2","","","6101","79","5","1","win","go","0"
"pit-trial","198","1339431","0.0-84.0","battery-v0.2","","""event"",""trial"",""time""
""fullscreenenter"",""1"",""4725""
","
","
","""event"",""trial"",""time""
""fullscreenenter"",""1"",""4725""
","
","","","-1","","","12","6101","3521","h","elianto","#f73b6a7A","-1","-1","1","0","[]","0","2","","","6101","80","6","4","lose","no-go","0"
"pit-trial","199","1344287","0.0-85.0","battery-v0.2","","""event"",""trial"",""time""
""fullscreenenter"",""1"",""4725""
","
","
","""event"",""trial"",""time""
""fullscreenenter"",""1"",""4725""
","
","","","-1","","","12","6101","3521","h","elianto","#f73b6a7A","-1","-1","1","-10","[]","0","2","","","6101","81","6","4","lose","no-go","1"
"pit-trial","200","1349143","0.0-86.0","battery-v0.2","","""event"",""trial"",""time""
""fullscreenenter"",""1"",""4725""
","
","
","""event"",""trial"",""time""
""fullscreenenter"",""1"",""4725""
","
","","","-1","","","12","6101","3521","z","elianto","#3366ff99"," ","-1","0","0","[]","0","2","","","6101","82","5","1","win","go","0"
"pit-trial","201","1354000","0.0-87.0","battery-v0.2","","""event"",""trial"",""time""
""fullscreenenter"",""1"",""4725""
","
","
","""event"",""trial"",""time""
""fullscreenenter"",""1"",""4725""
","
","","","-1","","","12","6101","3521","c","elianto","#3366ff99","-1","-1","1","0","[]","0","2","","","6101","83","4","2","win","no-go","1"
"pit-trial","202","1358856","0.0-88.0","battery-v0.2","","""event"",""trial"",""time""
""fullscreenenter"",""1"",""4725""
","
","
","""event"",""trial"",""time""
""fullscreenenter"",""1"",""4725""
","
","","","-1","","","12","6101","3521","y","elianto","#f73b6a7A"," ","-1","0","0","[]","0","2","","","6101","84","7","3","lose","go","1"
"pit-trial","203","1363712","0.0-89.0","battery-v0.2","","""event"",""trial"",""time""
""fullscreenenter"",""1"",""4725""
","
","
","""event"",""trial"",""time""
""fullscreenenter"",""1"",""4725""
","
","","","-1","","","12","6101","3521","z","elianto","#3366ff99"," ","-1","0","0","[]","0","2","","","6101","85","5","1","win","go","0"
"pit-trial","204","1368569","0.0-90.0","battery-v0.2","","""event"",""trial"",""time""
""fullscreenenter"",""1"",""4725""
","
","
","""event"",""trial"",""time""
""fullscreenenter"",""1"",""4725""
","
","","","-1","","","12","6101","3521","y","elianto","#f73b6a7A"," ","-1","0","0","[]","0","2","","","6101","86","7","3","lose","go","1"
"pit-trial","205","1373424","0.0-91.0","battery-v0.2","","""event"",""trial"",""time""
""fullscreenenter"",""1"",""4725""
","
","
","""event"",""trial"",""time""
""fullscreenenter"",""1"",""4725""
","
","","","-1","","","12","6101","3521","h","elianto","#f73b6a7A","-1","-1","1","-10","[]","0","2","","","6101","87","6","4","lose","no-go","1"
"pit-trial","206","1378279","0.0-92.0","battery-v0.2","","""event"",""trial"",""time""
""fullscreenenter"",""1"",""4725""
","
","
","""event"",""trial"",""time""
""fullscreenenter"",""1"",""4725""
","
","","","-1","","","12","6101","3521","c","elianto","#3366ff99","-1","-1","1","0","[]","0","2","","","6101","88","4","2","win","no-go","1"
"pit-trial","207","1383134","0.0-93.0","battery-v0.2","","""event"",""trial"",""time""
""fullscreenenter"",""1"",""4725""
","
","
","""event"",""trial"",""time""
""fullscreenenter"",""1"",""4725""
","
","","","-1","","","12","6101","3521","z","elianto","#3366ff99"," ","-1","0","0","[]","0","2","","","6101","89","5","1","win","go","0"
"pit-trial","208","1387989","0.0-94.0","battery-v0.2","","""event"",""trial"",""time""
""fullscreenenter"",""1"",""4725""
","
","
","""event"",""trial"",""time""
""fullscreenenter"",""1"",""4725""
","
","","","-1","","","12","6101","3521","y","elianto","#f73b6a7A"," ","-1","0","-10","[]","0","2","","","6101","90","7","3","lose","go","0"
"pit-trial","209","1392845","0.0-95.0","battery-v0.2","","""event"",""trial"",""time""
""fullscreenenter"",""1"",""4725""
","
","
","""event"",""trial"",""time""
""fullscreenenter"",""1"",""4725""
","
","","","-1","","","12","6101","3521","h","elianto","#f73b6a7A","-1","-1","1","0","[]","0","2","","","6101","91","6","4","lose","no-go","0"
"pit-trial","210","1397700","0.0-96.0","battery-v0.2","","""event"",""trial"",""time""
""fullscreenenter"",""1"",""4725""
","
","
","""event"",""trial"",""time""
""fullscreenenter"",""1"",""4725""
","
","","","-1","","","12","6101","3521","c","elianto","#3366ff99","-1","-1","1","+10","[]","0","2","","","6101","92","4","2","win","no-go","0"
"pit-trial","211","1401821","0.0-97.0","battery-v0.2","","""event"",""trial"",""time""
""fullscreenenter"",""1"",""4725""
","
","
","""event"",""trial"",""time""
""fullscreenenter"",""1"",""4725""
","
","","","1265.5999999996275","","","12","6101","3521","y","elianto","#f73b6a7A"," "," ","1","-10","[2115.699999999255]","1","2","","","6101","93","7","3","lose","go","1"
"pit-trial","212","1406676","0.0-98.0","battery-v0.2","","""event"",""trial"",""time""
""fullscreenenter"",""1"",""4725""
","
","
","""event"",""trial"",""time""
""fullscreenenter"",""1"",""4725""
","
","","","-1","","","12","6101","3521","h","elianto","#f73b6a7A","-1","-1","1","0","[]","0","2","","","6101","94","6","4","lose","no-go","0"
"pit-trial","213","1411531","0.0-99.0","battery-v0.2","","""event"",""trial"",""time""
""fullscreenenter"",""1"",""4725""
","
","
","""event"",""trial"",""time""
""fullscreenenter"",""1"",""4725""
","
","","","-1","","","12","6101","3521","r","elianto","#3366ff99","-1","-1","1","+10","[]","0","2","","","6101","95","8","2","win","no-go","0"
"pit-trial","214","1416387","0.0-100.0","battery-v0.2","","""event"",""trial"",""time""
""fullscreenenter"",""1"",""4725""
","
","
","""event"",""trial"",""time""
""fullscreenenter"",""1"",""4725""
","
","","","-1","","","12","6101","3521","z","elianto","#3366ff99"," ","-1","0","0","[]","0","2","","","6101","96","5","1","win","go","0"
"pit-trial","215","1421243","0.0-101.0","battery-v0.2","","""event"",""trial"",""time""
""fullscreenenter"",""1"",""4725""
","
","
","""event"",""trial"",""time""
""fullscreenenter"",""1"",""4725""
","
","","","-1","","","12","6101","3521","h","elianto","#f73b6a7A","-1","-1","1","0","[]","0","2","","","6101","97","6","4","lose","no-go","0"
"pit-trial","216","1426099","0.0-102.0","battery-v0.2","","""event"",""trial"",""time""
""fullscreenenter"",""1"",""4725""
","
","
","""event"",""trial"",""time""
""fullscreenenter"",""1"",""4725""
","
","","","-1","","","12","6101","3521","r","elianto","#3366ff99","-1","-1","1","+10","[]","0","2","","","6101","98","8","2","win","no-go","0"
"pit-trial","217","1430954","0.0-103.0","battery-v0.2","","""event"",""trial"",""time""
""fullscreenenter"",""1"",""4725""
","
","
","""event"",""trial"",""time""
""fullscreenenter"",""1"",""4725""
","
","","","-1","","","12","6101","3521","y","elianto","#f73b6a7A"," ","-1","0","-10","[]","0","2","","","6101","99","7","3","lose","go","0"
"pit-trial","218","1435810","0.0-104.0","battery-v0.2","","""event"",""trial"",""time""
""fullscreenenter"",""1"",""4725""
","
","
","""event"",""trial"",""time""
""fullscreenenter"",""1"",""4725""
","
","","","-1","","","12","6101","3521","z","elianto","#3366ff99"," ","-1","0","+10","[]","0","2","","","6101","100","5","1","win","go","1"
"pit-trial","219","1440667","0.0-105.0","battery-v0.2","","""event"",""trial"",""time""
""fullscreenenter"",""1"",""4725""
","
","
","""event"",""trial"",""time""
""fullscreenenter"",""1"",""4725""
","
","","","-1","","","12","6101","3521","z","elianto","#3366ff99"," ","-1","0","+10","[]","0","2","","","6101","101","5","1","win","go","1"
"pit-trial","220","1445523","0.0-106.0","battery-v0.2","","""event"",""trial"",""time""
""fullscreenenter"",""1"",""4725""
","
","
","""event"",""trial"",""time""
""fullscreenenter"",""1"",""4725""
","
","","","-1","","","12","6101","3521","r","elianto","#3366ff99","-1","-1","1","+10","[]","0","2","","","6101","102","8","2","win","no-go","0"
"pit-trial","221","1450379","0.0-107.0","battery-v0.2","","""event"",""trial"",""time""
""fullscreenenter"",""1"",""4725""
","
","
","""event"",""trial"",""time""
""fullscreenenter"",""1"",""4725""
","
","","","-1","","","12","6101","3521","h","elianto","#f73b6a7A","-1","-1","1","0","[]","0","2","","","6101","103","6","4","lose","no-go","0"
"pit-trial","222","1455235","0.0-108.0","battery-v0.2","","""event"",""trial"",""time""
""fullscreenenter"",""1"",""4725""
","
","
","""event"",""trial"",""time""
""fullscreenenter"",""1"",""4725""
","
","","","-1","","","12","6101","3521","m","elianto","#3366ff99","-1","-1","1","+10","[]","0","2","","","6101","104","9","2","win","no-go","0"
"pit-trial","223","1460092","0.0-109.0","battery-v0.2","","""event"",""trial"",""time""
""fullscreenenter"",""1"",""4725""
","
","
","""event"",""trial"",""time""
""fullscreenenter"",""1"",""4725""
","
","","","-1","","","12","6101","3521","r","elianto","#3366ff99","-1","-1","1","0","[]","0","2","","","6101","105","8","2","win","no-go","1"
"pit-trial","224","1464947","0.0-110.0","battery-v0.2","","""event"",""trial"",""time""
""fullscreenenter"",""1"",""4725""
","
","
","""event"",""trial"",""time""
""fullscreenenter"",""1"",""4725""
","
","","","-1","","","12","6101","3521","h","elianto","#f73b6a7A","-1","-1","1","0","[]","0","2","","","6101","106","6","4","lose","no-go","0"
"pit-trial","225","1469801","0.0-111.0","battery-v0.2","","""event"",""trial"",""time""
""fullscreenenter"",""1"",""4725""
","
","
","""event"",""trial"",""time""
""fullscreenenter"",""1"",""4725""
","
","","","-1","","","12","6101","3521","m","elianto","#3366ff99","-1","-1","1","+10","[]","0","2","","","6101","107","9","2","win","no-go","0"
"pit-trial","226","1474657","0.0-112.0","battery-v0.2","","""event"",""trial"",""time""
""fullscreenenter"",""1"",""4725""
","
","
","""event"",""trial"",""time""
""fullscreenenter"",""1"",""4725""
","
","","","-1","","","12","6101","3521","z","elianto","#3366ff99"," ","-1","0","0","[]","0","2","","","6101","108","5","1","win","go","0"
"pit-trial","227","1479512","0.0-113.0","battery-v0.2","","""event"",""trial"",""time""
""fullscreenenter"",""1"",""4725""
","
","
","""event"",""trial"",""time""
""fullscreenenter"",""1"",""4725""
","
","","","-1","","","12","6101","3521","r","elianto","#3366ff99","-1","-1","1","+10","[]","0","2","","","6101","109","8","2","win","no-go","0"
"pit-trial","228","1484224","0.0-114.0","battery-v0.2","","""event"",""trial"",""time""
""fullscreenenter"",""1"",""4725""
","
","
","""event"",""trial"",""time""
""fullscreenenter"",""1"",""4725""
","
","","","1856.699999999255","","","12","6101","3521","h","elianto","#f73b6a7A","-1"," ","0","-10","[2706.800000000745]","1","2","","","6101","110","6","4","lose","no-go","0"
"pit-trial","229","1489080","0.0-115.0","battery-v0.2","","""event"",""trial"",""time""
""fullscreenenter"",""1"",""4725""
","
","
","""event"",""trial"",""time""
""fullscreenenter"",""1"",""4725""
","
","","","-1","","","12","6101","3521","z","elianto","#3366ff99"," ","-1","0","0","[3264.2999999988824]","1","2","","","6101","111","5","1","win","go","0"
"pit-trial","230","1492013","0.0-116.0","battery-v0.2","","""event"",""trial"",""time""
""fullscreenenter"",""1"",""4725""
","
","
","""event"",""trial"",""time""
""fullscreenenter"",""1"",""4725""
","
","","","78.59999999962747","","","12","6101","3521","m","elianto","#3366ff99","-1"," ","0","+10","[928.8000000007451]","1","2","","","6101","112","9","2","win","no-go","1"
"pit-trial","231","1495512","0.0-117.0","battery-v0.2","","""event"",""trial"",""time""
""fullscreenenter"",""1"",""4725""
","
","
","""event"",""trial"",""time""
""fullscreenenter"",""1"",""4725""
","
","","","643.2999999988824","","","12","6101","3521","r","elianto","#3366ff99","-1"," ","0","+10","[1493.4000000003725]","1","2","","","6101","113","8","2","win","no-go","1"
"pit-trial","232","1500368","0.0-118.0","battery-v0.2","","""event"",""trial"",""time""
""fullscreenenter"",""1"",""4725""
","
","
","""event"",""trial"",""time""
""fullscreenenter"",""1"",""4725""
","
","","","-1","","","12","6101","3521","z","elianto","#3366ff99"," ","-1","0","+10","[]","0","2","","","6101","114","5","1","win","go","1"
"pit-trial","233","1505224","0.0-119.0","battery-v0.2","","""event"",""trial"",""time""
""fullscreenenter"",""1"",""4725""
","
","
","""event"",""trial"",""time""
""fullscreenenter"",""1"",""4725""
","
","","","-1","","","12","6101","3521","y","elianto","#f73b6a7A"," ","-1","0","-10","[]","0","2","","","6101","115","7","3","lose","go","0"
"pit-trial","234","1510079","0.0-120.0","battery-v0.2","","""event"",""trial"",""time""
""fullscreenenter"",""1"",""4725""
","
","
","""event"",""trial"",""time""
""fullscreenenter"",""1"",""4725""
","
","","","-1","","","12","6101","3521","m","elianto","#3366ff99","-1","-1","1","+10","[]","0","2","","","6101","116","9","2","win","no-go","0"
"pit-trial","235","1514934","0.0-121.0","battery-v0.2","","""event"",""trial"",""time""
""fullscreenenter"",""1"",""4725""
","
","
","""event"",""trial"",""time""
""fullscreenenter"",""1"",""4725""
","
","","","-1","","","12","6101","3521","m","elianto","#3366ff99","-1","-1","1","+10","[]","0","2","","","6101","117","9","2","win","no-go","0"
"pit-trial","236","1518787","0.0-122.0","battery-v0.2","","""event"",""trial"",""time""
""fullscreenenter"",""1"",""4725""
","
","
","""event"",""trial"",""time""
""fullscreenenter"",""1"",""4725""
","
","","","992.5999999996275","","","12","6101","3521","r","elianto","#3366ff99","-1"," ","0","0","[1847.199999999255]","1","2","","","6101","118","8","2","win","no-go","0"
"pit-trial","237","1523644","0.0-123.0","battery-v0.2","","""event"",""trial"",""time""
""fullscreenenter"",""1"",""4725""
","
","
","""event"",""trial"",""time""
""fullscreenenter"",""1"",""4725""
","
","","","-1","","","12","6101","3521","h","elianto","#f73b6a7A","-1","-1","1","0","[]","0","2","","","6101","119","6","4","lose","no-go","0"
"pit-trial","238","1527269","0.0-124.0","battery-v0.2","","""event"",""trial"",""time""
""fullscreenenter"",""1"",""4725""
","
","
","""event"",""trial"",""time""
""fullscreenenter"",""1"",""4725""
","
","","","768.3000000007451","","","12","6101","3521","z","elianto","#3366ff99"," "," ","1","0","[1618.8999999985099]","1","2","","","6101","120","5","1","win","go","1"
"pit-trial","239","1532101","0.0-125.0","battery-v0.2","","""event"",""trial"",""time""
""fullscreenenter"",""1"",""4725""
","
","
","""event"",""trial"",""time""
""fullscreenenter"",""1"",""4725""
","
","","","1975.800000000745","","","12","6101","3521","r","elianto","#3366ff99","-1"," ","0","0","[2826]","1","2","","","6101","121","8","2","win","no-go","0"
"pit-trial","240","1536957","0.0-126.0","battery-v0.2","","""event"",""trial"",""time""
""fullscreenenter"",""1"",""4725""
","
","
","""event"",""trial"",""time""
""fullscreenenter"",""1"",""4725""
","
","","","-1","","","12","6101","3521","y","elianto","#f73b6a7A"," ","-1","0","-10","[]","0","2","","","6101","122","7","3","lose","go","0"
"pit-trial","241","1541287","0.0-127.0","battery-v0.2","","""event"",""trial"",""time""
""fullscreenenter"",""1"",""4725""
","
","
","""event"",""trial"",""time""
""fullscreenenter"",""1"",""4725""
","
","","","1473.4000000003725","","","12","6101","3521","z","elianto","#3366ff99"," "," ","1","+10","[2324.4000000003725]","1","2","","","6101","123","5","1","win","go","0"
"pit-trial","242","1544911","0.0-128.0","battery-v0.2","","""event"",""trial"",""time""
""fullscreenenter"",""1"",""4725""
","
","
","""event"",""trial"",""time""
""fullscreenenter"",""1"",""4725""
","
","","","766.6000000014901","","","12","6101","3521","m","elianto","#3366ff99","-1"," ","0","0","[1617]","1","2","","","6101","124","9","2","win","no-go","0"
"pit-trial","243","1549766","0.0-129.0","battery-v0.2","","""event"",""trial"",""time""
""fullscreenenter"",""1"",""4725""
","
","
","""event"",""trial"",""time""
""fullscreenenter"",""1"",""4725""
","
","","","-1","","","12","6101","3521","r","elianto","#3366ff99","-1","-1","1","+10","[]","0","2","","","6101","125","8","2","win","no-go","0"
"pit-trial","244","1554621","0.0-130.0","battery-v0.2","","""event"",""trial"",""time""
""fullscreenenter"",""1"",""4725""
","
","
","""event"",""trial"",""time""
""fullscreenenter"",""1"",""4725""
","
","","","-1","","","12","6101","3521","m","elianto","#3366ff99","-1","-1","1","+10","[3108.699999999255]","1","2","","","6101","126","9","2","win","no-go","0"
"pit-trial","245","1559181","0.0-131.0","battery-v0.2","","""event"",""trial"",""time""
""fullscreenenter"",""1"",""4725""
","
","
","""event"",""trial"",""time""
""fullscreenenter"",""1"",""4725""
","
","","","1705.2000000011176","","","12","6101","3521","h","elianto","#f73b6a7A","-1"," ","0","0","[2555.2000000011176]","1","2","","","6101","127","6","4","lose","no-go","1"
"pit-trial","246","1564036","0.0-132.0","battery-v0.2","","""event"",""trial"",""time""
""fullscreenenter"",""1"",""4725""
","
","
","""event"",""trial"",""time""
""fullscreenenter"",""1"",""4725""
","
","","","-1","","","12","6101","3521","y","elianto","#f73b6a7A"," ","-1","0","0","[]","0","2","","","6101","128","7","3","lose","go","1"
"pit-trial","247","1568892","0.0-133.0","battery-v0.2","","""event"",""trial"",""time""
""fullscreenenter"",""1"",""4725""
","
","
","""event"",""trial"",""time""
""fullscreenenter"",""1"",""4725""
","
","","","-1","","","12","6101","3521","y","elianto","#f73b6a7A"," ","-1","0","-10","[]","0","2","","","6101","129","7","3","lose","go","0"
"pit-trial","248","1573748","0.0-134.0","battery-v0.2","","""event"",""trial"",""time""
""fullscreenenter"",""1"",""4725""
","
","
","""event"",""trial"",""time""
""fullscreenenter"",""1"",""4725""
","
","","","-1","","","12","6101","3521","m","elianto","#3366ff99","-1","-1","1","+10","[]","0","2","","","6101","130","9","2","win","no-go","0"
"pit-trial","249","1578603","0.0-135.0","battery-v0.2","","""event"",""trial"",""time""
""fullscreenenter"",""1"",""4725""
","
","
","""event"",""trial"",""time""
""fullscreenenter"",""1"",""4725""
","
","","","-1","","","12","6101","3521","r","elianto","#3366ff99","-1","-1","1","+10","[]","0","2","","","6101","131","8","2","win","no-go","0"
"pit-trial","250","1583412","0.0-136.0","battery-v0.2","","""event"",""trial"",""time""
""fullscreenenter"",""1"",""4725""
","
","
","""event"",""trial"",""time""
""fullscreenenter"",""1"",""4725""
","
","","","1953.5","","","12","6101","3521","h","elianto","#f73b6a7A","-1"," ","0","-10","[2803.699999999255]","1","2","","","6101","132","6","4","lose","no-go","0"
"pit-trial","251","1588271","0.0-137.0","battery-v0.2","","""event"",""trial"",""time""
""fullscreenenter"",""1"",""4725""
","
","
","""event"",""trial"",""time""
""fullscreenenter"",""1"",""4725""
","
","","","-1","","","12","6101","3521","y","elianto","#f73b6a7A"," ","-1","0","0","[]","0","2","","","6101","133","7","3","lose","go","1"
"pit-trial","252","1593127","0.0-138.0","battery-v0.2","","""event"",""trial"",""time""
""fullscreenenter"",""1"",""4725""
","
","
","""event"",""trial"",""time""
""fullscreenenter"",""1"",""4725""
","
","","","-1","","","12","6101","3521","h","elianto","#f73b6a7A","-1","-1","1","0","[]","0","2","","","6101","134","6","4","lose","no-go","0"
"pit-trial","253","1597983","0.0-139.0","battery-v0.2","","""event"",""trial"",""time""
""fullscreenenter"",""1"",""4725""
","
","
","""event"",""trial"",""time""
""fullscreenenter"",""1"",""4725""
","
","","","-1","","","12","6101","3521","r","elianto","#3366ff99","-1","-1","1","+10","[]","0","2","","","6101","135","8","2","win","no-go","0"
"pit-trial","254","1602839","0.0-140.0","battery-v0.2","","""event"",""trial"",""time""
""fullscreenenter"",""1"",""4725""
","
","
","""event"",""trial"",""time""
""fullscreenenter"",""1"",""4725""
","
","","","-1","","","12","6101","3521","m","elianto","#3366ff99","-1","-1","1","+10","[]","0","2","","","6101","136","9","2","win","no-go","0"
"pit-trial","255","1607695","0.0-141.0","battery-v0.2","","""event"",""trial"",""time""
""fullscreenenter"",""1"",""4725""
","
","
","""event"",""trial"",""time""
""fullscreenenter"",""1"",""4725""
","
","","","-1","","","12","6101","3521","y","elianto","#f73b6a7A"," ","-1","0","-10","[]","0","2","","","6101","137","7","3","lose","go","0"
"pit-trial","256","1611295","0.0-142.0","battery-v0.2","","""event"",""trial"",""time""
""fullscreenenter"",""1"",""4725""
","
","
","""event"",""trial"",""time""
""fullscreenenter"",""1"",""4725""
","
","","","743.7999999988824","","","12","6101","3521","m","elianto","#3366ff99","-1"," ","0","0","[1593.800000000745]","1","2","","","6101","138","9","2","win","no-go","0"
"pit-trial","257","1616151","0.0-143.0","battery-v0.2","","""event"",""trial"",""time""
""fullscreenenter"",""1"",""4725""
","
","
","""event"",""trial"",""time""
""fullscreenenter"",""1"",""4725""
","
","","","-1","","","12","6101","3521","h","elianto","#f73b6a7A","-1","-1","1","0","[]","0","2","","","6101","139","6","4","lose","no-go","0"
"pit-trial","258","1621007","0.0-144.0","battery-v0.2","","""event"",""trial"",""time""
""fullscreenenter"",""1"",""4725""
","
","
","""event"",""trial"",""time""
""fullscreenenter"",""1"",""4725""
","
","","","-1","","","12","6101","3521","r","elianto","#3366ff99","-1","-1","1","0","[]","0","2","","","6101","140","8","2","win","no-go","1"
"pit-instructions","259","1781379","0.0-145.0","battery-v0.2","","""event"",""trial"",""time""
""fullscreenenter"",""1"",""4725""
","
","
","""event"",""trial"",""time""
""fullscreenenter"",""1"",""4725""
","
","","[{""page_index"":0,""viewing_time"":151646.09999999963},{""page_index"":1,""viewing_time"":8721}]","160368.5","","","","","","","","","","","","","","","","","","","","","","","",""
"pit-trial","260","1786239","0.0-146.0","battery-v0.2","","""event"",""trial"",""time""
""fullscreenenter"",""1"",""4725""
","
","
","""event"",""trial"",""time""
""fullscreenenter"",""1"",""4725""
","
","","","-1","","","12","6101","3521","a","elianto","#f73b6a7A"," ","-1","0","0","[]","0","3","","","6101","141","2","3","lose","go","1"
"pit-trial","261","1791095","0.0-147.0","battery-v0.2","","""event"",""trial"",""time""
""fullscreenenter"",""1"",""4725""
","
","
","""event"",""trial"",""time""
""fullscreenenter"",""1"",""4725""
","
","","","-1","","","12","6101","3521","g","elianto","#f73b6a7A","-1","-1","1","0","[]","0","3","","","6101","142","3","4","lose","no-go","0"
"pit-trial","262","1794872","0.0-148.0","battery-v0.2","","""event"",""trial"",""time""
""fullscreenenter"",""1"",""4725""
","
","
","""event"",""trial"",""time""
""fullscreenenter"",""1"",""4725""
","
","","","921.9000000003725","","","12","6101","3521","l","elianto","#3366ff99","-1"," ","0","0","[1772.2000000011176]","1","3","","","6101","143","1","2","win","no-go","0"
"pit-trial","263","1799727","0.0-149.0","battery-v0.2","","""event"",""trial"",""time""
""fullscreenenter"",""1"",""4725""
","
","
","""event"",""trial"",""time""
""fullscreenenter"",""1"",""4725""
","
","","","-1","","","12","6101","3521","u","elianto","#f73b6a7A"," ","-1","0","0","[]","0","3","","","6101","144","0","3","lose","go","1"
"pit-trial","264","1803837","0.0-150.0","battery-v0.2","","""event"",""trial"",""time""
""fullscreenenter"",""1"",""4725""
","
","
","""event"",""trial"",""time""
""fullscreenenter"",""1"",""4725""
","
","","","1255.3999999985099","","","12","6101","3521","a","elianto","#f73b6a7A"," "," ","1","0","[2105.5]","1","3","","","6101","145","2","3","lose","go","0"
"pit-trial","265","1807471","0.0-151.0","battery-v0.2","","""event"",""trial"",""time""
""fullscreenenter"",""1"",""4725""
","
","
","""event"",""trial"",""time""
""fullscreenenter"",""1"",""4725""
","
","","","777.9000000003725","","","12","6101","3521","g","elianto","#f73b6a7A","-1"," ","0","-10","[1628.2000000011176]","1","3","","","6101","146","3","4","lose","no-go","0"
"pit-trial","266","1811405","0.0-152.0","battery-v0.2","","""event"",""trial"",""time""
""fullscreenenter"",""1"",""4725""
","
","
","""event"",""trial"",""time""
""fullscreenenter"",""1"",""4725""
","
","","","1079.5999999996275","","","12","6101","3521","l","elianto","#3366ff99","-1"," ","0","0","[1929.800000000745]","1","3","","","6101","147","1","2","win","no-go","0"
"pit-trial","267","1816261","0.0-153.0","battery-v0.2","","""event"",""trial"",""time""
""fullscreenenter"",""1"",""4725""
","
","
","""event"",""trial"",""time""
""fullscreenenter"",""1"",""4725""
","
","","","-1","","","12","6101","3521","u","elianto","#f73b6a7A"," ","-1","0","-10","[]","0","3","","","6101","148","0","3","lose","go","0"
"pit-trial","268","1819723","0.0-154.0","battery-v0.2","","""event"",""trial"",""time""
""fullscreenenter"",""1"",""4725""
","
","
","""event"",""trial"",""time""
""fullscreenenter"",""1"",""4725""
","
","","","606.8000000007451","","","12","6101","3521","l","elianto","#3366ff99","-1"," ","0","0","[1457.2000000011176]","1","3","","","6101","149","1","2","win","no-go","0"
"pit-trial","269","1824579","0.0-155.0","battery-v0.2","","""event"",""trial"",""time""
""fullscreenenter"",""1"",""4725""
","
","
","""event"",""trial"",""time""
""fullscreenenter"",""1"",""4725""
","
","","","-1","","","12","6101","3521","g","elianto","#f73b6a7A","-1","-1","1","0","[]","0","3","","","6101","150","3","4","lose","no-go","0"
"pit-trial","270","1828807","0.0-156.0","battery-v0.2","","""event"",""trial"",""time""
""fullscreenenter"",""1"",""4725""
","
","
","""event"",""trial"",""time""
""fullscreenenter"",""1"",""4725""
","
","","","1370.4000000003725","","","12","6101","3521","u","elianto","#f73b6a7A"," "," ","1","0","[2222.0999999996275]","1","3","","","6101","151","0","3","lose","go","0"
"pit-trial","271","1832585","0.0-157.0","battery-v0.2","","""event"",""trial"",""time""
