"trial_type","trial_index","time_elapsed","internal_node_id","task_version","subject_id","interactions","blur_events","focus_events","fullscreenenter_events","fullscreenexit_events","success","view_history","rt","responses","num_errors","age","subject","participantId","rune","rune_set","hex","correct","choice","accuracy","outcome","keys","total_keys","block","practice","value","sub","trial","stimulus","robot","valence","action","sham"
"pavlovia","0","30","0.0-0.0","battery-v0.2","","""event"",""trial"",""time""
""focus"",""0"",""3""
""fullscreenenter"",""1"",""1777""
","
","""event"",""trial"",""time""
""focus"",""0"",""3""
","""event"",""trial"",""time""
""fullscreenenter"",""1"",""1777""
","
","","","","","","","","","","","","","","","","","","","","","","","","","","",""
"fullscreen","1","2765","0.0-1.0","battery-v0.2","","""event"",""trial"",""time""
""focus"",""0"",""3""
""fullscreenenter"",""1"",""1777""
","
","""event"",""trial"",""time""
""focus"",""0"",""3""
","""event"",""trial"",""time""
""fullscreenenter"",""1"",""1777""
","
","true","","","","","","","","","","","","","","","","","","","","","","","","","",""
"pit-instructions","2","6969","0.0-2.0-0.0","battery-v0.2","","""event"",""trial"",""time""
""focus"",""0"",""3""
""fullscreenenter"",""1"",""1777""
","
","""event"",""trial"",""time""
""focus"",""0"",""3""
","""event"",""trial"",""time""
""fullscreenenter"",""1"",""1777""
","
","","[{""page_index"":0,""viewing_time"":4195}]","4195","","","","","","","","","","","","","","","","","","","","","","","",""
"pit-comprehension","3","9969","0.0-2.0-1.0-0.0","battery-v0.2","","""event"",""trial"",""time""
""focus"",""0"",""3""
""fullscreenenter"",""1"",""1777""
","
","""event"",""trial"",""time""
""focus"",""0"",""3""
","""event"",""trial"",""time""
""fullscreenenter"",""1"",""1777""
","
","","","2991","[""shark""]","0","11","7081","3848","","","","","","","","","","","","","","","","","","",""
"pit-instructions","4","11366","0.0-2.0-1.0-1.0","battery-v0.2","","""event"",""trial"",""time""
""focus"",""0"",""3""
""fullscreenenter"",""1"",""1777""
","
","""event"",""trial"",""time""
""focus"",""0"",""3""
","""event"",""trial"",""time""
""fullscreenenter"",""1"",""1777""
","
","","[{""page_index"":0,""viewing_time"":1347}]","1348","","","","","","","","","","","","","","","","","","","","","","","",""
"pit-comprehension","5","13529","0.0-2.0-2.0-0.0","battery-v0.2","","""event"",""trial"",""time""
""focus"",""0"",""3""
""fullscreenenter"",""1"",""1777""
","
","""event"",""trial"",""time""
""focus"",""0"",""3""
","""event"",""trial"",""time""
""fullscreenenter"",""1"",""1777""
","
","","","2158","[""tiger""]","0","11","7081","3848","","","","","","","","","","","","","","","","","","",""
"pit-instructions","6","15090","0.0-2.0-2.0-1.0","battery-v0.2","","""event"",""trial"",""time""
""focus"",""0"",""3""
""fullscreenenter"",""1"",""1777""
","
","""event"",""trial"",""time""
""focus"",""0"",""3""
","""event"",""trial"",""time""
""fullscreenenter"",""1"",""1777""
","
","","[{""page_index"":0,""viewing_time"":1554}]","1554","","","","","","","","","","","","","","","","","","","","","","","",""
"pit-instructions","7","117552","0.0-2.0-3.0","battery-v0.2","","""event"",""trial"",""time""
""focus"",""0"",""3""
""fullscreenenter"",""1"",""1777""
","
","""event"",""trial"",""time""
""focus"",""0"",""3""
","""event"",""trial"",""time""
""fullscreenenter"",""1"",""1777""
","
","","[{""page_index"":0,""viewing_time"":7713},{""page_index"":1,""viewing_time"":5905},{""page_index"":2,""viewing_time"":6407},{""page_index"":3,""viewing_time"":6479},{""page_index"":4,""viewing_time"":5761},{""page_index"":5,""viewing_time"":5359},{""page_index"":6,""viewing_time"":6729},{""page_index"":7,""viewing_time"":6263},{""page_index"":8,""viewing_time"":6192},{""page_index"":9,""viewing_time"":9960},{""page_index"":10,""viewing_time"":7616},{""page_index"":11,""viewing_time"":12664},{""page_index"":12,""viewing_time"":10928},{""page_index"":13,""viewing_time"":4480}]","102456","","","","","","","","","","","","","","","","","","","","","","","",""
"pit-trial","8","120920","0.0-2.0-4.0-0.0","battery-v0.2","","""event"",""trial"",""time""
""focus"",""0"",""3""
""fullscreenenter"",""1"",""1777""
","
","""event"",""trial"",""time""
""focus"",""0"",""3""
","""event"",""trial"",""time""
""fullscreenenter"",""1"",""1777""
","
","","","480","","","11","7081","3848","&#9784;","elianto","#FFFFF080"," "," ","1","&#10004","[1344]","1","0","0","","","","","","","",""
"pit-trial","9","124170","0.0-2.0-4.1-0.1","battery-v0.2","","""event"",""trial"",""time""
""focus"",""0"",""3""
""fullscreenenter"",""1"",""1777""
","
","""event"",""trial"",""time""
""focus"",""0"",""3""
","""event"",""trial"",""time""
""fullscreenenter"",""1"",""1777""
","
","","","387","","","11","7081","3848","&#9784;","elianto","#FFFFF080"," "," ","1","&#10004","[1240]","1","0","0","","","","","","","",""
"pit-trial","10","127581","0.0-2.0-4.2-0.2","battery-v0.2","","""event"",""trial"",""time""
""focus"",""0"",""3""
""fullscreenenter"",""1"",""1777""
","
","""event"",""trial"",""time""
""focus"",""0"",""3""
","""event"",""trial"",""time""
""fullscreenenter"",""1"",""1777""
","
","","","542","","","11","7081","3848","&#9784;","elianto","#FFFFF080"," "," ","1","&#10004","[1397]","1","0","0","","","","","","","",""
"pit-trial","11","131019","0.0-2.0-4.3-0.3","battery-v0.2","","""event"",""trial"",""time""
""focus"",""0"",""3""
""fullscreenenter"",""1"",""1777""
","
","""event"",""trial"",""time""
""focus"",""0"",""3""
","""event"",""trial"",""time""
""fullscreenenter"",""1"",""1777""
","
","","","576","","","11","7081","3848","&#9784;","elianto","#FFFFF080"," "," ","1","&#10004","[1430]","1","0","0","","","","","","","",""
"pit-trial","12","134379","0.0-2.0-4.4-0.4","battery-v0.2","","""event"",""trial"",""time""
""focus"",""0"",""3""
""fullscreenenter"",""1"",""1777""
","
","""event"",""trial"",""time""
""focus"",""0"",""3""
","""event"",""trial"",""time""
""fullscreenenter"",""1"",""1777""
","
","","","482","","","11","7081","3848","&#9784;","elianto","#FFFFF080"," "," ","1","&#10004","[1338]","1","0","0","","","","","","","",""
"pit-instructions","13","157231","0.0-2.0-5.0","battery-v0.2","","""event"",""trial"",""time""
""focus"",""0"",""3""
""fullscreenenter"",""1"",""1777""
","
","""event"",""trial"",""time""
""focus"",""0"",""3""
","""event"",""trial"",""time""
""fullscreenenter"",""1"",""1777""
","
","","[{""page_index"":0,""viewing_time"":5706},{""page_index"":1,""viewing_time"":5544},{""page_index"":2,""viewing_time"":5408},{""page_index"":3,""viewing_time"":6183}]","22842","","","","","","","","","","","","","","","","","","","","","","","",""
"pit-trial","14","162110","0.0-2.0-6.0-0.0","battery-v0.2","","""event"",""trial"",""time""
""focus"",""0"",""3""
""fullscreenenter"",""1"",""1777""
","
","""event"",""trial"",""time""
""focus"",""0"",""3""
","""event"",""trial"",""time""
""fullscreenenter"",""1"",""1777""
","
","","","-1","","","11","7081","3848","&#9854;","elianto","#FFFFF080","-1","-1","1","&#10004","[]","0","0","1","","","","","","","",""
"pit-trial","15","166999","0.0-2.0-6.1-0.1","battery-v0.2","","""event"",""trial"",""time""
""focus"",""0"",""3""
""fullscreenenter"",""1"",""1777""
","
","""event"",""trial"",""time""
""focus"",""0"",""3""
","""event"",""trial"",""time""
""fullscreenenter"",""1"",""1777""
","
","","","-1","","","11","7081","3848","&#9854;","elianto","#FFFFF080","-1","-1","1","&#10004","[]","0","0","1","","","","","","","",""
"pit-trial","16","171869","0.0-2.0-6.2-0.2","battery-v0.2","","""event"",""trial"",""time""
""focus"",""0"",""3""
""fullscreenenter"",""1"",""1777""
","
","""event"",""trial"",""time""
""focus"",""0"",""3""
","""event"",""trial"",""time""
""fullscreenenter"",""1"",""1777""
","
","","","-1","","","11","7081","3848","&#9854;","elianto","#FFFFF080","-1","-1","1","&#10004","[]","0","0","1","","","","","","","",""
"pit-trial","17","176751","0.0-2.0-6.3-0.3","battery-v0.2","","""event"",""trial"",""time""
""focus"",""0"",""3""
""fullscreenenter"",""1"",""1777""
","
","""event"",""trial"",""time""
""focus"",""0"",""3""
","""event"",""trial"",""time""
""fullscreenenter"",""1"",""1777""
","
","","","-1","","","11","7081","3848","&#9854;","elianto","#FFFFF080","-1","-1","1","&#10004","[]","0","0","1","","","","","","","",""
"pit-trial","18","181630","0.0-2.0-6.4-0.4","battery-v0.2","","""event"",""trial"",""time""
""focus"",""0"",""3""
""fullscreenenter"",""1"",""1777""
","
","""event"",""trial"",""time""
""focus"",""0"",""3""
","""event"",""trial"",""time""
""fullscreenenter"",""1"",""1777""
","
","","","-1","","","11","7081","3848","&#9854;","elianto","#FFFFF080","-1","-1","1","&#10004","[]","0","0","1","","","","","","","",""
"pit-instructions","19","291014","0.0-2.0-7.0","battery-v0.2","","""event"",""trial"",""time""
""focus"",""0"",""3""
""fullscreenenter"",""1"",""1777""
","
","""event"",""trial"",""time""
""focus"",""0"",""3""
","""event"",""trial"",""time""
""fullscreenenter"",""1"",""1777""
","
","","[{""page_index"":0,""viewing_time"":6294},{""page_index"":1,""viewing_time"":6759},{""page_index"":2,""viewing_time"":5472},{""page_index"":3,""viewing_time"":5960},{""page_index"":4,""viewing_time"":5560},{""page_index"":5,""viewing_time"":5272},{""page_index"":6,""viewing_time"":4440},{""page_index"":7,""viewing_time"":7224},{""page_index"":8,""viewing_time"":6048},{""page_index"":9,""viewing_time"":5799},{""page_index"":10,""viewing_time"":6529},{""page_index"":11,""viewing_time"":5152},{""page_index"":12,""viewing_time"":6480},{""page_index"":13,""viewing_time"":6432},{""page_index"":14,""viewing_time"":7039},{""page_index"":15,""viewing_time"":6648},{""page_index"":16,""viewing_time"":6240},{""page_index"":17,""viewing_time"":6024}]","109373","","","","","","","","","","","","","","","","","","","","","","","",""
"pit-trial","20","294678","0.0-2.0-8.0-0.0","battery-v0.2","","""event"",""trial"",""time""
""focus"",""0"",""3""
""fullscreenenter"",""1"",""1777""
","
","""event"",""trial"",""time""
""focus"",""0"",""3""
","""event"",""trial"",""time""
""fullscreenenter"",""1"",""1777""
","
","","","790","","","11","7081","3848","&#9776;","elianto","#3366ff99"," "," ","1","+10","[1649]","1","0","1","","","","","","","",""
"pit-trial","21","298119","0.0-2.0-8.0-1.0","battery-v0.2","","""event"",""trial"",""time""
""focus"",""0"",""3""
""fullscreenenter"",""1"",""1777""
","
","""event"",""trial"",""time""
""focus"",""0"",""3""
","""event"",""trial"",""time""
""fullscreenenter"",""1"",""1777""
","
","","","567","","","11","7081","3848","&#9776;","elianto","#3366ff99"," "," ","1","+10","[1422]","1","0","1","","","","","","","",""
"pit-trial","22","301594","0.0-2.0-8.0-2.0","battery-v0.2","","""event"",""trial"",""time""
""focus"",""0"",""3""
""fullscreenenter"",""1"",""1777""
","
","""event"",""trial"",""time""
""focus"",""0"",""3""
","""event"",""trial"",""time""
""fullscreenenter"",""1"",""1777""
","
","","","612","","","11","7081","3848","&#9776;","elianto","#3366ff99"," "," ","1","+10","[1468]","1","0","1","","","","","","","",""
"pit-trial","23","305038","0.0-2.0-8.0-3.0","battery-v0.2","","""event"",""trial"",""time""
""focus"",""0"",""3""
""fullscreenenter"",""1"",""1777""
","
","""event"",""trial"",""time""
""focus"",""0"",""3""
","""event"",""trial"",""time""
""fullscreenenter"",""1"",""1777""
","
","","","568","","","11","7081","3848","&#9776;","elianto","#3366ff99"," "," ","1","0","[1428]","1","0","1","","","","","","","",""
"pit-trial","24","308498","0.0-2.0-8.0-4.0","battery-v0.2","","""event"",""trial"",""time""
""focus"",""0"",""3""
""fullscreenenter"",""1"",""1777""
","
","""event"",""trial"",""time""
""focus"",""0"",""3""
","""event"",""trial"",""time""
""fullscreenenter"",""1"",""1777""
","
","","","594","","","11","7081","3848","&#9776;","elianto","#3366ff99"," "," ","1","+10","[1450]","1","0","1","","","","","","","",""
"pit-trial","25","312198","0.0-2.0-8.1-0.1","battery-v0.2","","""event"",""trial"",""time""
""focus"",""0"",""3""
""fullscreenenter"",""1"",""1777""
","
","""event"",""trial"",""time""
""focus"",""0"",""3""
","""event"",""trial"",""time""
""fullscreenenter"",""1"",""1777""
","
","","","837","","","11","7081","3848","&#9776;","elianto","#3366ff99"," "," ","1","+10","[1694]","1","0","1","","","","","","","",""
"pit-trial","26","315866","0.0-2.0-8.1-1.1","battery-v0.2","","""event"",""trial"",""time""
""focus"",""0"",""3""
""fullscreenenter"",""1"",""1777""
","
","""event"",""trial"",""time""
""focus"",""0"",""3""
","""event"",""trial"",""time""
""fullscreenenter"",""1"",""1777""
","
","","","782","","","11","7081","3848","&#9776;","elianto","#3366ff99"," "," ","1","+10","[1638]","1","0","1","","","","","","","",""
"pit-trial","27","320748","0.0-2.0-8.1-2.1","battery-v0.2","","""event"",""trial"",""time""
""focus"",""0"",""3""
""fullscreenenter"",""1"",""1777""
","
","""event"",""trial"",""time""
""focus"",""0"",""3""
","""event"",""trial"",""time""
""fullscreenenter"",""1"",""1777""
","
","","","-1","","","11","7081","3848","&#9776;","elianto","#3366ff99"," ","-1","0","0","[]","0","0","1","","","","","","","",""
"pit-trial","28","324027","0.0-2.0-8.1-3.1","battery-v0.2","","""event"",""trial"",""time""
""focus"",""0"",""3""
""fullscreenenter"",""1"",""1777""
","
","""event"",""trial"",""time""
""focus"",""0"",""3""
","""event"",""trial"",""time""
""fullscreenenter"",""1"",""1777""
","
","","","412","","","11","7081","3848","&#9776;","elianto","#3366ff99"," "," ","1","0","[1268]","1","0","1","","","","","","","",""
"pit-trial","29","327338","0.0-2.0-8.1-4.1","battery-v0.2","","""event"",""trial"",""time""
""focus"",""0"",""3""
""fullscreenenter"",""1"",""1777""
","
","""event"",""trial"",""time""
""focus"",""0"",""3""
","""event"",""trial"",""time""
""fullscreenenter"",""1"",""1777""
","
","","","434","","","11","7081","3848","&#9776;","elianto","#3366ff99"," "," ","1","+10","[1304]","1","0","1","","","","","","","",""
"pit-trial","30","331018","0.0-2.0-8.2-0.2","battery-v0.2","","""event"",""trial"",""time""
""focus"",""0"",""3""
""fullscreenenter"",""1"",""1777""
","
","""event"",""trial"",""time""
""focus"",""0"",""3""
","""event"",""trial"",""time""
""fullscreenenter"",""1"",""1777""
","
","","","804","","","11","7081","3848","&#9776;","elianto","#3366ff99"," "," ","1","+10","[1660]","1","0","1","","","","","","","",""
"pit-trial","31","334187","0.0-2.0-8.2-1.2","battery-v0.2","","""event"",""trial"",""time""
""focus"",""0"",""3""
""fullscreenenter"",""1"",""1777""
","
","""event"",""trial"",""time""
""focus"",""0"",""3""
","""event"",""trial"",""time""
""fullscreenenter"",""1"",""1777""
","
","","","291","","","11","7081","3848","&#9776;","elianto","#3366ff99"," "," ","1","+10","[1147]","1","0","1","","","","","","","",""
"pit-trial","32","339069","0.0-2.0-8.2-2.2","battery-v0.2","","""event"",""trial"",""time""
""focus"",""0"",""3""
""fullscreenenter"",""1"",""1777""
","
","""event"",""trial"",""time""
""focus"",""0"",""3""
","""event"",""trial"",""time""
""fullscreenenter"",""1"",""1777""
","
","","","-1","","","11","7081","3848","&#9776;","elianto","#3366ff99"," ","-1","0","0","[]","0","0","1","","","","","","","",""
"pit-trial","33","343958","0.0-2.0-8.2-3.2","battery-v0.2","","""event"",""trial"",""time""
""focus"",""0"",""3""
""fullscreenenter"",""1"",""1777""
","
","""event"",""trial"",""time""
""focus"",""0"",""3""
","""event"",""trial"",""time""
""fullscreenenter"",""1"",""1777""
","
","","","-1","","","11","7081","3848","&#9776;","elianto","#3366ff99"," ","-1","0","+10","[3467]","1","0","1","","","","","","","",""
"pit-trial","34","346998","0.0-2.0-8.2-4.2","battery-v0.2","","""event"",""trial"",""time""
""focus"",""0"",""3""
""fullscreenenter"",""1"",""1777""
","
","""event"",""trial"",""time""
""focus"",""0"",""3""
","""event"",""trial"",""time""
""fullscreenenter"",""1"",""1777""
","
","","","168","","","11","7081","3848","&#9776;","elianto","#3366ff99"," "," ","1","+10","[1024]","1","0","1","","","","","","","",""
"call-function","35","347001","0.0-2.0-9.0","battery-v0.2","","""event"",""trial"",""time""
""focus"",""0"",""3""
""fullscreenenter"",""1"",""1777""
","
","""event"",""trial"",""time""
""focus"",""0"",""3""
","""event"",""trial"",""time""
""fullscreenenter"",""1"",""1777""
","
","","","","","","","","","","","","","","","","","","","","","","","","","","",""
"pit-instructions","36","384940","0.0-2.0-10.0","battery-v0.2","","""event"",""trial"",""time""
""focus"",""0"",""3""
""fullscreenenter"",""1"",""1777""
","
","""event"",""trial"",""time""
""focus"",""0"",""3""
","""event"",""trial"",""time""
""fullscreenenter"",""1"",""1777""
","
","","[{""page_index"":0,""viewing_time"":5411},{""page_index"":1,""viewing_time"":6528},{""page_index"":2,""viewing_time"":9903},{""page_index"":3,""viewing_time"":8696},{""page_index"":4,""viewing_time"":7400}]","37938","","","","","","","","","","","","","","","","","","","","","","","",""
"pit-trial","37","389796","0.0-2.0-11.0-0.0","battery-v0.2","","""event"",""trial"",""time""
""focus"",""0"",""3""
""fullscreenenter"",""1"",""1777""
","
","""event"",""trial"",""time""
""focus"",""0"",""3""
","""event"",""trial"",""time""
""fullscreenenter"",""1"",""1777""
","
","","","-1","","","11","7081","3848","&#9761;","elianto","#3366ff99","-1","-1","1","+10","[]","0","0","2","","","","","","","",""
"pit-trial","38","394678","0.0-2.0-11.0-1.0","battery-v0.2","","""event"",""trial"",""time""
""focus"",""0"",""3""
""fullscreenenter"",""1"",""1777""
","
","""event"",""trial"",""time""
""focus"",""0"",""3""
","""event"",""trial"",""time""
""fullscreenenter"",""1"",""1777""
","
","","","-1","","","11","7081","3848","&#9761;","elianto","#3366ff99","-1","-1","1","+10","[]","0","0","2","","","","","","","",""
"pit-trial","39","397977","0.0-2.0-11.0-2.0","battery-v0.2","","""event"",""trial"",""time""
""focus"",""0"",""3""
""fullscreenenter"",""1"",""1777""
","
","""event"",""trial"",""time""
""focus"",""0"",""3""
","""event"",""trial"",""time""
""fullscreenenter"",""1"",""1777""
","
","","","431","","","11","7081","3848","&#9761;","elianto","#3366ff99","-1"," ","0","0","[1286]","1","0","2","","","","","","","",""
"pit-trial","40","401967","0.0-2.0-11.0-3.0","battery-v0.2","","""event"",""trial"",""time""
""focus"",""0"",""3""
""fullscreenenter"",""1"",""1777""
","
","""event"",""trial"",""time""
""focus"",""0"",""3""
","""event"",""trial"",""time""
""fullscreenenter"",""1"",""1777""
","
","","","1119","","","11","7081","3848","&#9761;","elianto","#3366ff99","-1"," ","0","+10","[1976]","1","0","2","","","","","","","",""
"pit-trial","41","406448","0.0-2.0-11.0-4.0","battery-v0.2","","""event"",""trial"",""time""
""focus"",""0"",""3""
""fullscreenenter"",""1"",""1777""
","
","""event"",""trial"",""time""
""focus"",""0"",""3""
","""event"",""trial"",""time""
""fullscreenenter"",""1"",""1777""
","
","","","1616","","","11","7081","3848","&#9761;","elianto","#3366ff99","-1"," ","0","0","[2472]","1","0","2","","","","","","","",""
"pit-trial","42","411327","0.0-2.0-11.1-0.1","battery-v0.2","","""event"",""trial"",""time""
""focus"",""0"",""3""
""fullscreenenter"",""1"",""1777""
","
","""event"",""trial"",""time""
""focus"",""0"",""3""
","""event"",""trial"",""time""
""fullscreenenter"",""1"",""1777""
","
","","","-1","","","11","7081","3848","&#9761;","elianto","#3366ff99","-1","-1","1","+10","[]","0","0","2","","","","","","","",""
"pit-trial","43","414866","0.0-2.0-11.1-1.1","battery-v0.2","","""event"",""trial"",""time""
""focus"",""0"",""3""
""fullscreenenter"",""1"",""1777""
","
","""event"",""trial"",""time""
""focus"",""0"",""3""
","""event"",""trial"",""time""
""fullscreenenter"",""1"",""1777""
","
","","","678","","","11","7081","3848","&#9761;","elianto","#3366ff99","-1"," ","0","0","[1529]","1","0","2","","","","","","","",""
"pit-trial","44","418196","0.0-2.0-11.1-2.1","battery-v0.2","","""event"",""trial"",""time""
""focus"",""0"",""3""
""fullscreenenter"",""1"",""1777""
","
","""event"",""trial"",""time""
""focus"",""0"",""3""
","""event"",""trial"",""time""
""fullscreenenter"",""1"",""1777""
","
","","","439","","","11","7081","3848","&#9761;","elianto","#3366ff99","-1"," ","0","0","[1306]","1","0","2","","","","","","","",""
"pit-trial","45","421536","0.0-2.0-11.1-3.1","battery-v0.2","","""event"",""trial"",""time""
""focus"",""0"",""3""
""fullscreenenter"",""1"",""1777""
","
","""event"",""trial"",""time""
""focus"",""0"",""3""
","""event"",""trial"",""time""
""fullscreenenter"",""1"",""1777""
","
","","","477","","","11","7081","3848","&#9761;","elianto","#3366ff99","-1"," ","0","+10","[210,1333]","2","0","2","","","","","","","",""
"pit-trial","46","424427","0.0-2.0-11.1-4.1","battery-v0.2","","""event"",""trial"",""time""
""focus"",""0"",""3""
""fullscreenenter"",""1"",""1777""
","
","""event"",""trial"",""time""
""focus"",""0"",""3""
","""event"",""trial"",""time""
""fullscreenenter"",""1"",""1777""
","
","","","17","","","11","7081","3848","&#9761;","elianto","#3366ff99","-1"," ","0","0","[884]","1","0","2","","","","","","","",""
"pit-trial","47","429307","0.0-2.0-11.2-0.2","battery-v0.2","","""event"",""trial"",""time""
""focus"",""0"",""3""
""fullscreenenter"",""1"",""1777""
","
","""event"",""trial"",""time""
""focus"",""0"",""3""
","""event"",""trial"",""time""
""fullscreenenter"",""1"",""1777""
","
","","","-1","","","11","7081","3848","&#9761;","elianto","#3366ff99","-1","-1","1","+10","[]","0","0","2","","","","","","","",""
"pit-trial","48","433508","0.0-2.0-11.2-1.2","battery-v0.2","","""event"",""trial"",""time""
""focus"",""0"",""3""
""fullscreenenter"",""1"",""1777""
","
","""event"",""trial"",""time""
""focus"",""0"",""3""
","""event"",""trial"",""time""
""fullscreenenter"",""1"",""1777""
","
","","","1330","","","11","7081","3848","&#9761;","elianto","#3366ff99","-1"," ","0","0","[2184]","1","0","2","","","","","","","",""
"pit-trial","49","438397","0.0-2.0-11.2-2.2","battery-v0.2","","""event"",""trial"",""time""
""focus"",""0"",""3""
""fullscreenenter"",""1"",""1777""
","
","""event"",""trial"",""time""
""focus"",""0"",""3""
","""event"",""trial"",""time""
""fullscreenenter"",""1"",""1777""
","
","","","-1","","","11","7081","3848","&#9761;","elianto","#3366ff99","-1","-1","1","+10","[]","0","0","2","","","","","","","",""
"pit-trial","50","443277","0.0-2.0-11.2-3.2","battery-v0.2","","""event"",""trial"",""time""
""focus"",""0"",""3""
""fullscreenenter"",""1"",""1777""
","
","""event"",""trial"",""time""
""focus"",""0"",""3""
","""event"",""trial"",""time""
""fullscreenenter"",""1"",""1777""
","
","","","-1","","","11","7081","3848","&#9761;","elianto","#3366ff99","-1","-1","1","0","[]","0","0","2","","","","","","","",""
"pit-trial","51","446677","0.0-2.0-11.2-4.2","battery-v0.2","","""event"",""trial"",""time""
""focus"",""0"",""3""
""fullscreenenter"",""1"",""1777""
","
","""event"",""trial"",""time""
""focus"",""0"",""3""
","""event"",""trial"",""time""
""fullscreenenter"",""1"",""1777""
","
","","","522","","","11","7081","3848","&#9761;","elianto","#3366ff99","-1"," ","0","0","[1378]","1","0","2","","","","","","","",""
"pit-trial","52","449577","0.0-2.0-11.3-0.3","battery-v0.2","","""event"",""trial"",""time""
""focus"",""0"",""3""
""fullscreenenter"",""1"",""1777""
","
","""event"",""trial"",""time""
""focus"",""0"",""3""
","""event"",""trial"",""time""
""fullscreenenter"",""1"",""1777""
","
","","","26","","","11","7081","3848","&#9761;","elianto","#3366ff99","-1"," ","0","0","[471,882,2613,2701]","4","0","2","","","","","","","",""
"pit-trial","53","452496","0.0-2.0-11.3-1.3","battery-v0.2","","""event"",""trial"",""time""
""focus"",""0"",""3""
""fullscreenenter"",""1"",""1777""
","
","""event"",""trial"",""time""
""focus"",""0"",""3""
","""event"",""trial"",""time""
""fullscreenenter"",""1"",""1777""
","
","","","56","","","11","7081","3848","&#9761;","elianto","#3366ff99","-1"," ","0","0","[119,575,912,952,1457]","5","0","2","","","","","","","",""
"pit-trial","54","457377","0.0-2.0-11.3-2.3","battery-v0.2","","""event"",""trial"",""time""
""focus"",""0"",""3""
""fullscreenenter"",""1"",""1777""
","
","""event"",""trial"",""time""
""focus"",""0"",""3""
","""event"",""trial"",""time""
""fullscreenenter"",""1"",""1777""
","
","","","-1","","","11","7081","3848","&#9761;","elianto","#3366ff99","-1","-1","1","+10","[]","0","0","2","","","","","","","",""
"pit-trial","55","462257","0.0-2.0-11.3-3.3","battery-v0.2","","""event"",""trial"",""time""
""focus"",""0"",""3""
""fullscreenenter"",""1"",""1777""
","
","""event"",""trial"",""time""
""focus"",""0"",""3""
","""event"",""trial"",""time""
""fullscreenenter"",""1"",""1777""
","
","","","-1","","","11","7081","3848","&#9761;","elianto","#3366ff99","-1","-1","1","0","[]","0","0","2","","","","","","","",""
"pit-trial","56","467127","0.0-2.0-11.3-4.3","battery-v0.2","","""event"",""trial"",""time""
""focus"",""0"",""3""
""fullscreenenter"",""1"",""1777""
","
","""event"",""trial"",""time""
""focus"",""0"",""3""
","""event"",""trial"",""time""
""fullscreenenter"",""1"",""1777""
","
","","","-1","","","11","7081","3848","&#9761;","elianto","#3366ff99","-1","-1","1","+10","[]","0","0","2","","","","","","","",""
"call-function","57","467129","0.0-2.0-12.0","battery-v0.2","","""event"",""trial"",""time""
""focus"",""0"",""3""
""fullscreenenter"",""1"",""1777""
","
","""event"",""trial"",""time""
""focus"",""0"",""3""
","""event"",""trial"",""time""
""fullscreenenter"",""1"",""1777""
","
","","","","","","","","","","","","","","","","","","","","","","","","","","",""
"pit-instructions","58","501724","0.0-2.0-13.0","battery-v0.2","","""event"",""trial"",""time""
""focus"",""0"",""3""
""fullscreenenter"",""1"",""1777""
","
","""event"",""trial"",""time""
""focus"",""0"",""3""
","""event"",""trial"",""time""
""fullscreenenter"",""1"",""1777""
","
","","[{""page_index"":0,""viewing_time"":6611},{""page_index"":1,""viewing_time"":8045},{""page_index"":2,""viewing_time"":3649},{""page_index"":3,""viewing_time"":10784},{""page_index"":4,""viewing_time"":5504}]","34594","","","","","","","","","","","","","","","","","","","","","","","",""
"pit-trial","59","505126","0.0-2.0-14.0-0.0","battery-v0.2","","""event"",""trial"",""time""
""focus"",""0"",""3""
""fullscreenenter"",""1"",""1777""
","
","""event"",""trial"",""time""
""focus"",""0"",""3""
","""event"",""trial"",""time""
""fullscreenenter"",""1"",""1777""
","
","","","525","","","11","7081","3848","&#9826;","elianto","#f73b6a7A","-1"," ","0","-10","[1383]","1","0","3","","","","","","","",""
"pit-trial","60","510005","0.0-2.0-14.0-1.0","battery-v0.2","","""event"",""trial"",""time""
""focus"",""0"",""3""
""fullscreenenter"",""1"",""1777""
","
","""event"",""trial"",""time""
""focus"",""0"",""3""
","""event"",""trial"",""time""
""fullscreenenter"",""1"",""1777""
","
","","","-1","","","11","7081","3848","&#9826;","elianto","#f73b6a7A","-1","-1","1","0","[]","0","0","3","","","","","","","",""
"pit-trial","61","513665","0.0-2.0-14.0-2.0","battery-v0.2","","""event"",""trial"",""time""
""focus"",""0"",""3""
""fullscreenenter"",""1"",""1777""
","
","""event"",""trial"",""time""
""focus"",""0"",""3""
","""event"",""trial"",""time""
""fullscreenenter"",""1"",""1777""
","
","","","782","","","11","7081","3848","&#9826;","elianto","#f73b6a7A","-1"," ","0","-10","[1639]","1","0","3","","","","","","","",""
"pit-trial","62","518556","0.0-2.0-14.0-3.0","battery-v0.2","","""event"",""trial"",""time""
""focus"",""0"",""3""
""fullscreenenter"",""1"",""1777""
","
","""event"",""trial"",""time""
""focus"",""0"",""3""
","""event"",""trial"",""time""
""fullscreenenter"",""1"",""1777""
","
","","","-1","","","11","7081","3848","&#9826;","elianto","#f73b6a7A","-1","-1","1","-10","[]","0","0","3","","","","","","","",""
"pit-trial","63","521935","0.0-2.0-14.0-4.0","battery-v0.2","","""event"",""trial"",""time""
""focus"",""0"",""3""
""fullscreenenter"",""1"",""1777""
","
","""event"",""trial"",""time""
""focus"",""0"",""3""
","""event"",""trial"",""time""
""fullscreenenter"",""1"",""1777""
","
","","","504","","","11","7081","3848","&#9826;","elianto","#f73b6a7A","-1"," ","0","-10","[1360]","1","0","3","","","","","","","",""
"pit-trial","64","525436","0.0-2.0-14.1-0.1","battery-v0.2","","""event"",""trial"",""time""
""focus"",""0"",""3""
""fullscreenenter"",""1"",""1777""
","
","""event"",""trial"",""time""
""focus"",""0"",""3""
","""event"",""trial"",""time""
""fullscreenenter"",""1"",""1777""
","
","","","639","","","11","7081","3848","&#9826;","elianto","#f73b6a7A","-1"," ","0","-10","[1496]","1","0","3","","","","","","","",""
"pit-trial","65","528886","0.0-2.0-14.1-1.1","battery-v0.2","","""event"",""trial"",""time""
""focus"",""0"",""3""
""fullscreenenter"",""1"",""1777""
","
","""event"",""trial"",""time""
""focus"",""0"",""3""
","""event"",""trial"",""time""
""fullscreenenter"",""1"",""1777""
","
","","","566","","","11","7081","3848","&#9826;","elianto","#f73b6a7A","-1"," ","0","-10","[1433]","1","0","3","","","","","","","",""
"pit-trial","66","531786","0.0-2.0-14.1-2.1","battery-v0.2","","""event"",""trial"",""time""
""focus"",""0"",""3""
""fullscreenenter"",""1"",""1777""
","
","""event"",""trial"",""time""
""focus"",""0"",""3""
","""event"",""trial"",""time""
""fullscreenenter"",""1"",""1777""
","
","","","20","","","11","7081","3848","&#9826;","elianto","#f73b6a7A","-1"," ","0","-10","[890]","1","0","3","","","","","","","",""
"pit-trial","67","536666","0.0-2.0-14.1-3.1","battery-v0.2","","""event"",""trial"",""time""
""focus"",""0"",""3""
""fullscreenenter"",""1"",""1777""
","
","""event"",""trial"",""time""
""focus"",""0"",""3""
","""event"",""trial"",""time""
""fullscreenenter"",""1"",""1777""
","
","","","-1","","","11","7081","3848","&#9826;","elianto","#f73b6a7A","-1","-1","1","-10","[]","0","0","3","","","","","","","",""
"pit-trial","68","540195","0.0-2.0-14.1-4.1","battery-v0.2","","""event"",""trial"",""time""
""focus"",""0"",""3""
""fullscreenenter"",""1"",""1777""
","
","""event"",""trial"",""time""
""focus"",""0"",""3""
","""event"",""trial"",""time""
""fullscreenenter"",""1"",""1777""
","
","","","642","","","11","7081","3848","&#9826;","elianto","#f73b6a7A","-1"," ","0","-10","[1508]","1","0","3","","","","","","","",""
"pit-trial","69","545076","0.0-2.0-14.2-0.2","battery-v0.2","","""event"",""trial"",""time""
""focus"",""0"",""3""
""fullscreenenter"",""1"",""1777""
","
","""event"",""trial"",""time""
""focus"",""0"",""3""
","""event"",""trial"",""time""
""fullscreenenter"",""1"",""1777""
","
","","","-1","","","11","7081","3848","&#9826;","elianto","#f73b6a7A","-1","-1","1","0","[]","0","0","3","","","","","","","",""
"pit-trial","70","549206","0.0-2.0-14.2-1.2","battery-v0.2","","""event"",""trial"",""time""
""focus"",""0"",""3""
""fullscreenenter"",""1"",""1777""
","
","""event"",""trial"",""time""
""focus"",""0"",""3""
","""event"",""trial"",""time""
""fullscreenenter"",""1"",""1777""
","
","","","1254","","","11","7081","3848","&#9826;","elianto","#f73b6a7A","-1"," ","0","-10","[2120]","1","0","3","","","","","","","",""
"pit-trial","71","553406","0.0-2.0-14.2-2.2","battery-v0.2","","""event"",""trial"",""time""
""focus"",""0"",""3""
""fullscreenenter"",""1"",""1777""
","
","""event"",""trial"",""time""
""focus"",""0"",""3""
","""event"",""trial"",""time""
""fullscreenenter"",""1"",""1777""
","
","","","1323","","","11","7081","3848","&#9826;","elianto","#f73b6a7A","-1"," ","0","-10","[2179]","1","0","3","","","","","","","",""
"pit-trial","72","556861","0.0-2.0-14.2-3.2","battery-v0.2","","""event"",""trial"",""time""
""focus"",""0"",""3""
""fullscreenenter"",""1"",""1777""
","
","""event"",""trial"",""time""
""focus"",""0"",""3""
","""event"",""trial"",""time""
""fullscreenenter"",""1"",""1777""
","
","","","580","","","11","7081","3848","&#9826;","elianto","#f73b6a7A","-1"," ","0","0","[1436]","1","0","3","","","","","","","",""
"pit-trial","73","560795","0.0-2.0-14.2-4.2","battery-v0.2","","""event"",""trial"",""time""
""focus"",""0"",""3""
""fullscreenenter"",""1"",""1777""
","
","""event"",""trial"",""time""
""focus"",""0"",""3""
","""event"",""trial"",""time""
""fullscreenenter"",""1"",""1777""
","
","","","1074","","","11","7081","3848","&#9826;","elianto","#f73b6a7A","-1"," ","0","-10","[1925]","1","0","3","","","","","","","",""
"pit-trial","74","564096","0.0-2.0-14.3-0.3","battery-v0.2","","""event"",""trial"",""time""
""focus"",""0"",""3""
""fullscreenenter"",""1"",""1777""
","
","""event"",""trial"",""time""
""focus"",""0"",""3""
","""event"",""trial"",""time""
""fullscreenenter"",""1"",""1777""
","
","","","423","","","11","7081","3848","&#9826;","elianto","#f73b6a7A","-1"," ","0","-10","[1279]","1","0","3","","","","","","","",""
"pit-trial","75","568975","0.0-2.0-14.3-1.3","battery-v0.2","","""event"",""trial"",""time""
""focus"",""0"",""3""
""fullscreenenter"",""1"",""1777""
","
","""event"",""trial"",""time""
""focus"",""0"",""3""
","""event"",""trial"",""time""
""fullscreenenter"",""1"",""1777""
","
","","","-1","","","11","7081","3848","&#9826;","elianto","#f73b6a7A","-1","-1","1","0","[]","0","0","3","","","","","","","",""
"pit-trial","76","573856","0.0-2.0-14.3-2.3","battery-v0.2","","""event"",""trial"",""time""
""focus"",""0"",""3""
""fullscreenenter"",""1"",""1777""
","
","""event"",""trial"",""time""
""focus"",""0"",""3""
","""event"",""trial"",""time""
""fullscreenenter"",""1"",""1777""
","
","","","-1","","","11","7081","3848","&#9826;","elianto","#f73b6a7A","-1","-1","1","0","[]","0","0","3","","","","","","","",""
"pit-trial","77","578736","0.0-2.0-14.3-3.3","battery-v0.2","","""event"",""trial"",""time""
""focus"",""0"",""3""
""fullscreenenter"",""1"",""1777""
","
","""event"",""trial"",""time""
""focus"",""0"",""3""
","""event"",""trial"",""time""
""fullscreenenter"",""1"",""1777""
","
","","","-1","","","11","7081","3848","&#9826;","elianto","#f73b6a7A","-1","-1","1","-10","[]","0","0","3","","","","","","","",""
"pit-trial","78","583086","0.0-2.0-14.3-4.3","battery-v0.2","","""event"",""trial"",""time""
""focus"",""0"",""3""
""fullscreenenter"",""1"",""1777""
","
","""event"",""trial"",""time""
""focus"",""0"",""3""
","""event"",""trial"",""time""
""fullscreenenter"",""1"",""1777""
","
","","","1478","","","11","7081","3848","&#9826;","elianto","#f73b6a7A","-1"," ","0","-10","[2333]","1","0","3","","","","","","","",""
"call-function","79","583088","0.0-2.0-15.0","battery-v0.2","","""event"",""trial"",""time""
""focus"",""0"",""3""
""fullscreenenter"",""1"",""1777""
","
","""event"",""trial"",""time""
""focus"",""0"",""3""
","""event"",""trial"",""time""
""fullscreenenter"",""1"",""1777""
","
","","","","","","","","","","","","","","","","","","","","","","","","","","",""
"pit-instructions","80","606898","0.0-2.0-16.0","battery-v0.2","","""event"",""trial"",""time""
""focus"",""0"",""3""
""fullscreenenter"",""1"",""1777""
","
","""event"",""trial"",""time""
""focus"",""0"",""3""
","""event"",""trial"",""time""
""fullscreenenter"",""1"",""1777""
","
","","[{""page_index"":0,""viewing_time"":6538},{""page_index"":1,""viewing_time"":8512},{""page_index"":2,""viewing_time"":4496},{""page_index"":3,""viewing_time"":4263}]","23810","","","","","","","","","","","","","","","","","","","","","","","",""
"pit-trial","81","610175","0.0-2.0-17.0-0.0","battery-v0.2","","""event"",""trial"",""time""
""focus"",""0"",""3""
""fullscreenenter"",""1"",""1777""
","
","""event"",""trial"",""time""
""focus"",""0"",""3""
","""event"",""trial"",""time""
""fullscreenenter"",""1"",""1777""
","
","","","411","","","11","7081","3848","&#9789;","elianto","#f73b6a7A"," "," ","1","0","[1265]","1","0","4","","","","","","","",""
"pit-trial","82","613195","0.0-2.0-17.0-1.0","battery-v0.2","","""event"",""trial"",""time""
""focus"",""0"",""3""
""fullscreenenter"",""1"",""1777""
","
","""event"",""trial"",""time""
""focus"",""0"",""3""
","""event"",""trial"",""time""
""fullscreenenter"",""1"",""1777""
","
","","","155","","","11","7081","3848","&#9789;","elianto","#f73b6a7A"," "," ","1","0","[1009]","1","0","4","","","","","","","",""
"pit-trial","83","618075","0.0-2.0-17.0-2.0","battery-v0.2","","""event"",""trial"",""time""
""focus"",""0"",""3""
""fullscreenenter"",""1"",""1777""
","
","""event"",""trial"",""time""
""focus"",""0"",""3""
","""event"",""trial"",""time""
""fullscreenenter"",""1"",""1777""
","
","","","-1","","","11","7081","3848","&#9789;","elianto","#f73b6a7A"," ","-1","0","-10","[3507,3943,4270]","3","0","4","","","","","","","",""
"pit-trial","84","621194","0.0-2.0-17.0-3.0","battery-v0.2","","""event"",""trial"",""time""
""focus"",""0"",""3""
""fullscreenenter"",""1"",""1777""
","
","""event"",""trial"",""time""
""focus"",""0"",""3""
","""event"",""trial"",""time""
""fullscreenenter"",""1"",""1777""
","
","","","258","","","11","7081","3848","&#9789;","elianto","#f73b6a7A"," "," ","1","-10","[1115]","1","0","4","","","","","","","",""
"pit-trial","85","626074","0.0-2.0-17.0-4.0","battery-v0.2","","""event"",""trial"",""time""
""focus"",""0"",""3""
""fullscreenenter"",""1"",""1777""
","
","""event"",""trial"",""time""
""focus"",""0"",""3""
","""event"",""trial"",""time""
""fullscreenenter"",""1"",""1777""
","
","","","-1","","","11","7081","3848","&#9789;","elianto","#f73b6a7A"," ","-1","0","-10","[3533]","1","0","4","","","","","","","",""
"pit-trial","86","629135","0.0-2.0-17.1-0.1","battery-v0.2","","""event"",""trial"",""time""
""focus"",""0"",""3""
""fullscreenenter"",""1"",""1777""
","
","""event"",""trial"",""time""
""focus"",""0"",""3""
","""event"",""trial"",""time""
""fullscreenenter"",""1"",""1777""
","
","","","183","","","11","7081","3848","&#9789;","elianto","#f73b6a7A"," "," ","1","0","[42,406,733,1039]","4","0","4","","","","","","","",""
"pit-trial","87","632194","0.0-2.0-17.1-1.1","battery-v0.2","","""event"",""trial"",""time""
""focus"",""0"",""3""
""fullscreenenter"",""1"",""1777""
","
","""event"",""trial"",""time""
""focus"",""0"",""3""
","""event"",""trial"",""time""
""fullscreenenter"",""1"",""1777""
","
","","","184","","","11","7081","3848","&#9789;","elianto","#f73b6a7A"," "," ","1","0","[1041]","1","0","4","","","","","","","",""
"pit-trial","88","635354","0.0-2.0-17.1-2.1","battery-v0.2","","""event"",""trial"",""time""
""focus"",""0"",""3""
""fullscreenenter"",""1"",""1777""
","
","""event"",""trial"",""time""
""focus"",""0"",""3""
","""event"",""trial"",""time""
""fullscreenenter"",""1"",""1777""
","
","","","297","","","11","7081","3848","&#9789;","elianto","#f73b6a7A"," "," ","1","0","[758,1152]","2","0","4","","","","","","","",""
"pit-trial","89","639414","0.0-2.0-17.1-3.1","battery-v0.2","","""event"",""trial"",""time""
""focus"",""0"",""3""
""fullscreenenter"",""1"",""1777""
","
","""event"",""trial"",""time""
""focus"",""0"",""3""
","""event"",""trial"",""time""
""fullscreenenter"",""1"",""1777""
","
","","","1196","","","11","7081","3848","&#9789;","elianto","#f73b6a7A"," "," ","1","-10","[2056]","1","0","4","","","","","","","",""
"pit-trial","90","644295","0.0-2.0-17.1-4.1","battery-v0.2","","""event"",""trial"",""time""
""focus"",""0"",""3""
""fullscreenenter"",""1"",""1777""
","
","""event"",""trial"",""time""
""focus"",""0"",""3""
","""event"",""trial"",""time""
""fullscreenenter"",""1"",""1777""
","
","","","-1","","","11","7081","3848","&#9789;","elianto","#f73b6a7A"," ","-1","0","-10","[3774]","1","0","4","","","","","","","",""
"pit-trial","91","647234","0.0-2.0-17.2-0.2","battery-v0.2","","""event"",""trial"",""time""
""focus"",""0"",""3""
""fullscreenenter"",""1"",""1777""
","
","""event"",""trial"",""time""
""focus"",""0"",""3""
","""event"",""trial"",""time""
""fullscreenenter"",""1"",""1777""
","
","","","67","","","11","7081","3848","&#9789;","elianto","#f73b6a7A"," "," ","1","0","[923]","1","0","4","","","","","","","",""
"pit-trial","92","650954","0.0-2.0-17.2-1.2","battery-v0.2","","""event"",""trial"",""time""
""focus"",""0"",""3""
""fullscreenenter"",""1"",""1777""
","
","""event"",""trial"",""time""
""focus"",""0"",""3""
","""event"",""trial"",""time""
""fullscreenenter"",""1"",""1777""
","
","","","853","","","11","7081","3848","&#9789;","elianto","#f73b6a7A"," "," ","1","0","[845,1709]","2","0","4","","","","","","","",""
"pit-trial","93","655115","0.0-2.0-17.2-2.2","battery-v0.2","","""event"",""trial"",""time""
""focus"",""0"",""3""
""fullscreenenter"",""1"",""1777""
","
","""event"",""trial"",""time""
""focus"",""0"",""3""
","""event"",""trial"",""time""
""fullscreenenter"",""1"",""1777""
","
","","","1295","","","11","7081","3848","&#9789;","elianto","#f73b6a7A"," "," ","1","0","[2151]","1","0","4","","","","","","","",""
"pit-trial","94","660005","0.0-2.0-17.2-3.2","battery-v0.2","","""event"",""trial"",""time""
""focus"",""0"",""3""
""fullscreenenter"",""1"",""1777""
","
","""event"",""trial"",""time""
""focus"",""0"",""3""
","""event"",""trial"",""time""
""fullscreenenter"",""1"",""1777""
","
","","","-1","","","11","7081","3848","&#9789;","elianto","#f73b6a7A"," ","-1","0","0","[]","0","0","4","","","","","","","",""
"pit-trial","95","663514","0.0-2.0-17.2-4.2","battery-v0.2","","""event"",""trial"",""time""
""focus"",""0"",""3""
""fullscreenenter"",""1"",""1777""
","
","""event"",""trial"",""time""
""focus"",""0"",""3""
","""event"",""trial"",""time""
""fullscreenenter"",""1"",""1777""
","
","","","639","","","11","7081","3848","&#9789;","elianto","#f73b6a7A"," "," ","1","0","[1495]","1","0","4","","","","","","","",""
"pit-trial","96","666614","0.0-2.0-17.3-0.3","battery-v0.2","","""event"",""trial"",""time""
""focus"",""0"",""3""
""fullscreenenter"",""1"",""1777""
","
","""event"",""trial"",""time""
""focus"",""0"",""3""
","""event"",""trial"",""time""
""fullscreenenter"",""1"",""1777""
","
","","","228","","","11","7081","3848","&#9789;","elianto","#f73b6a7A"," "," ","1","0","[1083]","1","0","4","","","","","","","",""
"pit-trial","97","669634","0.0-2.0-17.3-1.3","battery-v0.2","","""event"",""trial"",""time""
""focus"",""0"",""3""
""fullscreenenter"",""1"",""1777""
","
","""event"",""trial"",""time""
""focus"",""0"",""3""
","""event"",""trial"",""time""
""fullscreenenter"",""1"",""1777""
","
","","","142","","","11","7081","3848","&#9789;","elianto","#f73b6a7A"," "," ","1","0","[1008]","1","0","4","","","","","","","",""
"pit-trial","98","673144","0.0-2.0-17.3-2.3","battery-v0.2","","""event"",""trial"",""time""
""focus"",""0"",""3""
""fullscreenenter"",""1"",""1777""
","
","""event"",""trial"",""time""
""focus"",""0"",""3""
","""event"",""trial"",""time""
""fullscreenenter"",""1"",""1777""
","
","","","621","","","11","7081","3848","&#9789;","elianto","#f73b6a7A"," "," ","1","0","[1487]","1","0","4","","","","","","","",""
"pit-trial","99","678034","0.0-2.0-17.3-3.3","battery-v0.2","","""event"",""trial"",""time""
""focus"",""0"",""3""
""fullscreenenter"",""1"",""1777""
","
","""event"",""trial"",""time""
""focus"",""0"",""3""
","""event"",""trial"",""time""
""fullscreenenter"",""1"",""1777""
","
","","","-1","","","11","7081","3848","&#9789;","elianto","#f73b6a7A"," ","-1","0","0","[]","0","0","4","","","","","","","",""
"pit-trial","100","681535","0.0-2.0-17.3-4.3","battery-v0.2","","""event"",""trial"",""time""
""focus"",""0"",""3""
""fullscreenenter"",""1"",""1777""
","
","""event"",""trial"",""time""
""focus"",""0"",""3""
","""event"",""trial"",""time""
""fullscreenenter"",""1"",""1777""
","
","","","635","","","11","7081","3848","&#9789;","elianto","#f73b6a7A"," "," ","1","0","[1491]","1","0","4","","","","","","","",""
"call-function","101","681536","0.0-2.0-18.0","battery-v0.2","","""event"",""trial"",""time""
""focus"",""0"",""3""
""fullscreenenter"",""1"",""1777""
","
","""event"",""trial"",""time""
""focus"",""0"",""3""
","""event"",""trial"",""time""
""fullscreenenter"",""1"",""1777""
","
","","","","","","","","","","","","","","","","","","","","","","","","","","",""
"pit-instructions","102","749433","0.0-2.0-19.0","battery-v0.2","","""event"",""trial"",""time""
""focus"",""0"",""3""
""fullscreenenter"",""1"",""1777""
","
","""event"",""trial"",""time""
""focus"",""0"",""3""
","""event"",""trial"",""time""
""fullscreenenter"",""1"",""1777""
","
","","[{""page_index"":0,""viewing_time"":6480},{""page_index"":1,""viewing_time"":4168},{""page_index"":2,""viewing_time"":13968},{""page_index"":3,""viewing_time"":8335},{""page_index"":4,""viewing_time"":8392},{""page_index"":5,""viewing_time"":8136},{""page_index"":6,""viewing_time"":8544},{""page_index"":7,""viewing_time"":5776},{""page_index"":8,""viewing_time"":4096}]","67895","","","","","","","","","","","","","","","","","","","","","","","",""
"pit-comprehension","103","754170","0.0-2.0-20.0-0.0","battery-v0.2","","""event"",""trial"",""time""
""focus"",""0"",""3""
""fullscreenenter"",""1"",""1777""
","
","""event"",""trial"",""time""
""focus"",""0"",""3""
","""event"",""trial"",""time""
""fullscreenenter"",""1"",""1777""
","
","","","4734","[""SPACE""]","0","11","7081","3848","","","","","","","","","","","","","","","","","","",""
"pit-instructions","104","756433","0.0-2.0-20.0-1.0","battery-v0.2","","""event"",""trial"",""time""
""focus"",""0"",""3""
""fullscreenenter"",""1"",""1777""
","
","""event"",""trial"",""time""
""focus"",""0"",""3""
","""event"",""trial"",""time""
""fullscreenenter"",""1"",""1777""
","
","","[{""page_index"":0,""viewing_time"":2197}]","2197","","","","","","","","","","","","","","","","","","","","","","","",""
"pit-comprehension","105","764642","0.0-2.0-21.0-0.0","battery-v0.2","","""event"",""trial"",""time""
""focus"",""0"",""3""
""fullscreenenter"",""1"",""1777""
","
","""event"",""trial"",""time""
""focus"",""0"",""3""
","""event"",""trial"",""time""
""fullscreenenter"",""1"",""1777""
","
","","","8204","[""10""]","0","11","7081","3848","","","","","","","","","","","","","","","","","","",""
"pit-instructions","106","766481","0.0-2.0-21.0-1.0","battery-v0.2","","""event"",""trial"",""time""
""focus"",""0"",""3""
""fullscreenenter"",""1"",""1777""
","
","""event"",""trial"",""time""
""focus"",""0"",""3""
","""event"",""trial"",""time""
""fullscreenenter"",""1"",""1777""
","
","","[{""page_index"":0,""viewing_time"":1773}]","1773","","","","","","","","","","","","","","","","","","","","","","","",""
"pit-comprehension","107","772985","0.0-2.0-22.0-0.0","battery-v0.2","","""event"",""trial"",""time""
""focus"",""0"",""3""
""fullscreenenter"",""1"",""1777""
","
","""event"",""trial"",""time""
""focus"",""0"",""3""
","""event"",""trial"",""time""
""fullscreenenter"",""1"",""1777""
","
","","","6501","[""0""]","0","11","7081","3848","","","","","","","","","","","","","","","","","","",""
"pit-instructions","108","774296","0.0-2.0-22.0-1.0","battery-v0.2","","""event"",""trial"",""time""
""focus"",""0"",""3""
""fullscreenenter"",""1"",""1777""
","
","""event"",""trial"",""time""
""focus"",""0"",""3""
","""event"",""trial"",""time""
""fullscreenenter"",""1"",""1777""
","
","","[{""page_index"":0,""viewing_time"":1253}]","1253","","","","","","","","","","","","","","","","","","","","","","","",""
"pit-comprehension","109","782769","0.0-2.0-23.0-0.0","battery-v0.2","","""event"",""trial"",""time""
""focus"",""0"",""3""
""fullscreenenter"",""1"",""1777""
","
","""event"",""trial"",""time""
""focus"",""0"",""3""
","""event"",""trial"",""time""
""fullscreenenter"",""1"",""1777""
","
","","","8469","[""True""]","0","11","7081","3848","","","","","","","","","","","","","","","","","","",""
"pit-instructions","110","784216","0.0-2.0-23.0-1.0","battery-v0.2","","""event"",""trial"",""time""
""focus"",""0"",""3""
""fullscreenenter"",""1"",""1777""
","
","""event"",""trial"",""time""
""focus"",""0"",""3""
","""event"",""trial"",""time""
""fullscreenenter"",""1"",""1777""
","
","","[{""page_index"":0,""viewing_time"":1382}]","1382","","","","","","","","","","","","","","","","","","","","","","","",""
"pit-comprehension","111","791617","0.0-2.0-24.0-0.0","battery-v0.2","","""event"",""trial"",""time""
""focus"",""0"",""3""
""fullscreenenter"",""1"",""1777""
","
","""event"",""trial"",""time""
""focus"",""0"",""3""
","""event"",""trial"",""time""
""fullscreenenter"",""1"",""1777""
","
","","","7397","[""True""]","0","11","7081","3848","","","","","","","","","","","","","","","","","","",""
"pit-instructions","112","792784","0.0-2.0-24.0-1.0","battery-v0.2","","""event"",""trial"",""time""
""focus"",""0"",""3""
""fullscreenenter"",""1"",""1777""
","
","""event"",""trial"",""time""
""focus"",""0"",""3""
","""event"",""trial"",""time""
""fullscreenenter"",""1"",""1777""
","
","","[{""page_index"":0,""viewing_time"":1110}]","1110","","","","","","","","","","","","","","","","","","","","","","","",""
"pit-comprehension","113","799193","0.0-2.0-25.0-0.0","battery-v0.2","","""event"",""trial"",""time""
""focus"",""0"",""3""
""fullscreenenter"",""1"",""1777""
","
","""event"",""trial"",""time""
""focus"",""0"",""3""
","""event"",""trial"",""time""
""fullscreenenter"",""1"",""1777""
","
","","","6406","[""True""]","0","11","7081","3848","","","","","","","","","","","","","","","","","","",""
"pit-instructions","114","800496","0.0-2.0-25.0-1.0","battery-v0.2","","""event"",""trial"",""time""
""focus"",""0"",""3""
""fullscreenenter"",""1"",""1777""
","
","""event"",""trial"",""time""
""focus"",""0"",""3""
","""event"",""trial"",""time""
""fullscreenenter"",""1"",""1777""
","
","","[{""page_index"":0,""viewing_time"":1239}]","1240","","","","","","","","","","","","","","","","","","","","","","","",""
"pit-comprehension","115","805409","0.0-2.0-26.0-0.0","battery-v0.2","","""event"",""trial"",""time""
""focus"",""0"",""3""
""fullscreenenter"",""1"",""1777""
","
","""event"",""trial"",""time""
""focus"",""0"",""3""
","""event"",""trial"",""time""
""fullscreenenter"",""1"",""1777""
","
","","","4908","[""False""]","0","11","7081","3848","","","","","","","","","","","","","","","","","","",""
"pit-instructions","116","806856","0.0-2.0-26.0-1.0","battery-v0.2","","""event"",""trial"",""time""
""focus"",""0"",""3""
""fullscreenenter"",""1"",""1777""
","
","""event"",""trial"",""time""
""focus"",""0"",""3""
","""event"",""trial"",""time""
""fullscreenenter"",""1"",""1777""
","
","","[{""page_index"":0,""viewing_time"":1385}]","1385","","","","","","","","","","","","","","","","","","","","","","","",""
"pit-instructions","117","1060438","0.0-3.0","battery-v0.2","","""event"",""trial"",""time""
""focus"",""0"",""3""
""fullscreenenter"",""1"",""1777""
","
","""event"",""trial"",""time""
""focus"",""0"",""3""
","""event"",""trial"",""time""
""fullscreenenter"",""1"",""1777""
","
","","[{""page_index"":0,""viewing_time"":3917},{""page_index"":1,""viewing_time"":5112},{""page_index"":2,""viewing_time"":244550}]","253579","","","","","","","","","","","","","","","","","","","","","","","",""
"pit-trial","118","1064559","0.0-4.0","battery-v0.2","","""event"",""trial"",""time""
""focus"",""0"",""3""
""fullscreenenter"",""1"",""1777""
","
","""event"",""trial"",""time""
""focus"",""0"",""3""
","""event"",""trial"",""time""
""fullscreenenter"",""1"",""1777""
","
","","","1249","","","11","7081","3848","&#9730;","elianto","#3366ff99"," "," ","1","+10","[2104]","1","1","","","7081","1","1","1","win","go","0"
"pit-trial","119","1069430","0.0-5.0","battery-v0.2","","""event"",""trial"",""time""
""focus"",""0"",""3""
""fullscreenenter"",""1"",""1777""
","
","""event"",""trial"",""time""
""focus"",""0"",""3""
","""event"",""trial"",""time""
""fullscreenenter"",""1"",""1777""
","
","","","-1","","","11","7081","3848","&#9728;","elianto","#f73b6a7A","-1","-1","1","-10","[]","0","1","","","7081","2","0","4","lose","no-go","1"
"pit-trial","120","1073200","0.0-6.0","battery-v0.2","","""event"",""trial"",""time""
""focus"",""0"",""3""
""fullscreenenter"",""1"",""1777""
","
","""event"",""trial"",""time""
""focus"",""0"",""3""
","""event"",""trial"",""time""
""fullscreenenter"",""1"",""1777""
","
","","","901","","","11","7081","3848","&#9733;","elianto","#3366ff99","-1"," ","0","0","[1758]","1","1","","","7081","3","2","2","win","no-go","0"
"pit-trial","121","1077880","0.0-7.0","battery-v0.2","","""event"",""trial"",""time""
""focus"",""0"",""3""
""fullscreenenter"",""1"",""1777""
","
","""event"",""trial"",""time""
""focus"",""0"",""3""
","""event"",""trial"",""time""
""fullscreenenter"",""1"",""1777""
","
","","","1810","","","11","7081","3848","&#9752;","elianto","#f73b6a7A"," "," ","1","0","[2666]","1","1","","","7081","4","3","3","lose","go","0"
"pit-trial","122","1082760","0.0-8.0","battery-v0.2","","""event"",""trial"",""time""
""focus"",""0"",""3""
""fullscreenenter"",""1"",""1777""
","
","""event"",""trial"",""time""
""focus"",""0"",""3""
","""event"",""trial"",""time""
""fullscreenenter"",""1"",""1777""
","
","","","-1","","","11","7081","3848","&#9728;","elianto","#f73b6a7A","-1","-1","1","-10","[2922]","1","1","","","7081","5","0","4","lose","no-go","1"
"pit-trial","123","1086920","0.0-9.0","battery-v0.2","","""event"",""trial"",""time""
""focus"",""0"",""3""
""fullscreenenter"",""1"",""1777""
","
","""event"",""trial"",""time""
""focus"",""0"",""3""
","""event"",""trial"",""time""
""fullscreenenter"",""1"",""1777""
","
","","","1289","","","11","7081","3848","&#9752;","elianto","#f73b6a7A"," "," ","1","0","[2146]","1","1","","","7081","6","3","3","lose","go","0"
"pit-trial","124","1090820","0.0-10.0","battery-v0.2","","""event"",""trial"",""time""
""focus"",""0"",""3""
""fullscreenenter"",""1"",""1777""
","
","""event"",""trial"",""time""
""focus"",""0"",""3""
","""event"",""trial"",""time""
""fullscreenenter"",""1"",""1777""
","
","","","1034","","","11","7081","3848","&#9733;","elianto","#3366ff99","-1"," ","0","0","[1889]","1","1","","","7081","7","2","2","win","no-go","0"
"pit-trial","125","1095380","0.0-11.0","battery-v0.2","","""event"",""trial"",""time""
""focus"",""0"",""3""
""fullscreenenter"",""1"",""1777""
","
","""event"",""trial"",""time""
""focus"",""0"",""3""
","""event"",""trial"",""time""
""fullscreenenter"",""1"",""1777""
","
","","","1684","","","11","7081","3848","&#9730;","elianto","#3366ff99"," "," ","1","0","[2550]","1","1","","","7081","8","1","1","win","go","1"
"pit-trial","126","1099940","0.0-12.0","battery-v0.2","","""event"",""trial"",""time""
""focus"",""0"",""3""
""fullscreenenter"",""1"",""1777""
","
","""event"",""trial"",""time""
""focus"",""0"",""3""
","""event"",""trial"",""time""
""fullscreenenter"",""1"",""1777""
","
","","","1684","","","11","7081","3848","&#9733;","elianto","#3366ff99","-1"," ","0","0","[2539]","1","1","","","7081","9","2","2","win","no-go","0"
"pit-trial","127","1104280","0.0-13.0","battery-v0.2","","""event"",""trial"",""time""
""focus"",""0"",""3""
""fullscreenenter"",""1"",""1777""
","
","""event"",""trial"",""time""
""focus"",""0"",""3""
","""event"",""trial"",""time""
""fullscreenenter"",""1"",""1777""
","
","","","1469","","","11","7081","3848","&#9752;","elianto","#f73b6a7A"," "," ","1","0","[2326]","1","1","","","7081","10","3","3","lose","go","0"
"pit-trial","128","1109159","0.0-14.0","battery-v0.2","","""event"",""trial"",""time""
""focus"",""0"",""3""
""fullscreenenter"",""1"",""1777""
","
","""event"",""trial"",""time""
""focus"",""0"",""3""
","""event"",""trial"",""time""
""fullscreenenter"",""1"",""1777""
","
","","","-1","","","11","7081","3848","&#9730;","elianto","#3366ff99"," ","-1","0","+10","[]","0","1","","","7081","11","1","1","win","go","1"
"pit-trial","129","1112870","0.0-15.0","battery-v0.2","","""event"",""trial"",""time""
""focus"",""0"",""3""
""fullscreenenter"",""1"",""1777""
","
","""event"",""trial"",""time""
""focus"",""0"",""3""
","""event"",""trial"",""time""
""fullscreenenter"",""1"",""1777""
","
","","","836","","","11","7081","3848","&#9728;","elianto","#f73b6a7A","-1"," ","0","-10","[1693]","1","1","","","7081","12","0","4","lose","no-go","0"
"pit-trial","130","1117760","0.0-16.0","battery-v0.2","","""event"",""trial"",""time""
""focus"",""0"",""3""
""fullscreenenter"",""1"",""1777""
","
","""event"",""trial"",""time""
""focus"",""0"",""3""
","""event"",""trial"",""time""
""fullscreenenter"",""1"",""1777""
","
","","","-1","","","11","7081","3848","&#9733;","elianto","#3366ff99","-1","-1","1","+10","[]","0","1","","","7081","13","2","2","win","no-go","0"
"pit-trial","131","1122640","0.0-17.0","battery-v0.2","","""event"",""trial"",""time""
""focus"",""0"",""3""
""fullscreenenter"",""1"",""1777""
","
","""event"",""trial"",""time""
""focus"",""0"",""3""
","""event"",""trial"",""time""
""fullscreenenter"",""1"",""1777""
","
","","","-1","","","11","7081","3848","&#9730;","elianto","#3366ff99"," ","-1","0","0","[]","0","1","","","7081","14","1","1","win","go","0"
"pit-trial","132","1127519","0.0-18.0","battery-v0.2","","""event"",""trial"",""time""
""focus"",""0"",""3""
""fullscreenenter"",""1"",""1777""
","
","""event"",""trial"",""time""
""focus"",""0"",""3""
","""event"",""trial"",""time""
""fullscreenenter"",""1"",""1777""
","
","","","-1","","","11","7081","3848","&#9728;","elianto","#f73b6a7A","-1","-1","1","-10","[]","0","1","","","7081","15","0","4","lose","no-go","1"
"pit-trial","133","1132129","0.0-19.0","battery-v0.2","","""event"",""trial"",""time""
""focus"",""0"",""3""
""fullscreenenter"",""1"",""1777""
","
","""event"",""trial"",""time""
""focus"",""0"",""3""
","""event"",""trial"",""time""
""fullscreenenter"",""1"",""1777""
","
","","","1740","","","11","7081","3848","&#9752;","elianto","#f73b6a7A"," "," ","1","0","[2599]","1","1","","","7081","16","3","3","lose","go","0"
"pit-trial","134","1136289","0.0-20.0","battery-v0.2","","""event"",""trial"",""time""
""focus"",""0"",""3""
""fullscreenenter"",""1"",""1777""
","
","""event"",""trial"",""time""
""focus"",""0"",""3""
","""event"",""trial"",""time""
""fullscreenenter"",""1"",""1777""
","
","","","1284","","","11","7081","3848","&#9728;","elianto","#f73b6a7A","-1"," ","0","-10","[2142]","1","1","","","7081","17","0","4","lose","no-go","0"
"pit-trial","135","1139870","0.0-21.0","battery-v0.2","","""event"",""trial"",""time""
""focus"",""0"",""3""
""fullscreenenter"",""1"",""1777""
","
","""event"",""trial"",""time""
""focus"",""0"",""3""
","""event"",""trial"",""time""
""fullscreenenter"",""1"",""1777""
","
","","","713","","","11","7081","3848","&#9730;","elianto","#3366ff99"," "," ","1","+10","[1570]","1","1","","","7081","18","1","1","win","go","0"
"pit-trial","136","1143709","0.0-22.0","battery-v0.2","","""event"",""trial"",""time""
""focus"",""0"",""3""
""fullscreenenter"",""1"",""1777""
","
","""event"",""trial"",""time""
""focus"",""0"",""3""
","""event"",""trial"",""time""
""fullscreenenter"",""1"",""1777""
","
","","","979","","","11","7081","3848","&#9752;","elianto","#f73b6a7A"," "," ","1","0","[1835]","1","1","","","7081","19","3","3","lose","go","0"
"pit-trial","137","1148189","0.0-23.0","battery-v0.2","","""event"",""trial"",""time""
""focus"",""0"",""3""
""fullscreenenter"",""1"",""1777""
","
","""event"",""trial"",""time""
""focus"",""0"",""3""
","""event"",""trial"",""time""
""fullscreenenter"",""1"",""1777""
","
","","","1619","","","11","7081","3848","&#9733;","elianto","#3366ff99","-1"," ","0","+10","[2475]","1","1","","","7081","20","2","2","win","no-go","1"
"pit-instructions","138","1176940","0.0-24.0","battery-v0.2","","""event"",""trial"",""time""
""focus"",""0"",""3""
""fullscreenenter"",""1"",""1777""
","
","""event"",""trial"",""time""
""focus"",""0"",""3""
","""event"",""trial"",""time""
""fullscreenenter"",""1"",""1777""
","
","","[{""page_index"":0,""viewing_time"":12636},{""page_index"":1,""viewing_time"":16112}]","28748","","","","","","","","","","","","","","","","","","","","","","","",""
"pit-trial","139","1180639","0.0-25.0","battery-v0.2","","""event"",""trial"",""time""
""focus"",""0"",""3""
""fullscreenenter"",""1"",""1777""
","
","""event"",""trial"",""time""
""focus"",""0"",""3""
","""event"",""trial"",""time""
""fullscreenenter"",""1"",""1777""
","
","","","825","","","11","7081","3848","a","elianto","#f73b6a7A","-1"," ","0","-10","[1679]","1","2","","","7081","21","2","4","lose","no-go","0"
"pit-trial","140","1184679","0.0-26.0","battery-v0.2","","""event"",""trial"",""time""
""focus"",""0"",""3""
""fullscreenenter"",""1"",""1777""
","
","""event"",""trial"",""time""
""focus"",""0"",""3""
","""event"",""trial"",""time""
""fullscreenenter"",""1"",""1777""
","
","","","1168","","","11","7081","3848","g","elianto","#f73b6a7A"," "," ","1","-10","[2025]","1","2","","","7081","22","3","3","lose","go","1"
"pit-trial","141","1188896","0.0-27.0","battery-v0.2","","""event"",""trial"",""time""
""focus"",""0"",""3""
""fullscreenenter"",""1"",""1777""
","
","""event"",""trial"",""time""
""focus"",""0"",""3""
","""event"",""trial"",""time""
""fullscreenenter"",""1"",""1777""
","
","","","1339","","","11","7081","3848","l","elianto","#3366ff99"," "," ","1","+10","[2196]","1","2","","","7081","23","1","1","win","go","0"
"pit-trial","142","1192848","0.0-28.0","battery-v0.2","","""event"",""trial"",""time""
""focus"",""0"",""3""
""fullscreenenter"",""1"",""1777""
","
","""event"",""trial"",""time""
""focus"",""0"",""3""
","""event"",""trial"",""time""
""fullscreenenter"",""1"",""1777""
","
","","","1073","","","11","7081","3848","u","elianto","#f73b6a7A","-1"," ","0","-10","[1943]","1","2","","","7081","24","0","4","lose","no-go","0"
"pit-trial","143","1197740","0.0-29.0","battery-v0.2","","""event"",""trial"",""time""
""focus"",""0"",""3""
""fullscreenenter"",""1"",""1777""
","
","""event"",""trial"",""time""
""focus"",""0"",""3""
","""event"",""trial"",""time""
""fullscreenenter"",""1"",""1777""
","
","","","-1","","","11","7081","3848","l","elianto","#3366ff99"," ","-1","0","0","[3262]","1","2","","","7081","25","1","1","win","go","0"
"pit-trial","144","1202619","0.0-30.0","battery-v0.2","","""event"",""trial"",""time""
""focus"",""0"",""3""
""fullscreenenter"",""1"",""1777""
","
","""event"",""trial"",""time""
""focus"",""0"",""3""
","""event"",""trial"",""time""
""fullscreenenter"",""1"",""1777""
","
","","","-1","","","11","7081","3848","u","elianto","#f73b6a7A","-1","-1","1","0","[]","0","2","","","7081","26","0","4","lose","no-go","0"
"pit-trial","145","1207498","0.0-31.0","battery-v0.2","","""event"",""trial"",""time""
""focus"",""0"",""3""
""fullscreenenter"",""1"",""1777""
","
","""event"",""trial"",""time""
""focus"",""0"",""3""
","""event"",""trial"",""time""
""fullscreenenter"",""1"",""1777""
","
","","","-1","","","11","7081","3848","g","elianto","#f73b6a7A"," ","-1","0","-10","[]","0","2","","","7081","27","3","3","lose","go","0"
"pit-trial","146","1211859","0.0-32.0","battery-v0.2","","""event"",""trial"",""time""
""focus"",""0"",""3""
""fullscreenenter"",""1"",""1777""
","
","""event"",""trial"",""time""
""focus"",""0"",""3""
","""event"",""trial"",""time""
""fullscreenenter"",""1"",""1777""
","
","","","1485","","","11","7081","3848","a","elianto","#f73b6a7A","-1"," ","0","-10","[2342,3243]","2","2","","","7081","28","2","4","lose","no-go","0"
"pit-trial","147","1216719","0.0-33.0","battery-v0.2","","""event"",""trial"",""time""
""focus"",""0"",""3""
""fullscreenenter"",""1"",""1777""
","
","""event"",""trial"",""time""
""focus"",""0"",""3""
","""event"",""trial"",""time""
""fullscreenenter"",""1"",""1777""
","
","","","-1","","","11","7081","3848","g","elianto","#f73b6a7A"," ","-1","0","0","[]","0","2","","","7081","29","3","3","lose","go","1"
"pit-trial","148","1221300","0.0-34.0","battery-v0.2","","""event"",""trial"",""time""
""focus"",""0"",""3""
""fullscreenenter"",""1"",""1777""
","
","""event"",""trial"",""time""
""focus"",""0"",""3""
","""event"",""trial"",""time""
""fullscreenenter"",""1"",""1777""
","
","","","1719","","","11","7081","3848","a","elianto","#f73b6a7A","-1"," ","0","-10","[2575]","1","2","","","7081","30","2","4","lose","no-go","0"
"pit-trial","149","1225380","0.0-35.0","battery-v0.2","","""event"",""trial"",""time""
""focus"",""0"",""3""
""fullscreenenter"",""1"",""1777""
","
","""event"",""trial"",""time""
""focus"",""0"",""3""
","""event"",""trial"",""time""
""fullscreenenter"",""1"",""1777""
","
","","","1204","","","11","7081","3848","u","elianto","#f73b6a7A","-1"," ","0","-10","[2058]","1","2","","","7081","31","0","4","lose","no-go","0"
"pit-trial","150","1229377","0.0-36.0","battery-v0.2","","""event"",""trial"",""time""
""focus"",""0"",""3""
""fullscreenenter"",""1"",""1777""
","
","""event"",""trial"",""time""
""focus"",""0"",""3""
","""event"",""trial"",""time""
""fullscreenenter"",""1"",""1777""
","
","","","1132","","","11","7081","3848","l","elianto","#3366ff99"," "," ","1","+10","[1983]","1","2","","","7081","32","1","1","win","go","0"
"pit-trial","151","1234259","0.0-37.0","battery-v0.2","","""event"",""trial"",""time""
""focus"",""0"",""3""
""fullscreenenter"",""1"",""1777""
","
","""event"",""trial"",""time""
""focus"",""0"",""3""
","""event"",""trial"",""time""
""fullscreenenter"",""1"",""1777""
","
","","","-1","","","11","7081","3848","g","elianto","#f73b6a7A"," ","-1","0","-10","[]","0","2","","","7081","33","3","3","lose","go","0"
"pit-trial","152","1239148","0.0-38.0","battery-v0.2","","""event"",""trial"",""time""
""focus"",""0"",""3""
""fullscreenenter"",""1"",""1777""
","
","""event"",""trial"",""time""
""focus"",""0"",""3""
","""event"",""trial"",""time""
""fullscreenenter"",""1"",""1777""
","
","","","-1","","","11","7081","3848","a","elianto","#f73b6a7A","-1","-1","1","0","[]","0","2","","","7081","34","2","4","lose","no-go","0"
"pit-trial","153","1243409","0.0-39.0","battery-v0.2","","""event"",""trial"",""time""
""focus"",""0"",""3""
""fullscreenenter"",""1"",""1777""
","
","""event"",""trial"",""time""
""focus"",""0"",""3""
","""event"",""trial"",""time""
""fullscreenenter"",""1"",""1777""
","
","","","1389","","","11","7081","3848","u","elianto","#f73b6a7A","-1"," ","0","-10","[2246]","1","2","","","7081","35","0","4","lose","no-go","0"
"pit-trial","154","1246948","0.0-40.0","battery-v0.2","","""event"",""trial"",""time""
""focus"",""0"",""3""
""fullscreenenter"",""1"",""1777""
","
","""event"",""trial"",""time""
""focus"",""0"",""3""
","""event"",""trial"",""time""
""fullscreenenter"",""1"",""1777""
","
","","","675","","","11","7081","3848","l","elianto","#3366ff99"," "," ","1","+10","[1531]","1","2","","","7081","36","1","1","win","go","0"
"pit-trial","155","1251819","0.0-41.0","battery-v0.2","","""event"",""trial"",""time""
""focus"",""0"",""3""
""fullscreenenter"",""1"",""1777""
","
","""event"",""trial"",""time""
""focus"",""0"",""3""
","""event"",""trial"",""time""
""fullscreenenter"",""1"",""1777""
","
","","","-1","","","11","7081","3848","a","elianto","#f73b6a7A","-1","-1","1","0","[]","0","2","","","7081","37","2","4","lose","no-go","0"
"pit-trial","156","1256698","0.0-42.0","battery-v0.2","","""event"",""trial"",""time""
""focus"",""0"",""3""
""fullscreenenter"",""1"",""1777""
","
","""event"",""trial"",""time""
""focus"",""0"",""3""
","""event"",""trial"",""time""
""fullscreenenter"",""1"",""1777""
","
","","","-1","","","11","7081","3848","u","elianto","#f73b6a7A","-1","-1","1","0","[]","0","2","","","7081","38","0","4","lose","no-go","0"
"pit-trial","157","1260408","0.0-43.0","battery-v0.2","","""event"",""trial"",""time""
""focus"",""0"",""3""
""fullscreenenter"",""1"",""1777""
","
","""event"",""trial"",""time""
""focus"",""0"",""3""
","""event"",""trial"",""time""
""fullscreenenter"",""1"",""1777""
","
","","","843","","","11","7081","3848","l","elianto","#3366ff99"," "," ","1","0","[1699]","1","2","","","7081","39","1","1","win","go","1"
"pit-trial","158","1265288","0.0-44.0","battery-v0.2","","""event"",""trial"",""time""
""focus"",""0"",""3""
""fullscreenenter"",""1"",""1777""
","
","""event"",""trial"",""time""
""focus"",""0"",""3""
","""event"",""trial"",""time""
""fullscreenenter"",""1"",""1777""
","
","","","-1","","","11","7081","3848","g","elianto","#f73b6a7A"," ","-1","0","-10","[]","0","2","","","7081","40","3","3","lose","go","0"
"pit-trial","159","1270169","0.0-45.0","battery-v0.2","","""event"",""trial"",""time""
""focus"",""0"",""3""
""fullscreenenter"",""1"",""1777""
","
","""event"",""trial"",""time""
""focus"",""0"",""3""
","""event"",""trial"",""time""
""fullscreenenter"",""1"",""1777""
","
","","","-1","","","11","7081","3848","a","elianto","#f73b6a7A","-1","-1","1","0","[]","0","2","","","7081","41","2","4","lose","no-go","0"
"pit-trial","160","1275048","0.0-46.0","battery-v0.2","","""event"",""trial"",""time""
""focus"",""0"",""3""
""fullscreenenter"",""1"",""1777""
","
","""event"",""trial"",""time""
""focus"",""0"",""3""
","""event"",""trial"",""time""
""fullscreenenter"",""1"",""1777""
","
","","","-1","","","11","7081","3848","g","elianto","#f73b6a7A"," ","-1","0","-10","[]","0","2","","","7081","42","3","3","lose","go","0"
"pit-trial","161","1279228","0.0-47.0","battery-v0.2","","""event"",""trial"",""time""
""focus"",""0"",""3""
""fullscreenenter"",""1"",""1777""
","
","""event"",""trial"",""time""
""focus"",""0"",""3""
","""event"",""trial"",""time""
""fullscreenenter"",""1"",""1777""
","
","","","1311","","","11","7081","3848","u","elianto","#f73b6a7A","-1"," ","0","-10","[2167]","1","2","","","7081","43","0","4","lose","no-go","0"
"pit-trial","162","1283158","0.0-48.0","battery-v0.2","","""event"",""trial"",""time""
""focus"",""0"",""3""
""fullscreenenter"",""1"",""1777""
","
","""event"",""trial"",""time""
""focus"",""0"",""3""
","""event"",""trial"",""time""
""fullscreenenter"",""1"",""1777""
","
","","","1063","","","11","7081","3848","l","elianto","#3366ff99"," "," ","1","+10","[1919]","1","2","","","7081","44","1","1","win","go","0"
"pit-trial","163","1288037","0.0-49.0","battery-v0.2","","""event"",""trial"",""time""
""focus"",""0"",""3""
""fullscreenenter"",""1"",""1777""
","
","""event"",""trial"",""time""
""focus"",""0"",""3""
","""event"",""trial"",""time""
""fullscreenenter"",""1"",""1777""
","
","","","-1","","","11","7081","3848","u","elianto","#f73b6a7A","-1","-1","1","0","[]","0","2","","","7081","45","0","4","lose","no-go","0"
"pit-trial","164","1292159","0.0-50.0","battery-v0.2","","""event"",""trial"",""time""
""focus"",""0"",""3""
""fullscreenenter"",""1"",""1777""
","
","""event"",""trial"",""time""
""focus"",""0"",""3""
","""event"",""trial"",""time""
""fullscreenenter"",""1"",""1777""
","
","","","1241","","","11","7081","3848","p","elianto","#3366ff99","-1"," ","0","0","[2098]","1","2","","","7081","46","4","2","win","no-go","0"
"pit-trial","165","1297028","0.0-51.0","battery-v0.2","","""event"",""trial"",""time""
""focus"",""0"",""3""
""fullscreenenter"",""1"",""1777""
","
","""event"",""trial"",""time""
""focus"",""0"",""3""
","""event"",""trial"",""time""
""fullscreenenter"",""1"",""1777""
","
","","","-1","","","11","7081","3848","g","elianto","#f73b6a7A"," ","-1","0","-10","[]","0","2","","","7081","47","3","3","lose","go","0"
"pit-trial","166","1301888","0.0-52.0","battery-v0.2","","""event"",""trial"",""time""
""focus"",""0"",""3""
""fullscreenenter"",""1"",""1777""
","
","""event"",""trial"",""time""
""focus"",""0"",""3""
","""event"",""trial"",""time""
""fullscreenenter"",""1"",""1777""
","
","","","-1","","","11","7081","3848","a","elianto","#f73b6a7A","-1","-1","1","0","[]","0","2","","","7081","48","2","4","lose","no-go","0"
"pit-trial","167","1306768","0.0-53.0","battery-v0.2","","""event"",""trial"",""time""
""focus"",""0"",""3""
""fullscreenenter"",""1"",""1777""
","
","""event"",""trial"",""time""
""focus"",""0"",""3""
","""event"",""trial"",""time""
""fullscreenenter"",""1"",""1777""
","
","","","-1","","","11","7081","3848","u","elianto","#f73b6a7A","-1","-1","1","-10","[3152]","1","2","","","7081","49","0","4","lose","no-go","1"
"pit-trial","168","1311648","0.0-54.0","battery-v0.2","","""event"",""trial"",""time""
""focus"",""0"",""3""
""fullscreenenter"",""1"",""1777""
","
","""event"",""trial"",""time""
""focus"",""0"",""3""
","""event"",""trial"",""time""
""fullscreenenter"",""1"",""1777""
","
","","","-1","","","11","7081","3848","g","elianto","#f73b6a7A"," ","-1","0","-10","[4644]","1","2","","","7081","50","3","3","lose","go","0"
"pit-trial","169","1316008","0.0-55.0","battery-v0.2","","""event"",""trial"",""time""
""focus"",""0"",""3""
""fullscreenenter"",""1"",""1777""
","
","""event"",""trial"",""time""
""focus"",""0"",""3""
","""event"",""trial"",""time""
""fullscreenenter"",""1"",""1777""
","
","","","1484","","","11","7081","3848","p","elianto","#3366ff99","-1"," ","0","0","[2341]","1","2","","","7081","51","4","2","win","no-go","0"
"pit-trial","170","1320738","0.0-56.0","battery-v0.2","","""event"",""trial"",""time""
""focus"",""0"",""3""
""fullscreenenter"",""1"",""1777""
","
","""event"",""trial"",""time""
""focus"",""0"",""3""
","""event"",""trial"",""time""
""fullscreenenter"",""1"",""1777""
","
","","","1861","","","11","7081","3848","l","elianto","#3366ff99"," "," ","1","+10","[2716]","1","2","","","7081","52","1","1","win","go","0"
"pit-trial","171","1325618","0.0-57.0","battery-v0.2","","""event"",""trial"",""time""
""focus"",""0"",""3""
""fullscreenenter"",""1"",""1777""
","
","""event"",""trial"",""time""
""focus"",""0"",""3""
","""event"",""trial"",""time""
""fullscreenenter"",""1"",""1777""
","
","","","-1","","","11","7081","3848","u","elianto","#f73b6a7A","-1","-1","1","-10","[]","0","2","","","7081","53","0","4","lose","no-go","1"
"pit-trial","172","1329717","0.0-58.0","battery-v0.2","","""event"",""trial"",""time""
""focus"",""0"",""3""
""fullscreenenter"",""1"",""1777""
","
","""event"",""trial"",""time""
""focus"",""0"",""3""
","""event"",""trial"",""time""
""fullscreenenter"",""1"",""1777""
","
","","","1226","","","11","7081","3848","p","elianto","#3366ff99","-1"," ","0","0","[2086]","1","2","","","7081","54","4","2","win","no-go","0"
"pit-trial","173","1334598","0.0-59.0","battery-v0.2","","""event"",""trial"",""time""
""focus"",""0"",""3""
""fullscreenenter"",""1"",""1777""
","
","""event"",""trial"",""time""
""focus"",""0"",""3""
","""event"",""trial"",""time""
""fullscreenenter"",""1"",""1777""
","
","","","-1","","","11","7081","3848","a","elianto","#f73b6a7A","-1","-1","1","0","[]","0","2","","","7081","55","2","4","lose","no-go","0"
"pit-trial","174","1338237","0.0-60.0","battery-v0.2","","""event"",""trial"",""time""
""focus"",""0"",""3""
""fullscreenenter"",""1"",""1777""
","
","""event"",""trial"",""time""
""focus"",""0"",""3""
","""event"",""trial"",""time""
""fullscreenenter"",""1"",""1777""
","
","","","771","","","11","7081","3848","l","elianto","#3366ff99"," "," ","1","0","[1627]","1","2","","","7081","56","1","1","win","go","1"
"pit-trial","175","1342318","0.0-61.0","battery-v0.2","","""event"",""trial"",""time""
""focus"",""0"",""3""
""fullscreenenter"",""1"",""1777""
","
","""event"",""trial"",""time""
""focus"",""0"",""3""
","""event"",""trial"",""time""
""fullscreenenter"",""1"",""1777""
","
","","","1194","","","11","7081","3848","p","elianto","#3366ff99","-1"," ","0","0","[2061]","1","2","","","7081","57","4","2","win","no-go","0"
"pit-trial","176","1346257","0.0-62.0","battery-v0.2","","""event"",""trial"",""time""
""focus"",""0"",""3""
""fullscreenenter"",""1"",""1777""
","
","""event"",""trial"",""time""
""focus"",""0"",""3""
","""event"",""trial"",""time""
""fullscreenenter"",""1"",""1777""
","
","","","1063","","","11","7081","3848","l","elianto","#3366ff99"," "," ","1","+10","[1924]","1","2","","","7081","58","1","1","win","go","0"
"pit-trial","177","1351137","0.0-63.0","battery-v0.2","","""event"",""trial"",""time""
""focus"",""0"",""3""
""fullscreenenter"",""1"",""1777""
","
","""event"",""trial"",""time""
""focus"",""0"",""3""
","""event"",""trial"",""time""
""fullscreenenter"",""1"",""1777""
","
","","","-1","","","11","7081","3848","u","elianto","#f73b6a7A","-1","-1","1","0","[]","0","2","","","7081","59","0","4","lose","no-go","0"
"pit-trial","178","1354977","0.0-64.0","battery-v0.2","","""event"",""trial"",""time""
""focus"",""0"",""3""
""fullscreenenter"",""1"",""1777""
","
","""event"",""trial"",""time""
""focus"",""0"",""3""
","""event"",""trial"",""time""
""fullscreenenter"",""1"",""1777""
","
","","","979","","","11","7081","3848","g","elianto","#f73b6a7A"," "," ","1","0","[1835]","1","2","","","7081","60","3","3","lose","go","0"
"pit-trial","179","1358397","0.0-65.0","battery-v0.2","","""event"",""trial"",""time""
""focus"",""0"",""3""
""fullscreenenter"",""1"",""1777""
","
","""event"",""trial"",""time""
""focus"",""0"",""3""
","""event"",""trial"",""time""
""fullscreenenter"",""1"",""1777""
","
","","","558","","","11","7081","3848","l","elianto","#3366ff99"," "," ","1","0","[1413]","1","2","","","7081","61","1","1","win","go","1"
"pit-trial","180","1362147","0.0-66.0","battery-v0.2","","""event"",""trial"",""time""
""focus"",""0"",""3""
""fullscreenenter"",""1"",""1777""
","
","""event"",""trial"",""time""
""focus"",""0"",""3""
","""event"",""trial"",""time""
""fullscreenenter"",""1"",""1777""
","
","","","873","","","11","7081","3848","a","elianto","#f73b6a7A","-1"," ","0","-10","[1730]","1","2","","","7081","62","2","4","lose","no-go","0"
"pit-trial","181","1365767","0.0-67.0","battery-v0.2","","""event"",""trial"",""time""
""focus"",""0"",""3""
""fullscreenenter"",""1"",""1777""
","
","""event"",""trial"",""time""
""focus"",""0"",""3""
","""event"",""trial"",""time""
""fullscreenenter"",""1"",""1777""
","
","","","739","","","11","7081","3848","p","elianto","#3366ff99","-1"," ","0","0","[1597]","1","2","","","7081","63","4","2","win","no-go","0"
"pit-trial","182","1370137","0.0-68.0","battery-v0.2","","""event"",""trial"",""time""
""focus"",""0"",""3""
""fullscreenenter"",""1"",""1777""
","
","""event"",""trial"",""time""
""focus"",""0"",""3""
","""event"",""trial"",""time""
""fullscreenenter"",""1"",""1777""
","
","","","1478","","","11","7081","3848","g","elianto","#f73b6a7A"," "," ","1","0","[2346]","1","2","","","7081","64","3","3","lose","go","0"
"pit-trial","183","1375017","0.0-69.0","battery-v0.2","","""event"",""trial"",""time""
""focus"",""0"",""3""
""fullscreenenter"",""1"",""1777""
","
","""event"",""trial"",""time""
""focus"",""0"",""3""
","""event"",""trial"",""time""
""fullscreenenter"",""1"",""1777""
","
","","","-1","","","11","7081","3848","a","elianto","#f73b6a7A","-1","-1","1","-10","[]","0","2","","","7081","65","2","4","lose","no-go","1"
"pit-trial","184","1379247","0.0-70.0","battery-v0.2","","""event"",""trial"",""time""
""focus"",""0"",""3""
""fullscreenenter"",""1"",""1777""
","
","""event"",""trial"",""time""
""focus"",""0"",""3""
","""event"",""trial"",""time""
""fullscreenenter"",""1"",""1777""
","
","","","1358","","","11","7081","3848","g","elianto","#f73b6a7A"," "," ","1","0","[2225]","1","2","","","7081","66","3","3","lose","go","0"
"pit-trial","185","1383607","0.0-71.0","battery-v0.2","","""event"",""trial"",""time""
""focus"",""0"",""3""
""fullscreenenter"",""1"",""1777""
","
","""event"",""trial"",""time""
""focus"",""0"",""3""
","""event"",""trial"",""time""
""fullscreenenter"",""1"",""1777""
","
","","","1487","","","11","7081","3848","p","elianto","#3366ff99","-1"," ","0","0","[2345]","1","2","","","7081","67","4","2","win","no-go","0"
"pit-trial","186","1388487","0.0-72.0","battery-v0.2","","""event"",""trial"",""time""
""focus"",""0"",""3""
""fullscreenenter"",""1"",""1777""
","
","""event"",""trial"",""time""
""focus"",""0"",""3""
","""event"",""trial"",""time""
""fullscreenenter"",""1"",""1777""
","
","","","-1","","","11","7081","3848","l","elianto","#3366ff99"," ","-1","0","+10","[]","0","2","","","7081","68","1","1","win","go","1"
"pit-trial","187","1393267","0.0-73.0","battery-v0.2","","""event"",""trial"",""time""
""focus"",""0"",""3""
""fullscreenenter"",""1"",""1777""
","
","""event"",""trial"",""time""
""focus"",""0"",""3""
","""event"",""trial"",""time""
""fullscreenenter"",""1"",""1777""
","
","","","1901","","","11","7081","3848","l","elianto","#3366ff99"," "," ","1","+10","[2760]","1","2","","","7081","69","1","1","win","go","0"
"pit-trial","188","1396686","0.0-74.0","battery-v0.2","","""event"",""trial"",""time""
""focus"",""0"",""3""
""fullscreenenter"",""1"",""1777""
","
","""event"",""trial"",""time""
""focus"",""0"",""3""
","""event"",""trial"",""time""
""fullscreenenter"",""1"",""1777""
","
","","","542","","","11","7081","3848","g","elianto","#f73b6a7A"," "," ","1","0","[1399]","1","2","","","7081","70","3","3","lose","go","0"
"pit-trial","189","1400686","0.0-75.0","battery-v0.2","","""event"",""trial"",""time""
""focus"",""0"",""3""
""fullscreenenter"",""1"",""1777""
","
","""event"",""trial"",""time""
""focus"",""0"",""3""
","""event"",""trial"",""time""
""fullscreenenter"",""1"",""1777""
","
","","","1127","","","11","7081","3848","p","elianto","#3366ff99","-1"," ","0","+10","[1983]","1","2","","","7081","71","4","2","win","no-go","1"
"pit-trial","190","1404636","0.0-76.0","battery-v0.2","","""event"",""trial"",""time""
""focus"",""0"",""3""
""fullscreenenter"",""1"",""1777""
","
","""event"",""trial"",""time""
""focus"",""0"",""3""
","""event"",""trial"",""time""
""fullscreenenter"",""1"",""1777""
","
","","","1070","","","11","7081","3848","s","elianto","#3366ff99"," "," ","1","+10","[1938]","1","2","","","7081","72","5","1","win","go","0"
"pit-trial","191","1408376","0.0-77.0","battery-v0.2","","""event"",""trial"",""time""
""focus"",""0"",""3""
""fullscreenenter"",""1"",""1777""
","
","""event"",""trial"",""time""
""focus"",""0"",""3""
","""event"",""trial"",""time""
""fullscreenenter"",""1"",""1777""
","
","","","872","","","11","7081","3848","g","elianto","#f73b6a7A"," "," ","1","-10","[1733]","1","2","","","7081","73","3","3","lose","go","1"
"pit-trial","192","1412276","0.0-78.0","battery-v0.2","","""event"",""trial"",""time""
""focus"",""0"",""3""
""fullscreenenter"",""1"",""1777""
","
","""event"",""trial"",""time""
""focus"",""0"",""3""
","""event"",""trial"",""time""
""fullscreenenter"",""1"",""1777""
","
","","","1021","","","11","7081","3848","s","elianto","#3366ff99"," "," ","1","+10","[1879]","1","2","","","7081","74","5","1","win","go","0"
"pit-trial","193","1416506","0.0-79.0","battery-v0.2","","""event"",""trial"",""time""
""focus"",""0"",""3""
""fullscreenenter"",""1"",""1777""
","
","""event"",""trial"",""time""
""focus"",""0"",""3""
","""event"",""trial"",""time""
""fullscreenenter"",""1"",""1777""
","
","","","1344","","","11","7081","3848","p","elianto","#3366ff99","-1"," ","0","0","[2211]","1","2","","","7081","75","4","2","win","no-go","0"
"pit-trial","194","1420206","0.0-80.0","battery-v0.2","","""event"",""trial"",""time""
""focus"",""0"",""3""
""fullscreenenter"",""1"",""1777""
","
","""event"",""trial"",""time""
""focus"",""0"",""3""
","""event"",""trial"",""time""
""fullscreenenter"",""1"",""1777""
","
","","","836","","","11","7081","3848","l","elianto","#3366ff99"," "," ","1","+10","[1687]","1","2","","","7081","76","1","1","win","go","0"
"pit-trial","195","1423866","0.0-81.0","battery-v0.2","","""event"",""trial"",""time""
""focus"",""0"",""3""
""fullscreenenter"",""1"",""1777""
","
","""event"",""trial"",""time""
""focus"",""0"",""3""
","""event"",""trial"",""time""
""fullscreenenter"",""1"",""1777""
","
","","","796","","","11","7081","3848","s","elianto","#3366ff99"," "," ","1","+10","[1654]","1","2","","","7081","77","5","1","win","go","0"
"pit-trial","196","1428007","0.0-82.0","battery-v0.2","","""event"",""trial"",""time""
""focus"",""0"",""3""
""fullscreenenter"",""1"",""1777""
","
","""event"",""trial"",""time""
""focus"",""0"",""3""
","""event"",""trial"",""time""
""fullscreenenter"",""1"",""1777""
","
","","","1269","","","11","7081","3848","p","elianto","#3366ff99","-1"," ","0","0","[2126]","1","2","","","7081","78","4","2","win","no-go","0"
"pit-trial","197","1432147","0.0-83.0","battery-v0.2","","""event"",""trial"",""time""
""focus"",""0"",""3""
""fullscreenenter"",""1"",""1777""
","
","""event"",""trial"",""time""
""focus"",""0"",""3""
","""event"",""trial"",""time""
""fullscreenenter"",""1"",""1777""
","
","","","1271","","","11","7081","3848","w","elianto","#f73b6a7A","-1"," ","0","-10","[2127]","1","2","","","7081","79","6","4","lose","no-go","0"
"pit-trial","198","1437027","0.0-84.0","battery-v0.2","","""event"",""trial"",""time""
""focus"",""0"",""3""
""fullscreenenter"",""1"",""1777""
","
","""event"",""trial"",""time""
""focus"",""0"",""3""
","""event"",""trial"",""time""
""fullscreenenter"",""1"",""1777""
","
","","","-1","","","11","7081","3848","g","elianto","#f73b6a7A"," ","-1","0","-10","[]","0","2","","","7081","80","3","3","lose","go","0"
"pit-trial","199","1441097","0.0-85.0","battery-v0.2","","""event"",""trial"",""time""
""focus"",""0"",""3""
""fullscreenenter"",""1"",""1777""
","
","""event"",""trial"",""time""
""focus"",""0"",""3""
","""event"",""trial"",""time""
""fullscreenenter"",""1"",""1777""
","
","","","1202","","","11","7081","3848","s","elianto","#3366ff99"," "," ","1","+10","[2059]","1","2","","","7081","81","5","1","win","go","0"
"pit-trial","200","1445976","0.0-86.0","battery-v0.2","","""event"",""trial"",""time""
""focus"",""0"",""3""
""fullscreenenter"",""1"",""1777""
","
","""event"",""trial"",""time""
""focus"",""0"",""3""
","""event"",""trial"",""time""
""fullscreenenter"",""1"",""1777""
","
","","","-1","","","11","7081","3848","p","elianto","#3366ff99","-1","-1","1","0","[3636]","1","2","","","7081","82","4","2","win","no-go","1"
"pit-trial","201","1449776","0.0-87.0","battery-v0.2","","""event"",""trial"",""time""
""focus"",""0"",""3""
""fullscreenenter"",""1"",""1777""
","
","""event"",""trial"",""time""
""focus"",""0"",""3""
","""event"",""trial"",""time""
""fullscreenenter"",""1"",""1777""
","
","","","934","","","11","7081","3848","e","elianto","#f73b6a7A"," "," ","1","0","[1790]","1","2","","","7081","83","7","3","lose","go","0"
"pit-trial","202","1453216","0.0-88.0","battery-v0.2","","""event"",""trial"",""time""
""focus"",""0"",""3""
""fullscreenenter"",""1"",""1777""
","
","""event"",""trial"",""time""
""focus"",""0"",""3""
","""event"",""trial"",""time""
""fullscreenenter"",""1"",""1777""
","
","","","571","","","11","7081","3848","w","elianto","#f73b6a7A","-1"," ","0","0","[1430]","1","2","","","7081","84","6","4","lose","no-go","1"
"pit-trial","203","1456496","0.0-89.0","battery-v0.2","","""event"",""trial"",""time""
""focus"",""0"",""3""
""fullscreenenter"",""1"",""1777""
","
","""event"",""trial"",""time""
""focus"",""0"",""3""
","""event"",""trial"",""time""
""fullscreenenter"",""1"",""1777""
","
","","","413","","","11","7081","3848","w","elianto","#f73b6a7A","-1"," ","0","0","[1269]","1","2","","","7081","85","6","4","lose","no-go","1"
"pit-trial","204","1459975","0.0-90.0","battery-v0.2","","""event"",""trial"",""time""
""focus"",""0"",""3""
""fullscreenenter"",""1"",""1777""
","
","""event"",""trial"",""time""
""focus"",""0"",""3""
","""event"",""trial"",""time""
""fullscreenenter"",""1"",""1777""
","
","","","602","","","11","7081","3848","s","elianto","#3366ff99"," "," ","1","+10","[1459]","1","2","","","7081","86","5","1","win","go","0"
"pit-trial","205","1463536","0.0-91.0","battery-v0.2","","""event"",""trial"",""time""
""focus"",""0"",""3""
""fullscreenenter"",""1"",""1777""
","
","""event"",""trial"",""time""
""focus"",""0"",""3""
","""event"",""trial"",""time""
""fullscreenenter"",""1"",""1777""
","
","","","681","","","11","7081","3848","p","elianto","#3366ff99","-1"," ","0","0","[1537]","1","2","","","7081","87","4","2","win","no-go","0"
"pit-trial","206","1467577","0.0-92.0","battery-v0.2","","""event"",""trial"",""time""
""focus"",""0"",""3""
""fullscreenenter"",""1"",""1777""
","
","""event"",""trial"",""time""
""focus"",""0"",""3""
","""event"",""trial"",""time""
""fullscreenenter"",""1"",""1777""
","
","","","1163","","","11","7081","3848","e","elianto","#f73b6a7A"," "," ","1","0","[2020]","1","2","","","7081","88","7","3","lose","go","0"
"pit-trial","207","1471095","0.0-93.0","battery-v0.2","","""event"",""trial"",""time""
""focus"",""0"",""3""
""fullscreenenter"",""1"",""1777""
","
","""event"",""trial"",""time""
""focus"",""0"",""3""
","""event"",""trial"",""time""
""fullscreenenter"",""1"",""1777""
","
","","","650","","","11","7081","3848","e","elianto","#f73b6a7A"," "," ","1","0","[1508]","1","2","","","7081","89","7","3","lose","go","0"
"pit-trial","208","1474716","0.0-94.0","battery-v0.2","","""event"",""trial"",""time""
""focus"",""0"",""3""
""fullscreenenter"",""1"",""1777""
","
","""event"",""trial"",""time""
""focus"",""0"",""3""
","""event"",""trial"",""time""
""fullscreenenter"",""1"",""1777""
","
","","","760","","","11","7081","3848","s","elianto","#3366ff99"," "," ","1","0","[1617]","1","2","","","7081","90","5","1","win","go","1"
"pit-trial","209","1478145","0.0-95.0","battery-v0.2","","""event"",""trial"",""time""
""focus"",""0"",""3""
""fullscreenenter"",""1"",""1777""
","
","""event"",""trial"",""time""
""focus"",""0"",""3""
","""event"",""trial"",""time""
""fullscreenenter"",""1"",""1777""
","
","","","548","","","11","7081","3848","p","elianto","#3366ff99","-1"," ","0","0","[1414]","1","2","","","7081","91","4","2","win","no-go","0"
"pit-trial","210","1483036","0.0-96.0","battery-v0.2","","""event"",""trial"",""time""
""focus"",""0"",""3""
""fullscreenenter"",""1"",""1777""
","
","""event"",""trial"",""time""
""focus"",""0"",""3""
","""event"",""trial"",""time""
""fullscreenenter"",""1"",""1777""
","
","","","-1","","","11","7081","3848","w","elianto","#f73b6a7A","-1","-1","1","0","[]","0","2","","","7081","92","6","4","lose","no-go","0"
"pit-trial","211","1486575","0.0-97.0","battery-v0.2","","""event"",""trial"",""time""
""focus"",""0"",""3""
""fullscreenenter"",""1"",""1777""
","
","""event"",""trial"",""time""
""focus"",""0"",""3""
","""event"",""trial"",""time""
""fullscreenenter"",""1"",""1777""
","
","","","664","","","11","7081","3848","s","elianto","#3366ff99"," "," ","1","+10","[1519]","1","2","","","7081","93","5","1","win","go","0"
"pit-trial","212","1491135","0.0-98.0","battery-v0.2","","""event"",""trial"",""time""
""focus"",""0"",""3""
""fullscreenenter"",""1"",""1777""
","
","""event"",""trial"",""time""
""focus"",""0"",""3""
","""event"",""trial"",""time""
""fullscreenenter"",""1"",""1777""
","
","","","1683","","","11","7081","3848","e","elianto","#f73b6a7A"," "," ","1","0","[2539]","1","2","","","7081","94","7","3","lose","go","0"
"pit-trial","213","1495905","0.0-99.0","battery-v0.2","","""event"",""trial"",""time""
""focus"",""0"",""3""
""fullscreenenter"",""1"",""1777""
","
","""event"",""trial"",""time""
""focus"",""0"",""3""
","""event"",""trial"",""time""
""fullscreenenter"",""1"",""1777""
","
","","","1902","","","11","7081","3848","w","elianto","#f73b6a7A","-1"," ","0","-10","[2759]","1","2","","","7081","95","6","4","lose","no-go","0"
"pit-trial","214","1499346","0.0-100.0","battery-v0.2","","""event"",""trial"",""time""
""focus"",""0"",""3""
""fullscreenenter"",""1"",""1777""
","
","""event"",""trial"",""time""
""focus"",""0"",""3""
","""event"",""trial"",""time""
""fullscreenenter"",""1"",""1777""
","
","","","563","","","11","7081","3848","d","elianto","#3366ff99","-1"," ","0","0","[1420]","1","2","","","7081","96","8","2","win","no-go","0"
"pit-trial","215","1502695","0.0-101.0","battery-v0.2","","""event"",""trial"",""time""
""focus"",""0"",""3""
""fullscreenenter"",""1"",""1777""
","
","""event"",""trial"",""time""
""focus"",""0"",""3""
","""event"",""trial"",""time""
""fullscreenenter"",""1"",""1777""
","
","","","464","","","11","7081","3848","s","elianto","#3366ff99"," "," ","1","+10","[1330]","1","2","","","7081","97","5","1","win","go","0"
"pit-trial","216","1507196","0.0-102.0","battery-v0.2","","""event"",""trial"",""time""
""focus"",""0"",""3""
""fullscreenenter"",""1"",""1777""
","
","""event"",""trial"",""time""
""focus"",""0"",""3""
","""event"",""trial"",""time""
""fullscreenenter"",""1"",""1777""
","
","","","1624","","","11","7081","3848","w","elianto","#f73b6a7A","-1"," ","0","0","[2479]","1","2","","","7081","98","6","4","lose","no-go","1"
"pit-trial","217","1511005","0.0-103.0","battery-v0.2","","""event"",""trial"",""time""
""focus"",""0"",""3""
""fullscreenenter"",""1"",""1777""
","
","""event"",""trial"",""time""
""focus"",""0"",""3""
","""event"",""trial"",""time""
""fullscreenenter"",""1"",""1777""
","
","","","920","","","11","7081","3848","e","elianto","#f73b6a7A"," "," ","1","0","[1786]","1","2","","","7081","99","7","3","lose","go","0"
"pit-trial","218","1515885","0.0-104.0","battery-v0.2","","""event"",""trial"",""time""
""focus"",""0"",""3""
""fullscreenenter"",""1"",""1777""
","
","""event"",""trial"",""time""
""focus"",""0"",""3""
","""event"",""trial"",""time""
""fullscreenenter"",""1"",""1777""
","
","","","-1","","","11","7081","3848","d","elianto","#3366ff99","-1","-1","1","+10","[3041]","1","2","","","7081","100","8","2","win","no-go","0"
"pit-trial","219","1519926","0.0-105.0","battery-v0.2","","""event"",""trial"",""time""
""focus"",""0"",""3""
""fullscreenenter"",""1"",""1777""
","
","""event"",""trial"",""time""
""focus"",""0"",""3""
","""event"",""trial"",""time""
""fullscreenenter"",""1"",""1777""
","
","","","1160","","","11","7081","3848","d","elianto","#3366ff99","-1"," ","0","0","[2017]","1","2","","","7081","101","8","2","win","no-go","0"
"pit-trial","220","1523325","0.0-106.0","battery-v0.2","","""event"",""trial"",""time""
""focus"",""0"",""3""
""fullscreenenter"",""1"",""1777""
","
","""event"",""trial"",""time""
""focus"",""0"",""3""
","""event"",""trial"",""time""
""fullscreenenter"",""1"",""1777""
","
","","","529","","","11","7081","3848","w","elianto","#f73b6a7A","-1"," ","0","-10","[1396]","1","2","","","7081","102","6","4","lose","no-go","0"
"pit-trial","221","1526786","0.0-107.0","battery-v0.2","","""event"",""trial"",""time""
""focus"",""0"",""3""
""fullscreenenter"",""1"",""1777""
","
","""event"",""trial"",""time""
""focus"",""0"",""3""
","""event"",""trial"",""time""
""fullscreenenter"",""1"",""1777""
","
","","","589","","","11","7081","3848","s","elianto","#3366ff99"," "," ","1","+10","[1446]","1","2","","","7081","103","5","1","win","go","0"
"pit-trial","222","1530305","0.0-108.0","battery-v0.2","","""event"",""trial"",""time""
""focus"",""0"",""3""
""fullscreenenter"",""1"",""1777""
","
","""event"",""trial"",""time""
""focus"",""0"",""3""
","""event"",""trial"",""time""
""fullscreenenter"",""1"",""1777""
","
","","","657","","","11","7081","3848","j","elianto","#3366ff99","-1"," ","0","0","[1513]","1","2","","","7081","104","9","2","win","no-go","0"
"pit-trial","223","1535176","0.0-109.0","battery-v0.2","","""event"",""trial"",""time""
""focus"",""0"",""3""
""fullscreenenter"",""1"",""1777""
","
","""event"",""trial"",""time""
""focus"",""0"",""3""
","""event"",""trial"",""time""
""fullscreenenter"",""1"",""1777""
","
","","","-1","","","11","7081","3848","w","elianto","#f73b6a7A","-1","-1","1","0","[]","0","2","","","7081","105","6","4","lose","no-go","0"
"pit-trial","224","1538535","0.0-110.0","battery-v0.2","","""event"",""trial"",""time""
""focus"",""0"",""3""
""fullscreenenter"",""1"",""1777""
","
","""event"",""trial"",""time""
""focus"",""0"",""3""
","""event"",""trial"",""time""
""fullscreenenter"",""1"",""1777""
","
","","","485","","","11","7081","3848","d","elianto","#3366ff99","-1"," ","0","0","[1341]","1","2","","","7081","106","8","2","win","no-go","0"
"pit-trial","225","1542215","0.0-111.0","battery-v0.2","","""event"",""trial"",""time""
""focus"",""0"",""3""
""fullscreenenter"",""1"",""1777""
","
","""event"",""trial"",""time""
""focus"",""0"",""3""
","""event"",""trial"",""time""
""fullscreenenter"",""1"",""1777""
","
","","","801","","","11","7081","3848","s","elianto","#3366ff99"," "," ","1","0","[1659]","1","2","","","7081","107","5","1","win","go","1"
"pit-trial","226","1546256","0.0-112.0","battery-v0.2","","""event"",""trial"",""time""
""focus"",""0"",""3""
""fullscreenenter"",""1"",""1777""
","
","""event"",""trial"",""time""
""focus"",""0"",""3""
","""event"",""trial"",""time""
""fullscreenenter"",""1"",""1777""
","
","","","1164","","","11","7081","3848","j","elianto","#3366ff99","-1"," ","0","0","[2022,3866]","2","2","","","7081","108","9","2","win","no-go","0"
"pit-trial","227","1551116","0.0-113.0","battery-v0.2","","""event"",""trial"",""time""
""focus"",""0"",""3""
""fullscreenenter"",""1"",""1777""
","
","""event"",""trial"",""time""
""focus"",""0"",""3""
","""event"",""trial"",""time""
""fullscreenenter"",""1"",""1777""
","
","","","-1","","","11","7081","3848","w","elianto","#f73b6a7A","-1","-1","1","0","[3968]","1","2","","","7081","109","6","4","lose","no-go","0"
"pit-trial","228","1554895","0.0-114.0","battery-v0.2","","""event"",""trial"",""time""
""focus"",""0"",""3""
""fullscreenenter"",""1"",""1777""
","
","""event"",""trial"",""time""
""focus"",""0"",""3""
","""event"",""trial"",""time""
""fullscreenenter"",""1"",""1777""
","
","","","919","","","11","7081","3848","d","elianto","#3366ff99","-1"," ","0","0","[1775]","1","2","","","7081","110","8","2","win","no-go","0"
"pit-trial","229","1558264","0.0-115.0","battery-v0.2","","""event"",""trial"",""time""
""focus"",""0"",""3""
""fullscreenenter"",""1"",""1777""
","
","""event"",""trial"",""time""
""focus"",""0"",""3""
","""event"",""trial"",""time""
""fullscreenenter"",""1"",""1777""
","
","","","499","","","11","7081","3848","s","elianto","#3366ff99"," "," ","1","+10","[1355]","1","2","","","7081","111","5","1","win","go","0"
"pit-trial","230","1561484","0.0-116.0","battery-v0.2","","""event"",""trial"",""time""
""focus"",""0"",""3""
""fullscreenenter"",""1"",""1777""
","
