"trial_type","trial_index","time_elapsed","internal_node_id","task_version","subject_id","interactions","blur_events","focus_events","fullscreenenter_events","fullscreenexit_events","success","view_history","rt","responses","num_errors","age","subject","participantId","rune","rune_set","hex","correct","choice","accuracy","outcome","keys","total_keys","block","practice","value","sub","trial","stimulus","robot","valence","action","sham"
"pavlovia","0","45","0.0-0.0","battery-v0.2","","""event"",""trial"",""time""
""fullscreenenter"",""1"",""2895""
","
","
","""event"",""trial"",""time""
""fullscreenenter"",""1"",""2895""
","
","","","","","","","","","","","","","","","","","","","","","","","","","","",""
"fullscreen","1","3846","0.0-1.0","battery-v0.2","","""event"",""trial"",""time""
""fullscreenenter"",""1"",""2895""
","
","
","""event"",""trial"",""time""
""fullscreenenter"",""1"",""2895""
","
","true","","","","","","","","","","","","","","","","","","","","","","","","","",""
"pit-instructions","2","12327","0.0-2.0-0.0","battery-v0.2","","""event"",""trial"",""time""
""fullscreenenter"",""1"",""2895""
","
","
","""event"",""trial"",""time""
""fullscreenenter"",""1"",""2895""
","
","","[{""page_index"":0,""viewing_time"":8463.199999809265}]","8464.699999809265","","","","","","","","","","","","","","","","","","","","","","","",""
"pit-comprehension","3","16023","0.0-2.0-1.0-0.0","battery-v0.2","","""event"",""trial"",""time""
""fullscreenenter"",""1"",""2895""
","
","
","""event"",""trial"",""time""
""fullscreenenter"",""1"",""2895""
","
","","","3685.199999809265","[""shark""]","0","20","4639","3149","","","","","","","","","","","","","","","","","","",""
"pit-instructions","4","17611","0.0-2.0-1.0-1.0","battery-v0.2","","""event"",""trial"",""time""
""fullscreenenter"",""1"",""2895""
","
","
","""event"",""trial"",""time""
""fullscreenenter"",""1"",""2895""
","
","","[{""page_index"":0,""viewing_time"":1489.3999998569489}]","1490.8999998569489","","","","","","","","","","","","","","","","","","","","","","","",""
"pit-comprehension","5","20007","0.0-2.0-2.0-0.0","battery-v0.2","","""event"",""trial"",""time""
""fullscreenenter"",""1"",""2895""
","
","
","""event"",""trial"",""time""
""fullscreenenter"",""1"",""2895""
","
","","","2385.4000000953674","[""tiger""]","0","20","4639","3149","","","","","","","","","","","","","","","","","","",""
"pit-instructions","6","21272","0.0-2.0-2.0-1.0","battery-v0.2","","""event"",""trial"",""time""
""fullscreenenter"",""1"",""2895""
","
","
","""event"",""trial"",""time""
""fullscreenenter"",""1"",""2895""
","
","","[{""page_index"":0,""viewing_time"":1254.5}]","1255.3999998569489","","","","","","","","","","","","","","","","","","","","","","","",""
"pit-instructions","7","123653","0.0-2.0-3.0","battery-v0.2","","""event"",""trial"",""time""
""fullscreenenter"",""1"",""2895""
","
","
","""event"",""trial"",""time""
""fullscreenenter"",""1"",""2895""
","
","","[{""page_index"":0,""viewing_time"":8668.599999904633},{""page_index"":1,""viewing_time"":7200.900000095367},{""page_index"":2,""viewing_time"":6491.400000095367},{""page_index"":3,""viewing_time"":5975.299999952316},{""page_index"":4,""viewing_time"":7446.799999952316},{""page_index"":5,""viewing_time"":5461.099999904633},{""page_index"":6,""viewing_time"":6869.100000143051},{""page_index"":7,""viewing_time"":6503.399999856949},{""page_index"":8,""viewing_time"":7032.800000190735},{""page_index"":9,""viewing_time"":9294.799999952316},{""page_index"":10,""viewing_time"":8780.700000047684},{""page_index"":11,""viewing_time"":8099.099999904633},{""page_index"":12,""viewing_time"":8730.799999952316},{""page_index"":13,""viewing_time"":5817.299999952316}]","102373.09999990463","","","","","","","","","","","","","","","","","","","","","","","",""
"pit-trial","8","128244","0.0-2.0-4.0-0.0","battery-v0.2","","""event"",""trial"",""time""
""fullscreenenter"",""1"",""2895""
","
","
","""event"",""trial"",""time""
""fullscreenenter"",""1"",""2895""
","
","","","1717.6000001430511","","","20","4639","3149","&#9784;","elianto","#FFFFF080"," "," ","1","&#10004","[2580.0999999046326]","1","0","0","","","","","","","",""
"pit-trial","9","132523","0.0-2.0-4.1-0.1","battery-v0.2","","""event"",""trial"",""time""
""fullscreenenter"",""1"",""2895""
","
","
","""event"",""trial"",""time""
""fullscreenenter"",""1"",""2895""
","
","","","1395.7999999523163","","","20","4639","3149","&#9784;","elianto","#FFFFF080"," "," ","1","&#10004","[2257.899999856949]","1","0","0","","","","","","","",""
"pit-trial","10","136760","0.0-2.0-4.2-0.2","battery-v0.2","","""event"",""trial"",""time""
""fullscreenenter"",""1"",""2895""
","
","
","""event"",""trial"",""time""
""fullscreenenter"",""1"",""2895""
","
","","","1339.7000000476837","","","20","4639","3149","&#9784;","elianto","#FFFFF080"," "," ","1","&#10004","[2211]","1","0","0","","","","","","","",""
"pit-trial","11","141121","0.0-2.0-4.3-0.3","battery-v0.2","","""event"",""trial"",""time""
""fullscreenenter"",""1"",""2895""
","
","
","""event"",""trial"",""time""
""fullscreenenter"",""1"",""2895""
","
","","","1489.7000000476837","","","20","4639","3149","&#9784;","elianto","#FFFFF080"," "," ","1","&#10004","[2342]","1","0","0","","","","","","","",""
"pit-trial","12","145047","0.0-2.0-4.4-0.4","battery-v0.2","","""event"",""trial"",""time""
""fullscreenenter"",""1"",""2895""
","
","
","""event"",""trial"",""time""
""fullscreenenter"",""1"",""2895""
","
","","","1039","","","20","4639","3149","&#9784;","elianto","#FFFFF080"," "," ","1","&#10004","[1906.9000000953674]","1","0","0","","","","","","","",""
"pit-instructions","13","169055","0.0-2.0-5.0","battery-v0.2","","""event"",""trial"",""time""
""fullscreenenter"",""1"",""2895""
","
","
","""event"",""trial"",""time""
""fullscreenenter"",""1"",""2895""
","
","","[{""page_index"":0,""viewing_time"":4959.100000143051},{""page_index"":1,""viewing_time"":6616.299999952316},{""page_index"":2,""viewing_time"":6476.400000095367},{""page_index"":3,""viewing_time"":5947.399999856949}]","24000","","","","","","","","","","","","","","","","","","","","","","","",""
"pit-trial","14","173929","0.0-2.0-6.0-0.0","battery-v0.2","","""event"",""trial"",""time""
""fullscreenenter"",""1"",""2895""
","
","
","""event"",""trial"",""time""
""fullscreenenter"",""1"",""2895""
","
","","","-1","","","20","4639","3149","&#9854;","elianto","#FFFFF080","-1","-1","1","&#10004","[]","0","0","1","","","","","","","",""
"pit-trial","15","178802","0.0-2.0-6.1-0.1","battery-v0.2","","""event"",""trial"",""time""
""fullscreenenter"",""1"",""2895""
","
","
","""event"",""trial"",""time""
""fullscreenenter"",""1"",""2895""
","
","","","-1","","","20","4639","3149","&#9854;","elianto","#FFFFF080","-1","-1","1","&#10004","[]","0","0","1","","","","","","","",""
"pit-trial","16","183679","0.0-2.0-6.2-0.2","battery-v0.2","","""event"",""trial"",""time""
""fullscreenenter"",""1"",""2895""
","
","
","""event"",""trial"",""time""
""fullscreenenter"",""1"",""2895""
","
","","","-1","","","20","4639","3149","&#9854;","elianto","#FFFFF080","-1","-1","1","&#10004","[]","0","0","1","","","","","","","",""
"pit-trial","17","188559","0.0-2.0-6.3-0.3","battery-v0.2","","""event"",""trial"",""time""
""fullscreenenter"",""1"",""2895""
","
","
","""event"",""trial"",""time""
""fullscreenenter"",""1"",""2895""
","
","","","-1","","","20","4639","3149","&#9854;","elianto","#FFFFF080","-1","-1","1","&#10004","[]","0","0","1","","","","","","","",""
"pit-trial","18","193443","0.0-2.0-6.4-0.4","battery-v0.2","","""event"",""trial"",""time""
""fullscreenenter"",""1"",""2895""
","
","
","""event"",""trial"",""time""
""fullscreenenter"",""1"",""2895""
","
","","","-1","","","20","4639","3149","&#9854;","elianto","#FFFFF080","-1","-1","1","&#10004","[]","0","0","1","","","","","","","",""
"pit-instructions","19","334597","0.0-2.0-7.0","battery-v0.2","","""event"",""trial"",""time""
""fullscreenenter"",""1"",""2895""
","
","
","""event"",""trial"",""time""
""fullscreenenter"",""1"",""2895""
","
","","[{""page_index"":0,""viewing_time"":10670.099999904633},{""page_index"":1,""viewing_time"":8959.800000190735},{""page_index"":2,""viewing_time"":6380.899999856949},{""page_index"":3,""viewing_time"":6569},{""page_index"":4,""viewing_time"":6785.700000047684},{""page_index"":5,""viewing_time"":6602.700000047684},{""page_index"":6,""viewing_time"":5580.799999952316},{""page_index"":7,""viewing_time"":9623},{""page_index"":8,""viewing_time"":9248.799999952316},{""page_index"":9,""viewing_time"":9401},{""page_index"":10,""viewing_time"":7737.600000143051},{""page_index"":11,""viewing_time"":4684.699999809265},{""page_index"":12,""viewing_time"":7437.200000047684},{""page_index"":13,""viewing_time"":7983.200000047684},{""page_index"":14,""viewing_time"":9454.099999904633},{""page_index"":15,""viewing_time"":6871.300000190735},{""page_index"":16,""viewing_time"":8082.799999952316},{""page_index"":17,""viewing_time"":9067.700000047684}]","141141.79999995232","","","","","","","","","","","","","","","","","","","","","","","",""
"pit-trial","20","339475","0.0-2.0-8.0-0.0","battery-v0.2","","""event"",""trial"",""time""
""fullscreenenter"",""1"",""2895""
","
","
","""event"",""trial"",""time""
""fullscreenenter"",""1"",""2895""
","
","","","-1","","","20","4639","3149","&#9776;","elianto","#3366ff99"," ","-1","0","0","[]","0","0","1","","","","","","","",""
"pit-trial","21","343131","0.0-2.0-8.0-1.0","battery-v0.2","","""event"",""trial"",""time""
""fullscreenenter"",""1"",""2895""
","
","
","""event"",""trial"",""time""
""fullscreenenter"",""1"",""2895""
","
","","","777.5999999046326","","","20","4639","3149","&#9776;","elianto","#3366ff99"," "," ","1","+10","[1634]","1","0","1","","","","","","","",""
"pit-trial","22","346513","0.0-2.0-8.0-2.0","battery-v0.2","","""event"",""trial"",""time""
""fullscreenenter"",""1"",""2895""
","
","
","""event"",""trial"",""time""
""fullscreenenter"",""1"",""2895""
","
","","","515.3999998569489","","","20","4639","3149","&#9776;","elianto","#3366ff99"," "," ","1","+10","[1376]","1","0","1","","","","","","","",""
"pit-trial","23","350191","0.0-2.0-8.0-3.0","battery-v0.2","","""event"",""trial"",""time""
""fullscreenenter"",""1"",""2895""
","
","
","""event"",""trial"",""time""
""fullscreenenter"",""1"",""2895""
","
","","","801.7000000476837","","","20","4639","3149","&#9776;","elianto","#3366ff99"," "," ","1","0","[1665.4000000953674]","1","0","1","","","","","","","",""
"pit-trial","24","353911","0.0-2.0-8.0-4.0","battery-v0.2","","""event"",""trial"",""time""
""fullscreenenter"",""1"",""2895""
","
","
","""event"",""trial"",""time""
""fullscreenenter"",""1"",""2895""
","
","","","835.6999998092651","","","20","4639","3149","&#9776;","elianto","#3366ff99"," "," ","1","+10","[1698.3999998569489]","1","0","1","","","","","","","",""
"pit-trial","25","357552","0.0-2.0-8.1-0.1","battery-v0.2","","""event"",""trial"",""time""
""fullscreenenter"",""1"",""2895""
","
","
","""event"",""trial"",""time""
""fullscreenenter"",""1"",""2895""
","
","","","760","","","20","4639","3149","&#9776;","elianto","#3366ff99"," "," ","1","+10","[1619.2999999523163]","1","0","1","","","","","","","",""
"pit-trial","26","361426","0.0-2.0-8.1-1.1","battery-v0.2","","""event"",""trial"",""time""
""fullscreenenter"",""1"",""2895""
","
","
","""event"",""trial"",""time""
""fullscreenenter"",""1"",""2895""
","
","","","1010.2999999523163","","","20","4639","3149","&#9776;","elianto","#3366ff99"," "," ","1","+10","[1865.8999998569489]","1","0","1","","","","","","","",""
"pit-trial","27","365258","0.0-2.0-8.1-2.1","battery-v0.2","","""event"",""trial"",""time""
""fullscreenenter"",""1"",""2895""
","
","
","""event"",""trial"",""time""
""fullscreenenter"",""1"",""2895""
","
","","","965","","","20","4639","3149","&#9776;","elianto","#3366ff99"," "," ","1","+10","[1823.3999998569489]","1","0","1","","","","","","","",""
"pit-trial","28","369464","0.0-2.0-8.1-3.1","battery-v0.2","","""event"",""trial"",""time""
""fullscreenenter"",""1"",""2895""
","
","
","""event"",""trial"",""time""
""fullscreenenter"",""1"",""2895""
","
","","","1346.3999998569489","","","20","4639","3149","&#9776;","elianto","#3366ff99"," "," ","1","0","[2198]","1","0","1","","","","","","","",""
"pit-trial","29","373073","0.0-2.0-8.1-4.1","battery-v0.2","","""event"",""trial"",""time""
""fullscreenenter"",""1"",""2895""
","
","
","""event"",""trial"",""time""
""fullscreenenter"",""1"",""2895""
","
","","","745.8999998569489","","","20","4639","3149","&#9776;","elianto","#3366ff99"," "," ","1","+10","[1599.2999999523163]","1","0","1","","","","","","","",""
"pit-trial","30","376649","0.0-2.0-8.2-0.2","battery-v0.2","","""event"",""trial"",""time""
""fullscreenenter"",""1"",""2895""
","
","
","""event"",""trial"",""time""
""fullscreenenter"",""1"",""2895""
","
","","","702.7000000476837","","","20","4639","3149","&#9776;","elianto","#3366ff99"," "," ","1","+10","[1565.5]","1","0","1","","","","","","","",""
"pit-trial","31","380129","0.0-2.0-8.2-1.2","battery-v0.2","","""event"",""trial"",""time""
""fullscreenenter"",""1"",""2895""
","
","
","""event"",""trial"",""time""
""fullscreenenter"",""1"",""2895""
","
","","","617.5999999046326","","","20","4639","3149","&#9776;","elianto","#3366ff99"," "," ","1","+10","[1470.5999999046326]","1","0","1","","","","","","","",""
"pit-trial","32","383914","0.0-2.0-8.2-2.2","battery-v0.2","","""event"",""trial"",""time""
""fullscreenenter"",""1"",""2895""
","
","
","""event"",""trial"",""time""
""fullscreenenter"",""1"",""2895""
","
","","","920.9000000953674","","","20","4639","3149","&#9776;","elianto","#3366ff99"," "," ","1","+10","[1773.2999999523163]","1","0","1","","","","","","","",""
"pit-trial","33","387600","0.0-2.0-8.2-3.2","battery-v0.2","","""event"",""trial"",""time""
""fullscreenenter"",""1"",""2895""
","
","
","""event"",""trial"",""time""
""fullscreenenter"",""1"",""2895""
","
","","","788.5","","","20","4639","3149","&#9776;","elianto","#3366ff99"," "," ","1","0","[1677.2999999523163]","1","0","1","","","","","","","",""
"pit-trial","34","391520","0.0-2.0-8.2-4.2","battery-v0.2","","""event"",""trial"",""time""
""fullscreenenter"",""1"",""2895""
","
","
","""event"",""trial"",""time""
""fullscreenenter"",""1"",""2895""
","
","","","1055.1999998092651","","","20","4639","3149","&#9776;","elianto","#3366ff99"," "," ","1","+10","[1909.1999998092651]","1","0","1","","","","","","","",""
"call-function","35","391523","0.0-2.0-9.0","battery-v0.2","","""event"",""trial"",""time""
""fullscreenenter"",""1"",""2895""
","
","
","""event"",""trial"",""time""
""fullscreenenter"",""1"",""2895""
","
","","","","","","","","","","","","","","","","","","","","","","","","","","",""
"pit-instructions","36","438125","0.0-2.0-10.0","battery-v0.2","","""event"",""trial"",""time""
""fullscreenenter"",""1"",""2895""
","
","
","""event"",""trial"",""time""
""fullscreenenter"",""1"",""2895""
","
","","[{""page_index"":0,""viewing_time"":9493.299999952316},{""page_index"":1,""viewing_time"":8892.799999952316},{""page_index"":2,""viewing_time"":10282.200000047684},{""page_index"":3,""viewing_time"":10062.599999904633},{""page_index"":4,""viewing_time"":7869.600000143051}]","46601.199999809265","","","","","","","","","","","","","","","","","","","","","","","",""
"pit-trial","37","443002","0.0-2.0-11.0-0.0","battery-v0.2","","""event"",""trial"",""time""
""fullscreenenter"",""1"",""2895""
","
","
","""event"",""trial"",""time""
""fullscreenenter"",""1"",""2895""
","
","","","-1","","","20","4639","3149","&#9761;","elianto","#3366ff99","-1","-1","1","+10","[]","0","0","2","","","","","","","",""
"pit-trial","38","447877","0.0-2.0-11.0-1.0","battery-v0.2","","""event"",""trial"",""time""
""fullscreenenter"",""1"",""2895""
","
","
","""event"",""trial"",""time""
""fullscreenenter"",""1"",""2895""
","
","","","-1","","","20","4639","3149","&#9761;","elianto","#3366ff99","-1","-1","1","+10","[]","0","0","2","","","","","","","",""
"pit-trial","39","452762","0.0-2.0-11.0-2.0","battery-v0.2","","""event"",""trial"",""time""
""fullscreenenter"",""1"",""2895""
","
","
","""event"",""trial"",""time""
""fullscreenenter"",""1"",""2895""
","
","","","-1","","","20","4639","3149","&#9761;","elianto","#3366ff99","-1","-1","1","+10","[]","0","0","2","","","","","","","",""
"pit-trial","40","457641","0.0-2.0-11.0-3.0","battery-v0.2","","""event"",""trial"",""time""
""fullscreenenter"",""1"",""2895""
","
","
","""event"",""trial"",""time""
""fullscreenenter"",""1"",""2895""
","
","","","-1","","","20","4639","3149","&#9761;","elianto","#3366ff99","-1","-1","1","0","[]","0","0","2","","","","","","","",""
"pit-trial","41","462526","0.0-2.0-11.0-4.0","battery-v0.2","","""event"",""trial"",""time""
""fullscreenenter"",""1"",""2895""
","
","
","""event"",""trial"",""time""
""fullscreenenter"",""1"",""2895""
","
","","","-1","","","20","4639","3149","&#9761;","elianto","#3366ff99","-1","-1","1","+10","[]","0","0","2","","","","","","","",""
"pit-trial","42","467404","0.0-2.0-11.1-0.1","battery-v0.2","","""event"",""trial"",""time""
""fullscreenenter"",""1"",""2895""
","
","
","""event"",""trial"",""time""
""fullscreenenter"",""1"",""2895""
","
","","","-1","","","20","4639","3149","&#9761;","elianto","#3366ff99","-1","-1","1","+10","[]","0","0","2","","","","","","","",""
"pit-trial","43","472273","0.0-2.0-11.1-1.1","battery-v0.2","","""event"",""trial"",""time""
""fullscreenenter"",""1"",""2895""
","
","
","""event"",""trial"",""time""
""fullscreenenter"",""1"",""2895""
","
","","","-1","","","20","4639","3149","&#9761;","elianto","#3366ff99","-1","-1","1","+10","[]","0","0","2","","","","","","","",""
"pit-trial","44","477137","0.0-2.0-11.1-2.1","battery-v0.2","","""event"",""trial"",""time""
""fullscreenenter"",""1"",""2895""
","
","
","""event"",""trial"",""time""
""fullscreenenter"",""1"",""2895""
","
","","","-1","","","20","4639","3149","&#9761;","elianto","#3366ff99","-1","-1","1","+10","[]","0","0","2","","","","","","","",""
"pit-trial","45","482001","0.0-2.0-11.1-3.1","battery-v0.2","","""event"",""trial"",""time""
""fullscreenenter"",""1"",""2895""
","
","
","""event"",""trial"",""time""
""fullscreenenter"",""1"",""2895""
","
","","","-1","","","20","4639","3149","&#9761;","elianto","#3366ff99","-1","-1","1","0","[]","0","0","2","","","","","","","",""
"pit-trial","46","486865","0.0-2.0-11.1-4.1","battery-v0.2","","""event"",""trial"",""time""
""fullscreenenter"",""1"",""2895""
","
","
","""event"",""trial"",""time""
""fullscreenenter"",""1"",""2895""
","
","","","-1","","","20","4639","3149","&#9761;","elianto","#3366ff99","-1","-1","1","+10","[]","0","0","2","","","","","","","",""
"pit-trial","47","491729","0.0-2.0-11.2-0.2","battery-v0.2","","""event"",""trial"",""time""
""fullscreenenter"",""1"",""2895""
","
","
","""event"",""trial"",""time""
""fullscreenenter"",""1"",""2895""
","
","","","-1","","","20","4639","3149","&#9761;","elianto","#3366ff99","-1","-1","1","+10","[]","0","0","2","","","","","","","",""
"pit-trial","48","496592","0.0-2.0-11.2-1.2","battery-v0.2","","""event"",""trial"",""time""
""fullscreenenter"",""1"",""2895""
","
","
","""event"",""trial"",""time""
""fullscreenenter"",""1"",""2895""
","
","","","-1","","","20","4639","3149","&#9761;","elianto","#3366ff99","-1","-1","1","+10","[]","0","0","2","","","","","","","",""
"pit-trial","49","501457","0.0-2.0-11.2-2.2","battery-v0.2","","""event"",""trial"",""time""
""fullscreenenter"",""1"",""2895""
","
","
","""event"",""trial"",""time""
""fullscreenenter"",""1"",""2895""
","
","","","-1","","","20","4639","3149","&#9761;","elianto","#3366ff99","-1","-1","1","+10","[]","0","0","2","","","","","","","",""
"pit-trial","50","506331","0.0-2.0-11.2-3.2","battery-v0.2","","""event"",""trial"",""time""
""fullscreenenter"",""1"",""2895""
","
","
","""event"",""trial"",""time""
""fullscreenenter"",""1"",""2895""
","
","","","-1","","","20","4639","3149","&#9761;","elianto","#3366ff99","-1","-1","1","0","[]","0","0","2","","","","","","","",""
"pit-trial","51","511193","0.0-2.0-11.2-4.2","battery-v0.2","","""event"",""trial"",""time""
""fullscreenenter"",""1"",""2895""
","
","
","""event"",""trial"",""time""
""fullscreenenter"",""1"",""2895""
","
","","","-1","","","20","4639","3149","&#9761;","elianto","#3366ff99","-1","-1","1","+10","[]","0","0","2","","","","","","","",""
"pit-trial","52","516057","0.0-2.0-11.3-0.3","battery-v0.2","","""event"",""trial"",""time""
""fullscreenenter"",""1"",""2895""
","
","
","""event"",""trial"",""time""
""fullscreenenter"",""1"",""2895""
","
","","","-1","","","20","4639","3149","&#9761;","elianto","#3366ff99","-1","-1","1","+10","[]","0","0","2","","","","","","","",""
"pit-trial","53","520922","0.0-2.0-11.3-1.3","battery-v0.2","","""event"",""trial"",""time""
""fullscreenenter"",""1"",""2895""
","
","
","""event"",""trial"",""time""
""fullscreenenter"",""1"",""2895""
","
","","","-1","","","20","4639","3149","&#9761;","elianto","#3366ff99","-1","-1","1","+10","[]","0","0","2","","","","","","","",""
"pit-trial","54","525794","0.0-2.0-11.3-2.3","battery-v0.2","","""event"",""trial"",""time""
""fullscreenenter"",""1"",""2895""
","
","
","""event"",""trial"",""time""
""fullscreenenter"",""1"",""2895""
","
","","","-1","","","20","4639","3149","&#9761;","elianto","#3366ff99","-1","-1","1","+10","[]","0","0","2","","","","","","","",""
"pit-trial","55","530656","0.0-2.0-11.3-3.3","battery-v0.2","","""event"",""trial"",""time""
""fullscreenenter"",""1"",""2895""
","
","
","""event"",""trial"",""time""
""fullscreenenter"",""1"",""2895""
","
","","","-1","","","20","4639","3149","&#9761;","elianto","#3366ff99","-1","-1","1","0","[]","0","0","2","","","","","","","",""
"pit-trial","56","535529","0.0-2.0-11.3-4.3","battery-v0.2","","""event"",""trial"",""time""
""fullscreenenter"",""1"",""2895""
","
","
","""event"",""trial"",""time""
""fullscreenenter"",""1"",""2895""
","
","","","-1","","","20","4639","3149","&#9761;","elianto","#3366ff99","-1","-1","1","+10","[]","0","0","2","","","","","","","",""
"call-function","57","535534","0.0-2.0-12.0","battery-v0.2","","""event"",""trial"",""time""
""fullscreenenter"",""1"",""2895""
","
","
","""event"",""trial"",""time""
""fullscreenenter"",""1"",""2895""
","
","","","","","","","","","","","","","","","","","","","","","","","","","","",""
"pit-instructions","58","574679","0.0-2.0-13.0","battery-v0.2","","""event"",""trial"",""time""
""fullscreenenter"",""1"",""2895""
","
","
","""event"",""trial"",""time""
""fullscreenenter"",""1"",""2895""
","
","","[{""page_index"":0,""viewing_time"":7372.599999904633},{""page_index"":1,""viewing_time"":8863},{""page_index"":2,""viewing_time"":4271.5},{""page_index"":3,""viewing_time"":13038.100000143051},{""page_index"":4,""viewing_time"":5597.099999904633}]","39143","","","","","","","","","","","","","","","","","","","","","","","",""
"pit-trial","59","578594","0.0-2.0-14.0-0.0","battery-v0.2","","""event"",""trial"",""time""
""fullscreenenter"",""1"",""2895""
","
","
","""event"",""trial"",""time""
""fullscreenenter"",""1"",""2895""
","
","","","1037.1000001430511","","","20","4639","3149","&#9826;","elianto","#f73b6a7A","-1"," ","0","-10","[1893.6000001430511]","1","0","3","","","","","","","",""
"pit-trial","60","583469","0.0-2.0-14.0-1.0","battery-v0.2","","""event"",""trial"",""time""
""fullscreenenter"",""1"",""2895""
","
","
","""event"",""trial"",""time""
""fullscreenenter"",""1"",""2895""
","
","","","-1","","","20","4639","3149","&#9826;","elianto","#f73b6a7A","-1","-1","1","0","[]","0","0","3","","","","","","","",""
"pit-trial","61","588366","0.0-2.0-14.0-2.0","battery-v0.2","","""event"",""trial"",""time""
""fullscreenenter"",""1"",""2895""
","
","
","""event"",""trial"",""time""
""fullscreenenter"",""1"",""2895""
","
","","","-1","","","20","4639","3149","&#9826;","elianto","#f73b6a7A","-1","-1","1","0","[]","0","0","3","","","","","","","",""
"pit-trial","62","593232","0.0-2.0-14.0-3.0","battery-v0.2","","""event"",""trial"",""time""
""fullscreenenter"",""1"",""2895""
","
","
","""event"",""trial"",""time""
""fullscreenenter"",""1"",""2895""
","
","","","-1","","","20","4639","3149","&#9826;","elianto","#f73b6a7A","-1","-1","1","-10","[]","0","0","3","","","","","","","",""
"pit-trial","63","598112","0.0-2.0-14.0-4.0","battery-v0.2","","""event"",""trial"",""time""
""fullscreenenter"",""1"",""2895""
","
","
","""event"",""trial"",""time""
""fullscreenenter"",""1"",""2895""
","
","","","-1","","","20","4639","3149","&#9826;","elianto","#f73b6a7A","-1","-1","1","0","[]","0","0","3","","","","","","","",""
"pit-trial","64","602997","0.0-2.0-14.1-0.1","battery-v0.2","","""event"",""trial"",""time""
""fullscreenenter"",""1"",""2895""
","
","
","""event"",""trial"",""time""
""fullscreenenter"",""1"",""2895""
","
","","","-1","","","20","4639","3149","&#9826;","elianto","#f73b6a7A","-1","-1","1","0","[]","0","0","3","","","","","","","",""
"pit-trial","65","607865","0.0-2.0-14.1-1.1","battery-v0.2","","""event"",""trial"",""time""
""fullscreenenter"",""1"",""2895""
","
","
","""event"",""trial"",""time""
""fullscreenenter"",""1"",""2895""
","
","","","-1","","","20","4639","3149","&#9826;","elianto","#f73b6a7A","-1","-1","1","0","[]","0","0","3","","","","","","","",""
"pit-trial","66","612729","0.0-2.0-14.1-2.1","battery-v0.2","","""event"",""trial"",""time""
""fullscreenenter"",""1"",""2895""
","
","
","""event"",""trial"",""time""
""fullscreenenter"",""1"",""2895""
","
","","","-1","","","20","4639","3149","&#9826;","elianto","#f73b6a7A","-1","-1","1","0","[]","0","0","3","","","","","","","",""
"pit-trial","67","617593","0.0-2.0-14.1-3.1","battery-v0.2","","""event"",""trial"",""time""
""fullscreenenter"",""1"",""2895""
","
","
","""event"",""trial"",""time""
""fullscreenenter"",""1"",""2895""
","
","","","-1","","","20","4639","3149","&#9826;","elianto","#f73b6a7A","-1","-1","1","-10","[]","0","0","3","","","","","","","",""
"pit-trial","68","622457","0.0-2.0-14.1-4.1","battery-v0.2","","""event"",""trial"",""time""
""fullscreenenter"",""1"",""2895""
","
","
","""event"",""trial"",""time""
""fullscreenenter"",""1"",""2895""
","
","","","-1","","","20","4639","3149","&#9826;","elianto","#f73b6a7A","-1","-1","1","0","[]","0","0","3","","","","","","","",""
"pit-trial","69","627321","0.0-2.0-14.2-0.2","battery-v0.2","","""event"",""trial"",""time""
""fullscreenenter"",""1"",""2895""
","
","
","""event"",""trial"",""time""
""fullscreenenter"",""1"",""2895""
","
","","","-1","","","20","4639","3149","&#9826;","elianto","#f73b6a7A","-1","-1","1","0","[]","0","0","3","","","","","","","",""
"pit-trial","70","632185","0.0-2.0-14.2-1.2","battery-v0.2","","""event"",""trial"",""time""
""fullscreenenter"",""1"",""2895""
","
","
","""event"",""trial"",""time""
""fullscreenenter"",""1"",""2895""
","
","","","-1","","","20","4639","3149","&#9826;","elianto","#f73b6a7A","-1","-1","1","0","[]","0","0","3","","","","","","","",""
"pit-trial","71","637048","0.0-2.0-14.2-2.2","battery-v0.2","","""event"",""trial"",""time""
""fullscreenenter"",""1"",""2895""
","
","
","""event"",""trial"",""time""
""fullscreenenter"",""1"",""2895""
","
","","","-1","","","20","4639","3149","&#9826;","elianto","#f73b6a7A","-1","-1","1","0","[]","0","0","3","","","","","","","",""
"pit-trial","72","641912","0.0-2.0-14.2-3.2","battery-v0.2","","""event"",""trial"",""time""
""fullscreenenter"",""1"",""2895""
","
","
","""event"",""trial"",""time""
""fullscreenenter"",""1"",""2895""
","
","","","-1","","","20","4639","3149","&#9826;","elianto","#f73b6a7A","-1","-1","1","-10","[]","0","0","3","","","","","","","",""
"pit-trial","73","646777","0.0-2.0-14.2-4.2","battery-v0.2","","""event"",""trial"",""time""
""fullscreenenter"",""1"",""2895""
","
","
","""event"",""trial"",""time""
""fullscreenenter"",""1"",""2895""
","
","","","-1","","","20","4639","3149","&#9826;","elianto","#f73b6a7A","-1","-1","1","0","[]","0","0","3","","","","","","","",""
"pit-trial","74","651649","0.0-2.0-14.3-0.3","battery-v0.2","","""event"",""trial"",""time""
""fullscreenenter"",""1"",""2895""
","
","
","""event"",""trial"",""time""
""fullscreenenter"",""1"",""2895""
","
","","","-1","","","20","4639","3149","&#9826;","elianto","#f73b6a7A","-1","-1","1","0","[]","0","0","3","","","","","","","",""
"pit-trial","75","656513","0.0-2.0-14.3-1.3","battery-v0.2","","""event"",""trial"",""time""
""fullscreenenter"",""1"",""2895""
","
","
","""event"",""trial"",""time""
""fullscreenenter"",""1"",""2895""
","
","","","-1","","","20","4639","3149","&#9826;","elianto","#f73b6a7A","-1","-1","1","0","[]","0","0","3","","","","","","","",""
"pit-trial","76","661377","0.0-2.0-14.3-2.3","battery-v0.2","","""event"",""trial"",""time""
""fullscreenenter"",""1"",""2895""
","
","
","""event"",""trial"",""time""
""fullscreenenter"",""1"",""2895""
","
","","","-1","","","20","4639","3149","&#9826;","elianto","#f73b6a7A","-1","-1","1","0","[]","0","0","3","","","","","","","",""
"pit-trial","77","666240","0.0-2.0-14.3-3.3","battery-v0.2","","""event"",""trial"",""time""
""fullscreenenter"",""1"",""2895""
","
","
","""event"",""trial"",""time""
""fullscreenenter"",""1"",""2895""
","
","","","-1","","","20","4639","3149","&#9826;","elianto","#f73b6a7A","-1","-1","1","-10","[]","0","0","3","","","","","","","",""
"pit-trial","78","671104","0.0-2.0-14.3-4.3","battery-v0.2","","""event"",""trial"",""time""
""fullscreenenter"",""1"",""2895""
","
","
","""event"",""trial"",""time""
""fullscreenenter"",""1"",""2895""
","
","","","-1","","","20","4639","3149","&#9826;","elianto","#f73b6a7A","-1","-1","1","0","[]","0","0","3","","","","","","","",""
"call-function","79","671107","0.0-2.0-15.0","battery-v0.2","","""event"",""trial"",""time""
""fullscreenenter"",""1"",""2895""
","
","
","""event"",""trial"",""time""
""fullscreenenter"",""1"",""2895""
","
","","","","","","","","","","","","","","","","","","","","","","","","","","",""
"pit-instructions","80","697668","0.0-2.0-16.0","battery-v0.2","","""event"",""trial"",""time""
""fullscreenenter"",""1"",""2895""
","
","
","""event"",""trial"",""time""
""fullscreenenter"",""1"",""2895""
","
","","[{""page_index"":0,""viewing_time"":7124.299999952316},{""page_index"":1,""viewing_time"":8515.5},{""page_index"":2,""viewing_time"":5753.5},{""page_index"":3,""viewing_time"":5166.5}]","26560.39999985695","","","","","","","","","","","","","","","","","","","","","","","",""
"pit-trial","81","701623","0.0-2.0-17.0-0.0","battery-v0.2","","""event"",""trial"",""time""
""fullscreenenter"",""1"",""2895""
","
","
","""event"",""trial"",""time""
""fullscreenenter"",""1"",""2895""
","
","","","1071","","","20","4639","3149","&#9789;","elianto","#f73b6a7A"," "," ","1","0","[1929]","1","0","4","","","","","","","",""
"pit-trial","82","705356","0.0-2.0-17.0-1.0","battery-v0.2","","""event"",""trial"",""time""
""fullscreenenter"",""1"",""2895""
","
","
","""event"",""trial"",""time""
""fullscreenenter"",""1"",""2895""
","
","","","862.1999998092651","","","20","4639","3149","&#9789;","elianto","#f73b6a7A"," "," ","1","0","[1723.1999998092651]","1","0","4","","","","","","","",""
"pit-trial","83","709099","0.0-2.0-17.0-2.0","battery-v0.2","","""event"",""trial"",""time""
""fullscreenenter"",""1"",""2895""
","
","
","""event"",""trial"",""time""
""fullscreenenter"",""1"",""2895""
","
","","","867.5999999046326","","","20","4639","3149","&#9789;","elianto","#f73b6a7A"," "," ","1","0","[1734.5]","1","0","4","","","","","","","",""
"pit-trial","84","712729","0.0-2.0-17.0-3.0","battery-v0.2","","""event"",""trial"",""time""
""fullscreenenter"",""1"",""2895""
","
","
","""event"",""trial"",""time""
""fullscreenenter"",""1"",""2895""
","
","","","765.5999999046326","","","20","4639","3149","&#9789;","elianto","#f73b6a7A"," "," ","1","-10","[1616.2999999523163]","1","0","4","","","","","","","",""
"pit-trial","85","716107","0.0-2.0-17.0-4.0","battery-v0.2","","""event"",""trial"",""time""
""fullscreenenter"",""1"",""2895""
","
","
","""event"",""trial"",""time""
""fullscreenenter"",""1"",""2895""
","
","","","502.7000000476837","","","20","4639","3149","&#9789;","elianto","#f73b6a7A"," "," ","1","0","[1367.2000000476837]","1","0","4","","","","","","","",""
"pit-trial","86","719958","0.0-2.0-17.1-0.1","battery-v0.2","","""event"",""trial"",""time""
""fullscreenenter"",""1"",""2895""
","
","
","""event"",""trial"",""time""
""fullscreenenter"",""1"",""2895""
","
","","","972.5999999046326","","","20","4639","3149","&#9789;","elianto","#f73b6a7A"," "," ","1","0","[1827.2000000476837]","1","0","4","","","","","","","",""
"pit-trial","87","723481","0.0-2.0-17.1-1.1","battery-v0.2","","""event"",""trial"",""time""
""fullscreenenter"",""1"",""2895""
","
","
","""event"",""trial"",""time""
""fullscreenenter"",""1"",""2895""
","
","","","650.7000000476837","","","20","4639","3149","&#9789;","elianto","#f73b6a7A"," "," ","1","0","[1505]","1","0","4","","","","","","","",""
"pit-trial","88","727220","0.0-2.0-17.1-2.1","battery-v0.2","","""event"",""trial"",""time""
""fullscreenenter"",""1"",""2895""
","
","
","""event"",""trial"",""time""
""fullscreenenter"",""1"",""2895""
","
","","","855.5999999046326","","","20","4639","3149","&#9789;","elianto","#f73b6a7A"," "," ","1","0","[1718.2999999523163]","1","0","4","","","","","","","",""
"pit-trial","89","731130","0.0-2.0-17.1-3.1","battery-v0.2","","""event"",""trial"",""time""
""fullscreenenter"",""1"",""2895""
","
","
","""event"",""trial"",""time""
""fullscreenenter"",""1"",""2895""
","
","","","1042.0999999046326","","","20","4639","3149","&#9789;","elianto","#f73b6a7A"," "," ","1","-10","[1899.8999998569489]","1","0","4","","","","","","","",""
"pit-trial","90","734806","0.0-2.0-17.1-4.1","battery-v0.2","","""event"",""trial"",""time""
""fullscreenenter"",""1"",""2895""
","
","
","""event"",""trial"",""time""
""fullscreenenter"",""1"",""2895""
","
","","","798.9000000953674","","","20","4639","3149","&#9789;","elianto","#f73b6a7A"," "," ","1","0","[1659.3000001907349]","1","0","4","","","","","","","",""
"pit-trial","91","738281","0.0-2.0-17.2-0.2","battery-v0.2","","""event"",""trial"",""time""
""fullscreenenter"",""1"",""2895""
","
","
","""event"",""trial"",""time""
""fullscreenenter"",""1"",""2895""
","
","","","610.7000000476837","","","20","4639","3149","&#9789;","elianto","#f73b6a7A"," "," ","1","0","[1462.5]","1","0","4","","","","","","","",""
"pit-trial","92","741864","0.0-2.0-17.2-1.2","battery-v0.2","","""event"",""trial"",""time""
""fullscreenenter"",""1"",""2895""
","
","
","""event"",""trial"",""time""
""fullscreenenter"",""1"",""2895""
","
","","","712.4000000953674","","","20","4639","3149","&#9789;","elianto","#f73b6a7A"," "," ","1","0","[1571.7999999523163]","1","0","4","","","","","","","",""
"pit-trial","93","745538","0.0-2.0-17.2-2.2","battery-v0.2","","""event"",""trial"",""time""
""fullscreenenter"",""1"",""2895""
","
","
","""event"",""trial"",""time""
""fullscreenenter"",""1"",""2895""
","
","","","808","","","20","4639","3149","&#9789;","elianto","#f73b6a7A"," "," ","1","0","[1660.7999999523163]","1","0","4","","","","","","","",""
"pit-trial","94","749121","0.0-2.0-17.2-3.2","battery-v0.2","","""event"",""trial"",""time""
""fullscreenenter"",""1"",""2895""
","
","
","""event"",""trial"",""time""
""fullscreenenter"",""1"",""2895""
","
","","","701.1000001430511","","","20","4639","3149","&#9789;","elianto","#f73b6a7A"," "," ","1","-10","[1554.2000000476837]","1","0","4","","","","","","","",""
"pit-trial","95","752697","0.0-2.0-17.2-4.2","battery-v0.2","","""event"",""trial"",""time""
""fullscreenenter"",""1"",""2895""
","
","
","""event"",""trial"",""time""
""fullscreenenter"",""1"",""2895""
","
","","","702.5","","","20","4639","3149","&#9789;","elianto","#f73b6a7A"," "," ","1","0","[1561.8999998569489]","1","0","4","","","","","","","",""
"pit-trial","96","756609","0.0-2.0-17.3-0.3","battery-v0.2","","""event"",""trial"",""time""
""fullscreenenter"",""1"",""2895""
","
","
","""event"",""trial"",""time""
""fullscreenenter"",""1"",""2895""
","
","","","1054.2999999523163","","","20","4639","3149","&#9789;","elianto","#f73b6a7A"," "," ","1","0","[1905.2999999523163]","1","0","4","","","","","","","",""
"pit-trial","97","759960","0.0-2.0-17.3-1.3","battery-v0.2","","""event"",""trial"",""time""
""fullscreenenter"",""1"",""2895""
","
","
","""event"",""trial"",""time""
""fullscreenenter"",""1"",""2895""
","
","","","495.69999980926514","","","20","4639","3149","&#9789;","elianto","#f73b6a7A"," "," ","1","0","[1346.8999998569489]","1","0","4","","","","","","","",""
"pit-trial","98","764720","0.0-2.0-17.3-2.3","battery-v0.2","","""event"",""trial"",""time""
""fullscreenenter"",""1"",""2895""
","
","
","""event"",""trial"",""time""
""fullscreenenter"",""1"",""2895""
","
","","","1902","","","20","4639","3149","&#9789;","elianto","#f73b6a7A"," "," ","1","0","[2754.0999999046326]","1","0","4","","","","","","","",""
"pit-trial","99","768448","0.0-2.0-17.3-3.3","battery-v0.2","","""event"",""trial"",""time""
""fullscreenenter"",""1"",""2895""
","
","
","""event"",""trial"",""time""
""fullscreenenter"",""1"",""2895""
","
","","","869.2000000476837","","","20","4639","3149","&#9789;","elianto","#f73b6a7A"," "," ","1","-10","[1721.9000000953674]","1","0","4","","","","","","","",""
"pit-trial","100","772017","0.0-2.0-17.3-4.3","battery-v0.2","","""event"",""trial"",""time""
""fullscreenenter"",""1"",""2895""
","
","
","""event"",""trial"",""time""
""fullscreenenter"",""1"",""2895""
","
","","","708.5999999046326","","","20","4639","3149","&#9789;","elianto","#f73b6a7A"," "," ","1","0","[1561.2000000476837]","1","0","4","","","","","","","",""
"call-function","101","772022","0.0-2.0-18.0","battery-v0.2","","""event"",""trial"",""time""
""fullscreenenter"",""1"",""2895""
","
","
","""event"",""trial"",""time""
""fullscreenenter"",""1"",""2895""
","
","","","","","","","","","","","","","","","","","","","","","","","","","","",""
"pit-instructions","102","854844","0.0-2.0-19.0","battery-v0.2","","""event"",""trial"",""time""
""fullscreenenter"",""1"",""2895""
","
","
","""event"",""trial"",""time""
""fullscreenenter"",""1"",""2895""
","
","","[{""page_index"":0,""viewing_time"":13214},{""page_index"":1,""viewing_time"":8604.400000095367},{""page_index"":2,""viewing_time"":14357.700000047684},{""page_index"":3,""viewing_time"":8826.899999856949},{""page_index"":4,""viewing_time"":9601},{""page_index"":5,""viewing_time"":8754.100000143051},{""page_index"":6,""viewing_time"":9429},{""page_index"":7,""viewing_time"":5975.099999904633},{""page_index"":8,""viewing_time"":4057.4000000953674}]","82820.20000004768","","","","","","","","","","","","","","","","","","","","","","","",""
"pit-comprehension","103","859696","0.0-2.0-20.0-0.0","battery-v0.2","","""event"",""trial"",""time""
""fullscreenenter"",""1"",""2895""
","
","
","""event"",""trial"",""time""
""fullscreenenter"",""1"",""2895""
","
","","","4844.5","[""SPACE""]","0","20","4639","3149","","","","","","","","","","","","","","","","","","",""
"pit-instructions","104","862412","0.0-2.0-20.0-1.0","battery-v0.2","","""event"",""trial"",""time""
""fullscreenenter"",""1"",""2895""
","
","
","""event"",""trial"",""time""
""fullscreenenter"",""1"",""2895""
","
","","[{""page_index"":0,""viewing_time"":2588.0999999046326}]","2588.9000000953674","","","","","","","","","","","","","","","","","","","","","","","",""
"pit-comprehension","105","867719","0.0-2.0-21.0-0.0","battery-v0.2","","""event"",""trial"",""time""
""fullscreenenter"",""1"",""2895""
","
","
","""event"",""trial"",""time""
""fullscreenenter"",""1"",""2895""
","
","","","5297.299999952316","[""10""]","0","20","4639","3149","","","","","","","","","","","","","","","","","","",""
"pit-instructions","106","869546","0.0-2.0-21.0-1.0","battery-v0.2","","""event"",""trial"",""time""
""fullscreenenter"",""1"",""2895""
","
","
","""event"",""trial"",""time""
""fullscreenenter"",""1"",""2895""
","
","","[{""page_index"":0,""viewing_time"":1698.1000001430511}]","1698.7000000476837","","","","","","","","","","","","","","","","","","","","","","","",""
"pit-comprehension","107","876063","0.0-2.0-22.0-0.0","battery-v0.2","","""event"",""trial"",""time""
""fullscreenenter"",""1"",""2895""
","
","
","""event"",""trial"",""time""
""fullscreenenter"",""1"",""2895""
","
","","","6508.700000047684","[""0""]","0","20","4639","3149","","","","","","","","","","","","","","","","","","",""
"pit-instructions","108","877764","0.0-2.0-22.0-1.0","battery-v0.2","","""event"",""trial"",""time""
""fullscreenenter"",""1"",""2895""
","
","
","""event"",""trial"",""time""
""fullscreenenter"",""1"",""2895""
","
","","[{""page_index"":0,""viewing_time"":1576.3000001907349}]","1577","","","","","","","","","","","","","","","","","","","","","","","",""
"pit-comprehension","109","886172","0.0-2.0-23.0-0.0","battery-v0.2","","""event"",""trial"",""time""
""fullscreenenter"",""1"",""2895""
","
","
","""event"",""trial"",""time""
""fullscreenenter"",""1"",""2895""
","
","","","8399.400000095367","[""True""]","0","20","4639","3149","","","","","","","","","","","","","","","","","","",""
"pit-instructions","110","887875","0.0-2.0-23.0-1.0","battery-v0.2","","""event"",""trial"",""time""
""fullscreenenter"",""1"",""2895""
","
","
","""event"",""trial"",""time""
""fullscreenenter"",""1"",""2895""
","
","","[{""page_index"":0,""viewing_time"":1577.3000001907349}]","1578","","","","","","","","","","","","","","","","","","","","","","","",""
"pit-comprehension","111","895348","0.0-2.0-24.0-0.0","battery-v0.2","","""event"",""trial"",""time""
""fullscreenenter"",""1"",""2895""
","
","
","""event"",""trial"",""time""
""fullscreenenter"",""1"",""2895""
","
","","","7466.899999856949","[""True""]","0","20","4639","3149","","","","","","","","","","","","","","","","","","",""
"pit-instructions","112","897058","0.0-2.0-24.0-1.0","battery-v0.2","","""event"",""trial"",""time""
""fullscreenenter"",""1"",""2895""
","
","
","""event"",""trial"",""time""
""fullscreenenter"",""1"",""2895""
","
","","[{""page_index"":0,""viewing_time"":1585.5999999046326}]","1586.0999999046326","","","","","","","","","","","","","","","","","","","","","","","",""
"pit-comprehension","113","903508","0.0-2.0-25.0-0.0","battery-v0.2","","""event"",""trial"",""time""
""fullscreenenter"",""1"",""2895""
","
","
","""event"",""trial"",""time""
""fullscreenenter"",""1"",""2895""
","
","","","6443.5","[""True""]","0","20","4639","3149","","","","","","","","","","","","","","","","","","",""
"pit-instructions","114","905423","0.0-2.0-25.0-1.0","battery-v0.2","","""event"",""trial"",""time""
""fullscreenenter"",""1"",""2895""
","
","
","""event"",""trial"",""time""
""fullscreenenter"",""1"",""2895""
","
","","[{""page_index"":0,""viewing_time"":1785.5999999046326}]","1786.2000000476837","","","","","","","","","","","","","","","","","","","","","","","",""
"pit-comprehension","115","910390","0.0-2.0-26.0-0.0","battery-v0.2","","""event"",""trial"",""time""
""fullscreenenter"",""1"",""2895""
","
","
","""event"",""trial"",""time""
""fullscreenenter"",""1"",""2895""
","
","","","4961.299999952316","[""False""]","0","20","4639","3149","","","","","","","","","","","","","","","","","","",""
"pit-instructions","116","911779","0.0-2.0-26.0-1.0","battery-v0.2","","""event"",""trial"",""time""
""fullscreenenter"",""1"",""2895""
","
","
","""event"",""trial"",""time""
""fullscreenenter"",""1"",""2895""
","
","","[{""page_index"":0,""viewing_time"":1238.1000001430511}]","1238.5","","","","","","","","","","","","","","","","","","","","","","","",""
"pit-instructions","117","929629","0.0-3.0","battery-v0.2","","""event"",""trial"",""time""
""fullscreenenter"",""1"",""2895""
","
","
","""event"",""trial"",""time""
""fullscreenenter"",""1"",""2895""
","
","","[{""page_index"":0,""viewing_time"":3843.7000000476837},{""page_index"":1,""viewing_time"":5833.299999952316},{""page_index"":2,""viewing_time"":8168.400000095367}]","17846.10000014305","","","","","","","","","","","","","","","","","","","","","","","",""
"pit-trial","118","933942","0.0-4.0","battery-v0.2","","""event"",""trial"",""time""
""fullscreenenter"",""1"",""2895""
","
","
","""event"",""trial"",""time""
""fullscreenenter"",""1"",""2895""
","
","","","1434.1999998092651","","","20","4639","3149","&#9730;","elianto","#3366ff99"," "," ","1","+10","[2289.5]","1","1","","","4639","1","1","1","win","go","0"
"pit-trial","119","938337","0.0-5.0","battery-v0.2","","""event"",""trial"",""time""
""fullscreenenter"",""1"",""2895""
","
","
","""event"",""trial"",""time""
""fullscreenenter"",""1"",""2895""
","
","","","1522.7999999523163","","","20","4639","3149","&#9733;","elianto","#3366ff99","-1"," ","0","0","[2390.0999999046326]","1","1","","","4639","2","2","2","win","no-go","0"
"pit-trial","120","942489","0.0-6.0","battery-v0.2","","""event"",""trial"",""time""
""fullscreenenter"",""1"",""2895""
","
","
","""event"",""trial"",""time""
""fullscreenenter"",""1"",""2895""
","
","","","1280.6000001430511","","","20","4639","3149","&#9752;","elianto","#f73b6a7A"," "," ","1","0","[2130.899999856949]","1","1","","","4639","3","3","3","lose","go","0"
"pit-trial","121","946775","0.0-7.0","battery-v0.2","","""event"",""trial"",""time""
""fullscreenenter"",""1"",""2895""
","
","
","""event"",""trial"",""time""
""fullscreenenter"",""1"",""2895""
","
","","","1418.0999999046326","","","20","4639","3149","&#9728;","elianto","#f73b6a7A","-1"," ","0","-10","[2272.7999999523163]","1","1","","","4639","4","0","4","lose","no-go","0"
"pit-trial","122","951649","0.0-8.0","battery-v0.2","","""event"",""trial"",""time""
""fullscreenenter"",""1"",""2895""
","
","
","""event"",""trial"",""time""
""fullscreenenter"",""1"",""2895""
","
","","","-1","","","20","4639","3149","&#9728;","elianto","#f73b6a7A","-1","-1","1","0","[]","0","1","","","4639","5","0","4","lose","no-go","0"
"pit-trial","123","955548","0.0-9.0","battery-v0.2","","""event"",""trial"",""time""
""fullscreenenter"",""1"",""2895""
","
","
","""event"",""trial"",""time""
""fullscreenenter"",""1"",""2895""
","
","","","1035.5999999046326","","","20","4639","3149","&#9730;","elianto","#3366ff99"," "," ","1","+10","[1887.7999999523163]","1","1","","","4639","6","1","1","win","go","0"
"pit-trial","124","959696","0.0-10.0","battery-v0.2","","""event"",""trial"",""time""
""fullscreenenter"",""1"",""2895""
","
","
","""event"",""trial"",""time""
""fullscreenenter"",""1"",""2895""
","
","","","1284","","","20","4639","3149","&#9733;","elianto","#3366ff99","-1"," ","0","0","[2139.7999999523163]","1","1","","","4639","7","2","2","win","no-go","0"
"pit-trial","125","963850","0.0-11.0","battery-v0.2","","""event"",""trial"",""time""
""fullscreenenter"",""1"",""2895""
","
","
","""event"",""trial"",""time""
""fullscreenenter"",""1"",""2895""
","
","","","1290.4000000953674","","","20","4639","3149","&#9752;","elianto","#f73b6a7A"," "," ","1","0","[2143]","1","1","","","4639","8","3","3","lose","go","0"
"pit-trial","126","967817","0.0-12.0","battery-v0.2","","""event"",""trial"",""time""
""fullscreenenter"",""1"",""2895""
","
","
","""event"",""trial"",""time""
""fullscreenenter"",""1"",""2895""
","
","","","1097.2000000476837","","","20","4639","3149","&#9730;","elianto","#3366ff99"," "," ","1","+10","[1956.5999999046326]","1","1","","","4639","9","1","1","win","go","0"
"pit-trial","127","971832","0.0-13.0","battery-v0.2","","""event"",""trial"",""time""
""fullscreenenter"",""1"",""2895""
","
","
","""event"",""trial"",""time""
""fullscreenenter"",""1"",""2895""
","
","","","1154.9000000953674","","","20","4639","3149","&#9752;","elianto","#f73b6a7A"," "," ","1","-10","[2005.4000000953674]","1","1","","","4639","10","3","3","lose","go","1"
"pit-trial","128","975593","0.0-14.0","battery-v0.2","","""event"",""trial"",""time""
""fullscreenenter"",""1"",""2895""
","
","
","""event"",""trial"",""time""
""fullscreenenter"",""1"",""2895""
","
","","","897.7999999523163","","","20","4639","3149","&#9733;","elianto","#3366ff99","-1"," ","0","0","[1750.3999998569489]","1","1","","","4639","11","2","2","win","no-go","0"
"pit-trial","129","979976","0.0-15.0","battery-v0.2","","""event"",""trial"",""time""
""fullscreenenter"",""1"",""2895""
","
","
","""event"",""trial"",""time""
""fullscreenenter"",""1"",""2895""
","
","","","1520.0999999046326","","","20","4639","3149","&#9728;","elianto","#f73b6a7A","-1"," ","0","0","[2372.2999999523163]","1","1","","","4639","12","0","4","lose","no-go","1"
"pit-trial","130","984850","0.0-16.0","battery-v0.2","","""event"",""trial"",""time""
""fullscreenenter"",""1"",""2895""
","
","
","""event"",""trial"",""time""
""fullscreenenter"",""1"",""2895""
","
","","","-1","","","20","4639","3149","&#9752;","elianto","#f73b6a7A"," ","-1","0","-10","[]","0","1","","","4639","13","3","3","lose","go","0"
"pit-trial","131","989720","0.0-17.0","battery-v0.2","","""event"",""trial"",""time""
""fullscreenenter"",""1"",""2895""
","
","
","""event"",""trial"",""time""
""fullscreenenter"",""1"",""2895""
","
","","","-1","","","20","4639","3149","&#9728;","elianto","#f73b6a7A","-1","-1","1","-10","[2991.5999999046326]","1","1","","","4639","14","0","4","lose","no-go","1"
"pit-trial","132","993522","0.0-18.0","battery-v0.2","","""event"",""trial"",""time""
""fullscreenenter"",""1"",""2895""
","
","
","""event"",""trial"",""time""
""fullscreenenter"",""1"",""2895""
","
","","","925.9000000953674","","","20","4639","3149","&#9733;","elianto","#3366ff99","-1"," ","0","0","[1780.1000001430511]","1","1","","","4639","15","2","2","win","no-go","0"
"pit-trial","133","997505","0.0-19.0","battery-v0.2","","""event"",""trial"",""time""
""fullscreenenter"",""1"",""2895""
","
","
","""event"",""trial"",""time""
""fullscreenenter"",""1"",""2895""
","
","","","1125.5","","","20","4639","3149","&#9730;","elianto","#3366ff99"," "," ","1","+10","[1977.5]","1","1","","","4639","16","1","1","win","go","0"
"pit-trial","134","1002368","0.0-20.0","battery-v0.2","","""event"",""trial"",""time""
""fullscreenenter"",""1"",""2895""
","
","
","""event"",""trial"",""time""
""fullscreenenter"",""1"",""2895""
","
","","","-1","","","20","4639","3149","&#9733;","elianto","#3366ff99","-1","-1","1","+10","[]","0","1","","","4639","17","2","2","win","no-go","0"
"pit-trial","135","1007234","0.0-21.0","battery-v0.2","","""event"",""trial"",""time""
""fullscreenenter"",""1"",""2895""
","
","
","""event"",""trial"",""time""
""fullscreenenter"",""1"",""2895""
","
","","","-1","","","20","4639","3149","&#9728;","elianto","#f73b6a7A","-1","-1","1","0","[]","0","1","","","4639","18","0","4","lose","no-go","0"
"pit-trial","136","1011137","0.0-22.0","battery-v0.2","","""event"",""trial"",""time""
""fullscreenenter"",""1"",""2895""
","
","
","""event"",""trial"",""time""
""fullscreenenter"",""1"",""2895""
","
","","","1036.1000001430511","","","20","4639","3149","&#9730;","elianto","#3366ff99"," "," ","1","+10","[1893.5]","1","1","","","4639","19","1","1","win","go","0"
"pit-trial","137","1014968","0.0-23.0","battery-v0.2","","""event"",""trial"",""time""
""fullscreenenter"",""1"",""2895""
","
","
","""event"",""trial"",""time""
""fullscreenenter"",""1"",""2895""
","
","","","972.2999999523163","","","20","4639","3149","&#9752;","elianto","#f73b6a7A"," "," ","1","-10","[1824.2000000476837]","1","1","","","4639","20","3","3","lose","go","1"
"pit-instructions","138","1028006","0.0-24.0","battery-v0.2","","""event"",""trial"",""time""
""fullscreenenter"",""1"",""2895""
","
","
","""event"",""trial"",""time""
""fullscreenenter"",""1"",""2895""
","
","","[{""page_index"":0,""viewing_time"":5640.900000095367},{""page_index"":1,""viewing_time"":7392.700000047684}]","13034.300000190735","","","","","","","","","","","","","","","","","","","","","","","",""
"pit-trial","139","1032369","0.0-25.0","battery-v0.2","","""event"",""trial"",""time""
""fullscreenenter"",""1"",""2895""
","
","
","""event"",""trial"",""time""
""fullscreenenter"",""1"",""2895""
","
","","","1479.6000001430511","","","20","4639","3149","t","elianto","#f73b6a7A"," "," ","1","0","[2340.7000000476837]","1","2","","","4639","21","2","3","lose","go","0"
"pit-trial","140","1036504","0.0-26.0","battery-v0.2","","""event"",""trial"",""time""
""fullscreenenter"",""1"",""2895""
","
","
","""event"",""trial"",""time""
""fullscreenenter"",""1"",""2895""
","
","","","1256","","","20","4639","3149","f","elianto","#3366ff99","-1"," ","0","+10","[2108.899999856949]","1","2","","","4639","22","1","2","win","no-go","1"
"pit-trial","141","1040942","0.0-27.0","battery-v0.2","","""event"",""trial"",""time""
""fullscreenenter"",""1"",""2895""
","
","
","""event"",""trial"",""time""
""fullscreenenter"",""1"",""2895""
","
","","","1564.4000000953674","","","20","4639","3149","n","elianto","#f73b6a7A"," "," ","1","-10","[2421.600000143051]","1","2","","","4639","23","0","3","lose","go","1"
"pit-trial","142","1045837","0.0-28.0","battery-v0.2","","""event"",""trial"",""time""
""fullscreenenter"",""1"",""2895""
","
","
","""event"",""trial"",""time""
""fullscreenenter"",""1"",""2895""
","
","","","-1","","","20","4639","3149","b","elianto","#f73b6a7A","-1","-1","1","0","[]","0","2","","","4639","24","3","4","lose","no-go","0"
"pit-trial","143","1050710","0.0-29.0","battery-v0.2","","""event"",""trial"",""time""
""fullscreenenter"",""1"",""2895""
","
","
","""event"",""trial"",""time""
""fullscreenenter"",""1"",""2895""
","
","","","-1","","","20","4639","3149","b","elianto","#f73b6a7A","-1","-1","1","-10","[]","0","2","","","4639","25","3","4","lose","no-go","1"
"pit-trial","144","1054740","0.0-30.0","battery-v0.2","","""event"",""trial"",""time""
""fullscreenenter"",""1"",""2895""
","
","
","""event"",""trial"",""time""
""fullscreenenter"",""1"",""2895""
","
","","","1158.5999999046326","","","20","4639","3149","t","elianto","#f73b6a7A"," "," ","1","-10","[2012.3999998569489]","1","2","","","4639","26","2","3","lose","go","1"
"pit-trial","145","1058641","0.0-31.0","battery-v0.2","","""event"",""trial"",""time""
""fullscreenenter"",""1"",""2895""
","
","
","""event"",""trial"",""time""
""fullscreenenter"",""1"",""2895""
","
","","","1024.2000000476837","","","20","4639","3149","n","elianto","#f73b6a7A"," "," ","1","0","[1886.2000000476837]","1","2","","","4639","27","0","3","lose","go","0"
"pit-trial","146","1062553","0.0-32.0","battery-v0.2","","""event"",""trial"",""time""
""fullscreenenter"",""1"",""2895""
","
","
","""event"",""trial"",""time""
""fullscreenenter"",""1"",""2895""
","
","","","1053.2000000476837","","","20","4639","3149","f","elianto","#3366ff99","-1"," ","0","+10","[1904.6000001430511]","1","2","","","4639","28","1","2","win","no-go","1"
"pit-trial","147","1066536","0.0-33.0","battery-v0.2","","""event"",""trial"",""time""
""fullscreenenter"",""1"",""2895""
","
","
","""event"",""trial"",""time""
""fullscreenenter"",""1"",""2895""
","
","","","1124.7000000476837","","","20","4639","3149","f","elianto","#3366ff99","-1"," ","0","0","[1977.4000000953674]","1","2","","","4639","29","1","2","win","no-go","0"
"pit-trial","148","1071057","0.0-34.0","battery-v0.2","","""event"",""trial"",""time""
""fullscreenenter"",""1"",""2895""
","
","
","""event"",""trial"",""time""
""fullscreenenter"",""1"",""2895""
","
","","","1661.5999999046326","","","20","4639","3149","n","elianto","#f73b6a7A"," "," ","1","0","[2513.4000000953674]","1","2","","","4639","30","0","3","lose","go","0"
"pit-trial","149","1075922","0.0-35.0","battery-v0.2","","""event"",""trial"",""time""
""fullscreenenter"",""1"",""2895""
","
","
","""event"",""trial"",""time""
""fullscreenenter"",""1"",""2895""
","
","","","-1","","","20","4639","3149","t","elianto","#f73b6a7A"," ","-1","0","-10","[]","0","2","","","4639","31","2","3","lose","go","0"
"pit-trial","150","1080210","0.0-36.0","battery-v0.2","","""event"",""trial"",""time""
""fullscreenenter"",""1"",""2895""
","
","
","""event"",""trial"",""time""
""fullscreenenter"",""1"",""2895""
","
","","","1422.4000000953674","","","20","4639","3149","b","elianto","#f73b6a7A","-1"," ","0","-10","[2278.5]","1","2","","","4639","32","3","4","lose","no-go","0"
"pit-trial","151","1084089","0.0-37.0","battery-v0.2","","""event"",""trial"",""time""
""fullscreenenter"",""1"",""2895""
","
","
","""event"",""trial"",""time""
""fullscreenenter"",""1"",""2895""
","
","","","1010","","","20","4639","3149","f","elianto","#3366ff99","-1"," ","0","0","[1868.6000001430511]","1","2","","","4639","33","1","2","win","no-go","0"
"pit-trial","152","1088961","0.0-38.0","battery-v0.2","","""event"",""trial"",""time""
""fullscreenenter"",""1"",""2895""
","
","
","""event"",""trial"",""time""
""fullscreenenter"",""1"",""2895""
","
","","","-1","","","20","4639","3149","b","elianto","#f73b6a7A","-1","-1","1","0","[]","0","2","","","4639","34","3","4","lose","no-go","0"
"pit-trial","153","1092906","0.0-39.0","battery-v0.2","","""event"",""trial"",""time""
""fullscreenenter"",""1"",""2895""
","
","
","""event"",""trial"",""time""
""fullscreenenter"",""1"",""2895""
","
","","","1082.7999999523163","","","20","4639","3149","t","elianto","#f73b6a7A"," "," ","1","0","[1933.4000000953674]","1","2","","","4639","35","2","3","lose","go","0"
"pit-trial","154","1096665","0.0-40.0","battery-v0.2","","""event"",""trial"",""time""
""fullscreenenter"",""1"",""2895""
","
","
","""event"",""trial"",""time""
""fullscreenenter"",""1"",""2895""
","
","","","898.5999999046326","","","20","4639","3149","n","elianto","#f73b6a7A"," "," ","1","0","[1750.5]","1","2","","","4639","36","0","3","lose","go","0"
"pit-trial","155","1100322","0.0-41.0","battery-v0.2","","""event"",""trial"",""time""
""fullscreenenter"",""1"",""2895""
","
","
","""event"",""trial"",""time""
""fullscreenenter"",""1"",""2895""
","
","","","782.7999999523163","","","20","4639","3149","f","elianto","#3366ff99","-1"," ","0","0","[1642.2000000476837]","1","2","","","4639","37","1","2","win","no-go","0"
"pit-trial","156","1105193","0.0-42.0","battery-v0.2","","""event"",""trial"",""time""
""fullscreenenter"",""1"",""2895""
","
","
","""event"",""trial"",""time""
""fullscreenenter"",""1"",""2895""
","
","","","-1","","","20","4639","3149","b","elianto","#f73b6a7A","-1","-1","1","-10","[]","0","2","","","4639","38","3","4","lose","no-go","1"
"pit-trial","157","1109049","0.0-43.0","battery-v0.2","","""event"",""trial"",""time""
""fullscreenenter"",""1"",""2895""
","
","
","""event"",""trial"",""time""
""fullscreenenter"",""1"",""2895""
","
","","","991.5999999046326","","","20","4639","3149","t","elianto","#f73b6a7A"," "," ","1","0","[1842.2000000476837]","1","2","","","4639","39","2","3","lose","go","0"
"pit-trial","158","1113010","0.0-44.0","battery-v0.2","","""event"",""trial"",""time""
""fullscreenenter"",""1"",""2895""
","
","
","""event"",""trial"",""time""
""fullscreenenter"",""1"",""2895""
","
","","","1097","","","20","4639","3149","n","elianto","#f73b6a7A"," "," ","1","0","[1947.5999999046326]","1","2","","","4639","40","0","3","lose","go","0"
"pit-trial","159","1117881","0.0-45.0","battery-v0.2","","""event"",""trial"",""time""
""fullscreenenter"",""1"",""2895""
","
","
","""event"",""trial"",""time""
""fullscreenenter"",""1"",""2895""
","
","","","-1","","","20","4639","3149","t","elianto","#f73b6a7A"," ","-1","0","-10","[]","0","2","","","4639","41","2","3","lose","go","0"
"pit-trial","160","1122745","0.0-46.0","battery-v0.2","","""event"",""trial"",""time""
""fullscreenenter"",""1"",""2895""
","
","
","""event"",""trial"",""time""
""fullscreenenter"",""1"",""2895""
","
","","","-1","","","20","4639","3149","b","elianto","#f73b6a7A","-1","-1","1","0","[]","0","2","","","4639","42","3","4","lose","no-go","0"
"pit-trial","161","1126417","0.0-47.0","battery-v0.2","","""event"",""trial"",""time""
""fullscreenenter"",""1"",""2895""
","
","
","""event"",""trial"",""time""
""fullscreenenter"",""1"",""2895""
","
","","","805.5999999046326","","","20","4639","3149","f","elianto","#3366ff99","-1"," ","0","0","[1664]","1","2","","","4639","43","1","2","win","no-go","0"
"pit-trial","162","1130034","0.0-48.0","battery-v0.2","","""event"",""trial"",""time""
""fullscreenenter"",""1"",""2895""
","
","
","""event"",""trial"",""time""
""fullscreenenter"",""1"",""2895""
","
","","","756.4000000953674","","","20","4639","3149","n","elianto","#f73b6a7A"," "," ","1","0","[1607.7999999523163]","1","2","","","4639","44","0","3","lose","go","0"
"pit-trial","163","1133857","0.0-49.0","battery-v0.2","","""event"",""trial"",""time""
""fullscreenenter"",""1"",""2895""
","
","
","""event"",""trial"",""time""
""fullscreenenter"",""1"",""2895""
","
","","","956.7000000476837","","","20","4639","3149","n","elianto","#f73b6a7A"," "," ","1","0","[1814.2999999523163]","1","2","","","4639","45","0","3","lose","go","0"
"pit-trial","164","1137498","0.0-50.0","battery-v0.2","","""event"",""trial"",""time""
""fullscreenenter"",""1"",""2895""
","
","
","""event"",""trial"",""time""
""fullscreenenter"",""1"",""2895""
","
","","","771.2000000476837","","","20","4639","3149","t","elianto","#f73b6a7A"," "," ","1","-10","[1630.7000000476837]","1","2","","","4639","46","2","3","lose","go","1"
"pit-trial","165","1141169","0.0-51.0","battery-v0.2","","""event"",""trial"",""time""
""fullscreenenter"",""1"",""2895""
","
","
","""event"",""trial"",""time""
""fullscreenenter"",""1"",""2895""
","
","","","803.3999998569489","","","20","4639","3149","f","elianto","#3366ff99","-1"," ","0","0","[1661.0999999046326]","1","2","","","4639","47","1","2","win","no-go","0"
"pit-trial","166","1146043","0.0-52.0","battery-v0.2","","""event"",""trial"",""time""
""fullscreenenter"",""1"",""2895""
","
","
","""event"",""trial"",""time""
""fullscreenenter"",""1"",""2895""
","
","","","-1","","","20","4639","3149","b","elianto","#f73b6a7A","-1","-1","1","0","[]","0","2","","","4639","48","3","4","lose","no-go","0"
"pit-trial","167","1149689","0.0-53.0","battery-v0.2","","""event"",""trial"",""time""
""fullscreenenter"",""1"",""2895""
","
","
","""event"",""trial"",""time""
""fullscreenenter"",""1"",""2895""
","
","","","779","","","20","4639","3149","n","elianto","#f73b6a7A"," "," ","1","0","[1635.8000001907349]","1","2","","","4639","49","0","3","lose","go","0"
"pit-trial","168","1153538","0.0-54.0","battery-v0.2","","""event"",""trial"",""time""
""fullscreenenter"",""1"",""2895""
","
","
","""event"",""trial"",""time""
""fullscreenenter"",""1"",""2895""
","
","","","985.6000001430511","","","20","4639","3149","t","elianto","#f73b6a7A"," "," ","1","0","[1838.6999998092651]","1","2","","","4639","50","2","3","lose","go","0"
"pit-trial","169","1158410","0.0-55.0","battery-v0.2","","""event"",""trial"",""time""
""fullscreenenter"",""1"",""2895""
","
","
","""event"",""trial"",""time""
""fullscreenenter"",""1"",""2895""
","
","","","-1","","","20","4639","3149","b","elianto","#f73b6a7A","-1","-1","1","0","[]","0","2","","","4639","51","3","4","lose","no-go","0"
"pit-trial","170","1163281","0.0-56.0","battery-v0.2","","""event"",""trial"",""time""
""fullscreenenter"",""1"",""2895""
","
","
","""event"",""trial"",""time""
""fullscreenenter"",""1"",""2895""
","
","","","-1","","","20","4639","3149","f","elianto","#3366ff99","-1","-1","1","+10","[]","0","2","","","4639","52","1","2","win","no-go","0"
"pit-trial","171","1167112","0.0-57.0","battery-v0.2","","""event"",""trial"",""time""
""fullscreenenter"",""1"",""2895""
","
","
","""event"",""trial"",""time""
""fullscreenenter"",""1"",""2895""
","
","","","961.5","","","20","4639","3149","f","elianto","#3366ff99","-1"," ","0","0","[1819.5999999046326]","1","2","","","4639","53","1","2","win","no-go","0"
"pit-trial","172","1171322","0.0-58.0","battery-v0.2","","""event"",""trial"",""time""
""fullscreenenter"",""1"",""2895""
","
","
","""event"",""trial"",""time""
""fullscreenenter"",""1"",""2895""
","
","","","1349.5","","","20","4639","3149","t","elianto","#f73b6a7A"," "," ","1","-10","[2203.0999999046326]","1","2","","","4639","54","2","3","lose","go","1"
"pit-trial","173","1176193","0.0-59.0","battery-v0.2","","""event"",""trial"",""time""
""fullscreenenter"",""1"",""2895""
","
","
","""event"",""trial"",""time""
""fullscreenenter"",""1"",""2895""
","
","","","-1","","","20","4639","3149","n","elianto","#f73b6a7A"," ","-1","0","0","[]","0","2","","","4639","55","0","3","lose","go","1"
"pit-trial","174","1181066","0.0-60.0","battery-v0.2","","""event"",""trial"",""time""
""fullscreenenter"",""1"",""2895""
","
","
","""event"",""trial"",""time""
""fullscreenenter"",""1"",""2895""
","
","","","-1","","","20","4639","3149","b","elianto","#f73b6a7A","-1","-1","1","0","[]","0","2","","","4639","56","3","4","lose","no-go","0"
"pit-trial","175","1185938","0.0-61.0","battery-v0.2","","""event"",""trial"",""time""
""fullscreenenter"",""1"",""2895""
","
","
","""event"",""trial"",""time""
""fullscreenenter"",""1"",""2895""
","
","","","-1","","","20","4639","3149","b","elianto","#f73b6a7A","-1","-1","1","0","[]","0","2","","","4639","57","3","4","lose","no-go","0"
"pit-trial","176","1190813","0.0-62.0","battery-v0.2","","""event"",""trial"",""time""
""fullscreenenter"",""1"",""2895""
","
","
","""event"",""trial"",""time""
""fullscreenenter"",""1"",""2895""
","
","","","-1","","","20","4639","3149","t","elianto","#f73b6a7A"," ","-1","0","0","[]","0","2","","","4639","58","2","3","lose","go","1"
"pit-trial","177","1194929","0.0-63.0","battery-v0.2","","""event"",""trial"",""time""
""fullscreenenter"",""1"",""2895""
","
","
","""event"",""trial"",""time""
""fullscreenenter"",""1"",""2895""
","
","","","1251.6999998092651","","","20","4639","3149","n","elianto","#f73b6a7A"," "," ","1","-10","[2107.399999856949]","1","2","","","4639","59","0","3","lose","go","1"
"pit-trial","178","1199665","0.0-64.0","battery-v0.2","","""event"",""trial"",""time""
""fullscreenenter"",""1"",""2895""
","
","
","""event"",""trial"",""time""
""fullscreenenter"",""1"",""2895""
","
","","","1866.7000000476837","","","20","4639","3149","c","elianto","#3366ff99"," "," ","1","+10","[2725.899999856949]","1","2","","","4639","60","4","1","win","go","0"
"pit-trial","179","1203858","0.0-65.0","battery-v0.2","","""event"",""trial"",""time""
""fullscreenenter"",""1"",""2895""
","
","
","""event"",""trial"",""time""
""fullscreenenter"",""1"",""2895""
","
","","","1323.8000001907349","","","20","4639","3149","t","elianto","#f73b6a7A"," "," ","1","0","[2181.7999999523163]","1","2","","","4639","61","2","3","lose","go","0"
"pit-trial","180","1207809","0.0-66.0","battery-v0.2","","""event"",""trial"",""time""
""fullscreenenter"",""1"",""2895""
","
","
","""event"",""trial"",""time""
""fullscreenenter"",""1"",""2895""
","
","","","1083.7999999523163","","","20","4639","3149","b","elianto","#f73b6a7A","-1"," ","0","-10","[1941]","1","2","","","4639","62","3","4","lose","no-go","0"
"pit-trial","181","1211726","0.0-67.0","battery-v0.2","","""event"",""trial"",""time""
""fullscreenenter"",""1"",""2895""
","
","
","""event"",""trial"",""time""
""fullscreenenter"",""1"",""2895""
","
","","","1033.8999998569489","","","20","4639","3149","c","elianto","#3366ff99"," "," ","1","0","[1892]","1","2","","","4639","63","4","1","win","go","1"
"pit-trial","182","1215777","0.0-68.0","battery-v0.2","","""event"",""trial"",""time""
""fullscreenenter"",""1"",""2895""
","
","
","""event"",""trial"",""time""
""fullscreenenter"",""1"",""2895""
","
","","","1185.5999999046326","","","20","4639","3149","f","elianto","#3366ff99","-1"," ","0","0","[2040.3999998569489]","1","2","","","4639","64","1","2","win","no-go","0"
"pit-trial","183","1219561","0.0-69.0","battery-v0.2","","""event"",""trial"",""time""
""fullscreenenter"",""1"",""2895""
","
","
","""event"",""trial"",""time""
""fullscreenenter"",""1"",""2895""
","
","","","913.1999998092651","","","20","4639","3149","z","elianto","#3366ff99","-1"," ","0","0","[1771.2999999523163]","1","2","","","4639","65","5","2","win","no-go","0"
"pit-trial","184","1224444","0.0-70.0","battery-v0.2","","""event"",""trial"",""time""
""fullscreenenter"",""1"",""2895""
","
","
","""event"",""trial"",""time""
""fullscreenenter"",""1"",""2895""
","
","","","-1","","","20","4639","3149","f","elianto","#3366ff99","-1","-1","1","+10","[]","0","2","","","4639","66","1","2","win","no-go","0"
"pit-trial","185","1229314","0.0-71.0","battery-v0.2","","""event"",""trial"",""time""
""fullscreenenter"",""1"",""2895""
","
","
","""event"",""trial"",""time""
""fullscreenenter"",""1"",""2895""
","
","","","-1","","","20","4639","3149","b","elianto","#f73b6a7A","-1","-1","1","0","[2879.4000000953674]","1","2","","","4639","67","3","4","lose","no-go","0"
"pit-trial","186","1233253","0.0-72.0","battery-v0.2","","""event"",""trial"",""time""
""fullscreenenter"",""1"",""2895""
","
","
","""event"",""trial"",""time""
""fullscreenenter"",""1"",""2895""
","
","","","1055.1000001430511","","","20","4639","3149","c","elianto","#3366ff99"," "," ","1","+10","[1913.1999998092651]","1","2","","","4639","68","4","1","win","go","0"
"pit-trial","187","1238121","0.0-73.0","battery-v0.2","","""event"",""trial"",""time""
""fullscreenenter"",""1"",""2895""
","
","
","""event"",""trial"",""time""
""fullscreenenter"",""1"",""2895""
","
","","","-1","","","20","4639","3149","f","elianto","#3366ff99","-1","-1","1","+10","[]","0","2","","","4639","69","1","2","win","no-go","0"
"pit-trial","188","1242993","0.0-74.0","battery-v0.2","","""event"",""trial"",""time""
""fullscreenenter"",""1"",""2895""
","
","
","""event"",""trial"",""time""
""fullscreenenter"",""1"",""2895""
","
","","","-1","","","20","4639","3149","z","elianto","#3366ff99","-1","-1","1","+10","[]","0","2","","","4639","70","5","2","win","no-go","0"
"pit-trial","189","1247884","0.0-75.0","battery-v0.2","","""event"",""trial"",""time""
""fullscreenenter"",""1"",""2895""
","
","
","""event"",""trial"",""time""
""fullscreenenter"",""1"",""2895""
","
","","","-1","","","20","4639","3149","t","elianto","#f73b6a7A"," ","-1","0","-10","[]","0","2","","","4639","71","2","3","lose","go","0"
"pit-trial","190","1252297","0.0-76.0","battery-v0.2","","""event"",""trial"",""time""
""fullscreenenter"",""1"",""2895""
","
","
","""event"",""trial"",""time""
""fullscreenenter"",""1"",""2895""
","
","","","1548.2999999523163","","","20","4639","3149","c","elianto","#3366ff99"," "," ","1","+10","[2402.7999999523163]","1","2","","","4639","72","4","1","win","go","0"
"pit-trial","191","1255905","0.0-77.0","battery-v0.2","","""event"",""trial"",""time""
""fullscreenenter"",""1"",""2895""
","
","
","""event"",""trial"",""time""
""fullscreenenter"",""1"",""2895""
","
","","","739","","","20","4639","3149","b","elianto","#f73b6a7A","-1"," ","0","-10","[1597.9000000953674]","1","2","","","4639","73","3","4","lose","no-go","0"
"pit-trial","192","1260777","0.0-78.0","battery-v0.2","","""event"",""trial"",""time""
""fullscreenenter"",""1"",""2895""
","
","
","""event"",""trial"",""time""
""fullscreenenter"",""1"",""2895""
","
","","","-1","","","20","4639","3149","z","elianto","#3366ff99","-1","-1","1","+10","[]","0","2","","","4639","74","5","2","win","no-go","0"
"pit-trial","193","1265642","0.0-79.0","battery-v0.2","","""event"",""trial"",""time""
""fullscreenenter"",""1"",""2895""
","
","
","""event"",""trial"",""time""
""fullscreenenter"",""1"",""2895""
","
","","","-1","","","20","4639","3149","f","elianto","#3366ff99","-1","-1","1","+10","[]","0","2","","","4639","75","1","2","win","no-go","0"
"pit-trial","194","1269434","0.0-80.0","battery-v0.2","","""event"",""trial"",""time""
""fullscreenenter"",""1"",""2895""
","
","
","""event"",""trial"",""time""
""fullscreenenter"",""1"",""2895""
","
","","","920.7000000476837","","","20","4639","3149","c","elianto","#3366ff99"," "," ","1","+10","[1778.7999999523163]","1","2","","","4639","76","4","1","win","go","0"
"pit-trial","195","1273138","0.0-81.0","battery-v0.2","","""event"",""trial"",""time""
""fullscreenenter"",""1"",""2895""
","
","
","""event"",""trial"",""time""
""fullscreenenter"",""1"",""2895""
","
","","","833.8000001907349","","","20","4639","3149","c","elianto","#3366ff99"," "," ","1","+10","[1689.7000000476837]","1","2","","","4639","77","4","1","win","go","0"
"pit-trial","196","1278009","0.0-82.0","battery-v0.2","","""event"",""trial"",""time""
""fullscreenenter"",""1"",""2895""
","
","
","""event"",""trial"",""time""
""fullscreenenter"",""1"",""2895""
","
","","","-1","","","20","4639","3149","z","elianto","#3366ff99","-1","-1","1","+10","[]","0","2","","","4639","78","5","2","win","no-go","0"
"pit-trial","197","1281696","0.0-83.0","battery-v0.2","","""event"",""trial"",""time""
""fullscreenenter"",""1"",""2895""
","
","
","""event"",""trial"",""time""
""fullscreenenter"",""1"",""2895""
","
","","","817.5","","","20","4639","3149","b","elianto","#f73b6a7A","-1"," ","0","-10","[1675.9000000953674]","1","2","","","4639","79","3","4","lose","no-go","0"
"pit-trial","198","1285394","0.0-84.0","battery-v0.2","","""event"",""trial"",""time""
""fullscreenenter"",""1"",""2895""
","
","
","""event"",""trial"",""time""
""fullscreenenter"",""1"",""2895""
","
","","","832.3999998569489","","","20","4639","3149","c","elianto","#3366ff99"," "," ","1","+10","[1685.6000001430511]","1","2","","","4639","80","4","1","win","go","0"
"pit-trial","199","1289881","0.0-85.0","battery-v0.2","","""event"",""trial"",""time""
""fullscreenenter"",""1"",""2895""
","
","
","""event"",""trial"",""time""
""fullscreenenter"",""1"",""2895""
","
","","","1615.0999999046326","","","20","4639","3149","y","elianto","#f73b6a7A","-1"," ","0","-10","[2473.800000190735]","1","2","","","4639","81","7","4","lose","no-go","0"
"pit-trial","200","1293801","0.0-86.0","battery-v0.2","","""event"",""trial"",""time""
""fullscreenenter"",""1"",""2895""
","
","
","""event"",""trial"",""time""
""fullscreenenter"",""1"",""2895""
","
","","","1055.5999999046326","","","20","4639","3149","z","elianto","#3366ff99","-1"," ","0","0","[1906.5]","1","2","","","4639","82","5","2","win","no-go","0"
"pit-trial","201","1297850","0.0-87.0","battery-v0.2","","""event"",""trial"",""time""
""fullscreenenter"",""1"",""2895""
","
","
","""event"",""trial"",""time""
""fullscreenenter"",""1"",""2895""
","
","","","1190.2000000476837","","","20","4639","3149","b","elianto","#f73b6a7A","-1"," ","0","-10","[2040.7000000476837]","1","2","","","4639","83","3","4","lose","no-go","0"
"pit-trial","202","1301770","0.0-88.0","battery-v0.2","","""event"",""trial"",""time""
""fullscreenenter"",""1"",""2895""
","
","
","""event"",""trial"",""time""
""fullscreenenter"",""1"",""2895""
","
","","","1052","","","20","4639","3149","c","elianto","#3366ff99"," "," ","1","+10","[1910.6999998092651]","1","2","","","4639","84","4","1","win","go","0"
"pit-trial","203","1305553","0.0-89.0","battery-v0.2","","""event"",""trial"",""time""
""fullscreenenter"",""1"",""2895""
","
","
","""event"",""trial"",""time""
""fullscreenenter"",""1"",""2895""
","
","","","892.2000000476837","","","20","4639","3149","c","elianto","#3366ff99"," "," ","1","+10","[1750.9000000953674]","1","2","","","4639","85","4","1","win","go","0"
"pit-trial","204","1310418","0.0-90.0","battery-v0.2","","""event"",""trial"",""time""
""fullscreenenter"",""1"",""2895""
","
","
","""event"",""trial"",""time""
""fullscreenenter"",""1"",""2895""
","
","","","-1","","","20","4639","3149","y","elianto","#f73b6a7A","-1","-1","1","0","[]","0","2","","","4639","86","7","4","lose","no-go","0"
"pit-trial","205","1315289","0.0-91.0","battery-v0.2","","""event"",""trial"",""time""
""fullscreenenter"",""1"",""2895""
","
","
","""event"",""trial"",""time""
""fullscreenenter"",""1"",""2895""
","
","","","-1","","","20","4639","3149","h","elianto","#f73b6a7A"," ","-1","0","-10","[]","0","2","","","4639","87","6","3","lose","go","0"
"pit-trial","206","1320154","0.0-92.0","battery-v0.2","","""event"",""trial"",""time""
""fullscreenenter"",""1"",""2895""
","
","
","""event"",""trial"",""time""
""fullscreenenter"",""1"",""2895""
","
","","","-1","","","20","4639","3149","z","elianto","#3366ff99","-1","-1","1","+10","[]","0","2","","","4639","88","5","2","win","no-go","0"
"pit-trial","207","1323946","0.0-93.0","battery-v0.2","","""event"",""trial"",""time""
""fullscreenenter"",""1"",""2895""
","
","
","""event"",""trial"",""time""
""fullscreenenter"",""1"",""2895""
","
","","","921.7000000476837","","","20","4639","3149","h","elianto","#f73b6a7A"," "," ","1","-10","[1780.4000000953674]","1","2","","","4639","89","6","3","lose","go","1"
"pit-trial","208","1327561","0.0-94.0","battery-v0.2","","""event"",""trial"",""time""
""fullscreenenter"",""1"",""2895""
","
","
","""event"",""trial"",""time""
""fullscreenenter"",""1"",""2895""
","
","","","739.5999999046326","","","20","4639","3149","c","elianto","#3366ff99"," "," ","1","0","[1597.9000000953674]","1","2","","","4639","90","4","1","win","go","1"
"pit-trial","209","1332425","0.0-95.0","battery-v0.2","","""event"",""trial"",""time""
""fullscreenenter"",""1"",""2895""
","
","
","""event"",""trial"",""time""
""fullscreenenter"",""1"",""2895""
","
","","","-1","","","20","4639","3149","y","elianto","#f73b6a7A","-1","-1","1","-10","[]","0","2","","","4639","91","7","4","lose","no-go","1"
"pit-trial","210","1337298","0.0-96.0","battery-v0.2","","""event"",""trial"",""time""
""fullscreenenter"",""1"",""2895""
","
","
","""event"",""trial"",""time""
""fullscreenenter"",""1"",""2895""
","
","","","-1","","","20","4639","3149","z","elianto","#3366ff99","-1","-1","1","0","[]","0","2","","","4639","92","5","2","win","no-go","1"
"pit-trial","211","1341488","0.0-97.0","battery-v0.2","","""event"",""trial"",""time""
""fullscreenenter"",""1"",""2895""
","
","
","""event"",""trial"",""time""
""fullscreenenter"",""1"",""2895""
","
","","","1304.4000000953674","","","20","4639","3149","r","elianto","#3366ff99"," "," ","1","0","[2162.7999999523163]","1","2","","","4639","93","8","1","win","go","1"
"pit-trial","212","1345330","0.0-98.0","battery-v0.2","","""event"",""trial"",""time""
""fullscreenenter"",""1"",""2895""
","
","
","""event"",""trial"",""time""
""fullscreenenter"",""1"",""2895""
","
","","","975.1000001430511","","","20","4639","3149","h","elianto","#f73b6a7A"," "," ","1","0","[1829.2999999523163]","1","2","","","4639","94","6","3","lose","go","0"
"pit-trial","213","1349458","0.0-99.0","battery-v0.2","","""event"",""trial"",""time""
""fullscreenenter"",""1"",""2895""
","
","
","""event"",""trial"",""time""
""fullscreenenter"",""1"",""2895""
","
","","","1264.6000001430511","","","20","4639","3149","z","elianto","#3366ff99","-1"," ","0","0","[2114.9000000953674]","1","2","","","4639","95","5","2","win","no-go","0"
"pit-trial","214","1353703","0.0-100.0","battery-v0.2","","""event"",""trial"",""time""
""fullscreenenter"",""1"",""2895""
","
","
","""event"",""trial"",""time""
""fullscreenenter"",""1"",""2895""
","
","","","1350.2999999523163","","","20","4639","3149","y","elianto","#f73b6a7A","-1"," ","0","-10","[2208.2999999523163]","1","2","","","4639","96","7","4","lose","no-go","0"
"pit-trial","215","1358569","0.0-101.0","battery-v0.2","","""event"",""trial"",""time""
""fullscreenenter"",""1"",""2895""
","
","
","""event"",""trial"",""time""
""fullscreenenter"",""1"",""2895""
","
","","","-1","","","20","4639","3149","y","elianto","#f73b6a7A","-1","-1","1","-10","[]","0","2","","","4639","97","7","4","lose","no-go","1"
"pit-trial","216","1362561","0.0-102.0","battery-v0.2","","""event"",""trial"",""time""
""fullscreenenter"",""1"",""2895""
","
","
","""event"",""trial"",""time""
""fullscreenenter"",""1"",""2895""
","
","","","1125.2000000476837","","","20","4639","3149","z","elianto","#3366ff99","-1"," ","0","0","[1983.7999999523163]","1","2","","","4639","98","5","2","win","no-go","0"
"pit-trial","217","1366449","0.0-103.0","battery-v0.2","","""event"",""trial"",""time""
""fullscreenenter"",""1"",""2895""
","
","
","""event"",""trial"",""time""
""fullscreenenter"",""1"",""2895""
","
","","","1019.5","","","20","4639","3149","h","elianto","#f73b6a7A"," "," ","1","0","[1878.5999999046326]","1","2","","","4639","99","6","3","lose","go","0"
"pit-trial","218","1370375","0.0-104.0","battery-v0.2","","""event"",""trial"",""time""
""fullscreenenter"",""1"",""2895""
","
","
","""event"",""trial"",""time""
""fullscreenenter"",""1"",""2895""
","
","","","1044","","","20","4639","3149","r","elianto","#3366ff99"," "," ","1","+10","[1903.0999999046326]","1","2","","","4639","100","8","1","win","go","0"
"pit-trial","219","1374505","0.0-105.0","battery-v0.2","","""event"",""trial"",""time""
""fullscreenenter"",""1"",""2895""
","
","
","""event"",""trial"",""time""
""fullscreenenter"",""1"",""2895""
","
","","","1269.5999999046326","","","20","4639","3149","m","elianto","#3366ff99"," "," ","1","+10","[2121.2000000476837]","1","2","","","4639","101","9","1","win","go","0"
"pit-trial","220","1378817","0.0-106.0","battery-v0.2","","""event"",""trial"",""time""
""fullscreenenter"",""1"",""2895""
","
","
","""event"",""trial"",""time""
""fullscreenenter"",""1"",""2895""
","
","","","1443.2999999523163","","","20","4639","3149","z","elianto","#3366ff99","-1"," ","0","0","[2301.2999999523163]","1","2","","","4639","102","5","2","win","no-go","0"
"pit-trial","221","1382801","0.0-107.0","battery-v0.2","","""event"",""trial"",""time""
""fullscreenenter"",""1"",""2895""
","
","
","""event"",""trial"",""time""
""fullscreenenter"",""1"",""2895""
","
","","","1123.4000000953674","","","20","4639","3149","r","elianto","#3366ff99"," "," ","1","+10","[1975]","1","2","","","4639","103","8","1","win","go","0"
"pit-trial","222","1387673","0.0-108.0","battery-v0.2","","""event"",""trial"",""time""
""fullscreenenter"",""1"",""2895""
","
","
","""event"",""trial"",""time""
""fullscreenenter"",""1"",""2895""
","
","","","-1","","","20","4639","3149","y","elianto","#f73b6a7A","-1","-1","1","0","[]","0","2","","","4639","104","7","4","lose","no-go","0"
"pit-trial","223","1391418","0.0-109.0","battery-v0.2","","""event"",""trial"",""time""
""fullscreenenter"",""1"",""2895""
","
","
","""event"",""trial"",""time""
""fullscreenenter"",""1"",""2895""
","
","","","881","","","20","4639","3149","r","elianto","#3366ff99"," "," ","1","0","[1731.5]","1","2","","","4639","105","8","1","win","go","1"
"pit-trial","224","1395289","0.0-110.0","battery-v0.2","","""event"",""trial"",""time""
""fullscreenenter"",""1"",""2895""
","
","
","""event"",""trial"",""time""
""fullscreenenter"",""1"",""2895""
","
","","","1001.4000000953674","","","20","4639","3149","m","elianto","#3366ff99"," "," ","1","+10","[1858]","1","2","","","4639","106","9","1","win","go","0"
"pit-trial","225","1399297","0.0-111.0","battery-v0.2","","""event"",""trial"",""time""
""fullscreenenter"",""1"",""2895""
","
","
","""event"",""trial"",""time""
""fullscreenenter"",""1"",""2895""
","
","","","1135.3999998569489","","","20","4639","3149","c","elianto","#3366ff99"," "," ","1","+10","[1993.8999998569489]","1","2","","","4639","107","4","1","win","go","0"
"pit-trial","226","1403081","0.0-112.0","battery-v0.2","","""event"",""trial"",""time""
""fullscreenenter"",""1"",""2895""
","
","
","""event"",""trial"",""time""
""fullscreenenter"",""1"",""2895""
","
","","","912.6000001430511","","","20","4639","3149","h","elianto","#f73b6a7A"," "," ","1","0","[1771]","1","2","","","4639","108","6","3","lose","go","0"
"pit-trial","227","1407041","0.0-113.0","battery-v0.2","","""event"",""trial"",""time""
""fullscreenenter"",""1"",""2895""
","
","
","""event"",""trial"",""time""
""fullscreenenter"",""1"",""2895""
","
","","","1087.5","","","20","4639","3149","r","elianto","#3366ff99"," "," ","1","+10","[1945.5999999046326]","1","2","","","4639","109","8","1","win","go","0"
"pit-trial","228","1410812","0.0-114.0","battery-v0.2","","""event"",""trial"",""time""
""fullscreenenter"",""1"",""2895""
","
","
","""event"",""trial"",""time""
""fullscreenenter"",""1"",""2895""
","
","","","896","","","20","4639","3149","h","elianto","#f73b6a7A"," "," ","1","0","[1752.9000000953674]","1","2","","","4639","110","6","3","lose","go","0"
"pit-trial","229","1415682","0.0-115.0","battery-v0.2","","""event"",""trial"",""time""
""fullscreenenter"",""1"",""2895""
","
","
","""event"",""trial"",""time""
""fullscreenenter"",""1"",""2895""
","
","","","-1","","","20","4639","3149","z","elianto","#3366ff99","-1","-1","1","+10","[]","0","2","","","4639","111","5","2","win","no-go","0"
"pit-trial","230","1420553","0.0-116.0","battery-v0.2","","""event"",""trial"",""time""
""fullscreenenter"",""1"",""2895""
","
","
","""event"",""trial"",""time""
""fullscreenenter"",""1"",""2895""
","
","","","-1","","","20","4639","3149","m","elianto","#3366ff99"," ","-1","0","0","[]","0","2","","","4639","112","9","1","win","go","0"
"pit-trial","231","1424329","0.0-117.0","battery-v0.2","","""event"",""trial"",""time""
""fullscreenenter"",""1"",""2895""
","
","
","""event"",""trial"",""time""
""fullscreenenter"",""1"",""2895""
","
","","","909.7000000476837","","","20","4639","3149","m","elianto","#3366ff99"," "," ","1","+10","[1767.8000001907349]","1","2","","","4639","113","9","1","win","go","0"
"pit-trial","232","1428113","0.0-118.0","battery-v0.2","","""event"",""trial"",""time""
""fullscreenenter"",""1"",""2895""
","
","
","""event"",""trial"",""time""
""fullscreenenter"",""1"",""2895""
","
","","","917.3999998569489","","","20","4639","3149","h","elianto","#f73b6a7A"," "," ","1","0","[1774.9000000953674]","1","2","","","4639","114","6","3","lose","go","0"
"pit-trial","233","1432994","0.0-119.0","battery-v0.2","","""event"",""trial"",""time""
""fullscreenenter"",""1"",""2895""
","
","
","""event"",""trial"",""time""
""fullscreenenter"",""1"",""2895""
","
","","","-1","","","20","4639","3149","z","elianto","#3366ff99","-1","-1","1","+10","[]","0","2","","","4639","115","5","2","win","no-go","0"
"pit-trial","234","1436706","0.0-120.0","battery-v0.2","","""event"",""trial"",""time""
""fullscreenenter"",""1"",""2895""
","
","
","""event"",""trial"",""time""
""fullscreenenter"",""1"",""2895""
","
","","","843.5","","","20","4639","3149","r","elianto","#3366ff99"," "," ","1","+10","[1700.9000000953674]","1","2","","","4639","116","8","1","win","go","0"
"pit-trial","235","1440544","0.0-121.0","battery-v0.2","","""event"",""trial"",""time""
""fullscreenenter"",""1"",""2895""
","
","
","""event"",""trial"",""time""
""fullscreenenter"",""1"",""2895""
","
","","","971.7999999523163","","","20","4639","3149","h","elianto","#f73b6a7A"," "," ","1","0","[1828.5]","1","2","","","4639","117","6","3","lose","go","0"
"pit-trial","236","1444209","0.0-122.0","battery-v0.2","","""event"",""trial"",""time""
""fullscreenenter"",""1"",""2895""
","
","
","""event"",""trial"",""time""
""fullscreenenter"",""1"",""2895""
","
","","","794.7000000476837","","","20","4639","3149","m","elianto","#3366ff99"," "," ","1","0","[1647.7000000476837]","1","2","","","4639","118","9","1","win","go","1"
"pit-trial","237","1449073","0.0-123.0","battery-v0.2","","""event"",""trial"",""time""
""fullscreenenter"",""1"",""2895""
","
","
","""event"",""trial"",""time""
""fullscreenenter"",""1"",""2895""
","
","","","-1","","","20","4639","3149","z","elianto","#3366ff99","-1","-1","1","+10","[]","0","2","","","4639","119","5","2","win","no-go","0"
"pit-trial","238","1453138","0.0-124.0","battery-v0.2","","""event"",""trial"",""time""
""fullscreenenter"",""1"",""2895""
","
","
","""event"",""trial"",""time""
""fullscreenenter"",""1"",""2895""
","
","","","1201.0999999046326","","","20","4639","3149","r","elianto","#3366ff99"," "," ","1","+10","[2052.399999856949]","1","2","","","4639","120","8","1","win","go","0"
"pit-trial","239","1457161","0.0-125.0","battery-v0.2","","""event"",""trial"",""time""
""fullscreenenter"",""1"",""2895""
","
","
","""event"",""trial"",""time""
""fullscreenenter"",""1"",""2895""
","
","","","1150.6999998092651","","","20","4639","3149","m","elianto","#3366ff99"," "," ","1","+10","[2001.7999999523163]","1","2","","","4639","121","9","1","win","go","0"
"pit-trial","240","1461042","0.0-126.0","battery-v0.2","","""event"",""trial"",""time""
""fullscreenenter"",""1"",""2895""
","
","
","""event"",""trial"",""time""
""fullscreenenter"",""1"",""2895""
","
","","","1007.5999999046326","","","20","4639","3149","h","elianto","#f73b6a7A"," "," ","1","-10","[1858.5999999046326]","1","2","","","4639","122","6","3","lose","go","1"
"pit-trial","241","1464906","0.0-127.0","battery-v0.2","","""event"",""trial"",""time""
""fullscreenenter"",""1"",""2895""
","
","
","""event"",""trial"",""time""
""fullscreenenter"",""1"",""2895""
","
","","","998.0999999046326","","","20","4639","3149","r","elianto","#3366ff99"," "," ","1","0","[1855.5999999046326]","1","2","","","4639","123","8","1","win","go","1"
"pit-trial","242","1469113","0.0-128.0","battery-v0.2","","""event"",""trial"",""time""
""fullscreenenter"",""1"",""2895""
","
","
","""event"",""trial"",""time""
""fullscreenenter"",""1"",""2895""
","
","","","1334.7000000476837","","","20","4639","3149","y","elianto","#f73b6a7A","-1"," ","0","0","[2192.5999999046326]","1","2","","","4639","124","7","4","lose","no-go","1"
"pit-trial","243","1472848","0.0-129.0","battery-v0.2","","""event"",""trial"",""time""
""fullscreenenter"",""1"",""2895""
","
","
","""event"",""trial"",""time""
""fullscreenenter"",""1"",""2895""
","
","","","862.5","","","20","4639","3149","r","elianto","#3366ff99"," "," ","1","0","[1714.1999998092651]","1","2","","","4639","125","8","1","win","go","1"
"pit-trial","244","1477713","0.0-130.0","battery-v0.2","","""event"",""trial"",""time""
""fullscreenenter"",""1"",""2895""
","
","
","""event"",""trial"",""time""
""fullscreenenter"",""1"",""2895""
","
","","","-1","","","20","4639","3149","h","elianto","#f73b6a7A"," ","-1","0","0","[]","0","2","","","4639","126","6","3","lose","go","1"
"pit-trial","245","1481416","0.0-131.0","battery-v0.2","","""event"",""trial"",""time""
""fullscreenenter"",""1"",""2895""
","
","
","""event"",""trial"",""time""
""fullscreenenter"",""1"",""2895""
","
","","","837.5999999046326","","","20","4639","3149","y","elianto","#f73b6a7A","-1"," ","0","-10","[1696.0999999046326]","1","2","","","4639","127","7","4","lose","no-go","0"
"pit-trial","246","1485258","0.0-132.0","battery-v0.2","","""event"",""trial"",""time""
""fullscreenenter"",""1"",""2895""
","
","
","""event"",""trial"",""time""
""fullscreenenter"",""1"",""2895""
","
","","","980.7999999523163","","","20","4639","3149","m","elianto","#3366ff99"," "," ","1","+10","[1832.4000000953674]","1","2","","","4639","128","9","1","win","go","0"
"pit-trial","247","1489352","0.0-133.0","battery-v0.2","","""event"",""trial"",""time""
""fullscreenenter"",""1"",""2895""
","
","
","""event"",""trial"",""time""
""fullscreenenter"",""1"",""2895""
","
","","","1232.8999998569489","","","20","4639","3149","y","elianto","#f73b6a7A","-1"," ","0","-10","[2085.5]","1","2","","","4639","129","7","4","lose","no-go","0"
"pit-trial","248","1493027","0.0-134.0","battery-v0.2","","""event"",""trial"",""time""
""fullscreenenter"",""1"",""2895""
","
","
","""event"",""trial"",""time""
""fullscreenenter"",""1"",""2895""
","
","","","810.8000001907349","","","20","4639","3149","r","elianto","#3366ff99"," "," ","1","0","[1665.2000000476837]","1","2","","","4639","130","8","1","win","go","1"
"pit-trial","249","1496858","0.0-135.0","battery-v0.2","","""event"",""trial"",""time""
""fullscreenenter"",""1"",""2895""
","
","
","""event"",""trial"",""time""
""fullscreenenter"",""1"",""2895""
","
","","","963.7000000476837","","","20","4639","3149","m","elianto","#3366ff99"," "," ","1","+10","[1820.2999999523163]","1","2","","","4639","131","9","1","win","go","0"
"pit-trial","250","1500993","0.0-136.0","battery-v0.2","","""event"",""trial"",""time""
""fullscreenenter"",""1"",""2895""
","
","
","""event"",""trial"",""time""
""fullscreenenter"",""1"",""2895""
","
","","","1266.4000000953674","","","20","4639","3149","h","elianto","#f73b6a7A"," "," ","1","0","[2124.7999999523163]","1","2","","","4639","132","6","3","lose","go","0"
"pit-trial","251","1505865","0.0-137.0","battery-v0.2","","""event"",""trial"",""time""
""fullscreenenter"",""1"",""2895""
","
","
","""event"",""trial"",""time""
""fullscreenenter"",""1"",""2895""
","
","","","-1","","","20","4639","3149","y","elianto","#f73b6a7A","-1","-1","1","0","[]","0","2","","","4639","133","7","4","lose","no-go","0"
"pit-trial","252","1509875","0.0-138.0","battery-v0.2","","""event"",""trial"",""time""
""fullscreenenter"",""1"",""2895""
","
","
","""event"",""trial"",""time""
""fullscreenenter"",""1"",""2895""
","
","","","1138.1000001430511","","","20","4639","3149","h","elianto","#f73b6a7A"," "," ","1","0","[1996.5]","1","2","","","4639","134","6","3","lose","go","0"
"pit-trial","253","1513793","0.0-139.0","battery-v0.2","","""event"",""trial"",""time""
""fullscreenenter"",""1"",""2895""
","
","
","""event"",""trial"",""time""
""fullscreenenter"",""1"",""2895""
","
","","","1049.7999999523163","","","20","4639","3149","r","elianto","#3366ff99"," "," ","1","+10","[1906.7000000476837]","1","2","","","4639","135","8","1","win","go","0"
"pit-trial","254","1517584","0.0-140.0","battery-v0.2","","""event"",""trial"",""time""
""fullscreenenter"",""1"",""2895""
","
","
","""event"",""trial"",""time""
""fullscreenenter"",""1"",""2895""
","
","","","927.7000000476837","","","20","4639","3149","m","elianto","#3366ff99"," "," ","1","0","[1779.4000000953674]","1","2","","","4639","136","9","1","win","go","1"
"pit-trial","255","1522451","0.0-141.0","battery-v0.2","","""event"",""trial"",""time""
""fullscreenenter"",""1"",""2895""
","
","
","""event"",""trial"",""time""
""fullscreenenter"",""1"",""2895""
","
","","","-1","","","20","4639","3149","r","elianto","#3366ff99"," ","-1","0","0","[]","0","2","","","4639","137","8","1","win","go","0"
"pit-trial","256","1526171","0.0-142.0","battery-v0.2","","""event"",""trial"",""time""
""fullscreenenter"",""1"",""2895""
","
","
","""event"",""trial"",""time""
""fullscreenenter"",""1"",""2895""
","
","","","847.2999999523163","","","20","4639","3149","h","elianto","#f73b6a7A"," "," ","1","0","[1703.7999999523163]","1","2","","","4639","138","6","3","lose","go","0"
"pit-trial","257","1531041","0.0-143.0","battery-v0.2","","""event"",""trial"",""time""
""fullscreenenter"",""1"",""2895""
","
","
","""event"",""trial"",""time""
""fullscreenenter"",""1"",""2895""
","
","","","-1","","","20","4639","3149","y","elianto","#f73b6a7A","-1","-1","1","0","[]","0","2","","","4639","139","7","4","lose","no-go","0"
"pit-trial","258","1534898","0.0-144.0","battery-v0.2","","""event"",""trial"",""time""
""fullscreenenter"",""1"",""2895""
","
","
","""event"",""trial"",""time""
""fullscreenenter"",""1"",""2895""
","
","","","997.6999998092651","","","20","4639","3149","m","elianto","#3366ff99"," "," ","1","+10","[1849.0999999046326]","1","2","","","4639","140","9","1","win","go","0"
"pit-instructions","259","1549207","0.0-145.0","battery-v0.2","","""event"",""trial"",""time""
""fullscreenenter"",""1"",""2895""
","
","
","""event"",""trial"",""time""
""fullscreenenter"",""1"",""2895""
","
","","[{""page_index"":0,""viewing_time"":6011.799999952316},{""page_index"":1,""viewing_time"":8290.5}]","14302.900000095367","","","","","","","","","","","","","","","","","","","","","","","",""
"pit-trial","260","1553540","0.0-146.0","battery-v0.2","","""event"",""trial"",""time""
""fullscreenenter"",""1"",""2895""
","
","
","""event"",""trial"",""time""
""fullscreenenter"",""1"",""2895""
","
","","","1467.0999999046326","","","20","4639","3149","u","elianto","#f73b6a7A","-1"," ","0","0","[2319.5]","1","3","","","4639","141","0","4","lose","no-go","1"
"pit-trial","261","1557419","0.0-147.0","battery-v0.2","","""event"",""trial"",""time""
""fullscreenenter"",""1"",""2895""
","
","
","""event"",""trial"",""time""
""fullscreenenter"",""1"",""2895""
","
","","","1002.8999998569489","","","20","4639","3149","l","elianto","#3366ff99"," "," ","1","+10","[1858.7000000476837]","1","3","","","4639","142","1","1","win","go","0"
"pit-trial","262","1561174","0.0-148.0","battery-v0.2","","""event"",""trial"",""time""
""fullscreenenter"",""1"",""2895""
","
","
","""event"",""trial"",""time""
""fullscreenenter"",""1"",""2895""
","
","","","888.7999999523163","","","20","4639","3149","g","elianto","#f73b6a7A"," "," ","1","0","[1747.5]","1","3","","","4639","143","3","3","lose","go","0"
"pit-trial","263","1564694","0.0-149.0","battery-v0.2","","""event"",""trial"",""time""
""fullscreenenter"",""1"",""2895""
","
","
","""event"",""trial"",""time""
""fullscreenenter"",""1"",""2895""
","
","","","635.4000000953674","","","20","4639","3149","a","elianto","#f73b6a7A","-1"," ","0","-10","[1495.8000001907349]","1","3","","","4639","144","2","4","lose","no-go","0"
"pit-trial","264","1568509","0.0-150.0","battery-v0.2","","""event"",""trial"",""time""
""fullscreenenter"",""1"",""2895""
","
","
","""event"",""trial"",""time""
""fullscreenenter"",""1"",""2895""
","
","","","935.8999998569489","","","20","4639","3149","u","elianto","#f73b6a7A","-1"," ","0","0","[1789.6000001430511]","1","3","","","4639","145","0","4","lose","no-go","1"
"pit-trial","265","1572348","0.0-151.0","battery-v0.2","","""event"",""trial"",""time""
""fullscreenenter"",""1"",""2895""
","
","
","""event"",""trial"",""time""
""fullscreenenter"",""1"",""2895""
","
","","","955.6000001430511","","","20","4639","3149","l","elianto","#3366ff99"," "," ","1","+10","[1816.6999998092651]","1","3","","","4639","146","1","1","win","go","0"
"pit-trial","266","1576313","0.0-152.0","battery-v0.2","","""event"",""trial"",""time""
""fullscreenenter"",""1"",""2895""
","
","
","""event"",""trial"",""time""
""fullscreenenter"",""1"",""2895""