"trial_type","trial_index","time_elapsed","internal_node_id","task_version","subject_id","interactions","blur_events","focus_events","fullscreenenter_events","fullscreenexit_events","success","view_history","rt","responses","num_errors","age","subject","participantId","rune","rune_set","hex","correct","choice","accuracy","outcome","keys","total_keys","block","practice","value","sub","trial","stimulus","robot","valence","action","sham"
"pavlovia","0","24","0.0-0.0","battery-v0.2","","""event"",""trial"",""time""
""fullscreenenter"",""1"",""1964""
","
","
","""event"",""trial"",""time""
""fullscreenenter"",""1"",""1964""
","
","","","","","","","","","","","","","","","","","","","","","","","","","","",""
"fullscreen","1","2950","0.0-1.0","battery-v0.2","","""event"",""trial"",""time""
""fullscreenenter"",""1"",""1964""
","
","
","""event"",""trial"",""time""
""fullscreenenter"",""1"",""1964""
","
","true","","","","","","","","","","","","","","","","","","","","","","","","","",""
"pit-instructions","2","6678","0.0-2.0-0.0","battery-v0.2","","""event"",""trial"",""time""
""fullscreenenter"",""1"",""1964""
","
","
","""event"",""trial"",""time""
""fullscreenenter"",""1"",""1964""
","
","","[{""page_index"":0,""viewing_time"":3723.699999988079}]","3724.5","","","","","","","","","","","","","","","","","","","","","","","",""
"pit-comprehension","3","9453","0.0-2.0-1.0-0.0","battery-v0.2","","""event"",""trial"",""time""
""fullscreenenter"",""1"",""1964""
","
","
","""event"",""trial"",""time""
""fullscreenenter"",""1"",""1964""
","
","","","2772","[""shark""]","0","16","3165","1443","","","","","","","","","","","","","","","","","","",""
"pit-instructions","4","10897","0.0-2.0-1.0-1.0","battery-v0.2","","""event"",""trial"",""time""
""fullscreenenter"",""1"",""1964""
","
","
","""event"",""trial"",""time""
""fullscreenenter"",""1"",""1964""
","
","","[{""page_index"":0,""viewing_time"":1436.699999988079}]","1436.9000000357628","","","","","","","","","","","","","","","","","","","","","","","",""
"pit-comprehension","5","13561","0.0-2.0-2.0-0.0","battery-v0.2","","""event"",""trial"",""time""
""fullscreenenter"",""1"",""1964""
","
","
","""event"",""trial"",""time""
""fullscreenenter"",""1"",""1964""
","
","","","2660.699999988079","[""tiger""]","0","16","3165","1443","","","","","","","","","","","","","","","","","","",""
"pit-instructions","6","14870","0.0-2.0-2.0-1.0","battery-v0.2","","""event"",""trial"",""time""
""fullscreenenter"",""1"",""1964""
","
","
","""event"",""trial"",""time""
""fullscreenenter"",""1"",""1964""
","
","","[{""page_index"":0,""viewing_time"":1305.1000000238419}]","1305.6000000238419","","","","","","","","","","","","","","","","","","","","","","","",""
"pit-instructions","7","107340","0.0-2.0-3.0","battery-v0.2","","""event"",""trial"",""time""
""fullscreenenter"",""1"",""1964""
","
","
","""event"",""trial"",""time""
""fullscreenenter"",""1"",""1964""
","
","","[{""page_index"":0,""viewing_time"":7814.599999964237},{""page_index"":1,""viewing_time"":5487.200000047684},{""page_index"":2,""viewing_time"":6345.199999988079},{""page_index"":3,""viewing_time"":5599.099999964237},{""page_index"":4,""viewing_time"":7034.200000047684},{""page_index"":5,""viewing_time"":6125.399999976158},{""page_index"":6,""viewing_time"":5998.800000011921},{""page_index"":7,""viewing_time"":6478.399999976158},{""page_index"":8,""viewing_time"":6790.300000011921},{""page_index"":9,""viewing_time"":7383.5},{""page_index"":10,""viewing_time"":7428},{""page_index"":11,""viewing_time"":6421.800000011921},{""page_index"":12,""viewing_time"":8661},{""page_index"":13,""viewing_time"":4898.300000011921}]","92466.09999996424","","","","","","","","","","","","","","","","","","","","","","","",""
"pit-trial","8","110978","0.0-2.0-4.0-0.0","battery-v0.2","","""event"",""trial"",""time""
""fullscreenenter"",""1"",""1964""
","
","
","""event"",""trial"",""time""
""fullscreenenter"",""1"",""1964""
","
","","","776.3000000119209","","","16","3165","1443","&#9784;","elianto","#FFFFF080"," "," ","1","&#10004","[1630.699999988079]","1","0","0","","","","","","","",""
"pit-trial","9","114683","0.0-2.0-4.1-0.1","battery-v0.2","","""event"",""trial"",""time""
""fullscreenenter"",""1"",""1964""
","
","
","""event"",""trial"",""time""
""fullscreenenter"",""1"",""1964""
","
","","","843.3999999761581","","","16","3165","1443","&#9784;","elianto","#FFFFF080"," "," ","1","&#10004","[1697.5999999642372]","1","0","0","","","","","","","",""
"pit-trial","10","118263","0.0-2.0-4.2-0.2","battery-v0.2","","""event"",""trial"",""time""
""fullscreenenter"",""1"",""1964""
","
","
","""event"",""trial"",""time""
""fullscreenenter"",""1"",""1964""
","
","","","722.5","","","16","3165","1443","&#9784;","elianto","#FFFFF080"," "," ","1","&#10004","[1575.7000000476837]","1","0","0","","","","","","","",""
"pit-trial","11","121926","0.0-2.0-4.3-0.3","battery-v0.2","","""event"",""trial"",""time""
""fullscreenenter"",""1"",""1964""
","
","
","""event"",""trial"",""time""
""fullscreenenter"",""1"",""1964""
","
","","","807.1000000238419","","","16","3165","1443","&#9784;","elianto","#FFFFF080"," "," ","1","&#10004","[1658.300000011921]","1","0","0","","","","","","","",""
"pit-trial","12","125734","0.0-2.0-4.4-0.4","battery-v0.2","","""event"",""trial"",""time""
""fullscreenenter"",""1"",""1964""
","
","
","""event"",""trial"",""time""
""fullscreenenter"",""1"",""1964""
","
","","","953","","","16","3165","1443","&#9784;","elianto","#FFFFF080"," "," ","1","&#10004","[1803.1000000238419]","1","0","0","","","","","","","",""
"pit-instructions","13","148765","0.0-2.0-5.0","battery-v0.2","","""event"",""trial"",""time""
""fullscreenenter"",""1"",""1964""
","
","
","""event"",""trial"",""time""
""fullscreenenter"",""1"",""1964""
","
","","[{""page_index"":0,""viewing_time"":5589.699999988079},{""page_index"":1,""viewing_time"":6129},{""page_index"":2,""viewing_time"":5677.600000023842},{""page_index"":3,""viewing_time"":5630.5}]","23027.100000023842","","","","","","","","","","","","","","","","","","","","","","","",""
"pit-trial","14","153622","0.0-2.0-6.0-0.0","battery-v0.2","","""event"",""trial"",""time""
""fullscreenenter"",""1"",""1964""
","
","
","""event"",""trial"",""time""
""fullscreenenter"",""1"",""1964""
","
","","","-1","","","16","3165","1443","&#9854;","elianto","#FFFFF080","-1","-1","1","&#10004","[]","0","0","1","","","","","","","",""
"pit-trial","15","158482","0.0-2.0-6.1-0.1","battery-v0.2","","""event"",""trial"",""time""
""fullscreenenter"",""1"",""1964""
","
","
","""event"",""trial"",""time""
""fullscreenenter"",""1"",""1964""
","
","","","-1","","","16","3165","1443","&#9854;","elianto","#FFFFF080","-1","-1","1","&#10004","[]","0","0","1","","","","","","","",""
"pit-trial","16","163339","0.0-2.0-6.2-0.2","battery-v0.2","","""event"",""trial"",""time""
""fullscreenenter"",""1"",""1964""
","
","
","""event"",""trial"",""time""
""fullscreenenter"",""1"",""1964""
","
","","","-1","","","16","3165","1443","&#9854;","elianto","#FFFFF080","-1","-1","1","&#10004","[]","0","0","1","","","","","","","",""
"pit-trial","17","168198","0.0-2.0-6.3-0.3","battery-v0.2","","""event"",""trial"",""time""
""fullscreenenter"",""1"",""1964""
","
","
","""event"",""trial"",""time""
""fullscreenenter"",""1"",""1964""
","
","","","-1","","","16","3165","1443","&#9854;","elianto","#FFFFF080","-1","-1","1","&#10004","[]","0","0","1","","","","","","","",""
"pit-trial","18","173056","0.0-2.0-6.4-0.4","battery-v0.2","","""event"",""trial"",""time""
""fullscreenenter"",""1"",""1964""
","
","
","""event"",""trial"",""time""
""fullscreenenter"",""1"",""1964""
","
","","","-1","","","16","3165","1443","&#9854;","elianto","#FFFFF080","-1","-1","1","&#10004","[]","0","0","1","","","","","","","",""
"pit-instructions","19","299037","0.0-2.0-7.0","battery-v0.2","","""event"",""trial"",""time""
""fullscreenenter"",""1"",""1964""
","
","
","""event"",""trial"",""time""
""fullscreenenter"",""1"",""1964""
","
","","[{""page_index"":0,""viewing_time"":6307.600000023842},{""page_index"":1,""viewing_time"":6410},{""page_index"":2,""viewing_time"":5799.599999964237},{""page_index"":3,""viewing_time"":5537.300000011921},{""page_index"":4,""viewing_time"":6478.300000011921},{""page_index"":5,""viewing_time"":5305.699999988079},{""page_index"":6,""viewing_time"":4398.800000011921},{""page_index"":7,""viewing_time"":7436.100000023842},{""page_index"":8,""viewing_time"":7733.5},{""page_index"":9,""viewing_time"":5866.199999988079},{""page_index"":10,""viewing_time"":6651.800000011921},{""page_index"":11,""viewing_time"":4807.299999952316},{""page_index"":12,""viewing_time"":6684.700000047684},{""page_index"":13,""viewing_time"":6601.899999976158},{""page_index"":14,""viewing_time"":6700.399999976158},{""page_index"":15,""viewing_time"":6957.800000011921},{""page_index"":16,""viewing_time"":19596.80000001192},{""page_index"":17,""viewing_time"":6702.100000023842}]","125976.10000002384","","","","","","","","","","","","","","","","","","","","","","","",""
"pit-trial","20","303029","0.0-2.0-8.0-0.0","battery-v0.2","","""event"",""trial"",""time""
""fullscreenenter"",""1"",""1964""
","
","
","""event"",""trial"",""time""
""fullscreenenter"",""1"",""1964""
","
","","","1133.2999999523163","","","16","3165","1443","&#9776;","elianto","#3366ff99"," "," ","1","+10","[1988.300000011921]","1","0","1","","","","","","","",""
"pit-trial","21","306718","0.0-2.0-8.0-1.0","battery-v0.2","","""event"",""trial"",""time""
""fullscreenenter"",""1"",""1964""
","
","
","""event"",""trial"",""time""
""fullscreenenter"",""1"",""1964""
","
","","","830.5999999642372","","","16","3165","1443","&#9776;","elianto","#3366ff99"," "," ","1","+10","[1682.5999999642372]","1","0","1","","","","","","","",""
"pit-trial","22","310460","0.0-2.0-8.0-2.0","battery-v0.2","","""event"",""trial"",""time""
""fullscreenenter"",""1"",""1964""
","
","
","""event"",""trial"",""time""
""fullscreenenter"",""1"",""1964""
","
","","","883.2000000476837","","","16","3165","1443","&#9776;","elianto","#3366ff99"," "," ","1","+10","[1735.800000011921]","1","0","1","","","","","","","",""
"pit-trial","23","314179","0.0-2.0-8.0-3.0","battery-v0.2","","""event"",""trial"",""time""
""fullscreenenter"",""1"",""1964""
","
","
","""event"",""trial"",""time""
""fullscreenenter"",""1"",""1964""
","
","","","866","","","16","3165","1443","&#9776;","elianto","#3366ff99"," "," ","1","0","[1716.2999999523163]","1","0","1","","","","","","","",""
"pit-trial","24","317861","0.0-2.0-8.0-4.0","battery-v0.2","","""event"",""trial"",""time""
""fullscreenenter"",""1"",""1964""
","
","
","""event"",""trial"",""time""
""fullscreenenter"",""1"",""1964""
","
","","","827.6999999880791","","","16","3165","1443","&#9776;","elianto","#3366ff99"," "," ","1","+10","[1678.800000011921]","1","0","1","","","","","","","",""
"call-function","25","317863","0.0-2.0-9.0","battery-v0.2","","""event"",""trial"",""time""
""fullscreenenter"",""1"",""1964""
","
","
","""event"",""trial"",""time""
""fullscreenenter"",""1"",""1964""
","
","","","","","","","","","","","","","","","","","","","","","","","","","","",""
"pit-instructions","26","360907","0.0-2.0-10.0","battery-v0.2","","""event"",""trial"",""time""
""fullscreenenter"",""1"",""1964""
","
","
","""event"",""trial"",""time""
""fullscreenenter"",""1"",""1964""
","
","","[{""page_index"":0,""viewing_time"":6177},{""page_index"":1,""viewing_time"":6843.199999988079},{""page_index"":2,""viewing_time"":10101.200000047684},{""page_index"":3,""viewing_time"":11337.299999952316},{""page_index"":4,""viewing_time"":8583.900000035763}]","43043","","","","","","","","","","","","","","","","","","","","","","","",""
"pit-trial","27","365763","0.0-2.0-11.0-0.0","battery-v0.2","","""event"",""trial"",""time""
""fullscreenenter"",""1"",""1964""
","
","
","""event"",""trial"",""time""
""fullscreenenter"",""1"",""1964""
","
","","","-1","","","16","3165","1443","&#9761;","elianto","#3366ff99","-1","-1","1","+10","[]","0","0","2","","","","","","","",""
"pit-trial","28","370622","0.0-2.0-11.0-1.0","battery-v0.2","","""event"",""trial"",""time""
""fullscreenenter"",""1"",""1964""
","
","
","""event"",""trial"",""time""
""fullscreenenter"",""1"",""1964""
","
","","","-1","","","16","3165","1443","&#9761;","elianto","#3366ff99","-1","-1","1","+10","[]","0","0","2","","","","","","","",""
"pit-trial","29","375480","0.0-2.0-11.0-2.0","battery-v0.2","","""event"",""trial"",""time""
""fullscreenenter"",""1"",""1964""
","
","
","""event"",""trial"",""time""
""fullscreenenter"",""1"",""1964""
","
","","","-1","","","16","3165","1443","&#9761;","elianto","#3366ff99","-1","-1","1","+10","[]","0","0","2","","","","","","","",""
"pit-trial","30","380341","0.0-2.0-11.0-3.0","battery-v0.2","","""event"",""trial"",""time""
""fullscreenenter"",""1"",""1964""
","
","
","""event"",""trial"",""time""
""fullscreenenter"",""1"",""1964""
","
","","","-1","","","16","3165","1443","&#9761;","elianto","#3366ff99","-1","-1","1","0","[]","0","0","2","","","","","","","",""
"pit-trial","31","385198","0.0-2.0-11.0-4.0","battery-v0.2","","""event"",""trial"",""time""
""fullscreenenter"",""1"",""1964""
","
","
","""event"",""trial"",""time""
""fullscreenenter"",""1"",""1964""
","
","","","-1","","","16","3165","1443","&#9761;","elianto","#3366ff99","-1","-1","1","+10","[]","0","0","2","","","","","","","",""
"call-function","32","385200","0.0-2.0-12.0","battery-v0.2","","""event"",""trial"",""time""
""fullscreenenter"",""1"",""1964""
","
","
","""event"",""trial"",""time""
""fullscreenenter"",""1"",""1964""
","
","","","","","","","","","","","","","","","","","","","","","","","","","","",""
"pit-instructions","33","422212","0.0-2.0-13.0","battery-v0.2","","""event"",""trial"",""time""
""fullscreenenter"",""1"",""1964""
","
","
","""event"",""trial"",""time""
""fullscreenenter"",""1"",""1964""
","
","","[{""page_index"":0,""viewing_time"":9702.800000011921},{""page_index"":1,""viewing_time"":7116.399999976158},{""page_index"":2,""viewing_time"":3733.300000011921},{""page_index"":3,""viewing_time"":11464.400000035763},{""page_index"":4,""viewing_time"":4993.799999952316}]","37011","","","","","","","","","","","","","","","","","","","","","","","",""
"pit-trial","34","425770","0.0-2.0-14.0-0.0","battery-v0.2","","""event"",""trial"",""time""
""fullscreenenter"",""1"",""1964""
","
","
","""event"",""trial"",""time""
""fullscreenenter"",""1"",""1964""
","
","","","700.8999999761581","","","16","3165","1443","&#9826;","elianto","#f73b6a7A","-1"," ","0","-10","[1552.0999999642372]","1","0","3","","","","","","","",""
"pit-trial","35","430629","0.0-2.0-14.0-1.0","battery-v0.2","","""event"",""trial"",""time""
""fullscreenenter"",""1"",""1964""
","
","
","""event"",""trial"",""time""
""fullscreenenter"",""1"",""1964""
","
","","","-1","","","16","3165","1443","&#9826;","elianto","#f73b6a7A","-1","-1","1","0","[]","0","0","3","","","","","","","",""
"pit-trial","36","435490","0.0-2.0-14.0-2.0","battery-v0.2","","""event"",""trial"",""time""
""fullscreenenter"",""1"",""1964""
","
","
","""event"",""trial"",""time""
""fullscreenenter"",""1"",""1964""
","
","","","-1","","","16","3165","1443","&#9826;","elianto","#f73b6a7A","-1","-1","1","0","[]","0","0","3","","","","","","","",""
"pit-trial","37","440347","0.0-2.0-14.0-3.0","battery-v0.2","","""event"",""trial"",""time""
""fullscreenenter"",""1"",""1964""
","
","
","""event"",""trial"",""time""
""fullscreenenter"",""1"",""1964""
","
","","","-1","","","16","3165","1443","&#9826;","elianto","#f73b6a7A","-1","-1","1","-10","[]","0","0","3","","","","","","","",""
"pit-trial","38","445207","0.0-2.0-14.0-4.0","battery-v0.2","","""event"",""trial"",""time""
""fullscreenenter"",""1"",""1964""
","
","
","""event"",""trial"",""time""
""fullscreenenter"",""1"",""1964""
","
","","","-1","","","16","3165","1443","&#9826;","elianto","#f73b6a7A","-1","-1","1","0","[]","0","0","3","","","","","","","",""
"call-function","39","445209","0.0-2.0-15.0","battery-v0.2","","""event"",""trial"",""time""
""fullscreenenter"",""1"",""1964""
","
","
","""event"",""trial"",""time""
""fullscreenenter"",""1"",""1964""
","
","","","","","","","","","","","","","","","","","","","","","","","","","","",""
"pit-instructions","40","474199","0.0-2.0-16.0","battery-v0.2","","""event"",""trial"",""time""
""fullscreenenter"",""1"",""1964""
","
","
","""event"",""trial"",""time""
""fullscreenenter"",""1"",""1964""
","
","","[{""page_index"":0,""viewing_time"":8822.899999976158},{""page_index"":1,""viewing_time"":8466.400000035763},{""page_index"":2,""viewing_time"":6283.099999964237},{""page_index"":3,""viewing_time"":5416.200000047684}]","28989.100000023842","","","","","","","","","","","","","","","","","","","","","","","",""
"pit-trial","41","477807","0.0-2.0-17.0-0.0","battery-v0.2","","""event"",""trial"",""time""
""fullscreenenter"",""1"",""1964""
","
","
","""event"",""trial"",""time""
""fullscreenenter"",""1"",""1964""
","
","","","747.4000000357628","","","16","3165","1443","&#9789;","elianto","#f73b6a7A"," "," ","1","0","[1601.1000000238419]","1","0","4","","","","","","","",""
"pit-trial","42","481220","0.0-2.0-17.0-1.0","battery-v0.2","","""event"",""trial"",""time""
""fullscreenenter"",""1"",""1964""
","
","
","""event"",""trial"",""time""
""fullscreenenter"",""1"",""1964""
","
","","","554.3000000119209","","","16","3165","1443","&#9789;","elianto","#f73b6a7A"," "," ","1","0","[1406.7999999523163]","1","0","4","","","","","","","",""
"pit-trial","43","484628","0.0-2.0-17.0-2.0","battery-v0.2","","""event"",""trial"",""time""
""fullscreenenter"",""1"",""1964""
","
","
","""event"",""trial"",""time""
""fullscreenenter"",""1"",""1964""
","
","","","552.1999999880791","","","16","3165","1443","&#9789;","elianto","#f73b6a7A"," "," ","1","0","[1405]","1","0","4","","","","","","","",""
"pit-trial","44","488021","0.0-2.0-17.0-3.0","battery-v0.2","","""event"",""trial"",""time""
""fullscreenenter"",""1"",""1964""
","
","
","""event"",""trial"",""time""
""fullscreenenter"",""1"",""1964""
","
","","","535.8999999761581","","","16","3165","1443","&#9789;","elianto","#f73b6a7A"," "," ","1","-10","[1387.199999988079]","1","0","4","","","","","","","",""
"pit-trial","45","491153","0.0-2.0-17.0-4.0","battery-v0.2","","""event"",""trial"",""time""
""fullscreenenter"",""1"",""1964""
","
","
","""event"",""trial"",""time""
""fullscreenenter"",""1"",""1964""
","
","","","274.0999999642372","","","16","3165","1443","&#9789;","elianto","#f73b6a7A"," "," ","1","0","[1127.800000011921]","1","0","4","","","","","","","",""
"call-function","46","491155","0.0-2.0-18.0","battery-v0.2","","""event"",""trial"",""time""
""fullscreenenter"",""1"",""1964""
","
","
","""event"",""trial"",""time""
""fullscreenenter"",""1"",""1964""
","
","","","","","","","","","","","","","","","","","","","","","","","","","","",""
"pit-instructions","47","572342","0.0-2.0-19.0","battery-v0.2","","""event"",""trial"",""time""
""fullscreenenter"",""1"",""1964""
","
","
","""event"",""trial"",""time""
""fullscreenenter"",""1"",""1964""
","
","","[{""page_index"":0,""viewing_time"":14064.199999988079},{""page_index"":1,""viewing_time"":6259.399999976158},{""page_index"":2,""viewing_time"":14993.800000011921},{""page_index"":3,""viewing_time"":8893.900000035763},{""page_index"":4,""viewing_time"":8352.299999952316},{""page_index"":5,""viewing_time"":9117.900000035763},{""page_index"":6,""viewing_time"":8733.300000011921},{""page_index"":7,""viewing_time"":6768.299999952316},{""page_index"":8,""viewing_time"":4001.400000035763}]","81184.89999997616","","","","","","","","","","","","","","","","","","","","","","","",""
"pit-comprehension","48","577659","0.0-2.0-20.0-0.0","battery-v0.2","","""event"",""trial"",""time""
""fullscreenenter"",""1"",""1964""
","
","
","""event"",""trial"",""time""
""fullscreenenter"",""1"",""1964""
","
","","","5314.100000023842","[""SPACE""]","0","16","3165","1443","","","","","","","","","","","","","","","","","","",""
"pit-instructions","49","581133","0.0-2.0-20.0-1.0","battery-v0.2","","""event"",""trial"",""time""
""fullscreenenter"",""1"",""1964""
","
","
","""event"",""trial"",""time""
""fullscreenenter"",""1"",""1964""
","
","","[{""page_index"":0,""viewing_time"":3458.600000023842}]","3459","","","","","","","","","","","","","","","","","","","","","","","",""
"pit-comprehension","50","587706","0.0-2.0-21.0-0.0","battery-v0.2","","""event"",""trial"",""time""
""fullscreenenter"",""1"",""1964""
","
","
","""event"",""trial"",""time""
""fullscreenenter"",""1"",""1964""
","
","","","6570.899999976158","[""10""]","0","16","3165","1443","","","","","","","","","","","","","","","","","","",""
"pit-instructions","51","592804","0.0-2.0-21.0-1.0","battery-v0.2","","""event"",""trial"",""time""
""fullscreenenter"",""1"",""1964""
","
","
","""event"",""trial"",""time""
""fullscreenenter"",""1"",""1964""
","
","","[{""page_index"":0,""viewing_time"":5081.899999976158}]","5082.199999988079","","","","","","","","","","","","","","","","","","","","","","","",""
"pit-comprehension","52","600531","0.0-2.0-22.0-0.0","battery-v0.2","","""event"",""trial"",""time""
""fullscreenenter"",""1"",""1964""
","
","
","""event"",""trial"",""time""
""fullscreenenter"",""1"",""1964""
","
","","","7722.800000011921","[""0""]","0","16","3165","1443","","","","","","","","","","","","","","","","","","",""
"pit-instructions","53","605537","0.0-2.0-22.0-1.0","battery-v0.2","","""event"",""trial"",""time""
""fullscreenenter"",""1"",""1964""
","
","
","""event"",""trial"",""time""
""fullscreenenter"",""1"",""1964""
","
","","[{""page_index"":0,""viewing_time"":4990.300000011921}]","4990.800000011921","","","","","","","","","","","","","","","","","","","","","","","",""
"pit-comprehension","54","623875","0.0-2.0-23.0-0.0","battery-v0.2","","""event"",""trial"",""time""
""fullscreenenter"",""1"",""1964""
","
","
","""event"",""trial"",""time""
""fullscreenenter"",""1"",""1964""
","
","","","18333.700000047684","[""True""]","0","16","3165","1443","","","","","","","","","","","","","","","","","","",""
"pit-instructions","55","628101","0.0-2.0-23.0-1.0","battery-v0.2","","""event"",""trial"",""time""
""fullscreenenter"",""1"",""1964""
","
","
","""event"",""trial"",""time""
""fullscreenenter"",""1"",""1964""
","
","","[{""page_index"":0,""viewing_time"":4209.5}]","4209.600000023842","","","","","","","","","","","","","","","","","","","","","","","",""
"pit-comprehension","56","635721","0.0-2.0-24.0-0.0","battery-v0.2","","""event"",""trial"",""time""
""fullscreenenter"",""1"",""1964""
","
","
","""event"",""trial"",""time""
""fullscreenenter"",""1"",""1964""
","
","","","7617.299999952316","[""True""]","0","16","3165","1443","","","","","","","","","","","","","","","","","","",""
"pit-instructions","57","637234","0.0-2.0-24.0-1.0","battery-v0.2","","""event"",""trial"",""time""
""fullscreenenter"",""1"",""1964""
","
","
","""event"",""trial"",""time""
""fullscreenenter"",""1"",""1964""
","
","","[{""page_index"":0,""viewing_time"":1496.5}]","1496.8999999761581","","","","","","","","","","","","","","","","","","","","","","","",""
"pit-comprehension","58","643884","0.0-2.0-25.0-0.0","battery-v0.2","","""event"",""trial"",""time""
""fullscreenenter"",""1"",""1964""
","
","
","""event"",""trial"",""time""
""fullscreenenter"",""1"",""1964""
","
","","","6646.299999952316","[""True""]","0","16","3165","1443","","","","","","","","","","","","","","","","","","",""
"pit-instructions","59","645473","0.0-2.0-25.0-1.0","battery-v0.2","","""event"",""trial"",""time""
""fullscreenenter"",""1"",""1964""
","
","
","""event"",""trial"",""time""
""fullscreenenter"",""1"",""1964""
","
","","[{""page_index"":0,""viewing_time"":1570.8999999761581}]","1571.0999999642372","","","","","","","","","","","","","","","","","","","","","","","",""
"pit-comprehension","60","650228","0.0-2.0-26.0-0.0","battery-v0.2","","""event"",""trial"",""time""
""fullscreenenter"",""1"",""1964""
","
","
","""event"",""trial"",""time""
""fullscreenenter"",""1"",""1964""
","
","","","4752.199999988079","[""False""]","0","16","3165","1443","","","","","","","","","","","","","","","","","","",""
"pit-instructions","61","651657","0.0-2.0-26.0-1.0","battery-v0.2","","""event"",""trial"",""time""
""fullscreenenter"",""1"",""1964""
","
","
","""event"",""trial"",""time""
""fullscreenenter"",""1"",""1964""
","
","","[{""page_index"":0,""viewing_time"":1412.300000011921}]","1412.6000000238419","","","","","","","","","","","","","","","","","","","","","","","",""
"pit-instructions","62","669148","0.0-3.0","battery-v0.2","","""event"",""trial"",""time""
""fullscreenenter"",""1"",""1964""
","
","
","""event"",""trial"",""time""
""fullscreenenter"",""1"",""1964""
","
","","[{""page_index"":0,""viewing_time"":4244.700000047684},{""page_index"":1,""viewing_time"":5012.599999964237},{""page_index"":2,""viewing_time"":8230.900000035763}]","17488.900000035763","","","","","","","","","","","","","","","","","","","","","","","",""
"pit-trial","63","673119","0.0-4.0","battery-v0.2","","""event"",""trial"",""time""
""fullscreenenter"",""1"",""1964""
","
","
","""event"",""trial"",""time""
""fullscreenenter"",""1"",""1964""
","
","","","1112.1000000238419","","","16","3165","1443","&#9733;","elianto","#3366ff99","-1"," ","0","0","[1963.5999999642372]","1","1","","","3165","1","2","2","win","no-go","0"
"pit-trial","64","677075","0.0-5.0","battery-v0.2","","""event"",""trial"",""time""
""fullscreenenter"",""1"",""1964""
","
","
","""event"",""trial"",""time""
""fullscreenenter"",""1"",""1964""
","
","","","1100.0999999642372","","","16","3165","1443","&#9752;","elianto","#f73b6a7A"," "," ","1","0","[1952.300000011921]","1","1","","","3165","2","3","3","lose","go","0"
"pit-trial","65","680806","0.0-6.0","battery-v0.2","","""event"",""trial"",""time""
""fullscreenenter"",""1"",""1964""
","
","
","""event"",""trial"",""time""
""fullscreenenter"",""1"",""1964""
","
","","","871.1999999880791","","","16","3165","1443","&#9730;","elianto","#3366ff99"," "," ","1","+10","[1722.8999999761581]","1","1","","","3165","3","1","1","win","go","0"
"pit-trial","66","685664","0.0-7.0","battery-v0.2","","""event"",""trial"",""time""
""fullscreenenter"",""1"",""1964""
","
","
","""event"",""trial"",""time""
""fullscreenenter"",""1"",""1964""
","
","","","-1","","","16","3165","1443","&#9728;","elianto","#f73b6a7A","-1","-1","1","0","[]","0","1","","","3165","4","0","4","lose","no-go","0"
"pit-trial","67","690523","0.0-8.0","battery-v0.2","","""event"",""trial"",""time""
""fullscreenenter"",""1"",""1964""
","
","
","""event"",""trial"",""time""
""fullscreenenter"",""1"",""1964""
","
","","","-1","","","16","3165","1443","&#9733;","elianto","#3366ff99","-1","-1","1","+10","[]","0","1","","","3165","5","2","2","win","no-go","0"
"pit-trial","68","694810","0.0-9.0","battery-v0.2","","""event"",""trial"",""time""
""fullscreenenter"",""1"",""1964""
","
","
","""event"",""trial"",""time""
""fullscreenenter"",""1"",""1964""
","
","","","1431.3999999761581","","","16","3165","1443","&#9752;","elianto","#f73b6a7A"," "," ","1","0","[2284.300000011921]","1","1","","","3165","6","3","3","lose","go","0"
"pit-trial","69","699171","0.0-10.0","battery-v0.2","","""event"",""trial"",""time""
""fullscreenenter"",""1"",""1964""
","
","
","""event"",""trial"",""time""
""fullscreenenter"",""1"",""1964""
","
","","","1503.8999999761581","","","16","3165","1443","&#9728;","elianto","#f73b6a7A","-1"," ","0","0","[2355.300000011921]","1","1","","","3165","7","0","4","lose","no-go","1"
"pit-trial","70","703207","0.0-11.0","battery-v0.2","","""event"",""trial"",""time""
""fullscreenenter"",""1"",""1964""
","
","
","""event"",""trial"",""time""
""fullscreenenter"",""1"",""1964""
","
","","","1179.3999999761581","","","16","3165","1443","&#9730;","elianto","#3366ff99"," "," ","1","+10","[2030.300000011921]","1","1","","","3165","8","1","1","win","go","0"
"pit-trial","71","707474","0.0-12.0","battery-v0.2","","""event"",""trial"",""time""
""fullscreenenter"",""1"",""1964""
","
","
","""event"",""trial"",""time""
""fullscreenenter"",""1"",""1964""
","
","","","1408.1000000238419","","","16","3165","1443","&#9728;","elianto","#f73b6a7A","-1"," ","0","-10","[2259.7999999523163]","1","1","","","3165","9","0","4","lose","no-go","0"
"pit-trial","72","712332","0.0-13.0","battery-v0.2","","""event"",""trial"",""time""
""fullscreenenter"",""1"",""1964""
","
","
","""event"",""trial"",""time""
""fullscreenenter"",""1"",""1964""
","
","","","-1","","","16","3165","1443","&#9752;","elianto","#f73b6a7A"," ","-1","0","-10","[]","0","1","","","3165","10","3","3","lose","go","0"
"pit-trial","73","716117","0.0-14.0","battery-v0.2","","""event"",""trial"",""time""
""fullscreenenter"",""1"",""1964""
","
","
","""event"",""trial"",""time""
""fullscreenenter"",""1"",""1964""
","
","","","928.6999999880791","","","16","3165","1443","&#9730;","elianto","#3366ff99"," "," ","1","+10","[1780.2999999523163]","1","1","","","3165","11","1","1","win","go","0"
"pit-trial","74","720976","0.0-15.0","battery-v0.2","","""event"",""trial"",""time""
""fullscreenenter"",""1"",""1964""
","
","
","""event"",""trial"",""time""
""fullscreenenter"",""1"",""1964""
","
","","","-1","","","16","3165","1443","&#9733;","elianto","#3366ff99","-1","-1","1","+10","[]","0","1","","","3165","12","2","2","win","no-go","0"
"pit-trial","75","724755","0.0-16.0","battery-v0.2","","""event"",""trial"",""time""
""fullscreenenter"",""1"",""1964""
","
","
","""event"",""trial"",""time""
""fullscreenenter"",""1"",""1964""
","
","","","923.7000000476837","","","16","3165","1443","&#9730;","elianto","#3366ff99"," "," ","1","+10","[1775.1000000238419]","1","1","","","3165","13","1","1","win","go","0"
"pit-trial","76","728376","0.0-17.0","battery-v0.2","","""event"",""trial"",""time""
""fullscreenenter"",""1"",""1964""
","
","
","""event"",""trial"",""time""
""fullscreenenter"",""1"",""1964""
","
","","","760.6999999880791","","","16","3165","1443","&#9752;","elianto","#f73b6a7A"," "," ","1","0","[1615.199999988079]","1","1","","","3165","14","3","3","lose","go","0"
"pit-trial","77","733237","0.0-18.0","battery-v0.2","","""event"",""trial"",""time""
""fullscreenenter"",""1"",""1964""
","
","
","""event"",""trial"",""time""
""fullscreenenter"",""1"",""1964""
","
","","","-1","","","16","3165","1443","&#9733;","elianto","#3366ff99","-1","-1","1","0","[]","0","1","","","3165","15","2","2","win","no-go","1"
"pit-trial","78","737684","0.0-19.0","battery-v0.2","","""event"",""trial"",""time""
""fullscreenenter"",""1"",""1964""
","
","
","""event"",""trial"",""time""
""fullscreenenter"",""1"",""1964""
","
","","","1589.699999988079","","","16","3165","1443","&#9728;","elianto","#f73b6a7A","-1"," ","0","-10","[2442.5]","1","1","","","3165","16","0","4","lose","no-go","0"
"pit-trial","79","742542","0.0-20.0","battery-v0.2","","""event"",""trial"",""time""
""fullscreenenter"",""1"",""1964""
","
","
","""event"",""trial"",""time""
""fullscreenenter"",""1"",""1964""
","
","","","-1","","","16","3165","1443","&#9733;","elianto","#3366ff99","-1","-1","1","+10","[]","0","1","","","3165","17","2","2","win","no-go","0"
"pit-trial","80","746238","0.0-21.0","battery-v0.2","","""event"",""trial"",""time""
""fullscreenenter"",""1"",""1964""
","
","
","""event"",""trial"",""time""
""fullscreenenter"",""1"",""1964""
","
","","","836.6999999880791","","","16","3165","1443","&#9730;","elianto","#3366ff99"," "," ","1","+10","[1688.3999999761581]","1","1","","","3165","18","1","1","win","go","0"
"pit-trial","81","749978","0.0-22.0","battery-v0.2","","""event"",""trial"",""time""
""fullscreenenter"",""1"",""1964""
","
","
","""event"",""trial"",""time""
""fullscreenenter"",""1"",""1964""
","
","","","883.5","","","16","3165","1443","&#9752;","elianto","#f73b6a7A"," "," ","1","0","[1737.5]","1","1","","","3165","19","3","3","lose","go","0"
"pit-trial","82","754837","0.0-23.0","battery-v0.2","","""event"",""trial"",""time""
""fullscreenenter"",""1"",""1964""
","
","
","""event"",""trial"",""time""
""fullscreenenter"",""1"",""1964""
","
","","","-1","","","16","3165","1443","&#9728;","elianto","#f73b6a7A","-1","-1","1","0","[]","0","1","","","3165","20","0","4","lose","no-go","0"
"pit-instructions","83","768112","0.0-24.0","battery-v0.2","","""event"",""trial"",""time""
""fullscreenenter"",""1"",""1964""
","
","
","""event"",""trial"",""time""
""fullscreenenter"",""1"",""1964""
","
","","[{""page_index"":0,""viewing_time"":6204.800000011921},{""page_index"":1,""viewing_time"":7068.199999988079}]","13273.400000035763","","","","","","","","","","","","","","","","","","","","","","","",""
"pit-trial","84","772972","0.0-25.0","battery-v0.2","","""event"",""trial"",""time""
""fullscreenenter"",""1"",""1964""
","
","
","""event"",""trial"",""time""
""fullscreenenter"",""1"",""1964""
","
","","","-1","","","16","3165","1443","j","elianto","#f73b6a7A","-1","-1","1","0","[]","0","2","","","3165","21","0","4","lose","no-go","0"
"pit-trial","85","777262","0.0-26.0","battery-v0.2","","""event"",""trial"",""time""
""fullscreenenter"",""1"",""1964""
","
","
","""event"",""trial"",""time""
""fullscreenenter"",""1"",""1964""
","
","","","1433.5999999642372","","","16","3165","1443","e","elianto","#f73b6a7A","-1"," ","0","-10","[2285.2000000476837]","1","2","","","3165","22","2","4","lose","no-go","0"
"pit-trial","86","782122","0.0-27.0","battery-v0.2","","""event"",""trial"",""time""
""fullscreenenter"",""1"",""1964""
","
","
","""event"",""trial"",""time""
""fullscreenenter"",""1"",""1964""
","
","","","-1","","","16","3165","1443","w","elianto","#f73b6a7A"," ","-1","0","-10","[]","0","2","","","3165","23","3","3","lose","go","0"
"pit-trial","87","786353","0.0-28.0","battery-v0.2","","""event"",""trial"",""time""
""fullscreenenter"",""1"",""1964""
","
","
","""event"",""trial"",""time""
""fullscreenenter"",""1"",""1964""
","
","","","1376.1000000238419","","","16","3165","1443","d","elianto","#3366ff99"," "," ","1","+10","[2226.5]","1","2","","","3165","24","1","1","win","go","0"
"pit-trial","88","791212","0.0-29.0","battery-v0.2","","""event"",""trial"",""time""
""fullscreenenter"",""1"",""1964""
","
","
","""event"",""trial"",""time""
""fullscreenenter"",""1"",""1964""
","
","","","-1","","","16","3165","1443","j","elianto","#f73b6a7A","-1","-1","1","0","[]","0","2","","","3165","25","0","4","lose","no-go","0"
"pit-trial","89","796067","0.0-30.0","battery-v0.2","","""event"",""trial"",""time""
""fullscreenenter"",""1"",""1964""
","
","
","""event"",""trial"",""time""
""fullscreenenter"",""1"",""1964""
","
","","","-1","","","16","3165","1443","e","elianto","#f73b6a7A","-1","-1","1","0","[]","0","2","","","3165","26","2","4","lose","no-go","0"
"pit-trial","90","800366","0.0-31.0","battery-v0.2","","""event"",""trial"",""time""
""fullscreenenter"",""1"",""1964""
","
","
","""event"",""trial"",""time""
""fullscreenenter"",""1"",""1964""
","
","","","1443.199999988079","","","16","3165","1443","d","elianto","#3366ff99"," "," ","1","+10","[2294.599999964237]","1","2","","","3165","27","1","1","win","go","0"
"pit-trial","91","803983","0.0-32.0","battery-v0.2","","""event"",""trial"",""time""
""fullscreenenter"",""1"",""1964""
","
","
","""event"",""trial"",""time""
""fullscreenenter"",""1"",""1964""
","
","","","761.8000000119209","","","16","3165","1443","w","elianto","#f73b6a7A"," "," ","1","-10","[1613.9000000357628]","1","2","","","3165","28","3","3","lose","go","1"
"pit-trial","92","808151","0.0-33.0","battery-v0.2","","""event"",""trial"",""time""
""fullscreenenter"",""1"",""1964""
","
","
","""event"",""trial"",""time""
""fullscreenenter"",""1"",""1964""
","
","","","1313.0999999642372","","","16","3165","1443","d","elianto","#3366ff99"," "," ","1","+10","[2164.899999976158]","1","2","","","3165","29","1","1","win","go","0"
"pit-trial","93","812691","0.0-34.0","battery-v0.2","","""event"",""trial"",""time""
""fullscreenenter"",""1"",""1964""
","
","
","""event"",""trial"",""time""
""fullscreenenter"",""1"",""1964""
","
","","","1681.2000000476837","","","16","3165","1443","j","elianto","#f73b6a7A","-1"," ","0","-10","[2532.600000023842]","1","2","","","3165","30","0","4","lose","no-go","0"
"pit-trial","94","816900","0.0-35.0","battery-v0.2","","""event"",""trial"",""time""
""fullscreenenter"",""1"",""1964""
","
","
","""event"",""trial"",""time""
""fullscreenenter"",""1"",""1964""
","
","","","1351.300000011921","","","16","3165","1443","w","elianto","#f73b6a7A"," "," ","1","0","[2203.599999964237]","1","2","","","3165","31","3","3","lose","go","0"
"pit-trial","95","821758","0.0-36.0","battery-v0.2","","""event"",""trial"",""time""
""fullscreenenter"",""1"",""1964""
","
","
","""event"",""trial"",""time""
""fullscreenenter"",""1"",""1964""
","
","","","-1","","","16","3165","1443","e","elianto","#f73b6a7A","-1","-1","1","0","[]","0","2","","","3165","32","2","4","lose","no-go","0"
"pit-trial","96","825979","0.0-37.0","battery-v0.2","","""event"",""trial"",""time""
""fullscreenenter"",""1"",""1964""
","
","
","""event"",""trial"",""time""
""fullscreenenter"",""1"",""1964""
","
","","","1361.800000011921","","","16","3165","1443","w","elianto","#f73b6a7A"," "," ","1","-10","[2213.7000000476837]","1","2","","","3165","33","3","3","lose","go","1"
"pit-trial","97","830838","0.0-38.0","battery-v0.2","","""event"",""trial"",""time""
""fullscreenenter"",""1"",""1964""
","
","
","""event"",""trial"",""time""
""fullscreenenter"",""1"",""1964""
","
","","","-1","","","16","3165","1443","e","elianto","#f73b6a7A","-1","-1","1","0","[]","0","2","","","3165","34","2","4","lose","no-go","0"
"pit-trial","98","834616","0.0-39.0","battery-v0.2","","""event"",""trial"",""time""
""fullscreenenter"",""1"",""1964""
","
","
","""event"",""trial"",""time""
""fullscreenenter"",""1"",""1964""
","
","","","924","","","16","3165","1443","d","elianto","#3366ff99"," "," ","1","+10","[1774.9000000357628]","1","2","","","3165","35","1","1","win","go","0"
"pit-trial","99","839476","0.0-40.0","battery-v0.2","","""event"",""trial"",""time""
""fullscreenenter"",""1"",""1964""
","
","
","""event"",""trial"",""time""
""fullscreenenter"",""1"",""1964""
","
","","","-1","","","16","3165","1443","j","elianto","#f73b6a7A","-1","-1","1","-10","[]","0","2","","","3165","36","0","4","lose","no-go","1"
"pit-trial","100","843419","0.0-41.0","battery-v0.2","","""event"",""trial"",""time""
""fullscreenenter"",""1"",""1964""
","
","
","""event"",""trial"",""time""
""fullscreenenter"",""1"",""1964""
","
","","","1087.800000011921","","","16","3165","1443","w","elianto","#f73b6a7A"," "," ","1","-10","[1939.699999988079]","1","2","","","3165","37","3","3","lose","go","1"
"pit-trial","101","847411","0.0-42.0","battery-v0.2","","""event"",""trial"",""time""
""fullscreenenter"",""1"",""1964""
","
","
","""event"",""trial"",""time""
""fullscreenenter"",""1"",""1964""
","
","","","1134.800000011921","","","16","3165","1443","j","elianto","#f73b6a7A","-1"," ","0","-10","[1984.800000011921]","1","2","","","3165","38","0","4","lose","no-go","0"
"pit-trial","102","851236","0.0-43.0","battery-v0.2","","""event"",""trial"",""time""
""fullscreenenter"",""1"",""1964""
","
","
","""event"",""trial"",""time""
""fullscreenenter"",""1"",""1964""
","
","","","964.5999999642372","","","16","3165","1443","d","elianto","#3366ff99"," "," ","1","+10","[1820]","1","2","","","3165","39","1","1","win","go","0"
"pit-trial","103","856096","0.0-44.0","battery-v0.2","","""event"",""trial"",""time""
""fullscreenenter"",""1"",""1964""
","
","
","""event"",""trial"",""time""
""fullscreenenter"",""1"",""1964""
","
","","","-1","","","16","3165","1443","e","elianto","#f73b6a7A","-1","-1","1","0","[]","0","2","","","3165","40","2","4","lose","no-go","0"
"pit-trial","104","859840","0.0-45.0","battery-v0.2","","""event"",""trial"",""time""
""fullscreenenter"",""1"",""1964""
","
","
","""event"",""trial"",""time""
""fullscreenenter"",""1"",""1964""
","
","","","886.6999999880791","","","16","3165","1443","d","elianto","#3366ff99"," "," ","1","+10","[1738.199999988079]","1","2","","","3165","41","1","1","win","go","0"
"pit-trial","105","864699","0.0-46.0","battery-v0.2","","""event"",""trial"",""time""
""fullscreenenter"",""1"",""1964""
","
","
","""event"",""trial"",""time""
""fullscreenenter"",""1"",""1964""
","
","","","-1","","","16","3165","1443","e","elianto","#f73b6a7A","-1","-1","1","0","[]","0","2","","","3165","42","2","4","lose","no-go","0"
"pit-trial","106","869558","0.0-47.0","battery-v0.2","","""event"",""trial"",""time""
""fullscreenenter"",""1"",""1964""
","
","
","""event"",""trial"",""time""
""fullscreenenter"",""1"",""1964""
","
","","","-1","","","16","3165","1443","w","elianto","#f73b6a7A"," ","-1","0","0","[]","0","2","","","3165","43","3","3","lose","go","1"
"pit-trial","107","874417","0.0-48.0","battery-v0.2","","""event"",""trial"",""time""
""fullscreenenter"",""1"",""1964""
","
","
","""event"",""trial"",""time""
""fullscreenenter"",""1"",""1964""
","
","","","-1","","","16","3165","1443","j","elianto","#f73b6a7A","-1","-1","1","0","[]","0","2","","","3165","44","0","4","lose","no-go","0"
"pit-trial","108","879275","0.0-49.0","battery-v0.2","","""event"",""trial"",""time""
""fullscreenenter"",""1"",""1964""
","
","
","""event"",""trial"",""time""
""fullscreenenter"",""1"",""1964""
","
","","","-1","","","16","3165","1443","w","elianto","#f73b6a7A"," ","-1","0","-10","[]","0","2","","","3165","45","3","3","lose","go","0"
"pit-trial","109","884136","0.0-50.0","battery-v0.2","","""event"",""trial"",""time""
""fullscreenenter"",""1"",""1964""
","
","
","""event"",""trial"",""time""
""fullscreenenter"",""1"",""1964""
","
","","","-1","","","16","3165","1443","j","elianto","#f73b6a7A","-1","-1","1","0","[]","0","2","","","3165","46","0","4","lose","no-go","0"
"pit-trial","110","888517","0.0-51.0","battery-v0.2","","""event"",""trial"",""time""
""fullscreenenter"",""1"",""1964""
","
","
","""event"",""trial"",""time""
""fullscreenenter"",""1"",""1964""
","
","","","1526.800000011921","","","16","3165","1443","s","elianto","#3366ff99","-1"," ","0","+10","[2378.099999964237]","1","2","","","3165","47","4","2","win","no-go","1"
"pit-trial","111","893370","0.0-52.0","battery-v0.2","","""event"",""trial"",""time""
""fullscreenenter"",""1"",""1964""
","
","
","""event"",""trial"",""time""
""fullscreenenter"",""1"",""1964""
","
","","","-1","","","16","3165","1443","e","elianto","#f73b6a7A","-1","-1","1","0","[]","0","2","","","3165","48","2","4","lose","no-go","0"
"pit-trial","112","898229","0.0-53.0","battery-v0.2","","""event"",""trial"",""time""
""fullscreenenter"",""1"",""1964""
","
","
","""event"",""trial"",""time""
""fullscreenenter"",""1"",""1964""
","
","","","-1","","","16","3165","1443","w","elianto","#f73b6a7A"," ","-1","0","0","[]","0","2","","","3165","49","3","3","lose","go","1"
"pit-trial","113","903090","0.0-54.0","battery-v0.2","","""event"",""trial"",""time""
""fullscreenenter"",""1"",""1964""
","
","
","""event"",""trial"",""time""
""fullscreenenter"",""1"",""1964""
","
","","","-1","","","16","3165","1443","j","elianto","#f73b6a7A","-1","-1","1","0","[]","0","2","","","3165","50","0","4","lose","no-go","0"
"pit-trial","114","906925","0.0-55.0","battery-v0.2","","""event"",""trial"",""time""
""fullscreenenter"",""1"",""1964""
","
","
","""event"",""trial"",""time""
""fullscreenenter"",""1"",""1964""
","
","","","980.3000000119209","","","16","3165","1443","d","elianto","#3366ff99"," "," ","1","+10","[1831.2000000476837]","1","2","","","3165","51","1","1","win","go","0"
"pit-trial","115","911070","0.0-56.0","battery-v0.2","","""event"",""trial"",""time""
""fullscreenenter"",""1"",""1964""
","
","
","""event"",""trial"",""time""
""fullscreenenter"",""1"",""1964""
","
","","","1287.5","","","16","3165","1443","s","elianto","#3366ff99","-1"," ","0","0","[2138.800000011921]","1","2","","","3165","52","4","2","win","no-go","0"
"pit-trial","116","915929","0.0-57.0","battery-v0.2","","""event"",""trial"",""time""
""fullscreenenter"",""1"",""1964""
","
","
","""event"",""trial"",""time""
""fullscreenenter"",""1"",""1964""
","
","","","-1","","","16","3165","1443","e","elianto","#f73b6a7A","-1","-1","1","0","[]","0","2","","","3165","53","2","4","lose","no-go","0"
"pit-trial","117","919773","0.0-58.0","battery-v0.2","","""event"",""trial"",""time""
""fullscreenenter"",""1"",""1964""
","
","
","""event"",""trial"",""time""
""fullscreenenter"",""1"",""1964""
","
","","","985.5","","","16","3165","1443","s","elianto","#3366ff99","-1"," ","0","0","[1837.2999999523163]","1","2","","","3165","54","4","2","win","no-go","0"
"pit-trial","118","923597","0.0-59.0","battery-v0.2","","""event"",""trial"",""time""
""fullscreenenter"",""1"",""1964""
","
","
","""event"",""trial"",""time""
""fullscreenenter"",""1"",""1964""
","
","","","969.3000000119209","","","16","3165","1443","d","elianto","#3366ff99"," "," ","1","+10","[1819.6000000238419]","1","2","","","3165","55","1","1","win","go","0"
"pit-trial","119","928456","0.0-60.0","battery-v0.2","","""event"",""trial"",""time""
""fullscreenenter"",""1"",""1964""
","
","
","""event"",""trial"",""time""
""fullscreenenter"",""1"",""1964""
","
","","","-1","","","16","3165","1443","j","elianto","#f73b6a7A","-1","-1","1","0","[]","0","2","","","3165","56","0","4","lose","no-go","0"
"pit-trial","120","933315","0.0-61.0","battery-v0.2","","""event"",""trial"",""time""
""fullscreenenter"",""1"",""1964""
","
","
","""event"",""trial"",""time""
""fullscreenenter"",""1"",""1964""
","
","","","-1","","","16","3165","1443","w","elianto","#f73b6a7A"," ","-1","0","0","[]","0","2","","","3165","57","3","3","lose","go","1"
"pit-trial","121","938174","0.0-62.0","battery-v0.2","","""event"",""trial"",""time""
""fullscreenenter"",""1"",""1964""
","
","
","""event"",""trial"",""time""
""fullscreenenter"",""1"",""1964""
","
","","","-1","","","16","3165","1443","j","elianto","#f73b6a7A","-1","-1","1","0","[]","0","2","","","3165","58","0","4","lose","no-go","0"
"pit-trial","122","942052","0.0-63.0","battery-v0.2","","""event"",""trial"",""time""
""fullscreenenter"",""1"",""1964""
","
","
","""event"",""trial"",""time""
""fullscreenenter"",""1"",""1964""
","
","","","1018.3999999761581","","","16","3165","1443","d","elianto","#3366ff99"," "," ","1","+10","[1872.2999999523163]","1","2","","","3165","59","1","1","win","go","0"
"pit-trial","123","946910","0.0-64.0","battery-v0.2","","""event"",""trial"",""time""
""fullscreenenter"",""1"",""1964""
","
","
","""event"",""trial"",""time""
""fullscreenenter"",""1"",""1964""
","
","","","-1","","","16","3165","1443","s","elianto","#3366ff99","-1","-1","1","+10","[]","0","2","","","3165","60","4","2","win","no-go","0"
"pit-trial","124","951772","0.0-65.0","battery-v0.2","","""event"",""trial"",""time""
""fullscreenenter"",""1"",""1964""
","
","
","""event"",""trial"",""time""
""fullscreenenter"",""1"",""1964""
","
","","","-1","","","16","3165","1443","s","elianto","#3366ff99","-1","-1","1","0","[]","0","2","","","3165","61","4","2","win","no-go","1"
"pit-trial","125","955484","0.0-66.0","battery-v0.2","","""event"",""trial"",""time""
""fullscreenenter"",""1"",""1964""
","
","
","""event"",""trial"",""time""
""fullscreenenter"",""1"",""1964""
","
","","","858.3999999761581","","","16","3165","1443","d","elianto","#3366ff99"," "," ","1","0","[1708.6000000238419]","1","2","","","3165","62","1","1","win","go","1"
"pit-trial","126","960343","0.0-67.0","battery-v0.2","","""event"",""trial"",""time""
""fullscreenenter"",""1"",""1964""
","
","
","""event"",""trial"",""time""
""fullscreenenter"",""1"",""1964""
","
","","","-1","","","16","3165","1443","w","elianto","#f73b6a7A"," ","-1","0","-10","[]","0","2","","","3165","63","3","3","lose","go","0"
"pit-trial","127","965202","0.0-68.0","battery-v0.2","","""event"",""trial"",""time""
""fullscreenenter"",""1"",""1964""
","
","
","""event"",""trial"",""time""
""fullscreenenter"",""1"",""1964""
","
","","","-1","","","16","3165","1443","e","elianto","#f73b6a7A","-1","-1","1","0","[]","0","2","","","3165","64","2","4","lose","no-go","0"
"pit-trial","128","970061","0.0-69.0","battery-v0.2","","""event"",""trial"",""time""
""fullscreenenter"",""1"",""1964""
","
","
","""event"",""trial"",""time""
""fullscreenenter"",""1"",""1964""
","
","","","-1","","","16","3165","1443","s","elianto","#3366ff99","-1","-1","1","+10","[]","0","2","","","3165","65","4","2","win","no-go","0"
"pit-trial","129","973691","0.0-70.0","battery-v0.2","","""event"",""trial"",""time""
""fullscreenenter"",""1"",""1964""
","
","
","""event"",""trial"",""time""
""fullscreenenter"",""1"",""1964""
","
","","","774.3999999761581","","","16","3165","1443","d","elianto","#3366ff99"," "," ","1","0","[1626.1000000238419]","1","2","","","3165","66","1","1","win","go","1"
"pit-trial","130","978548","0.0-71.0","battery-v0.2","","""event"",""trial"",""time""
""fullscreenenter"",""1"",""1964""
","
","
","""event"",""trial"",""time""
""fullscreenenter"",""1"",""1964""
","
","","","-1","","","16","3165","1443","e","elianto","#f73b6a7A","-1","-1","1","0","[]","0","2","","","3165","67","2","4","lose","no-go","0"
"pit-trial","131","983407","0.0-72.0","battery-v0.2","","""event"",""trial"",""time""
""fullscreenenter"",""1"",""1964""
","
","
","""event"",""trial"",""time""
""fullscreenenter"",""1"",""1964""
","
","","","-1","","","16","3165","1443","w","elianto","#f73b6a7A"," ","-1","0","-10","[]","0","2","","","3165","68","3","3","lose","go","0"
"pit-trial","132","987133","0.0-73.0","battery-v0.2","","""event"",""trial"",""time""
""fullscreenenter"",""1"",""1964""
","
","
","""event"",""trial"",""time""
""fullscreenenter"",""1"",""1964""
","
","","","870.5999999642372","","","16","3165","1443","d","elianto","#3366ff99"," "," ","1","0","[1721.7999999523163]","1","2","","","3165","69","1","1","win","go","1"
"pit-trial","133","991296","0.0-74.0","battery-v0.2","","""event"",""trial"",""time""
""fullscreenenter"",""1"",""1964""
","
","
","""event"",""trial"",""time""
""fullscreenenter"",""1"",""1964""
","
","","","1305.5","","","16","3165","1443","p","elianto","#3366ff99"," "," ","1","+10","[2160.199999988079]","1","2","","","3165","70","5","1","win","go","0"
"pit-trial","134","995412","0.0-75.0","battery-v0.2","","""event"",""trial"",""time""
""fullscreenenter"",""1"",""1964""
","
","
","""event"",""trial"",""time""
""fullscreenenter"",""1"",""1964""
","
","","","1259.199999988079","","","16","3165","1443","w","elianto","#f73b6a7A"," "," ","1","0","[2110.399999976158]","1","2","","","3165","71","3","3","lose","go","0"
"pit-trial","135","999655","0.0-76.0","battery-v0.2","","""event"",""trial"",""time""
""fullscreenenter"",""1"",""1964""
","
","
","""event"",""trial"",""time""
""fullscreenenter"",""1"",""1964""
","
","","","1388.6000000238419","","","16","3165","1443","s","elianto","#3366ff99","-1"," ","0","0","[2240]","1","2","","","3165","72","4","2","win","no-go","0"
"pit-trial","136","1004514","0.0-77.0","battery-v0.2","","""event"",""trial"",""time""
""fullscreenenter"",""1"",""1964""
","
","
","""event"",""trial"",""time""
""fullscreenenter"",""1"",""1964""
","
","","","-1","","","16","3165","1443","d","elianto","#3366ff99"," ","-1","0","0","[]","0","2","","","3165","73","1","1","win","go","0"
"pit-trial","137","1008996","0.0-78.0","battery-v0.2","","""event"",""trial"",""time""
""fullscreenenter"",""1"",""1964""
","
","
","""event"",""trial"",""time""
""fullscreenenter"",""1"",""1964""
","
","","","1623.2000000476837","","","16","3165","1443","s","elianto","#3366ff99","-1"," ","0","0","[2477]","1","2","","","3165","74","4","2","win","no-go","0"
"pit-trial","138","1013030","0.0-79.0","battery-v0.2","","""event"",""trial"",""time""
""fullscreenenter"",""1"",""1964""
","
","
","""event"",""trial"",""time""
""fullscreenenter"",""1"",""1964""
","
","","","1175.5999999642372","","","16","3165","1443","p","elianto","#3366ff99"," "," ","1","+10","[2028.0999999642372]","1","2","","","3165","75","5","1","win","go","0"
"pit-trial","139","1017889","0.0-80.0","battery-v0.2","","""event"",""trial"",""time""
""fullscreenenter"",""1"",""1964""
","
","
","""event"",""trial"",""time""
""fullscreenenter"",""1"",""1964""
","
","","","-1","","","16","3165","1443","w","elianto","#f73b6a7A"," ","-1","0","-10","[]","0","2","","","3165","76","3","3","lose","go","0"
"pit-trial","140","1022748","0.0-81.0","battery-v0.2","","""event"",""trial"",""time""
""fullscreenenter"",""1"",""1964""
","
","
","""event"",""trial"",""time""
""fullscreenenter"",""1"",""1964""
","
","","","-1","","","16","3165","1443","s","elianto","#3366ff99","-1","-1","1","+10","[]","0","2","","","3165","77","4","2","win","no-go","0"
"pit-trial","141","1026823","0.0-82.0","battery-v0.2","","""event"",""trial"",""time""
""fullscreenenter"",""1"",""1964""
","
","
","""event"",""trial"",""time""
""fullscreenenter"",""1"",""1964""
","
","","","1220.699999988079","","","16","3165","1443","w","elianto","#f73b6a7A"," "," ","1","0","[2071.7999999523163]","1","2","","","3165","78","3","3","lose","go","0"
"pit-trial","142","1031276","0.0-83.0","battery-v0.2","","""event"",""trial"",""time""
""fullscreenenter"",""1"",""1964""
","
","
","""event"",""trial"",""time""
""fullscreenenter"",""1"",""1964""
","
","","","1595.4000000357628","","","16","3165","1443","p","elianto","#3366ff99"," "," ","1","+10","[2446.5]","1","2","","","3165","79","5","1","win","go","0"
"pit-trial","143","1036134","0.0-84.0","battery-v0.2","","""event"",""trial"",""time""
""fullscreenenter"",""1"",""1964""
","
","
","""event"",""trial"",""time""
""fullscreenenter"",""1"",""1964""
","
","","","-1","","","16","3165","1443","g","elianto","#f73b6a7A","-1","-1","1","0","[]","0","2","","","3165","80","6","4","lose","no-go","0"
"pit-trial","144","1040993","0.0-85.0","battery-v0.2","","""event"",""trial"",""time""
""fullscreenenter"",""1"",""1964""
","
","
","""event"",""trial"",""time""
""fullscreenenter"",""1"",""1964""
","
","","","-1","","","16","3165","1443","s","elianto","#3366ff99","-1","-1","1","+10","[]","0","2","","","3165","81","4","2","win","no-go","0"
"pit-trial","145","1044909","0.0-86.0","battery-v0.2","","""event"",""trial"",""time""
""fullscreenenter"",""1"",""1964""
","
","
","""event"",""trial"",""time""
""fullscreenenter"",""1"",""1964""
","
","","","1056.699999988079","","","16","3165","1443","p","elianto","#3366ff99"," "," ","1","+10","[1911]","1","2","","","3165","82","5","1","win","go","0"
"pit-trial","146","1049765","0.0-87.0","battery-v0.2","","""event"",""trial"",""time""
""fullscreenenter"",""1"",""1964""
","
","
","""event"",""trial"",""time""
""fullscreenenter"",""1"",""1964""
","
","","","-1","","","16","3165","1443","g","elianto","#f73b6a7A","-1","-1","1","0","[]","0","2","","","3165","83","6","4","lose","no-go","0"
"pit-trial","147","1054624","0.0-88.0","battery-v0.2","","""event"",""trial"",""time""
""fullscreenenter"",""1"",""1964""
","
","
","""event"",""trial"",""time""
""fullscreenenter"",""1"",""1964""
","
","","","-1","","","16","3165","1443","a","elianto","#f73b6a7A"," ","-1","0","0","[]","0","2","","","3165","84","7","3","lose","go","1"
"pit-trial","148","1059482","0.0-89.0","battery-v0.2","","""event"",""trial"",""time""
""fullscreenenter"",""1"",""1964""
","
","
","""event"",""trial"",""time""
""fullscreenenter"",""1"",""1964""
","
","","","-1","","","16","3165","1443","g","elianto","#f73b6a7A","-1","-1","1","0","[]","0","2","","","3165","85","6","4","lose","no-go","0"
"pit-trial","149","1064343","0.0-90.0","battery-v0.2","","""event"",""trial"",""time""
""fullscreenenter"",""1"",""1964""
","
","
","""event"",""trial"",""time""
""fullscreenenter"",""1"",""1964""
","
","","","-1","","","16","3165","1443","a","elianto","#f73b6a7A"," ","-1","0","-10","[]","0","2","","","3165","86","7","3","lose","go","0"
"pit-trial","150","1068997","0.0-91.0","battery-v0.2","","""event"",""trial"",""time""
""fullscreenenter"",""1"",""1964""
","
","
","""event"",""trial"",""time""
""fullscreenenter"",""1"",""1964""
","
","","","1798.199999988079","","","16","3165","1443","p","elianto","#3366ff99"," "," ","1","+10","[2648.599999964237]","1","2","","","3165","87","5","1","win","go","0"
"pit-trial","151","1073858","0.0-92.0","battery-v0.2","","""event"",""trial"",""time""
""fullscreenenter"",""1"",""1964""
","
","
","""event"",""trial"",""time""
""fullscreenenter"",""1"",""1964""
","
","","","-1","","","16","3165","1443","s","elianto","#3366ff99","-1","-1","1","+10","[]","0","2","","","3165","88","4","2","win","no-go","0"
"pit-trial","152","1077850","0.0-93.0","battery-v0.2","","""event"",""trial"",""time""
""fullscreenenter"",""1"",""1964""
","
","
","""event"",""trial"",""time""
""fullscreenenter"",""1"",""1964""
","
","","","1131.3999999761581","","","16","3165","1443","p","elianto","#3366ff99"," "," ","1","+10","[1985.699999988079]","1","2","","","3165","89","5","1","win","go","0"
"pit-trial","153","1082291","0.0-94.0","battery-v0.2","","""event"",""trial"",""time""
""fullscreenenter"",""1"",""1964""
","
","
","""event"",""trial"",""time""
""fullscreenenter"",""1"",""1964""
","
","","","1582.199999988079","","","16","3165","1443","a","elianto","#f73b6a7A"," "," ","1","-10","[2433.300000011921]","1","2","","","3165","90","7","3","lose","go","1"
"pit-trial","154","1087150","0.0-95.0","battery-v0.2","","""event"",""trial"",""time""
""fullscreenenter"",""1"",""1964""
","
","
","""event"",""trial"",""time""
""fullscreenenter"",""1"",""1964""
","
","","","-1","","","16","3165","1443","g","elianto","#f73b6a7A","-1","-1","1","0","[]","0","2","","","3165","91","6","4","lose","no-go","0"
"pit-trial","155","1092009","0.0-96.0","battery-v0.2","","""event"",""trial"",""time""
""fullscreenenter"",""1"",""1964""
","
","
","""event"",""trial"",""time""
""fullscreenenter"",""1"",""1964""
","
","","","-1","","","16","3165","1443","s","elianto","#3366ff99","-1","-1","1","+10","[]","0","2","","","3165","92","4","2","win","no-go","0"
"pit-trial","156","1096867","0.0-97.0","battery-v0.2","","""event"",""trial"",""time""
""fullscreenenter"",""1"",""1964""
","
","
","""event"",""trial"",""time""
""fullscreenenter"",""1"",""1964""
","
","","","-1","","","16","3165","1443","a","elianto","#f73b6a7A"," ","-1","0","-10","[]","0","2","","","3165","93","7","3","lose","go","0"
"pit-trial","157","1101729","0.0-98.0","battery-v0.2","","""event"",""trial"",""time""
""fullscreenenter"",""1"",""1964""
","
","
","""event"",""trial"",""time""
""fullscreenenter"",""1"",""1964""
","
","","","-1","","","16","3165","1443","g","elianto","#f73b6a7A","-1","-1","1","-10","[]","0","2","","","3165","94","6","4","lose","no-go","1"
"pit-trial","158","1106400","0.0-99.0","battery-v0.2","","""event"",""trial"",""time""
""fullscreenenter"",""1"",""1964""
","
","
","""event"",""trial"",""time""
""fullscreenenter"",""1"",""1964""
","
","","","1809.300000011921","","","16","3165","1443","l","elianto","#3366ff99","-1"," ","0","0","[2663.800000011921]","1","2","","","3165","95","8","2","win","no-go","0"
"pit-trial","159","1110296","0.0-100.0","battery-v0.2","","""event"",""trial"",""time""
""fullscreenenter"",""1"",""1964""
","
","
","""event"",""trial"",""time""
""fullscreenenter"",""1"",""1964""
","
","","","1041.3999999761581","","","16","3165","1443","p","elianto","#3366ff99"," "," ","1","0","[1892]","1","2","","","3165","96","5","1","win","go","1"
"pit-trial","160","1115153","0.0-101.0","battery-v0.2","","""event"",""trial"",""time""
""fullscreenenter"",""1"",""1964""
","
","
","""event"",""trial"",""time""
""fullscreenenter"",""1"",""1964""
","
","","","-1","","","16","3165","1443","g","elianto","#f73b6a7A","-1","-1","1","0","[]","0","2","","","3165","97","6","4","lose","no-go","0"
"pit-trial","161","1118991","0.0-102.0","battery-v0.2","","""event"",""trial"",""time""
""fullscreenenter"",""1"",""1964""
","
","
","""event"",""trial"",""time""
""fullscreenenter"",""1"",""1964""
","
","","","979.5","","","16","3165","1443","p","elianto","#3366ff99"," "," ","1","+10","[1830.5]","1","2","","","3165","98","5","1","win","go","0"
"pit-trial","162","1123850","0.0-103.0","battery-v0.2","","""event"",""trial"",""time""
""fullscreenenter"",""1"",""1964""
","
","
","""event"",""trial"",""time""
""fullscreenenter"",""1"",""1964""
","
","","","-1","","","16","3165","1443","a","elianto","#f73b6a7A"," ","-1","0","-10","[]","0","2","","","3165","99","7","3","lose","go","0"
"pit-trial","163","1128418","0.0-104.0","battery-v0.2","","""event"",""trial"",""time""
""fullscreenenter"",""1"",""1964""
","
","
","""event"",""trial"",""time""
""fullscreenenter"",""1"",""1964""
","
","","","1709.3999999761581","","","16","3165","1443","l","elianto","#3366ff99","-1"," ","0","0","[2560.800000011921]","1","2","","","3165","100","8","2","win","no-go","0"
"pit-trial","164","1133278","0.0-105.0","battery-v0.2","","""event"",""trial"",""time""
""fullscreenenter"",""1"",""1964""
","
","
","""event"",""trial"",""time""
""fullscreenenter"",""1"",""1964""
","
","","","-1","","","16","3165","1443","l","elianto","#3366ff99","-1","-1","1","+10","[]","0","2","","","3165","101","8","2","win","no-go","0"
"pit-trial","165","1137503","0.0-106.0","battery-v0.2","","""event"",""trial"",""time""
""fullscreenenter"",""1"",""1964""
","
","
","""event"",""trial"",""time""
""fullscreenenter"",""1"",""1964""
","
","","","1369.6000000238419","","","16","3165","1443","p","elianto","#3366ff99"," "," ","1","+10","[2220.5]","1","2","","","3165","102","5","1","win","go","0"
"pit-trial","166","1142362","0.0-107.0","battery-v0.2","","""event"",""trial"",""time""
""fullscreenenter"",""1"",""1964""
","
","
","""event"",""trial"",""time""
""fullscreenenter"",""1"",""1964""
","
","","","-1","","","16","3165","1443","u","elianto","#3366ff99","-1","-1","1","+10","[]","0","2","","","3165","103","9","2","win","no-go","0"
"pit-trial","167","1147222","0.0-108.0","battery-v0.2","","""event"",""trial"",""time""
""fullscreenenter"",""1"",""1964""
","
","
","""event"",""trial"",""time""
""fullscreenenter"",""1"",""1964""
","
","","","-1","","","16","3165","1443","g","elianto","#f73b6a7A","-1","-1","1","-10","[]","0","2","","","3165","104","6","4","lose","no-go","1"
"pit-trial","168","1152080","0.0-109.0","battery-v0.2","","""event"",""trial"",""time""
""fullscreenenter"",""1"",""1964""
","
","
","""event"",""trial"",""time""
""fullscreenenter"",""1"",""1964""
","
","","","-1","","","16","3165","1443","l","elianto","#3366ff99","-1","-1","1","0","[]","0","2","","","3165","105","8","2","win","no-go","1"
"pit-trial","169","1156939","0.0-110.0","battery-v0.2","","""event"",""trial"",""time""
""fullscreenenter"",""1"",""1964""
","
","
","""event"",""trial"",""time""
""fullscreenenter"",""1"",""1964""
","
","","","-1","","","16","3165","1443","u","elianto","#3366ff99","-1","-1","1","+10","[]","0","2","","","3165","106","9","2","win","no-go","0"
"pit-trial","170","1160810","0.0-111.0","battery-v0.2","","""event"",""trial"",""time""
""fullscreenenter"",""1"",""1964""
","
","
","""event"",""trial"",""time""
""fullscreenenter"",""1"",""1964""
","
","","","1015","","","16","3165","1443","p","elianto","#3366ff99"," "," ","1","+10","[1866]","1","2","","","3165","107","5","1","win","go","0"
"pit-trial","171","1165669","0.0-112.0","battery-v0.2","","""event"",""trial"",""time""
""fullscreenenter"",""1"",""1964""
","
","
","""event"",""trial"",""time""
""fullscreenenter"",""1"",""1964""
","
","","","-1","","","16","3165","1443","g","elianto","#f73b6a7A","-1","-1","1","0","[]","0","2","","","3165","108","6","4","lose","no-go","0"
"pit-trial","172","1170529","0.0-113.0","battery-v0.2","","""event"",""trial"",""time""
""fullscreenenter"",""1"",""1964""
","
","
","""event"",""trial"",""time""
""fullscreenenter"",""1"",""1964""
","
","","","-1","","","16","3165","1443","l","elianto","#3366ff99","-1","-1","1","+10","[]","0","2","","","3165","109","8","2","win","no-go","0"
"pit-trial","173","1175387","0.0-114.0","battery-v0.2","","""event"",""trial"",""time""
""fullscreenenter"",""1"",""1964""
","
","
","""event"",""trial"",""time""
""fullscreenenter"",""1"",""1964""
","
","","","-1","","","16","3165","1443","u","elianto","#3366ff99","-1","-1","1","+10","[]","0","2","","","3165","110","9","2","win","no-go","0"
"pit-trial","174","1179009","0.0-115.0","battery-v0.2","","""event"",""trial"",""time""
""fullscreenenter"",""1"",""1964""
","
","
","""event"",""trial"",""time""
""fullscreenenter"",""1"",""1964""
","
","","","767.8999999761581","","","16","3165","1443","p","elianto","#3366ff99"," "," ","1","+10","[1619.699999988079]","1","2","","","3165","111","5","1","win","go","0"
"pit-trial","175","1183869","0.0-116.0","battery-v0.2","","""event"",""trial"",""time""
""fullscreenenter"",""1"",""1964""
","
","
","""event"",""trial"",""time""
""fullscreenenter"",""1"",""1964""
","
","","","-1","","","16","3165","1443","g","elianto","#f73b6a7A","-1","-1","1","0","[]","0","2","","","3165","112","6","4","lose","no-go","0"
"pit-trial","176","1187927","0.0-117.0","battery-v0.2","","""event"",""trial"",""time""
""fullscreenenter"",""1"",""1964""
","
","
","""event"",""trial"",""time""
""fullscreenenter"",""1"",""1964""
","
","","","1203.5","","","16","3165","1443","a","elianto","#f73b6a7A"," "," ","1","0","[2054.199999988079]","1","2","","","3165","113","7","3","lose","go","0"
"pit-trial","177","1192785","0.0-118.0","battery-v0.2","","""event"",""trial"",""time""
""fullscreenenter"",""1"",""1964""
","
","
","""event"",""trial"",""time""
""fullscreenenter"",""1"",""1964""
","
","","","-1","","","16","3165","1443","u","elianto","#3366ff99","-1","-1","1","+10","[]","0","2","","","3165","114","9","2","win","no-go","0"
"pit-trial","178","1197644","0.0-119.0","battery-v0.2","","""event"",""trial"",""time""
""fullscreenenter"",""1"",""1964""
","
","
","""event"",""trial"",""time""
""fullscreenenter"",""1"",""1964""
","
","","","-1","","","16","3165","1443","p","elianto","#3366ff99"," ","-1","0","+10","[3236.300000011921]","1","2","","","3165","115","5","1","win","go","1"
"pit-trial","179","1202503","0.0-120.0","battery-v0.2","","""event"",""trial"",""time""
""fullscreenenter"",""1"",""1964""
","
","
","""event"",""trial"",""time""
""fullscreenenter"",""1"",""1964""
","
","","","-1","","","16","3165","1443","l","elianto","#3366ff99","-1","-1","1","+10","[]","0","2","","","3165","116","8","2","win","no-go","0"
"pit-trial","180","1207364","0.0-121.0","battery-v0.2","","""event"",""trial"",""time""
""fullscreenenter"",""1"",""1964""
","
","
","""event"",""trial"",""time""
""fullscreenenter"",""1"",""1964""
","
","","","-1","","","16","3165","1443","l","elianto","#3366ff99","-1","-1","1","+10","[]","0","2","","","3165","117","8","2","win","no-go","0"
"pit-trial","181","1212220","0.0-122.0","battery-v0.2","","""event"",""trial"",""time""
""fullscreenenter"",""1"",""1964""
","
","
","""event"",""trial"",""time""
""fullscreenenter"",""1"",""1964""
","
","","","-1","","","16","3165","1443","u","elianto","#3366ff99","-1","-1","1","+10","[]","0","2","","","3165","118","9","2","win","no-go","0"
"pit-trial","182","1217079","0.0-123.0","battery-v0.2","","""event"",""trial"",""time""
""fullscreenenter"",""1"",""1964""
","
","
","""event"",""trial"",""time""
""fullscreenenter"",""1"",""1964""
","
","","","-1","","","16","3165","1443","g","elianto","#f73b6a7A","-1","-1","1","0","[]","0","2","","","3165","119","6","4","lose","no-go","0"
"pit-trial","183","1220963","0.0-124.0","battery-v0.2","","""event"",""trial"",""time""
""fullscreenenter"",""1"",""1964""
","
","
","""event"",""trial"",""time""
""fullscreenenter"",""1"",""1964""
","
","","","1022.3000000119209","","","16","3165","1443","p","elianto","#3366ff99"," "," ","1","+10","[1877]","1","2","","","3165","120","5","1","win","go","0"
"pit-trial","184","1224860","0.0-125.0","battery-v0.2","","""event"",""trial"",""time""
""fullscreenenter"",""1"",""1964""
","
","
","""event"",""trial"",""time""
""fullscreenenter"",""1"",""1964""
","
","","","1040.6000000238419","","","16","3165","1443","a","elianto","#f73b6a7A"," "," ","1","0","[1892.1000000238419]","1","2","","","3165","121","7","3","lose","go","0"
"pit-trial","185","1228759","0.0-126.0","battery-v0.2","","""event"",""trial"",""time""
""fullscreenenter"",""1"",""1964""
","
","
","""event"",""trial"",""time""
""fullscreenenter"",""1"",""1964""
","
","","","1046.699999988079","","","16","3165","1443","p","elianto","#3366ff99"," "," ","1","0","[1896.9000000357628]","1","2","","","3165","122","5","1","win","go","1"
"pit-trial","186","1233618","0.0-127.0","battery-v0.2","","""event"",""trial"",""time""
""fullscreenenter"",""1"",""1964""
","
","
","""event"",""trial"",""time""
""fullscreenenter"",""1"",""1964""
","
","","","-1","","","16","3165","1443","l","elianto","#3366ff99","-1","-1","1","+10","[]","0","2","","","3165","123","8","2","win","no-go","0"
"pit-trial","187","1238479","0.0-128.0","battery-v0.2","","""event"",""trial"",""time""
""fullscreenenter"",""1"",""1964""
","
","
","""event"",""trial"",""time""
""fullscreenenter"",""1"",""1964""
","
","","","-1","","","16","3165","1443","u","elianto","#3366ff99","-1","-1","1","+10","[]","0","2","","","3165","124","9","2","win","no-go","0"
"pit-trial","188","1243336","0.0-129.0","battery-v0.2","","""event"",""trial"",""time""
""fullscreenenter"",""1"",""1964""
","
","
","""event"",""trial"",""time""
""fullscreenenter"",""1"",""1964""
","
","","","-1","","","16","3165","1443","u","elianto","#3366ff99","-1","-1","1","+10","[]","0","2","","","3165","125","9","2","win","no-go","0"
"pit-trial","189","1248195","0.0-130.0","battery-v0.2","","""event"",""trial"",""time""
""fullscreenenter"",""1"",""1964""
","
","
","""event"",""trial"",""time""
""fullscreenenter"",""1"",""1964""
","
","","","-1","","","16","3165","1443","g","elianto","#f73b6a7A","-1","-1","1","0","[]","0","2","","","3165","126","6","4","lose","no-go","0"
"pit-trial","190","1253053","0.0-131.0","battery-v0.2","","""event"",""trial"",""time""
""fullscreenenter"",""1"",""1964""
","
","
","""event"",""trial"",""time""
""fullscreenenter"",""1"",""1964""
","
","","","-1","","","16","3165","1443","l","elianto","#3366ff99","-1","-1","1","+10","[]","0","2","","","3165","127","8","2","win","no-go","0"
"pit-trial","191","1256891","0.0-132.0","battery-v0.2","","""event"",""trial"",""time""
""fullscreenenter"",""1"",""1964""
","
","
","""event"",""trial"",""time""
""fullscreenenter"",""1"",""1964""
","
","","","984.6000000238419","","","16","3165","1443","a","elianto","#f73b6a7A"," "," ","1","0","[1835.199999988079]","1","2","","","3165","128","7","3","lose","go","0"
"pit-trial","192","1261111","0.0-133.0","battery-v0.2","","""event"",""trial"",""time""
""fullscreenenter"",""1"",""1964""
","
","
","""event"",""trial"",""time""
""fullscreenenter"",""1"",""1964""
","
","","","1362","","","16","3165","1443","a","elianto","#f73b6a7A"," "," ","1","0","[2213.100000023842]","1","2","","","3165","129","7","3","lose","go","0"
"pit-trial","193","1265970","0.0-134.0","battery-v0.2","","""event"",""trial"",""time""
""fullscreenenter"",""1"",""1964""
","
","
","""event"",""trial"",""time""
""fullscreenenter"",""1"",""1964""
","
","","","-1","","","16","3165","1443","u","elianto","#3366ff99","-1","-1","1","+10","[]","0","2","","","3165","130","9","2","win","no-go","0"
"pit-trial","194","1270828","0.0-135.0","battery-v0.2","","""event"",""trial"",""time""
""fullscreenenter"",""1"",""1964""
","
","
","""event"",""trial"",""time""
""fullscreenenter"",""1"",""1964""
","
","","","-1","","","16","3165","1443","l","elianto","#3366ff99","-1","-1","1","+10","[]","0","2","","","3165","131","8","2","win","no-go","0"
"pit-trial","195","1275687","0.0-136.0","battery-v0.2","","""event"",""trial"",""time""
""fullscreenenter"",""1"",""1964""
","
","
","""event"",""trial"",""time""
""fullscreenenter"",""1"",""1964""
","
","","","-1","","","16","3165","1443","g","elianto","#f73b6a7A","-1","-1","1","-10","[]","0","2","","","3165","132","6","4","lose","no-go","1"
"pit-trial","196","1280546","0.0-137.0","battery-v0.2","","""event"",""trial"",""time""
""fullscreenenter"",""1"",""1964""
","
","
","""event"",""trial"",""time""
""fullscreenenter"",""1"",""1964""
","
","","","-1","","","16","3165","1443","g","elianto","#f73b6a7A","-1","-1","1","-10","[]","0","2","","","3165","133","6","4","lose","no-go","1"
"pit-trial","197","1284874","0.0-138.0","battery-v0.2","","""event"",""trial"",""time""
""fullscreenenter"",""1"",""1964""
","
","
","""event"",""trial"",""time""
""fullscreenenter"",""1"",""1964""
","
","","","1470.8999999761581","","","16","3165","1443","a","elianto","#f73b6a7A"," "," ","1","0","[2323.5]","1","2","","","3165","134","7","3","lose","go","0"
"pit-trial","198","1289730","0.0-139.0","battery-v0.2","","""event"",""trial"",""time""
""fullscreenenter"",""1"",""1964""
","
","
","""event"",""trial"",""time""
""fullscreenenter"",""1"",""1964""
","
","","","-1","","","16","3165","1443","u","elianto","#3366ff99","-1","-1","1","+10","[]","0","2","","","3165","135","9","2","win","no-go","0"
"pit-trial","199","1294590","0.0-140.0","battery-v0.2","","""event"",""trial"",""time""
""fullscreenenter"",""1"",""1964""
","
","
","""event"",""trial"",""time""
""fullscreenenter"",""1"",""1964""
","
","","","-1","","","16","3165","1443","l","elianto","#3366ff99","-1","-1","1","+10","[]","0","2","","","3165","136","8","2","win","no-go","0"
"pit-trial","200","1299450","0.0-141.0","battery-v0.2","","""event"",""trial"",""time""
""fullscreenenter"",""1"",""1964""
","
","
","""event"",""trial"",""time""
""fullscreenenter"",""1"",""1964""
","
","","","-1","","","16","3165","1443","l","elianto","#3366ff99","-1","-1","1","0","[]","0","2","","","3165","137","8","2","win","no-go","1"
"pit-trial","201","1304306","0.0-142.0","battery-v0.2","","""event"",""trial"",""time""
""fullscreenenter"",""1"",""1964""
","
","
","""event"",""trial"",""time""
""fullscreenenter"",""1"",""1964""
","
","","","-1","","","16","3165","1443","u","elianto","#3366ff99","-1","-1","1","0","[]","0","2","","","3165","138","9","2","win","no-go","1"
"pit-trial","202","1308964","0.0-143.0","battery-v0.2","","""event"",""trial"",""time""
""fullscreenenter"",""1"",""1964""
","
","
","""event"",""trial"",""time""
""fullscreenenter"",""1"",""1964""
","
","","","1798.3999999761581","","","16","3165","1443","g","elianto","#f73b6a7A","-1"," ","0","-10","[2652.100000023842]","1","2","","","3165","139","6","4","lose","no-go","0"
"pit-trial","203","1313266","0.0-144.0","battery-v0.2","","""event"",""trial"",""time""
""fullscreenenter"",""1"",""1964""
""blur"",""204"",""1320738""
""focus"",""204"",""1328772""
","""event"",""trial"",""time""
""blur"",""204"",""1320738""
","""event"",""trial"",""time""
""focus"",""204"",""1328772""
","""event"",""trial"",""time""
""fullscreenenter"",""1"",""1964""
","
","","","1444.7000000476837","","","16","3165","1443","a","elianto","#f73b6a7A"," "," ","1","-10","[2297]","1","2","","","3165","140","7","3","lose","go","1"
"pit-instructions","204","1329618","0.0-145.0","battery-v0.2","","""event"",""trial"",""time""
""fullscreenenter"",""1"",""1964""
""blur"",""204"",""1320738""
""focus"",""204"",""1328772""
","""event"",""trial"",""time""
""blur"",""204"",""1320738""
","""event"",""trial"",""time""
""focus"",""204"",""1328772""
","""event"",""trial"",""time""
""fullscreenenter"",""1"",""1964""
","
","","[{""page_index"":0,""viewing_time"":6814.200000047684},{""page_index"":1,""viewing_time"":9536.099999964237}]","16350.700000047684","","","","","","","","","","","","","","","","","","","","","","","",""
"pit-trial","205","1334011","0.0-146.0","battery-v0.2","","""event"",""trial"",""time""
""fullscreenenter"",""1"",""1964""
""blur"",""204"",""1320738""
""focus"",""204"",""1328772""
","""event"",""trial"",""time""
""blur"",""204"",""1320738""
","""event"",""trial"",""time""
""focus"",""204"",""1328772""
","""event"",""trial"",""time""
""fullscreenenter"",""1"",""1964""
","
","","","1534.6000000238419","","","16","3165","1443","m","elianto","#f73b6a7A"," "," ","1","0","[2386.800000011921]","1","3","","","3165","141","0","3","lose","go","0"
"pit-trial","206","1338870","0.0-147.0","battery-v0.2","","""event"",""trial"",""time""
""fullscreenenter"",""1"",""1964""
""blur"",""204"",""1320738""
""focus"",""204"",""1328772""
","""event"",""trial"",""time""
""blur"",""204"",""1320738""
","""event"",""trial"",""time""
""focus"",""204"",""1328772""
","""event"",""trial"",""time""
""fullscreenenter"",""1"",""1964""
","
","","","-1","","","16","3165","1443","r","elianto","#3366ff99","-1","-1","1","+10","[]","0","3","","","3165","142","1","2","win","no-go","0"
"pit-trial","207","1343731","0.0-148.0","battery-v0.2","","""event"",""trial"",""time""
""fullscreenenter"",""1"",""1964""
""blur"",""204"",""1320738""
""focus"",""204"",""1328772""
","""event"",""trial"",""time""
""blur"",""204"",""1320738""
","""event"",""trial"",""time""
""focus"",""204"",""1328772""
","""event"",""trial"",""time""
""fullscreenenter"",""1"",""1964""
","
","","","-1","","","16","3165","1443","y","elianto","#f73b6a7A"," ","-1","0","0","[]","0","3","","","3165","143","2","3","lose","go","1"
"pit-trial","208","1348587","0.0-149.0","battery-v0.2","","""event"",""trial"",""time""
""fullscreenenter"",""1"",""1964""
""blur"",""204"",""1320738""
""focus"",""204"",""1328772""
","""event"",""trial"",""time""
""blur"",""204"",""1320738""
","""event"",""trial"",""time""
""focus"",""204"",""1328772""
","""event"",""trial"",""time""
""fullscreenenter"",""1"",""1964""
","
","","","-1","","","16","3165","1443","h","elianto","#f73b6a7A","-1","-1","1","0","[]","0","3","","","3165","144","3","4","lose","no-go","0"
"pit-trial","209","1353152","0.0-150.0","battery-v0.2","","""event"",""trial"",""time""
""fullscreenenter"",""1"",""1964""
""blur"",""204"",""1320738""
""focus"",""204"",""1328772""
","""event"",""trial"",""time""
""blur"",""204"",""1320738""
","""event"",""trial"",""time""
""focus"",""204"",""1328772""
","""event"",""trial"",""time""
""fullscreenenter"",""1"",""1964""
","
","","","1709.1000000238419","","","16","3165","1443","m","elianto","#f73b6a7A"," "," ","1","0","[2561]","1","3","","","3165","145","0","3","lose","go","0"
"pit-trial","210","1357191","0.0-151.0","battery-v0.2","","""event"",""trial"",""time""
""fullscreenenter"",""1"",""1964""
""blur"",""204"",""1320738""
""focus"",""204"",""1328772""
","""event"",""trial"",""time""
""blur"",""204"",""1320738""
","""event"",""trial"",""time""
""focus"",""204"",""1328772""
","""event"",""trial"",""time""
""fullscreenenter"",""1"",""1964""
","
","","","1181.3999999761581","","","16","3165","1443","r","elianto","#3366ff99","-1"," ","0","+10","[2032]","1","3","","","3165","146","1","2","win","no-go","1"
"pit-trial","211","1362051","0.0-152.0","battery-v0.2","","""event"",""trial"",""time""
""fullscreenenter"",""1"",""1964""
""blur"",""204"",""1320738""
""focus"",""204"",""1328772""
","""event"",""trial"",""time""
""blur"",""204"",""1320738""
","""event"",""trial"",""time""
""focus"",""204"",""1328772""
","""event"",""trial"",""time""
""fullscreenenter"",""1"",""1964""
","
","","","-1","","","16","3165","1443","y","elianto","#f73b6a7A"," ","-1","0","-10","[]","0","3","","","3165","147","2","3","lose","go","0"
"pit-trial","212","1366908","0.0-153.0","battery-v0.2","","""event"",""trial"",""time""
""fullscreenenter"",""1"",""1964""
""blur"",""204"",""1320738""
""focus"",""204"",""1328772""
","""event"",""trial"",""time""
""blur"",""204"",""1320738""
","""event"",""trial"",""time""
""focus"",""204"",""1328772""
","""event"",""trial"",""time""
""fullscreenenter"",""1"",""1964""
","
","","","-1","","","16","3165","1443","h","elianto","#f73b6a7A","-1","-1","1","0","[]","0","3","","","3165","148","3","4","lose","no-go","0"
"pit-trial","213","1371769","0.0-154.0","battery-v0.2","","""event"",""trial"",""time""
""fullscreenenter"",""1"",""1964""
""blur"",""204"",""1320738""
""focus"",""204"",""1328772""
","""event"",""trial"",""time""
""blur"",""204"",""1320738""
","""event"",""trial"",""time""
""focus"",""204"",""1328772""
","""event"",""trial"",""time""
""fullscreenenter"",""1"",""1964""
","
","","","-1","","","16","3165","1443","y","elianto","#f73b6a7A"," ","-1","0","-10","[]","0","3","","","3165","149","2","3","lose","go","0"
"pit-trial","214","1376628","0.0-155.0","battery-v0.2","","""event"",""trial"",""time""
""fullscreenenter"",""1"",""1964""
""blur"",""204"",""1320738""
""focus"",""204"",""1328772""
","""event"",""trial"",""time""
""blur"",""204"",""1320738""
","""event"",""trial"",""time""
""focus"",""204"",""1328772""
","""event"",""trial"",""time""
""fullscreenenter"",""1"",""1964""
","
","","","-1","","","16","3165","1443","h","elianto","#f73b6a7A","-1","-1","1","0","[]","0","3","","","3165","150","3","4","lose","no-go","0"
"pit-trial","215","1380565","0.0-156.0","battery-v0.2","","""event"",""trial"",""time""
""fullscreenenter"",""1"",""1964""
""blur"",""204"",""1320738""
""focus"",""204"",""1328772""
","""event"",""trial"",""time""
""blur"",""204"",""1320738""
","""event"",""trial"",""time""
""focus"",""204"",""1328772""
","""event"",""trial"",""time""
""fullscreenenter"",""1"",""1964""
","
","","","1080.699999988079","","","16","3165","1443","r","elianto","#3366ff99","-1"," ","0","0","[1932]","1","3","","","3165","151","1","2","win","no-go","0"
"pit-trial","216","1384505","0.0-157.0","battery-v0.2","","""event"",""trial"",""time""
""fullscreenenter"",""1"",""1964""
""blur"",""204"",""1320738""
""focus"",""204"",""1328772""
","""event"",""trial"",""time""
""blur"",""204"",""1320738""
","""event"",""trial"",""time""
""focus"",""204"",""1328772""
","""event"",""trial"",""time""
""fullscreenenter"",""1"",""1964""
","
","","","1083.2000000476837","","","16","3165","1443","m","elianto","#f73b6a7A"," "," ","1","-10","[1935.1000000238419]","1","3","","","3165","152","0","3","lose","go","1"
"pit-trial","217","1389364","0.0-158.0","battery-v0.2","","""event"",""trial"",""time""
""fullscreenenter"",""1"",""1964""
""blur"",""204"",""1320738""
""focus"",""204"",""1328772""
","""event"",""trial"",""time""
""blur"",""204"",""1320738""
","""event"",""trial"",""time""
""focus"",""204"",""1328772""
","""event"",""trial"",""time""
""fullscreenenter"",""1"",""1964""
","
","","","-1","","","16","3165","1443","h","elianto","#f73b6a7A","-1","-1","1","0","[]","0","3","","","3165","153","3","4","lose","no-go","0"
"pit-trial","218","1393392","0.0-159.0","battery-v0.2","","""event"",""trial"",""time""
""fullscreenenter"",""1"",""1964""
""blur"",""204"",""1320738""
""focus"",""204"",""1328772""
","""event"",""trial"",""time""
""blur"",""204"",""1320738""
","""event"",""trial"",""time""
""focus"",""204"",""1328772""
","""event"",""trial"",""time""
""fullscreenenter"",""1"",""1964""
","
","","","1172.2999999523163","","","16","3165","1443","r","elianto","#3366ff99","-1"," ","0","+10","[2023]","1","3","","","3165","154","1","2","win","no-go","1"
"pit-trial","219","1398251","0.0-160.0","battery-v0.2","","""event"",""trial"",""time""
""fullscreenenter"",""1"",""1964""
""blur"",""204"",""1320738""
""focus"",""204"",""1328772""
","""event"",""trial"",""time""
""blur"",""204"",""1320738""
","""event"",""trial"",""time""
""focus"",""204"",""1328772""
","""event"",""trial"",""time""
""fullscreenenter"",""1"",""1964""
","
","","","-1","","","16","3165","1443","y","elianto","#f73b6a7A"," ","-1","0","0","[]","0","3","","","3165","155","2","3","lose","go","1"
"pit-trial","220","1402238","0.0-161.0","battery-v0.2","","""event"",""trial"",""time""
""fullscreenenter"",""1"",""1964""
""blur"",""204"",""1320738""
""focus"",""204"",""1328772""
","""event"",""trial"",""time""
""blur"",""204"",""1320738""
","""event"",""trial"",""time""
""focus"",""204"",""1328772""
","""event"",""trial"",""time""
""fullscreenenter"",""1"",""1964""
","
","","","1124.9000000357628","","","16","3165","1443","m","elianto","#f73b6a7A"," "," ","1","0","[1979.800000011921]","1","3","","","3165","156","0","3","lose","go","0"
"pit-trial","221","1407098","0.0-162.0","battery-v0.2","","""event"",""trial"",""time""
""fullscreenenter"",""1"",""1964""
""blur"",""204"",""1320738""
""focus"",""204"",""1328772""
","""event"",""trial"",""time""
""blur"",""204"",""1320738""
","""event"",""trial"",""time""
""focus"",""204"",""1328772""
","""event"",""trial"",""time""
""fullscreenenter"",""1"",""1964""
","
","","","-1","","","16","3165","1443","h","elianto","#f73b6a7A","-1","-1","1","0","[]","0","3","","","3165","157","3","4","lose","no-go","0"
"pit-trial","222","1411115","0.0-163.0","battery-v0.2","","""event"",""trial"",""time""
""fullscreenenter"",""1"",""1964""
""blur"",""204"",""1320738""
""focus"",""204"",""1328772""
","""event"",""trial"",""time""
""blur"",""204"",""1320738""
","""event"",""trial"",""time""
""focus"",""204"",""1328772""
","""event"",""trial"",""time""
""fullscreenenter"",""1"",""1964""
","
","","","1161.4000000357628","","","16","3165","1443","r","elianto","#3366ff99","-1"," ","0","0","[2012.9000000357628]","1","3","","","3165","158","1","2","win","no-go","0"
"pit-trial","223","1415363","0.0-164.0","battery-v0.2","","""event"",""trial"",""time""
""fullscreenenter"",""1"",""1964""
""blur"",""204"",""1320738""
""focus"",""204"",""1328772""
","""event"",""trial"",""time""
""blur"",""204"",""1320738""
","""event"",""trial"",""time""
""focus"",""204"",""1328772""
","""event"",""trial"",""time""
""fullscreenenter"",""1"",""1964""
","
","","","1391.300000011921","","","16","3165","1443","m","elianto","#f73b6a7A"," "," ","1","0","[2242]","1","3","","","3165","159","0","3","lose","go","0"
"pit-trial","224","1420224","0.0-165.0","battery-v0.2","","""event"",""trial"",""time""
""fullscreenenter"",""1"",""1964""
""blur"",""204"",""1320738""
""focus"",""204"",""1328772""
","""event"",""trial"",""time""
""blur"",""204"",""1320738""
","""event"",""trial"",""time""
""focus"",""204"",""1328772""
","""event"",""trial"",""time""
""fullscreenenter"",""1"",""1964""
","
","","","-1","","","16","3165","1443","y","elianto","#f73b6a7A"," ","-1","0","-10","[]","0","3","","","3165","160","2","3","lose","go","0"
"pit-trial","225","1425082","0.0-166.0","battery-v0.2","","""event"",""trial"",""time""
""fullscreenenter"",""1"",""1964""
""blur"",""204"",""1320738""
""focus"",""204"",""1328772""
","""event"",""trial"",""time""
""blur"",""204"",""1320738""
","""event"",""trial"",""time""
""focus"",""204"",""1328772""
","""event"",""trial"",""time""
""fullscreenenter"",""1"",""1964""
","
","","","-1","","","16","3165","1443","h","elianto","#f73b6a7A","-1","-1","1","0","[]","0","3","","","3165","161","3","4","lose","no-go","0"
"pit-trial","226","1429018","0.0-167.0","battery-v0.2","","""event"",""trial"",""time""
""fullscreenenter"",""1"",""1964""
""blur"",""204"",""1320738""
""focus"",""204"",""1328772""
","""event"",""trial"",""time""
""blur"",""204"",""1320738""
","""event"",""trial"",""time""
""focus"",""204"",""1328772""
","""event"",""trial"",""time""
""fullscreenenter"",""1"",""1964""
","
","","","1075.7999999523163","","","16","3165","1443","r","elianto","#3366ff99","-1"," ","0","0","[1929.800000011921]","1","3","","","3165","162","1","2","win","no-go","0"
"pit-trial","227","1433448","0.0-168.0","battery-v0.2","","""event"",""trial"",""time""
""fullscreenenter"",""1"",""1964""
""blur"",""204"",""1320738""
""focus"",""204"",""1328772""
","""event"",""trial"",""time""
""blur"",""204"",""1320738""
","""event"",""trial"",""time""
""focus"",""204"",""1328772""
","""event"",""trial"",""time""
""fullscreenenter"",""1"",""1964""
","
","","","1573.699999988079","","","16","3165","1443","m","elianto","#f73b6a7A"," "," ","1","0","[2424.300000011921]","1","3","","","3165","163","0","3","lose","go","0"
"pit-trial","228","1438306","0.0-169.0","battery-v0.2","","""event"",""trial"",""time""
""fullscreenenter"",""1"",""1964""
""blur"",""204"",""1320738""
""focus"",""204"",""1328772""
","""event"",""trial"",""time""
""blur"",""204"",""1320738""
","""event"",""trial"",""time""
""focus"",""204"",""1328772""
","""event"",""trial"",""time""
""fullscreenenter"",""1"",""1964""
","
","","","-1","","","16","3165","1443","y","elianto","#f73b6a7A"," ","-1","0","-10","[]","0","3","","","3165","164","2","3","lose","go","0"
"pit-trial","229","1443042","0.0-170.0","battery-v0.2","","""event"",""trial"",""time""
""fullscreenenter"",""1"",""1964""
""blur"",""204"",""1320738""
""focus"",""204"",""1328772""
","""event"",""trial"",""time""
""blur"",""204"",""1320738""
","""event"",""trial"",""time""
""focus"",""204"",""1328772""
","""event"",""trial"",""time""
""fullscreenenter"",""1"",""1964""
","
","","","1873.300000011921","","","16","3165","1443","m","elianto","#f73b6a7A"," "," ","1","0","[2728.400000035763]","1","3","","","3165","165","0","3","lose","go","0"
"pit-trial","230","1446972","0.0-171.0","battery-v0.2","","""event"",""trial"",""time""
""fullscreenenter"",""1"",""1964""
""blur"",""204"",""1320738""
""focus"",""204"",""1328772""
","""event"",""trial"",""time""
""blur"",""204"",""1320738""
","""event"",""trial"",""time""
""focus"",""204"",""1328772""
","""event"",""trial"",""time""
""fullscreenenter"",""1"",""1964""
","
","","","1071","","","16","3165","1443","r","elianto","#3366ff99","-1"," ","0","0","[1923.199999988079]","1","3","","","3165","166","1","2","win","no-go","0"
"pit-trial","231","1451832","0.0-172.0","battery-v0.2","","""event"",""trial"",""time""
""fullscreenenter"",""1"",""1964""
""blur"",""204"",""1320738""
""focus"",""204"",""1328772""
","""event"",""trial"",""time""
""blur"",""204"",""1320738""
","""event"",""trial"",""time""
""focus"",""204"",""1328772""
","""event"",""trial"",""time""
""fullscreenenter"",""1"",""1964""
","
","","","-1","","","16","3165","1443","h","elianto","#f73b6a7A","-1","-1","1","0","[]","0","3","","","3165","167","3","4","lose","no-go","0"
"pit-trial","232","1456691","0.0-173.0","battery-v0.2","","""event"",""trial"",""time""
""fullscreenenter"",""1"",""1964""
""blur"",""204"",""1320738""
""focus"",""204"",""1328772""
","""event"",""trial"",""time""
""blur"",""204"",""1320738""
","""event"",""trial"",""time""
""focus"",""204"",""1328772""
","""event"",""trial"",""time""
""fullscreenenter"",""1"",""1964""
","
","","","-1","","","16","3165","1443","y","elianto","#f73b6a7A"," ","-1","0","-10","[]","0","3","","","3165","168","2","3","lose","go","0"
"pit-trial","233","1461341","0.0-174.0","battery-v0.2","","""event"",""trial"",""time""
""fullscreenenter"",""1"",""1964""
""blur"",""204"",""1320738""
""focus"",""204"",""1328772""
","""event"",""trial"",""time""
""blur"",""204"",""1320738""
","""event"",""trial"",""time""
""focus"",""204"",""1328772""
","""event"",""trial"",""time""
""fullscreenenter"",""1"",""1964""
","
","","","1794.199999988079","","","16","3165","1443","m","elianto","#f73b6a7A"," "," ","1","-10","[2645.5]","1","3","","","3165","169","0","3","lose","go","1"
"pit-trial","234","1466200","0.0-175.0","battery-v0.2","","""event"",""trial"",""time""
""fullscreenenter"",""1"",""1964""
""blur"",""204"",""1320738""
""focus"",""204"",""1328772""
","""event"",""trial"",""time""
""blur"",""204"",""1320738""
","""event"",""trial"",""time""
""focus"",""204"",""1328772""
","""event"",""trial"",""time""
""fullscreenenter"",""1"",""1964""
","
","","","-1","","","16","3165","1443","y","elianto","#f73b6a7A"," ","-1","0","-10","[]","0","3","","","3165","170","2","3","lose","go","0"
"pit-trial","235","1471060","0.0-176.0","battery-v0.2","","""event"",""trial"",""time""
""fullscreenenter"",""1"",""1964""
""blur"",""204"",""1320738""
""focus"",""204"",""1328772""
","""event"",""trial"",""time""
""blur"",""204"",""1320738""
","""event"",""trial"",""time""
""focus"",""204"",""1328772""
","""event"",""trial"",""time""
""fullscreenenter"",""1"",""1964""
","
","","","-1","","","16","3165","1443","h","elianto","#f73b6a7A","-1","-1","1","0","[]","0","3","","","3165","171","3","4","lose","no-go","0"
"pit-trial","236","1474940","0.0-177.0","battery-v0.2","","""event"",""trial"",""time""
""fullscreenenter"",""1"",""1964""
""blur"",""204"",""1320738""
""focus"",""204"",""1328772""
","""event"",""trial"",""time""
""blur"",""204"",""1320738""
","""event"",""trial"",""time""
""focus"",""204"",""1328772""
","""event"",""trial"",""time""
""fullscreenenter"",""1"",""1964""
","
","","","1019.8999999761581","","","16","3165","1443","r","elianto","#3366ff99","-1"," ","0","0","[1874.5]","1","3","","","3165","172","1","2","win","no-go","0"
"pit-trial","237","1479081","0.0-178.0","battery-v0.2","","""event"",""trial"",""time""
""fullscreenenter"",""1"",""1964""
""blur"",""204"",""1320738""
""focus"",""204"",""1328772""
","""event"",""trial"",""time""
""blur"",""204"",""1320738""
","""event"",""trial"",""time""
""focus"",""204"",""1328772""
","""event"",""trial"",""time""
""fullscreenenter"",""1"",""1964""
","
","","","1281.199999988079","","","16","3165","1443","m","elianto","#f73b6a7A"," "," ","1","0","[2134.600000023842]","1","3","","","3165","173","0","3","lose","go","0"
"pit-trial","238","1483076","0.0-179.0","battery-v0.2","","""event"",""trial"",""time""
""fullscreenenter"",""1"",""1964""
""blur"",""204"",""1320738""
""focus"",""204"",""1328772""
","""event"",""trial"",""time""
""blur"",""204"",""1320738""
","""event"",""trial"",""time""
""focus"",""204"",""1328772""
","""event"",""trial"",""time""
""fullscreenenter"",""1"",""1964""
","
","","","1137.3999999761581","","","16","3165","1443","r","elianto","#3366ff99","-1"," ","0","0","[1989.300000011921]","1","3","","","3165","174","1","2","win","no-go","0"
"pit-trial","239","1487935","0.0-180.0","battery-v0.2","","""event"",""trial"",""time""
""fullscreenenter"",""1"",""1964""
""blur"",""204"",""1320738""
""focus"",""204"",""1328772""
","""event"",""trial"",""time""
""blur"",""204"",""1320738""
","""event"",""trial"",""time""
""focus"",""204"",""1328772""
","""event"",""trial"",""time""
""fullscreenenter"",""1"",""1964""
","
","","","-1","","","16","3165","1443","h","elianto","#f73b6a7A","-1","-1","1","0","[]","0","3","","","3165","175","3","4","lose","no-go","0"
"pit-trial","240","1492793","0.0-181.0","battery-v0.2","","""event"",""trial"",""time""
""fullscreenenter"",""1"",""1964""
""blur"",""204"",""1320738""
""focus"",""204"",""1328772""
","""event"",""trial"",""time""
""blur"",""204"",""1320738""
","""event"",""trial"",""time""
""focus"",""204"",""1328772""
","""event"",""trial"",""time""
""fullscreenenter"",""1"",""1964""
","
","","","-1","","","16","3165","1443","y","elianto","#f73b6a7A"," ","-1","0","-10","[]","0","3","","","3165","176","2","3","lose","go","0"
"pit-trial","241","1497296","0.0-182.0","battery-v0.2","","""event"",""trial"",""time""
""fullscreenenter"",""1"",""1964""
""blur"",""204"",""1320738""
""focus"",""204"",""1328772""
","""event"",""trial"",""time""
""blur"",""204"",""1320738""
","""event"",""trial"",""time""
""focus"",""204"",""1328772""
","""event"",""trial"",""time""
""fullscreenenter"",""1"",""1964""
","
","","","1644.9000000357628","","","16","3165","1443","m","elianto","#f73b6a7A"," "," ","1","0","[2496.400000035763]","1","3","","","3165","177","0","3","lose","go","0"
"pit-trial","242","1502155","0.0-183.0","battery-v0.2","","""event"",""trial"",""time""
""fullscreenenter"",""1"",""1964""
""blur"",""204"",""1320738""
""focus"",""204"",""1328772""
","""event"",""trial"",""time""
""blur"",""204"",""1320738""
","""event"",""trial"",""time""
""focus"",""204"",""1328772""
","""event"",""trial"",""time""
""fullscreenenter"",""1"",""1964""
","
","","","-1","","","16","3165","1443","h","elianto","#f73b6a7A","-1","-1","1","0","[]","0","3","","","3165","178","3","4","lose","no-go","0"
"pit-trial","243","1507015","0.0-184.0","battery-v0.2","","""event"",""trial"",""time""
""fullscreenenter"",""1"",""1964""
""blur"",""204"",""1320738""
""focus"",""204"",""1328772""
","""event"",""trial"",""time""
""blur"",""204"",""1320738""
","""event"",""trial"",""time""
""focus"",""204"",""1328772""
","""event"",""trial"",""time""
""fullscreenenter"",""1"",""1964""
","
","","","-1","","","16","3165","1443","y","elianto","#f73b6a7A"," ","-1","0","-10","[]","0","3","","","3165","179","2","3","lose","go","0"
"pit-trial","244","1511278","0.0-185.0","battery-v0.2","","""event"",""trial"",""time""
""fullscreenenter"",""1"",""1964""
""blur"",""204"",""1320738""
""focus"",""204"",""1328772""
","""event"",""trial"",""time""
""blur"",""204"",""1320738""
","""event"",""trial"",""time""
""focus"",""204"",""1328772""
","""event"",""trial"",""time""
""fullscreenenter"",""1"",""1964""
","
","","","1405.300000011921","","","16","3165","1443","z","elianto","#3366ff99"," "," ","1","0","[2257]","1","3","","","3165","180","4","1","win","go","1"
"pit-trial","245","1515419","0.0-186.0","battery-v0.2","","""event"",""trial"",""time""
""fullscreenenter"",""1"",""1964""
""blur"",""204"",""1320738""
""focus"",""204"",""1328772""
","""event"",""trial"",""time""
""blur"",""204"",""1320738""
","""event"",""trial"",""time""
""focus"",""204"",""1328772""
","""event"",""trial"",""time""
""fullscreenenter"",""1"",""1964""
","
","","","1278.800000011921","","","16","3165","1443","r","elianto","#3366ff99","-1"," ","0","0","[2134.5]","1","3","","","3165","181","1","2","win","no-go","0"
"pit-trial","246","1520274","0.0-187.0","battery-v0.2","","""event"",""trial"",""time""
""fullscreenenter"",""1"",""1964""
""blur"",""204"",""1320738""
""focus"",""204"",""1328772""
","""event"",""trial"",""time""
""blur"",""204"",""1320738""
","""event"",""trial"",""time""
""focus"",""204"",""1328772""
","""event"",""trial"",""time""
""fullscreenenter"",""1"",""1964""
","
","","","-1","","","16","3165","1443","h","elianto","#f73b6a7A","-1","-1","1","0","[]","0","3","","","3165","182","3","4","lose","no-go","0"
