"trial_type","trial_index","time_elapsed","internal_node_id","task_version","subject_id","interactions","blur_events","focus_events","fullscreenenter_events","fullscreenexit_events","success","view_history","rt","responses","num_errors","age","subject","participantId","rune","rune_set","hex","correct","choice","accuracy","outcome","keys","total_keys","block","practice","value","sub","trial","stimulus","robot","valence","action","sham"
"pavlovia","0","9","0.0-0.0","battery-v0.2","","""event"",""trial"",""time""
""fullscreenenter"",""1"",""3489""
","
","
","""event"",""trial"",""time""
""fullscreenenter"",""1"",""3489""
","
","","","","","","","","","","","","","","","","","","","","","","","","","","",""
"fullscreen","1","4475","0.0-1.0","battery-v0.2","","""event"",""trial"",""time""
""fullscreenenter"",""1"",""3489""
","
","
","""event"",""trial"",""time""
""fullscreenenter"",""1"",""3489""
","
","true","","","","","","","","","","","","","","","","","","","","","","","","","",""
"pit-instructions","2","10294","0.0-2.0-0.0","battery-v0.2","","""event"",""trial"",""time""
""fullscreenenter"",""1"",""3489""
","
","
","""event"",""trial"",""time""
""fullscreenenter"",""1"",""3489""
","
","","[{""page_index"":0,""viewing_time"":5817.800000011921}]","5818.0999999940395","","","","","","","","","","","","","","","","","","","","","","","",""
"pit-comprehension","3","13790","0.0-2.0-1.0-0.0","battery-v0.2","","""event"",""trial"",""time""
""fullscreenenter"",""1"",""3489""
","
","
","""event"",""trial"",""time""
""fullscreenenter"",""1"",""3489""
","
","","","3493.4000000059605","[""shark""]","0","21","10162","4760","","","","","","","","","","","","","","","","","","",""
"pit-instructions","4","15357","0.0-2.0-1.0-1.0","battery-v0.2","","""event"",""trial"",""time""
""fullscreenenter"",""1"",""3489""
","
","
","""event"",""trial"",""time""
""fullscreenenter"",""1"",""3489""
","
","","[{""page_index"":0,""viewing_time"":1558.5}]","1558.800000011921","","","","","","","","","","","","","","","","","","","","","","","",""
"pit-comprehension","5","18428","0.0-2.0-2.0-0.0","battery-v0.2","","""event"",""trial"",""time""
""fullscreenenter"",""1"",""3489""
","
","
","""event"",""trial"",""time""
""fullscreenenter"",""1"",""3489""
","
","","","3068.5999999940395","[""tiger""]","0","21","10162","4760","","","","","","","","","","","","","","","","","","",""
"pit-instructions","6","19668","0.0-2.0-2.0-1.0","battery-v0.2","","""event"",""trial"",""time""
""fullscreenenter"",""1"",""3489""
","
","
","""event"",""trial"",""time""
""fullscreenenter"",""1"",""3489""
","
","","[{""page_index"":0,""viewing_time"":1238.4000000059605}]","1238.699999988079","","","","","","","","","","","","","","","","","","","","","","","",""
"pit-instructions","7","143751","0.0-2.0-3.0","battery-v0.2","","""event"",""trial"",""time""
""fullscreenenter"",""1"",""3489""
","
","
","""event"",""trial"",""time""
""fullscreenenter"",""1"",""3489""
","
","","[{""page_index"":0,""viewing_time"":11514},{""page_index"":1,""viewing_time"":7479.200000017881},{""page_index"":2,""viewing_time"":7197.399999976158},{""page_index"":3,""viewing_time"":5564.100000023842},{""page_index"":4,""viewing_time"":7471.799999982119},{""page_index"":5,""viewing_time"":5923.800000011921},{""page_index"":6,""viewing_time"":7330.199999988079},{""page_index"":7,""viewing_time"":6894.4000000059605},{""page_index"":8,""viewing_time"":7838.0999999940395},{""page_index"":9,""viewing_time"":22346.80000001192},{""page_index"":10,""viewing_time"":9504.799999982119},{""page_index"":11,""viewing_time"":11811.40000000596},{""page_index"":12,""viewing_time"":7072.300000011921},{""page_index"":13,""viewing_time"":6132}]","124080.5","","","","","","","","","","","","","","","","","","","","","","","",""
"pit-trial","8","147213","0.0-2.0-4.0-0.0","battery-v0.2","","""event"",""trial"",""time""
""fullscreenenter"",""1"",""3489""
","
","
","""event"",""trial"",""time""
""fullscreenenter"",""1"",""3489""
","
","","","608.0999999940395","","","21","10162","4760","&#9784;","elianto","#FFFFF080"," "," ","1","&#10004","[1458.800000011921]","1","0","0","","","","","","","",""
"pit-trial","9","150571","0.0-2.0-4.1-0.1","battery-v0.2","","""event"",""trial"",""time""
""fullscreenenter"",""1"",""3489""
","
","
","""event"",""trial"",""time""
""fullscreenenter"",""1"",""3489""
","
","","","505.2000000178814","","","21","10162","4760","&#9784;","elianto","#FFFFF080"," "," ","1","&#10004","[1355.800000011921]","1","0","0","","","","","","","",""
"pit-trial","10","153984","0.0-2.0-4.2-0.2","battery-v0.2","","""event"",""trial"",""time""
""fullscreenenter"",""1"",""3489""
","
","
","""event"",""trial"",""time""
""fullscreenenter"",""1"",""3489""
","
","","","558.4000000059605","","","21","10162","4760","&#9784;","elianto","#FFFFF080"," "," ","1","&#10004","[1410]","1","0","0","","","","","","","",""
"pit-trial","11","157467","0.0-2.0-4.3-0.3","battery-v0.2","","""event"",""trial"",""time""
""fullscreenenter"",""1"",""3489""
","
","
","""event"",""trial"",""time""
""fullscreenenter"",""1"",""3489""
","
","","","629.4000000059605","","","21","10162","4760","&#9784;","elianto","#FFFFF080"," "," ","1","&#10004","[1479.800000011921]","1","0","0","","","","","","","",""
"pit-trial","12","160895","0.0-2.0-4.4-0.4","battery-v0.2","","""event"",""trial"",""time""
""fullscreenenter"",""1"",""3489""
","
","
","""event"",""trial"",""time""
""fullscreenenter"",""1"",""3489""
","
","","","573.8000000119209","","","21","10162","4760","&#9784;","elianto","#FFFFF080"," "," ","1","&#10004","[1424.2000000178814]","1","0","0","","","","","","","",""
"pit-instructions","13","184595","0.0-2.0-5.0","battery-v0.2","","""event"",""trial"",""time""
""fullscreenenter"",""1"",""3489""
","
","
","""event"",""trial"",""time""
""fullscreenenter"",""1"",""3489""
","
","","[{""page_index"":0,""viewing_time"":5928.300000011921},{""page_index"":1,""viewing_time"":6309.5},{""page_index"":2,""viewing_time"":5623.799999982119},{""page_index"":3,""viewing_time"":5834.5999999940395}]","23696.5","","","","","","","","","","","","","","","","","","","","","","","",""
"pit-trial","14","189448","0.0-2.0-6.0-0.0","battery-v0.2","","""event"",""trial"",""time""
""fullscreenenter"",""1"",""3489""
","
","
","""event"",""trial"",""time""
""fullscreenenter"",""1"",""3489""
","
","","","-1","","","21","10162","4760","&#9854;","elianto","#FFFFF080","-1","-1","1","&#10004","[]","0","0","1","","","","","","","",""
"pit-trial","15","194303","0.0-2.0-6.1-0.1","battery-v0.2","","""event"",""trial"",""time""
""fullscreenenter"",""1"",""3489""
","
","
","""event"",""trial"",""time""
""fullscreenenter"",""1"",""3489""
","
","","","-1","","","21","10162","4760","&#9854;","elianto","#FFFFF080","-1","-1","1","&#10004","[]","0","0","1","","","","","","","",""
"pit-trial","16","199158","0.0-2.0-6.2-0.2","battery-v0.2","","""event"",""trial"",""time""
""fullscreenenter"",""1"",""3489""
","
","
","""event"",""trial"",""time""
""fullscreenenter"",""1"",""3489""
","
","","","-1","","","21","10162","4760","&#9854;","elianto","#FFFFF080","-1","-1","1","&#10004","[]","0","0","1","","","","","","","",""
"pit-trial","17","204012","0.0-2.0-6.3-0.3","battery-v0.2","","""event"",""trial"",""time""
""fullscreenenter"",""1"",""3489""
","
","
","""event"",""trial"",""time""
""fullscreenenter"",""1"",""3489""
","
","","","-1","","","21","10162","4760","&#9854;","elianto","#FFFFF080","-1","-1","1","&#10004","[]","0","0","1","","","","","","","",""
"pit-trial","18","208864","0.0-2.0-6.4-0.4","battery-v0.2","","""event"",""trial"",""time""
""fullscreenenter"",""1"",""3489""
","
","
","""event"",""trial"",""time""
""fullscreenenter"",""1"",""3489""
","
","","","-1","","","21","10162","4760","&#9854;","elianto","#FFFFF080","-1","-1","1","&#10004","[]","0","0","1","","","","","","","",""
"pit-instructions","19","342277","0.0-2.0-7.0","battery-v0.2","","""event"",""trial"",""time""
""fullscreenenter"",""1"",""3489""
","
","
","""event"",""trial"",""time""
""fullscreenenter"",""1"",""3489""
","
","","[{""page_index"":0,""viewing_time"":6804.299999982119},{""page_index"":1,""viewing_time"":8132},{""page_index"":2,""viewing_time"":7609.700000017881},{""page_index"":3,""viewing_time"":7745},{""page_index"":4,""viewing_time"":6940},{""page_index"":5,""viewing_time"":6796.199999988079},{""page_index"":6,""viewing_time"":5565.9000000059605},{""page_index"":7,""viewing_time"":10287.699999988079},{""page_index"":8,""viewing_time"":7862.5},{""page_index"":9,""viewing_time"":6809.800000011921},{""page_index"":10,""viewing_time"":7275.0999999940395},{""page_index"":11,""viewing_time"":4580.5999999940395},{""page_index"":12,""viewing_time"":7833.5999999940395},{""page_index"":13,""viewing_time"":7975.5},{""page_index"":14,""viewing_time"":8029.300000011921},{""page_index"":15,""viewing_time"":7308.5999999940395},{""page_index"":16,""viewing_time"":7307.9000000059605},{""page_index"":17,""viewing_time"":8547.40000000596}]","133411.29999998212","","","","","","","","","","","","","","","","","","","","","","","",""
"pit-trial","20","345721","0.0-2.0-8.0-0.0","battery-v0.2","","""event"",""trial"",""time""
""fullscreenenter"",""1"",""3489""
","
","
","""event"",""trial"",""time""
""fullscreenenter"",""1"",""3489""
","
","","","589.5999999940395","","","21","10162","4760","&#9776;","elianto","#3366ff99"," "," ","1","+10","[1441.300000011921]","1","0","1","","","","","","","",""
"pit-trial","21","349021","0.0-2.0-8.0-1.0","battery-v0.2","","""event"",""trial"",""time""
""fullscreenenter"",""1"",""3489""
","
","
","""event"",""trial"",""time""
""fullscreenenter"",""1"",""3489""
","
","","","445.59999999403954","","","21","10162","4760","&#9776;","elianto","#3366ff99"," "," ","1","+10","[1296.5999999940395]","1","0","1","","","","","","","",""
"pit-trial","22","352341","0.0-2.0-8.0-2.0","battery-v0.2","","""event"",""trial"",""time""
""fullscreenenter"",""1"",""3489""
","
","
","""event"",""trial"",""time""
""fullscreenenter"",""1"",""3489""
","
","","","468","","","21","10162","4760","&#9776;","elianto","#3366ff99"," "," ","1","+10","[1318.2000000178814]","1","0","1","","","","","","","",""
"pit-trial","23","355708","0.0-2.0-8.0-3.0","battery-v0.2","","""event"",""trial"",""time""
""fullscreenenter"",""1"",""3489""
","
","
","""event"",""trial"",""time""
""fullscreenenter"",""1"",""3489""
","
","","","513.2999999821186","","","21","10162","4760","&#9776;","elianto","#3366ff99"," "," ","1","0","[1364.5999999940395]","1","0","1","","","","","","","",""
"pit-trial","24","359148","0.0-2.0-8.0-4.0","battery-v0.2","","""event"",""trial"",""time""
""fullscreenenter"",""1"",""3489""
","
","
","""event"",""trial"",""time""
""fullscreenenter"",""1"",""3489""
","
","","","587.4000000059605","","","21","10162","4760","&#9776;","elianto","#3366ff99"," "," ","1","+10","[1438.5999999940395]","1","0","1","","","","","","","",""
"pit-trial","25","362563","0.0-2.0-8.1-0.1","battery-v0.2","","""event"",""trial"",""time""
""fullscreenenter"",""1"",""3489""
","
","
","""event"",""trial"",""time""
""fullscreenenter"",""1"",""3489""
","
","","","560.9000000059605","","","21","10162","4760","&#9776;","elianto","#3366ff99"," "," ","1","+10","[1411.5]","1","0","1","","","","","","","",""
"pit-trial","26","365936","0.0-2.0-8.1-1.1","battery-v0.2","","""event"",""trial"",""time""
""fullscreenenter"",""1"",""3489""
","
","
","""event"",""trial"",""time""
""fullscreenenter"",""1"",""3489""
","
","","","519.5","","","21","10162","4760","&#9776;","elianto","#3366ff99"," "," ","1","+10","[1370.5]","1","0","1","","","","","","","",""
"pit-trial","27","369364","0.0-2.0-8.1-2.1","battery-v0.2","","""event"",""trial"",""time""
""fullscreenenter"",""1"",""3489""
","
","
","""event"",""trial"",""time""
""fullscreenenter"",""1"",""3489""
","
","","","574.7000000178814","","","21","10162","4760","&#9776;","elianto","#3366ff99"," "," ","1","+10","[1425.2000000178814]","1","0","1","","","","","","","",""
"pit-trial","28","372779","0.0-2.0-8.1-3.1","battery-v0.2","","""event"",""trial"",""time""
""fullscreenenter"",""1"",""3489""
","
","
","""event"",""trial"",""time""
""fullscreenenter"",""1"",""3489""
","
","","","561.7000000178814","","","21","10162","4760","&#9776;","elianto","#3366ff99"," "," ","1","0","[1412.9000000059605]","1","0","1","","","","","","","",""
"pit-trial","29","376033","0.0-2.0-8.1-4.1","battery-v0.2","","""event"",""trial"",""time""
""fullscreenenter"",""1"",""3489""
","
","
","""event"",""trial"",""time""
""fullscreenenter"",""1"",""3489""
","
","","","401.69999998807907","","","21","10162","4760","&#9776;","elianto","#3366ff99"," "," ","1","+10","[1251.9000000059605]","1","0","1","","","","","","","",""
"pit-trial","30","379312","0.0-2.0-8.2-0.2","battery-v0.2","","""event"",""trial"",""time""
""fullscreenenter"",""1"",""3489""
","
","
","""event"",""trial"",""time""
""fullscreenenter"",""1"",""3489""
","
","","","425.09999999403954","","","21","10162","4760","&#9776;","elianto","#3366ff99"," "," ","1","+10","[1276.5999999940395]","1","0","1","","","","","","","",""
"pit-trial","31","382661","0.0-2.0-8.2-1.2","battery-v0.2","","""event"",""trial"",""time""
""fullscreenenter"",""1"",""3489""
","
","
","""event"",""trial"",""time""
""fullscreenenter"",""1"",""3489""
","
","","","494.7000000178814","","","21","10162","4760","&#9776;","elianto","#3366ff99"," "," ","1","+10","[1345.9000000059605]","1","0","1","","","","","","","",""
"pit-trial","32","386146","0.0-2.0-8.2-2.2","battery-v0.2","","""event"",""trial"",""time""
""fullscreenenter"",""1"",""3489""
","
","
","""event"",""trial"",""time""
""fullscreenenter"",""1"",""3489""
","
","","","632.4000000059605","","","21","10162","4760","&#9776;","elianto","#3366ff99"," "," ","1","+10","[1483.2999999821186]","1","0","1","","","","","","","",""
"pit-trial","33","389511","0.0-2.0-8.2-3.2","battery-v0.2","","""event"",""trial"",""time""
""fullscreenenter"",""1"",""3489""
","
","
","""event"",""trial"",""time""
""fullscreenenter"",""1"",""3489""
","
","","","511.2000000178814","","","21","10162","4760","&#9776;","elianto","#3366ff99"," "," ","1","0","[1362.7000000178814]","1","0","1","","","","","","","",""
"pit-trial","34","392898","0.0-2.0-8.2-4.2","battery-v0.2","","""event"",""trial"",""time""
""fullscreenenter"",""1"",""3489""
","
","
","""event"",""trial"",""time""
""fullscreenenter"",""1"",""3489""
","
","","","531.4000000059605","","","21","10162","4760","&#9776;","elianto","#3366ff99"," "," ","1","+10","[1383.5]","1","0","1","","","","","","","",""
"call-function","35","392901","0.0-2.0-9.0","battery-v0.2","","""event"",""trial"",""time""
""fullscreenenter"",""1"",""3489""
","
","
","""event"",""trial"",""time""
""fullscreenenter"",""1"",""3489""
","
","","","","","","","","","","","","","","","","","","","","","","","","","","",""
"pit-instructions","36","435983","0.0-2.0-10.0","battery-v0.2","","""event"",""trial"",""time""
""fullscreenenter"",""1"",""3489""
","
","
","""event"",""trial"",""time""
""fullscreenenter"",""1"",""3489""
","
","","[{""page_index"":0,""viewing_time"":7058.9000000059605},{""page_index"":1,""viewing_time"":9010.699999988079},{""page_index"":2,""viewing_time"":9953.59999999404},{""page_index"":3,""viewing_time"":9285},{""page_index"":4,""viewing_time"":7771.9000000059605}]","43080.40000000596","","","","","","","","","","","","","","","","","","","","","","","",""
"pit-trial","37","439361","0.0-2.0-11.0-0.0","battery-v0.2","","""event"",""trial"",""time""
""fullscreenenter"",""1"",""3489""
","
","
","""event"",""trial"",""time""
""fullscreenenter"",""1"",""3489""
","
","","","523.5","","","21","10162","4760","&#9761;","elianto","#3366ff99","-1"," ","0","0","[1374.1000000238419]","1","0","2","","","","","","","",""
"pit-trial","38","442716","0.0-2.0-11.0-1.0","battery-v0.2","","""event"",""trial"",""time""
""fullscreenenter"",""1"",""3489""
","
","
","""event"",""trial"",""time""
""fullscreenenter"",""1"",""3489""
","
","","","501.09999999403954","","","21","10162","4760","&#9761;","elianto","#3366ff99","-1"," ","0","0","[1352.4000000059605]","1","0","2","","","","","","","",""
"pit-trial","39","447568","0.0-2.0-11.0-2.0","battery-v0.2","","""event"",""trial"",""time""
""fullscreenenter"",""1"",""3489""
","
","
","""event"",""trial"",""time""
""fullscreenenter"",""1"",""3489""
","
","","","-1","","","21","10162","4760","&#9761;","elianto","#3366ff99","-1","-1","1","+10","[]","0","0","2","","","","","","","",""
"pit-trial","40","452421","0.0-2.0-11.0-3.0","battery-v0.2","","""event"",""trial"",""time""
""fullscreenenter"",""1"",""3489""
","
","
","""event"",""trial"",""time""
""fullscreenenter"",""1"",""3489""
","
","","","-1","","","21","10162","4760","&#9761;","elianto","#3366ff99","-1","-1","1","0","[]","0","0","2","","","","","","","",""
"pit-trial","41","457274","0.0-2.0-11.0-4.0","battery-v0.2","","""event"",""trial"",""time""
""fullscreenenter"",""1"",""3489""
","
","
","""event"",""trial"",""time""
""fullscreenenter"",""1"",""3489""
","
","","","-1","","","21","10162","4760","&#9761;","elianto","#3366ff99","-1","-1","1","+10","[]","0","0","2","","","","","","","",""
"pit-trial","42","462127","0.0-2.0-11.1-0.1","battery-v0.2","","""event"",""trial"",""time""
""fullscreenenter"",""1"",""3489""
","
","
","""event"",""trial"",""time""
""fullscreenenter"",""1"",""3489""
","
","","","-1","","","21","10162","4760","&#9761;","elianto","#3366ff99","-1","-1","1","+10","[]","0","0","2","","","","","","","",""
"pit-trial","43","466981","0.0-2.0-11.1-1.1","battery-v0.2","","""event"",""trial"",""time""
""fullscreenenter"",""1"",""3489""
","
","
","""event"",""trial"",""time""
""fullscreenenter"",""1"",""3489""
","
","","","-1","","","21","10162","4760","&#9761;","elianto","#3366ff99","-1","-1","1","+10","[]","0","0","2","","","","","","","",""
"pit-trial","44","471832","0.0-2.0-11.1-2.1","battery-v0.2","","""event"",""trial"",""time""
""fullscreenenter"",""1"",""3489""
","
","
","""event"",""trial"",""time""
""fullscreenenter"",""1"",""3489""
","
","","","-1","","","21","10162","4760","&#9761;","elianto","#3366ff99","-1","-1","1","+10","[]","0","0","2","","","","","","","",""
"pit-trial","45","476684","0.0-2.0-11.1-3.1","battery-v0.2","","""event"",""trial"",""time""
""fullscreenenter"",""1"",""3489""
","
","
","""event"",""trial"",""time""
""fullscreenenter"",""1"",""3489""
","
","","","-1","","","21","10162","4760","&#9761;","elianto","#3366ff99","-1","-1","1","0","[]","0","0","2","","","","","","","",""
"pit-trial","46","481537","0.0-2.0-11.1-4.1","battery-v0.2","","""event"",""trial"",""time""
""fullscreenenter"",""1"",""3489""
","
","
","""event"",""trial"",""time""
""fullscreenenter"",""1"",""3489""
","
","","","-1","","","21","10162","4760","&#9761;","elianto","#3366ff99","-1","-1","1","+10","[]","0","0","2","","","","","","","",""
"pit-trial","47","486391","0.0-2.0-11.2-0.2","battery-v0.2","","""event"",""trial"",""time""
""fullscreenenter"",""1"",""3489""
","
","
","""event"",""trial"",""time""
""fullscreenenter"",""1"",""3489""
","
","","","-1","","","21","10162","4760","&#9761;","elianto","#3366ff99","-1","-1","1","+10","[]","0","0","2","","","","","","","",""
"pit-trial","48","491246","0.0-2.0-11.2-1.2","battery-v0.2","","""event"",""trial"",""time""
""fullscreenenter"",""1"",""3489""
","
","
","""event"",""trial"",""time""
""fullscreenenter"",""1"",""3489""
","
","","","-1","","","21","10162","4760","&#9761;","elianto","#3366ff99","-1","-1","1","+10","[]","0","0","2","","","","","","","",""
"pit-trial","49","496099","0.0-2.0-11.2-2.2","battery-v0.2","","""event"",""trial"",""time""
""fullscreenenter"",""1"",""3489""
","
","
","""event"",""trial"",""time""
""fullscreenenter"",""1"",""3489""
","
","","","-1","","","21","10162","4760","&#9761;","elianto","#3366ff99","-1","-1","1","+10","[]","0","0","2","","","","","","","",""
"pit-trial","50","500954","0.0-2.0-11.2-3.2","battery-v0.2","","""event"",""trial"",""time""
""fullscreenenter"",""1"",""3489""
","
","
","""event"",""trial"",""time""
""fullscreenenter"",""1"",""3489""
","
","","","-1","","","21","10162","4760","&#9761;","elianto","#3366ff99","-1","-1","1","0","[]","0","0","2","","","","","","","",""
"pit-trial","51","505807","0.0-2.0-11.2-4.2","battery-v0.2","","""event"",""trial"",""time""
""fullscreenenter"",""1"",""3489""
","
","
","""event"",""trial"",""time""
""fullscreenenter"",""1"",""3489""
","
","","","-1","","","21","10162","4760","&#9761;","elianto","#3366ff99","-1","-1","1","+10","[]","0","0","2","","","","","","","",""
"pit-trial","52","510661","0.0-2.0-11.3-0.3","battery-v0.2","","""event"",""trial"",""time""
""fullscreenenter"",""1"",""3489""
","
","
","""event"",""trial"",""time""
""fullscreenenter"",""1"",""3489""
","
","","","-1","","","21","10162","4760","&#9761;","elianto","#3366ff99","-1","-1","1","+10","[]","0","0","2","","","","","","","",""
"pit-trial","53","515514","0.0-2.0-11.3-1.3","battery-v0.2","","""event"",""trial"",""time""
""fullscreenenter"",""1"",""3489""
","
","
","""event"",""trial"",""time""
""fullscreenenter"",""1"",""3489""
","
","","","-1","","","21","10162","4760","&#9761;","elianto","#3366ff99","-1","-1","1","+10","[]","0","0","2","","","","","","","",""
"pit-trial","54","520368","0.0-2.0-11.3-2.3","battery-v0.2","","""event"",""trial"",""time""
""fullscreenenter"",""1"",""3489""
","
","
","""event"",""trial"",""time""
""fullscreenenter"",""1"",""3489""
","
","","","-1","","","21","10162","4760","&#9761;","elianto","#3366ff99","-1","-1","1","+10","[]","0","0","2","","","","","","","",""
"pit-trial","55","525221","0.0-2.0-11.3-3.3","battery-v0.2","","""event"",""trial"",""time""
""fullscreenenter"",""1"",""3489""
","
","
","""event"",""trial"",""time""
""fullscreenenter"",""1"",""3489""
","
","","","-1","","","21","10162","4760","&#9761;","elianto","#3366ff99","-1","-1","1","0","[]","0","0","2","","","","","","","",""
"pit-trial","56","530074","0.0-2.0-11.3-4.3","battery-v0.2","","""event"",""trial"",""time""
""fullscreenenter"",""1"",""3489""
","
","
","""event"",""trial"",""time""
""fullscreenenter"",""1"",""3489""
","
","","","-1","","","21","10162","4760","&#9761;","elianto","#3366ff99","-1","-1","1","+10","[]","0","0","2","","","","","","","",""
"call-function","57","530078","0.0-2.0-12.0","battery-v0.2","","""event"",""trial"",""time""
""fullscreenenter"",""1"",""3489""
","
","
","""event"",""trial"",""time""
""fullscreenenter"",""1"",""3489""
","
","","","","","","","","","","","","","","","","","","","","","","","","","","",""
"pit-instructions","58","565748","0.0-2.0-13.0","battery-v0.2","","""event"",""trial"",""time""
""fullscreenenter"",""1"",""3489""
","
","
","""event"",""trial"",""time""
""fullscreenenter"",""1"",""3489""
","
","","[{""page_index"":0,""viewing_time"":5796.4000000059605},{""page_index"":1,""viewing_time"":8684.09999999404},{""page_index"":2,""viewing_time"":4502.9000000059605},{""page_index"":3,""viewing_time"":11142.199999988079},{""page_index"":4,""viewing_time"":5542.5}]","35668.40000000596","","","","","","","","","","","","","","","","","","","","","","","",""
"pit-trial","59","570601","0.0-2.0-14.0-0.0","battery-v0.2","","""event"",""trial"",""time""
""fullscreenenter"",""1"",""3489""
","
","
","""event"",""trial"",""time""
""fullscreenenter"",""1"",""3489""
","
","","","-1","","","21","10162","4760","&#9826;","elianto","#f73b6a7A","-1","-1","1","0","[]","0","0","3","","","","","","","",""
"pit-trial","60","574255","0.0-2.0-14.0-1.0","battery-v0.2","","""event"",""trial"",""time""
""fullscreenenter"",""1"",""3489""
","
","
","""event"",""trial"",""time""
""fullscreenenter"",""1"",""3489""
","
","","","800.7999999821186","","","21","10162","4760","&#9826;","elianto","#f73b6a7A","-1"," ","0","-10","[1651.199999988079]","1","0","3","","","","","","","",""
"pit-trial","61","579108","0.0-2.0-14.0-2.0","battery-v0.2","","""event"",""trial"",""time""
""fullscreenenter"",""1"",""3489""
","
","
","""event"",""trial"",""time""
""fullscreenenter"",""1"",""3489""
","
","","","-1","","","21","10162","4760","&#9826;","elianto","#f73b6a7A","-1","-1","1","0","[]","0","0","3","","","","","","","",""
"pit-trial","62","583960","0.0-2.0-14.0-3.0","battery-v0.2","","""event"",""trial"",""time""
""fullscreenenter"",""1"",""3489""
","
","
","""event"",""trial"",""time""
""fullscreenenter"",""1"",""3489""
","
","","","-1","","","21","10162","4760","&#9826;","elianto","#f73b6a7A","-1","-1","1","-10","[]","0","0","3","","","","","","","",""
"pit-trial","63","588813","0.0-2.0-14.0-4.0","battery-v0.2","","""event"",""trial"",""time""
""fullscreenenter"",""1"",""3489""
","
","
","""event"",""trial"",""time""
""fullscreenenter"",""1"",""3489""
","
","","","-1","","","21","10162","4760","&#9826;","elianto","#f73b6a7A","-1","-1","1","0","[]","0","0","3","","","","","","","",""
"pit-trial","64","593667","0.0-2.0-14.1-0.1","battery-v0.2","","""event"",""trial"",""time""
""fullscreenenter"",""1"",""3489""
","
","
","""event"",""trial"",""time""
""fullscreenenter"",""1"",""3489""
","
","","","-1","","","21","10162","4760","&#9826;","elianto","#f73b6a7A","-1","-1","1","0","[]","0","0","3","","","","","","","",""
"pit-trial","65","598520","0.0-2.0-14.1-1.1","battery-v0.2","","""event"",""trial"",""time""
""fullscreenenter"",""1"",""3489""
","
","
","""event"",""trial"",""time""
""fullscreenenter"",""1"",""3489""
","
","","","-1","","","21","10162","4760","&#9826;","elianto","#f73b6a7A","-1","-1","1","0","[]","0","0","3","","","","","","","",""
"pit-trial","66","603373","0.0-2.0-14.1-2.1","battery-v0.2","","""event"",""trial"",""time""
""fullscreenenter"",""1"",""3489""
","
","
","""event"",""trial"",""time""
""fullscreenenter"",""1"",""3489""
","
","","","-1","","","21","10162","4760","&#9826;","elianto","#f73b6a7A","-1","-1","1","0","[]","0","0","3","","","","","","","",""
"pit-trial","67","608226","0.0-2.0-14.1-3.1","battery-v0.2","","""event"",""trial"",""time""
""fullscreenenter"",""1"",""3489""
","
","
","""event"",""trial"",""time""
""fullscreenenter"",""1"",""3489""
","
","","","-1","","","21","10162","4760","&#9826;","elianto","#f73b6a7A","-1","-1","1","-10","[]","0","0","3","","","","","","","",""
"pit-trial","68","613079","0.0-2.0-14.1-4.1","battery-v0.2","","""event"",""trial"",""time""
""fullscreenenter"",""1"",""3489""
","
","
","""event"",""trial"",""time""
""fullscreenenter"",""1"",""3489""
","
","","","-1","","","21","10162","4760","&#9826;","elianto","#f73b6a7A","-1","-1","1","0","[]","0","0","3","","","","","","","",""
"pit-trial","69","617934","0.0-2.0-14.2-0.2","battery-v0.2","","""event"",""trial"",""time""
""fullscreenenter"",""1"",""3489""
","
","
","""event"",""trial"",""time""
""fullscreenenter"",""1"",""3489""
","
","","","-1","","","21","10162","4760","&#9826;","elianto","#f73b6a7A","-1","-1","1","0","[]","0","0","3","","","","","","","",""
"pit-trial","70","622789","0.0-2.0-14.2-1.2","battery-v0.2","","""event"",""trial"",""time""
""fullscreenenter"",""1"",""3489""
","
","
","""event"",""trial"",""time""
""fullscreenenter"",""1"",""3489""
","
","","","-1","","","21","10162","4760","&#9826;","elianto","#f73b6a7A","-1","-1","1","0","[]","0","0","3","","","","","","","",""
"pit-trial","71","627643","0.0-2.0-14.2-2.2","battery-v0.2","","""event"",""trial"",""time""
""fullscreenenter"",""1"",""3489""
","
","
","""event"",""trial"",""time""
""fullscreenenter"",""1"",""3489""
","
","","","-1","","","21","10162","4760","&#9826;","elianto","#f73b6a7A","-1","-1","1","0","[]","0","0","3","","","","","","","",""
"pit-trial","72","631592","0.0-2.0-14.2-3.2","battery-v0.2","","""event"",""trial"",""time""
""fullscreenenter"",""1"",""3489""
","
","
","""event"",""trial"",""time""
""fullscreenenter"",""1"",""3489""
","
","","","1096.5999999940395","","","21","10162","4760","&#9826;","elianto","#f73b6a7A","-1"," ","0","0","[1947.0999999940395]","1","0","3","","","","","","","",""
"pit-trial","73","636445","0.0-2.0-14.2-4.2","battery-v0.2","","""event"",""trial"",""time""
""fullscreenenter"",""1"",""3489""
","
","
","""event"",""trial"",""time""
""fullscreenenter"",""1"",""3489""
","
","","","-1","","","21","10162","4760","&#9826;","elianto","#f73b6a7A","-1","-1","1","0","[]","0","0","3","","","","","","","",""
"pit-trial","74","641299","0.0-2.0-14.3-0.3","battery-v0.2","","""event"",""trial"",""time""
""fullscreenenter"",""1"",""3489""
","
","
","""event"",""trial"",""time""
""fullscreenenter"",""1"",""3489""
","
","","","-1","","","21","10162","4760","&#9826;","elianto","#f73b6a7A","-1","-1","1","0","[]","0","0","3","","","","","","","",""
"pit-trial","75","646152","0.0-2.0-14.3-1.3","battery-v0.2","","""event"",""trial"",""time""
""fullscreenenter"",""1"",""3489""
","
","
","""event"",""trial"",""time""
""fullscreenenter"",""1"",""3489""
","
","","","-1","","","21","10162","4760","&#9826;","elianto","#f73b6a7A","-1","-1","1","0","[]","0","0","3","","","","","","","",""
"pit-trial","76","651007","0.0-2.0-14.3-2.3","battery-v0.2","","""event"",""trial"",""time""
""fullscreenenter"",""1"",""3489""
","
","
","""event"",""trial"",""time""
""fullscreenenter"",""1"",""3489""
","
","","","-1","","","21","10162","4760","&#9826;","elianto","#f73b6a7A","-1","-1","1","0","[]","0","0","3","","","","","","","",""
"pit-trial","77","655862","0.0-2.0-14.3-3.3","battery-v0.2","","""event"",""trial"",""time""
""fullscreenenter"",""1"",""3489""
","
","
","""event"",""trial"",""time""
""fullscreenenter"",""1"",""3489""
","
","","","-1","","","21","10162","4760","&#9826;","elianto","#f73b6a7A","-1","-1","1","-10","[]","0","0","3","","","","","","","",""
"pit-trial","78","660716","0.0-2.0-14.3-4.3","battery-v0.2","","""event"",""trial"",""time""
""fullscreenenter"",""1"",""3489""
","
","
","""event"",""trial"",""time""
""fullscreenenter"",""1"",""3489""
","
","","","-1","","","21","10162","4760","&#9826;","elianto","#f73b6a7A","-1","-1","1","0","[]","0","0","3","","","","","","","",""
"call-function","79","660717","0.0-2.0-15.0","battery-v0.2","","""event"",""trial"",""time""
""fullscreenenter"",""1"",""3489""
","
","
","""event"",""trial"",""time""
""fullscreenenter"",""1"",""3489""
","
","","","","","","","","","","","","","","","","","","","","","","","","","","",""
"pit-instructions","80","690064","0.0-2.0-16.0","battery-v0.2","","""event"",""trial"",""time""
""fullscreenenter"",""1"",""3489""
","
","
","""event"",""trial"",""time""
""fullscreenenter"",""1"",""3489""
","
","","[{""page_index"":0,""viewing_time"":8117.699999988079},{""page_index"":1,""viewing_time"":10528.300000011921},{""page_index"":2,""viewing_time"":4928.4000000059605},{""page_index"":3,""viewing_time"":5772}]","29346.59999999404","","","","","","","","","","","","","","","","","","","","","","","",""
"pit-trial","81","693406","0.0-2.0-17.0-0.0","battery-v0.2","","""event"",""trial"",""time""
""fullscreenenter"",""1"",""3489""
","
","
","""event"",""trial"",""time""
""fullscreenenter"",""1"",""3489""
","
","","","489.2999999821186","","","21","10162","4760","&#9789;","elianto","#f73b6a7A"," "," ","1","0","[1339.699999988079]","1","0","4","","","","","","","",""
"pit-trial","82","696906","0.0-2.0-17.0-1.0","battery-v0.2","","""event"",""trial"",""time""
""fullscreenenter"",""1"",""3489""
","
","
","""event"",""trial"",""time""
""fullscreenenter"",""1"",""3489""
","
","","","648.3999999761581","","","21","10162","4760","&#9789;","elianto","#f73b6a7A"," "," ","1","0","[1498.5999999940395]","1","0","4","","","","","","","",""
"pit-trial","83","700407","0.0-2.0-17.0-2.0","battery-v0.2","","""event"",""trial"",""time""
""fullscreenenter"",""1"",""3489""
","
","
","""event"",""trial"",""time""
""fullscreenenter"",""1"",""3489""
","
","","","646","","","21","10162","4760","&#9789;","elianto","#f73b6a7A"," "," ","1","0","[1497.0999999940395]","1","0","4","","","","","","","",""
"pit-trial","84","704156","0.0-2.0-17.0-3.0","battery-v0.2","","""event"",""trial"",""time""
""fullscreenenter"",""1"",""3489""
","
","
","""event"",""trial"",""time""
""fullscreenenter"",""1"",""3489""
","
","","","895.0999999940395","","","21","10162","4760","&#9789;","elianto","#f73b6a7A"," "," ","1","-10","[1746.5999999940395]","1","0","4","","","","","","","",""
"pit-trial","85","707382","0.0-2.0-17.0-4.0","battery-v0.2","","""event"",""trial"",""time""
""fullscreenenter"",""1"",""3489""
","
","
","""event"",""trial"",""time""
""fullscreenenter"",""1"",""3489""
","
","","","374.30000001192093","","","21","10162","4760","&#9789;","elianto","#f73b6a7A"," "," ","1","0","[1225]","1","0","4","","","","","","","",""
"pit-trial","86","710593","0.0-2.0-17.1-0.1","battery-v0.2","","""event"",""trial"",""time""
""fullscreenenter"",""1"",""3489""
","
","
","""event"",""trial"",""time""
""fullscreenenter"",""1"",""3489""
","
","","","357.30000001192093","","","21","10162","4760","&#9789;","elianto","#f73b6a7A"," "," ","1","0","[1208.0999999940395]","1","0","4","","","","","","","",""
"pit-trial","87","713797","0.0-2.0-17.1-1.1","battery-v0.2","","""event"",""trial"",""time""
""fullscreenenter"",""1"",""3489""
","
","
","""event"",""trial"",""time""
""fullscreenenter"",""1"",""3489""
","
","","","351.09999999403954","","","21","10162","4760","&#9789;","elianto","#f73b6a7A"," "," ","1","0","[1202.0999999940395]","1","0","4","","","","","","","",""
"pit-trial","88","718650","0.0-2.0-17.1-2.1","battery-v0.2","","""event"",""trial"",""time""
""fullscreenenter"",""1"",""3489""
","
","
","""event"",""trial"",""time""
""fullscreenenter"",""1"",""3489""
","
","","","-1","","","21","10162","4760","&#9789;","elianto","#f73b6a7A"," ","-1","0","-10","[]","0","0","4","","","","","","","",""
"pit-trial","89","721914","0.0-2.0-17.1-3.1","battery-v0.2","","""event"",""trial"",""time""
""fullscreenenter"",""1"",""3489""
","
","
","""event"",""trial"",""time""
""fullscreenenter"",""1"",""3489""
","
","","","410.2000000178814","","","21","10162","4760","&#9789;","elianto","#f73b6a7A"," "," ","1","-10","[1261.300000011921]","1","0","4","","","","","","","",""
"pit-trial","90","725653","0.0-2.0-17.1-4.1","battery-v0.2","","""event"",""trial"",""time""
""fullscreenenter"",""1"",""3489""
","
","
","""event"",""trial"",""time""
""fullscreenenter"",""1"",""3489""
","
","","","886.6999999880791","","","21","10162","4760","&#9789;","elianto","#f73b6a7A"," "," ","1","0","[1737.9000000059605]","1","0","4","","","","","","","",""
"pit-trial","91","729026","0.0-2.0-17.2-0.2","battery-v0.2","","""event"",""trial"",""time""
""fullscreenenter"",""1"",""3489""
","
","
","""event"",""trial"",""time""
""fullscreenenter"",""1"",""3489""
","
","","","521.2000000178814","","","21","10162","4760","&#9789;","elianto","#f73b6a7A"," "," ","1","0","[1371.4000000059605]","1","0","4","","","","","","","",""
"pit-trial","92","732296","0.0-2.0-17.2-1.2","battery-v0.2","","""event"",""trial"",""time""
""fullscreenenter"",""1"",""3489""
","
","
","""event"",""trial"",""time""
""fullscreenenter"",""1"",""3489""
","
","","","416.40000000596046","","","21","10162","4760","&#9789;","elianto","#f73b6a7A"," "," ","1","0","[1267.800000011921]","1","0","4","","","","","","","",""
"pit-trial","93","735659","0.0-2.0-17.2-2.2","battery-v0.2","","""event"",""trial"",""time""
""fullscreenenter"",""1"",""3489""
","
","
","""event"",""trial"",""time""
""fullscreenenter"",""1"",""3489""
","
","","","510.89999997615814","","","21","10162","4760","&#9789;","elianto","#f73b6a7A"," "," ","1","0","[1361.2999999821186]","1","0","4","","","","","","","",""
"pit-trial","94","740513","0.0-2.0-17.2-3.2","battery-v0.2","","""event"",""trial"",""time""
""fullscreenenter"",""1"",""3489""
","
","
","""event"",""trial"",""time""
""fullscreenenter"",""1"",""3489""
","
","","","-1","","","21","10162","4760","&#9789;","elianto","#f73b6a7A"," ","-1","0","0","[]","0","0","4","","","","","","","",""
"pit-trial","95","743921","0.0-2.0-17.2-4.2","battery-v0.2","","""event"",""trial"",""time""
""fullscreenenter"",""1"",""3489""
","
","
","""event"",""trial"",""time""
""fullscreenenter"",""1"",""3489""
","
","","","556.6999999880791","","","21","10162","4760","&#9789;","elianto","#f73b6a7A"," "," ","1","0","[1407]","1","0","4","","","","","","","",""
"pit-trial","96","747318","0.0-2.0-17.3-0.3","battery-v0.2","","""event"",""trial"",""time""
""fullscreenenter"",""1"",""3489""
","
","
","""event"",""trial"",""time""
""fullscreenenter"",""1"",""3489""
","
","","","542.3000000119209","","","21","10162","4760","&#9789;","elianto","#f73b6a7A"," "," ","1","0","[1394.2000000178814]","1","0","4","","","","","","","",""
"pit-trial","97","750719","0.0-2.0-17.3-1.3","battery-v0.2","","""event"",""trial"",""time""
""fullscreenenter"",""1"",""3489""
","
","
","""event"",""trial"",""time""
""fullscreenenter"",""1"",""3489""
","
","","","547.2000000178814","","","21","10162","4760","&#9789;","elianto","#f73b6a7A"," "," ","1","0","[1398.7000000178814]","1","0","4","","","","","","","",""
"pit-trial","98","754460","0.0-2.0-17.3-2.3","battery-v0.2","","""event"",""trial"",""time""
""fullscreenenter"",""1"",""3489""
","
","
","""event"",""trial"",""time""
""fullscreenenter"",""1"",""3489""
","
","","","888.1999999880791","","","21","10162","4760","&#9789;","elianto","#f73b6a7A"," "," ","1","0","[1738.5999999940395]","1","0","4","","","","","","","",""
"pit-trial","99","759313","0.0-2.0-17.3-3.3","battery-v0.2","","""event"",""trial"",""time""
""fullscreenenter"",""1"",""3489""
","
","
","""event"",""trial"",""time""
""fullscreenenter"",""1"",""3489""
","
","","","-1","","","21","10162","4760","&#9789;","elianto","#f73b6a7A"," ","-1","0","0","[]","0","0","4","","","","","","","",""
"pit-trial","100","763052","0.0-2.0-17.3-4.3","battery-v0.2","","""event"",""trial"",""time""
""fullscreenenter"",""1"",""3489""
","
","
","""event"",""trial"",""time""
""fullscreenenter"",""1"",""3489""
","
","","","887.5","","","21","10162","4760","&#9789;","elianto","#f73b6a7A"," "," ","1","0","[1737.5]","1","0","4","","","","","","","",""
"call-function","101","763054","0.0-2.0-18.0","battery-v0.2","","""event"",""trial"",""time""
""fullscreenenter"",""1"",""3489""
","
","
","""event"",""trial"",""time""
""fullscreenenter"",""1"",""3489""
","
","","","","","","","","","","","","","","","","","","","","","","","","","","",""
"pit-instructions","102","855130","0.0-2.0-19.0","battery-v0.2","","""event"",""trial"",""time""
""fullscreenenter"",""1"",""3489""
","
","
","""event"",""trial"",""time""
""fullscreenenter"",""1"",""3489""
","
","","[{""page_index"":0,""viewing_time"":8540.09999999404},{""page_index"":1,""viewing_time"":6990.5999999940395},{""page_index"":2,""viewing_time"":21932.90000000596},{""page_index"":3,""viewing_time"":13166.800000011921},{""page_index"":4,""viewing_time"":8467.59999999404},{""page_index"":5,""viewing_time"":10821.59999999404},{""page_index"":6,""viewing_time"":10862.199999988079},{""page_index"":7,""viewing_time"":6965.700000017881},{""page_index"":8,""viewing_time"":4327.799999982119}]","92075.59999999404","","","","","","","","","","","","","","","","","","","","","","","",""
"pit-comprehension","103","860108","0.0-2.0-20.0-0.0","battery-v0.2","","""event"",""trial"",""time""
""fullscreenenter"",""1"",""3489""
","
","
","""event"",""trial"",""time""
""fullscreenenter"",""1"",""3489""
","
","","","4975.600000023842","[""SPACE""]","0","21","10162","4760","","","","","","","","","","","","","","","","","","",""
"pit-instructions","104","862732","0.0-2.0-20.0-1.0","battery-v0.2","","""event"",""trial"",""time""
""fullscreenenter"",""1"",""3489""
","
","
","""event"",""trial"",""time""
""fullscreenenter"",""1"",""3489""
","
","","[{""page_index"":0,""viewing_time"":2595.300000011921}]","2595.5","","","","","","","","","","","","","","","","","","","","","","","",""
"pit-comprehension","105","869715","0.0-2.0-21.0-0.0","battery-v0.2","","""event"",""trial"",""time""
""fullscreenenter"",""1"",""3489""
","
","
","""event"",""trial"",""time""
""fullscreenenter"",""1"",""3489""
","
","","","6980.4000000059605","[""10""]","0","21","10162","4760","","","","","","","","","","","","","","","","","","",""
"pit-instructions","106","875420","0.0-2.0-21.0-1.0","battery-v0.2","","""event"",""trial"",""time""
""fullscreenenter"",""1"",""3489""
","
","
","""event"",""trial"",""time""
""fullscreenenter"",""1"",""3489""
","
","","[{""page_index"":0,""viewing_time"":5679.5}]","5679.800000011921","","","","","","","","","","","","","","","","","","","","","","","",""
"pit-comprehension","107","882806","0.0-2.0-22.0-0.0","battery-v0.2","","""event"",""trial"",""time""
""fullscreenenter"",""1"",""3489""
","
","
","""event"",""trial"",""time""
""fullscreenenter"",""1"",""3489""
","
","","","7384.199999988079","[""0""]","0","21","10162","4760","","","","","","","","","","","","","","","","","","",""
"pit-instructions","108","885715","0.0-2.0-22.0-1.0","battery-v0.2","","""event"",""trial"",""time""
""fullscreenenter"",""1"",""3489""
","
","
","""event"",""trial"",""time""
""fullscreenenter"",""1"",""3489""
","
","","[{""page_index"":0,""viewing_time"":2880.699999988079}]","2881","","","","","","","","","","","","","","","","","","","","","","","",""
"pit-comprehension","109","917169","0.0-2.0-23.0-0.0","battery-v0.2","","""event"",""trial"",""time""
""fullscreenenter"",""1"",""3489""
","
","
","""event"",""trial"",""time""
""fullscreenenter"",""1"",""3489""
","
","","","31452.5","[""False""]","1","21","10162","4760","","","","","","","","","","","","","","","","","","",""
"pit-instructions","110","926722","0.0-2.0-23.0-1.0","battery-v0.2","","""event"",""trial"",""time""
""fullscreenenter"",""1"",""3489""
","
","
","""event"",""trial"",""time""
""fullscreenenter"",""1"",""3489""
","
","","[{""page_index"":0,""viewing_time"":9526}]","9526.199999988079","","","","","","","","","","","","","","","","","","","","","","","",""
"pit-instructions","111","927649","0.0-2.0-23.0-2.0-0.0","battery-v0.2","","""event"",""trial"",""time""
""fullscreenenter"",""1"",""3489""
","
","
","""event"",""trial"",""time""
""fullscreenenter"",""1"",""3489""
","
","","[{""page_index"":0,""viewing_time"":925.5}]","925.7999999821186","","","","","","","","","","","","","","","","","","","","","","","",""
"pit-comprehension","112","939040","0.0-2.0-23.1-0.1","battery-v0.2","","""event"",""trial"",""time""
""fullscreenenter"",""1"",""3489""
","
","
","""event"",""trial"",""time""
""fullscreenenter"",""1"",""3489""
","
","","","11389.200000017881","[""True""]","0","21","10162","4760","","","","","","","","","","","","","","","","","","",""
"pit-instructions","113","940688","0.0-2.0-23.1-1.1","battery-v0.2","","""event"",""trial"",""time""
""fullscreenenter"",""1"",""3489""
","
","
","""event"",""trial"",""time""
""fullscreenenter"",""1"",""3489""
","
","","[{""page_index"":0,""viewing_time"":1621.800000011921}]","1622","","","","","","","","","","","","","","","","","","","","","","","",""
"pit-comprehension","114","948515","0.0-2.0-24.0-0.0","battery-v0.2","","""event"",""trial"",""time""
""fullscreenenter"",""1"",""3489""
","
","
","""event"",""trial"",""time""
""fullscreenenter"",""1"",""3489""
","
","","","7825.5","[""True""]","0","21","10162","4760","","","","","","","","","","","","","","","","","","",""
"pit-instructions","115","951050","0.0-2.0-24.0-1.0","battery-v0.2","","""event"",""trial"",""time""
""fullscreenenter"",""1"",""3489""
","
","
","""event"",""trial"",""time""
""fullscreenenter"",""1"",""3489""
","
","","[{""page_index"":0,""viewing_time"":2504.800000011921}]","2505","","","","","","","","","","","","","","","","","","","","","","","",""
"pit-comprehension","116","957969","0.0-2.0-25.0-0.0","battery-v0.2","","""event"",""trial"",""time""
""fullscreenenter"",""1"",""3489""
","
","
","""event"",""trial"",""time""
""fullscreenenter"",""1"",""3489""
","
","","","6917.5","[""True""]","0","21","10162","4760","","","","","","","","","","","","","","","","","","",""
"pit-instructions","117","960737","0.0-2.0-25.0-1.0","battery-v0.2","","""event"",""trial"",""time""
""fullscreenenter"",""1"",""3489""
","
","
","""event"",""trial"",""time""
""fullscreenenter"",""1"",""3489""
","
","","[{""page_index"":0,""viewing_time"":2739.7999999821186}]","2740.0999999940395","","","","","","","","","","","","","","","","","","","","","","","",""
"pit-comprehension","118","967829","0.0-2.0-26.0-0.0","battery-v0.2","","""event"",""trial"",""time""
""fullscreenenter"",""1"",""3489""
","
","
","""event"",""trial"",""time""
""fullscreenenter"",""1"",""3489""
","
","","","7089.4000000059605","[""False""]","0","21","10162","4760","","","","","","","","","","","","","","","","","","",""
"pit-instructions","119","969909","0.0-2.0-26.0-1.0","battery-v0.2","","""event"",""trial"",""time""
""fullscreenenter"",""1"",""3489""
","
","
","""event"",""trial"",""time""
""fullscreenenter"",""1"",""3489""
","
","","[{""page_index"":0,""viewing_time"":2054.100000023842}]","2054.300000011921","","","","","","","","","","","","","","","","","","","","","","","",""
"pit-instructions","120","989163","0.0-3.0","battery-v0.2","","""event"",""trial"",""time""
""fullscreenenter"",""1"",""3489""
","
","
","""event"",""trial"",""time""
""fullscreenenter"",""1"",""3489""
","
","","[{""page_index"":0,""viewing_time"":4689.0999999940395},{""page_index"":1,""viewing_time"":5715.300000011921},{""page_index"":2,""viewing_time"":8847.800000011921}]","19252.40000000596","","","","","","","","","","","","","","","","","","","","","","","",""
"pit-trial","121","992874","0.0-4.0","battery-v0.2","","""event"",""trial"",""time""
""fullscreenenter"",""1"",""3489""
","
","
","""event"",""trial"",""time""
""fullscreenenter"",""1"",""3489""
","
","","","858.1999999880791","","","21","10162","4760","&#9728;","elianto","#f73b6a7A","-1"," ","0","-10","[1708.800000011921]","1","1","","","10162","1","0","4","lose","no-go","0"
"pit-trial","122","996785","0.0-5.0","battery-v0.2","","""event"",""trial"",""time""
""fullscreenenter"",""1"",""3489""
","
","
","""event"",""trial"",""time""
""fullscreenenter"",""1"",""3489""
","
","","","1056.7000000178814","","","21","10162","4760","&#9752;","elianto","#f73b6a7A"," "," ","1","0","[1907.7000000178814]","1","1","","","10162","2","3","3","lose","go","0"
"pit-trial","123","1000888","0.0-6.0","battery-v0.2","","""event"",""trial"",""time""
""fullscreenenter"",""1"",""3489""
","
","
","""event"",""trial"",""time""
""fullscreenenter"",""1"",""3489""
","
","","","1246.3999999761581","","","21","10162","4760","&#9730;","elianto","#3366ff99"," "," ","1","+10","[2098.0999999940395]","1","1","","","10162","3","1","1","win","go","0"
"pit-trial","124","1005013","0.0-7.0","battery-v0.2","","""event"",""trial"",""time""
""fullscreenenter"",""1"",""3489""
","
","
","""event"",""trial"",""time""
""fullscreenenter"",""1"",""3489""
","
","","","1272.8999999761581","","","21","10162","4760","&#9733;","elianto","#3366ff99","-1"," ","0","+10","[2123.199999988079]","1","1","","","10162","4","2","2","win","no-go","1"
"pit-trial","125","1008917","0.0-8.0","battery-v0.2","","""event"",""trial"",""time""
""fullscreenenter"",""1"",""3489""
","
","
","""event"",""trial"",""time""
""fullscreenenter"",""1"",""3489""
","
","","","1047.699999988079","","","21","10162","4760","&#9730;","elianto","#3366ff99"," "," ","1","+10","[1899.199999988079]","1","1","","","10162","5","1","1","win","go","0"
"pit-trial","126","1013142","0.0-9.0","battery-v0.2","","""event"",""trial"",""time""
""fullscreenenter"",""1"",""3489""
","
","
","""event"",""trial"",""time""
""fullscreenenter"",""1"",""3489""
","
","","","1371.9000000059605","","","21","10162","4760","&#9752;","elianto","#f73b6a7A"," "," ","1","0","[2223.4000000059605]","1","1","","","10162","6","3","3","lose","go","0"
"pit-trial","127","1017995","0.0-10.0","battery-v0.2","","""event"",""trial"",""time""
""fullscreenenter"",""1"",""3489""
","
","
","""event"",""trial"",""time""
""fullscreenenter"",""1"",""3489""
","
","","","-1","","","21","10162","4760","&#9728;","elianto","#f73b6a7A","-1","-1","1","0","[]","0","1","","","10162","7","0","4","lose","no-go","0"
"pit-trial","128","1022007","0.0-11.0","battery-v0.2","","""event"",""trial"",""time""
""fullscreenenter"",""1"",""3489""
","
","
","""event"",""trial"",""time""
""fullscreenenter"",""1"",""3489""
","
","","","1157.5999999940395","","","21","10162","4760","&#9733;","elianto","#3366ff99","-1"," ","0","0","[2008.699999988079]","1","1","","","10162","8","2","2","win","no-go","0"
"pit-trial","129","1026862","0.0-12.0","battery-v0.2","","""event"",""trial"",""time""
""fullscreenenter"",""1"",""3489""
","
","
","""event"",""trial"",""time""
""fullscreenenter"",""1"",""3489""
","
","","","-1","","","21","10162","4760","&#9733;","elianto","#3366ff99","-1","-1","1","+10","[]","0","1","","","10162","9","2","2","win","no-go","0"
"pit-trial","130","1031716","0.0-13.0","battery-v0.2","","""event"",""trial"",""time""
""fullscreenenter"",""1"",""3489""
","
","
","""event"",""trial"",""time""
""fullscreenenter"",""1"",""3489""
","
","","","-1","","","21","10162","4760","&#9728;","elianto","#f73b6a7A","-1","-1","1","0","[]","0","1","","","10162","10","0","4","lose","no-go","0"
"pit-trial","131","1035256","0.0-14.0","battery-v0.2","","""event"",""trial"",""time""
""fullscreenenter"",""1"",""3489""
","
","
","""event"",""trial"",""time""
""fullscreenenter"",""1"",""3489""
","
","","","687.3000000119209","","","21","10162","4760","&#9752;","elianto","#f73b6a7A"," "," ","1","-10","[1537.9000000059605]","1","1","","","10162","11","3","3","lose","go","1"
"pit-trial","132","1038766","0.0-15.0","battery-v0.2","","""event"",""trial"",""time""
""fullscreenenter"",""1"",""3489""
","
","
","""event"",""trial"",""time""
""fullscreenenter"",""1"",""3489""
","
","","","656.4000000059605","","","21","10162","4760","&#9730;","elianto","#3366ff99"," "," ","1","+10","[1507]","1","1","","","10162","12","1","1","win","go","0"
"pit-trial","133","1043618","0.0-16.0","battery-v0.2","","""event"",""trial"",""time""
""fullscreenenter"",""1"",""3489""
","
","
","""event"",""trial"",""time""
""fullscreenenter"",""1"",""3489""
","
","","","-1","","","21","10162","4760","&#9728;","elianto","#f73b6a7A","-1","-1","1","0","[]","0","1","","","10162","13","0","4","lose","no-go","0"
"pit-trial","134","1048471","0.0-17.0","battery-v0.2","","""event"",""trial"",""time""
""fullscreenenter"",""1"",""3489""
","
","
","""event"",""trial"",""time""
""fullscreenenter"",""1"",""3489""
","
","","","-1","","","21","10162","4760","&#9752;","elianto","#f73b6a7A"," ","-1","0","0","[]","0","1","","","10162","14","3","3","lose","go","1"
"pit-trial","135","1052079","0.0-18.0","battery-v0.2","","""event"",""trial"",""time""
""fullscreenenter"",""1"",""3489""
","
","
","""event"",""trial"",""time""
""fullscreenenter"",""1"",""3489""
","
","","","752.6999999880791","","","21","10162","4760","&#9733;","elianto","#3366ff99","-1"," ","0","0","[1604.699999988079]","1","1","","","10162","15","2","2","win","no-go","0"
"pit-trial","136","1055563","0.0-19.0","battery-v0.2","","""event"",""trial"",""time""
""fullscreenenter"",""1"",""3489""
","
","
","""event"",""trial"",""time""
""fullscreenenter"",""1"",""3489""
","
","","","630.8999999761581","","","21","10162","4760","&#9730;","elianto","#3366ff99"," "," ","1","+10","[1481.699999988079]","1","1","","","10162","16","1","1","win","go","0"
"pit-trial","137","1060416","0.0-20.0","battery-v0.2","","""event"",""trial"",""time""
""fullscreenenter"",""1"",""3489""
","
","
","""event"",""trial"",""time""
""fullscreenenter"",""1"",""3489""
","
","","","-1","","","21","10162","4760","&#9752;","elianto","#f73b6a7A"," ","-1","0","-10","[]","0","1","","","10162","17","3","3","lose","go","0"
"pit-trial","138","1065270","0.0-21.0","battery-v0.2","","""event"",""trial"",""time""
""fullscreenenter"",""1"",""3489""
","
","
","""event"",""trial"",""time""
""fullscreenenter"",""1"",""3489""
","
","","","-1","","","21","10162","4760","&#9728;","elianto","#f73b6a7A","-1","-1","1","0","[]","0","1","","","10162","18","0","4","lose","no-go","0"
"pit-trial","139","1069160","0.0-22.0","battery-v0.2","","""event"",""trial"",""time""
""fullscreenenter"",""1"",""3489""
","
","
","""event"",""trial"",""time""
""fullscreenenter"",""1"",""3489""
","
","","","1038.2999999821186","","","21","10162","4760","&#9730;","elianto","#3366ff99"," "," ","1","+10","[1888.5999999940395]","1","1","","","10162","19","1","1","win","go","0"
"pit-trial","140","1074014","0.0-23.0","battery-v0.2","","""event"",""trial"",""time""
""fullscreenenter"",""1"",""3489""
""blur"",""141"",""1085064""
""focus"",""141"",""1087982""
","""event"",""trial"",""time""
""blur"",""141"",""1085064""
","""event"",""trial"",""time""
""focus"",""141"",""1087982""
","""event"",""trial"",""time""
""fullscreenenter"",""1"",""3489""
","
","","","-1","","","21","10162","4760","&#9733;","elianto","#3366ff99","-1","-1","1","+10","[]","0","1","","","10162","20","2","2","win","no-go","0"
"pit-instructions","141","1090517","0.0-24.0","battery-v0.2","","""event"",""trial"",""time""
""fullscreenenter"",""1"",""3489""
""blur"",""141"",""1085064""
""focus"",""141"",""1087982""
","""event"",""trial"",""time""
""blur"",""141"",""1085064""
","""event"",""trial"",""time""
""focus"",""141"",""1087982""
","""event"",""trial"",""time""
""fullscreenenter"",""1"",""3489""
","
","","[{""page_index"":0,""viewing_time"":8131.699999988079},{""page_index"":1,""viewing_time"":8371.100000023842}]","16503","","","","","","","","","","","","","","","","","","","","","","","",""
"pit-trial","142","1094195","0.0-25.0","battery-v0.2","","""event"",""trial"",""time""
""fullscreenenter"",""1"",""3489""
""blur"",""141"",""1085064""
""focus"",""141"",""1087982""
","""event"",""trial"",""time""
""blur"",""141"",""1085064""
","""event"",""trial"",""time""
""focus"",""141"",""1087982""
","""event"",""trial"",""time""
""fullscreenenter"",""1"",""3489""
","
","","","824","","","21","10162","4760","t","elianto","#f73b6a7A","-1"," ","0","-10","[1674.8999999761581]","1","2","","","10162","21","2","4","lose","no-go","0"
"pit-trial","143","1097887","0.0-26.0","battery-v0.2","","""event"",""trial"",""time""
""fullscreenenter"",""1"",""3489""
""blur"",""141"",""1085064""
""focus"",""141"",""1087982""
","""event"",""trial"",""time""
""blur"",""141"",""1085064""
","""event"",""trial"",""time""
""focus"",""141"",""1087982""
","""event"",""trial"",""time""
""fullscreenenter"",""1"",""3489""
","
","","","839","","","21","10162","4760","f","elianto","#3366ff99"," "," ","1","+10","[1689.7999999821186]","1","2","","","10162","22","1","1","win","go","0"
"pit-trial","144","1102623","0.0-27.0","battery-v0.2","","""event"",""trial"",""time""
""fullscreenenter"",""1"",""3489""
""blur"",""141"",""1085064""
""focus"",""141"",""1087982""
","""event"",""trial"",""time""
""blur"",""141"",""1085064""
","""event"",""trial"",""time""
""focus"",""141"",""1087982""
","""event"",""trial"",""time""
""fullscreenenter"",""1"",""3489""
","
","","","1882.7999999821186","","","21","10162","4760","b","elianto","#f73b6a7A"," "," ","1","0","[2734.199999988079]","1","2","","","10162","23","3","3","lose","go","0"
"pit-trial","145","1107477","0.0-28.0","battery-v0.2","","""event"",""trial"",""time""
""fullscreenenter"",""1"",""3489""
""blur"",""141"",""1085064""
""focus"",""141"",""1087982""
","""event"",""trial"",""time""
""blur"",""141"",""1085064""
","""event"",""trial"",""time""
""focus"",""141"",""1087982""
","""event"",""trial"",""time""
""fullscreenenter"",""1"",""3489""
","
","","","-1","","","21","10162","4760","n","elianto","#f73b6a7A","-1","-1","1","-10","[]","0","2","","","10162","24","0","4","lose","no-go","1"
"pit-trial","146","1111566","0.0-29.0","battery-v0.2","","""event"",""trial"",""time""
""fullscreenenter"",""1"",""3489""
""blur"",""141"",""1085064""
""focus"",""141"",""1087982""
","""event"",""trial"",""time""
""blur"",""141"",""1085064""
","""event"",""trial"",""time""
""focus"",""141"",""1087982""
","""event"",""trial"",""time""
""fullscreenenter"",""1"",""3489""
","
","","","1235.9000000059605","","","21","10162","4760","n","elianto","#f73b6a7A","-1"," ","0","-10","[2087]","1","2","","","10162","25","0","4","lose","no-go","0"
"pit-trial","147","1115478","0.0-30.0","battery-v0.2","","""event"",""trial"",""time""
""fullscreenenter"",""1"",""3489""
""blur"",""141"",""1085064""
""focus"",""141"",""1087982""
","""event"",""trial"",""time""
""blur"",""141"",""1085064""
","""event"",""trial"",""time""
""focus"",""141"",""1087982""
","""event"",""trial"",""time""
""fullscreenenter"",""1"",""3489""
","
","","","1056.5","","","21","10162","4760","f","elianto","#3366ff99"," "," ","1","+10","[1908.199999988079]","1","2","","","10162","26","1","1","win","go","0"
"pit-trial","148","1120332","0.0-31.0","battery-v0.2","","""event"",""trial"",""time""
""fullscreenenter"",""1"",""3489""
""blur"",""141"",""1085064""
""focus"",""141"",""1087982""
","""event"",""trial"",""time""
""blur"",""141"",""1085064""
","""event"",""trial"",""time""
""focus"",""141"",""1087982""
","""event"",""trial"",""time""
""fullscreenenter"",""1"",""3489""
","
","","","-1","","","21","10162","4760","t","elianto","#f73b6a7A","-1","-1","1","0","[]","0","2","","","10162","27","2","4","lose","no-go","0"
"pit-trial","149","1124670","0.0-32.0","battery-v0.2","","""event"",""trial"",""time""
""fullscreenenter"",""1"",""3489""
""blur"",""141"",""1085064""
""focus"",""141"",""1087982""
","""event"",""trial"",""time""
""blur"",""141"",""1085064""
","""event"",""trial"",""time""
""focus"",""141"",""1087982""
","""event"",""trial"",""time""
""fullscreenenter"",""1"",""3489""
","
","","","1486.4000000059605","","","21","10162","4760","b","elianto","#f73b6a7A"," "," ","1","0","[2336.5]","1","2","","","10162","28","3","3","lose","go","0"
"pit-trial","150","1129523","0.0-33.0","battery-v0.2","","""event"",""trial"",""time""
""fullscreenenter"",""1"",""3489""
""blur"",""141"",""1085064""
""focus"",""141"",""1087982""
","""event"",""trial"",""time""
""blur"",""141"",""1085064""
","""event"",""trial"",""time""
""focus"",""141"",""1087982""
","""event"",""trial"",""time""
""fullscreenenter"",""1"",""3489""
","
","","","-1","","","21","10162","4760","t","elianto","#f73b6a7A","-1","-1","1","-10","[]","0","2","","","10162","29","2","4","lose","no-go","1"
"pit-trial","151","1134376","0.0-34.0","battery-v0.2","","""event"",""trial"",""time""
""fullscreenenter"",""1"",""3489""
""blur"",""141"",""1085064""
""focus"",""141"",""1087982""
","""event"",""trial"",""time""
""blur"",""141"",""1085064""
","""event"",""trial"",""time""
""focus"",""141"",""1087982""
","""event"",""trial"",""time""
""fullscreenenter"",""1"",""3489""
","
","","","-1","","","21","10162","4760","n","elianto","#f73b6a7A","-1","-1","1","0","[]","0","2","","","10162","30","0","4","lose","no-go","0"
"pit-trial","152","1137858","0.0-35.0","battery-v0.2","","""event"",""trial"",""time""
""fullscreenenter"",""1"",""3489""
""blur"",""141"",""1085064""
""focus"",""141"",""1087982""
","""event"",""trial"",""time""
""blur"",""141"",""1085064""
","""event"",""trial"",""time""
""focus"",""141"",""1087982""
","""event"",""trial"",""time""
""fullscreenenter"",""1"",""3489""
","
","","","627.5999999940395","","","21","10162","4760","f","elianto","#3366ff99"," "," ","1","+10","[1478.7999999821186]","1","2","","","10162","31","1","1","win","go","0"
"pit-trial","153","1141646","0.0-36.0","battery-v0.2","","""event"",""trial"",""time""
""fullscreenenter"",""1"",""3489""
""blur"",""141"",""1085064""
""focus"",""141"",""1087982""
","""event"",""trial"",""time""
""blur"",""141"",""1085064""
","""event"",""trial"",""time""
""focus"",""141"",""1087982""
","""event"",""trial"",""time""
""fullscreenenter"",""1"",""3489""
","
","","","934.4000000059605","","","21","10162","4760","b","elianto","#f73b6a7A"," "," ","1","0","[1786.7000000178814]","1","2","","","10162","32","3","3","lose","go","0"
"pit-trial","154","1145483","0.0-37.0","battery-v0.2","","""event"",""trial"",""time""
""fullscreenenter"",""1"",""3489""
""blur"",""141"",""1085064""
""focus"",""141"",""1087982""
","""event"",""trial"",""time""
""blur"",""141"",""1085064""
","""event"",""trial"",""time""
""focus"",""141"",""1087982""
","""event"",""trial"",""time""
""fullscreenenter"",""1"",""3489""
","
","","","984.8000000119209","","","21","10162","4760","b","elianto","#f73b6a7A"," "," ","1","0","[1835.300000011921]","1","2","","","10162","33","3","3","lose","go","0"
"pit-trial","155","1149308","0.0-38.0","battery-v0.2","","""event"",""trial"",""time""
""fullscreenenter"",""1"",""3489""
""blur"",""141"",""1085064""
""focus"",""141"",""1087982""
","""event"",""trial"",""time""
""blur"",""141"",""1085064""
","""event"",""trial"",""time""
""focus"",""141"",""1087982""
","""event"",""trial"",""time""
""fullscreenenter"",""1"",""3489""
","
","","","972.6999999880791","","","21","10162","4760","f","elianto","#3366ff99"," "," ","1","0","[1822.800000011921]","1","2","","","10162","34","1","1","win","go","1"
"pit-trial","156","1154161","0.0-39.0","battery-v0.2","","""event"",""trial"",""time""
""fullscreenenter"",""1"",""3489""
""blur"",""141"",""1085064""
""focus"",""141"",""1087982""
","""event"",""trial"",""time""
""blur"",""141"",""1085064""
","""event"",""trial"",""time""
""focus"",""141"",""1087982""
","""event"",""trial"",""time""
""fullscreenenter"",""1"",""3489""
","
","","","-1","","","21","10162","4760","n","elianto","#f73b6a7A","-1","-1","1","0","[]","0","2","","","10162","35","0","4","lose","no-go","0"
"pit-trial","157","1159014","0.0-40.0","battery-v0.2","","""event"",""trial"",""time""
""fullscreenenter"",""1"",""3489""
""blur"",""141"",""1085064""
""focus"",""141"",""1087982""
","""event"",""trial"",""time""
""blur"",""141"",""1085064""
","""event"",""trial"",""time""
""focus"",""141"",""1087982""
","""event"",""trial"",""time""
""fullscreenenter"",""1"",""3489""
","
","","","-1","","","21","10162","4760","t","elianto","#f73b6a7A","-1","-1","1","0","[]","0","2","","","10162","36","2","4","lose","no-go","0"
"pit-trial","158","1162887","0.0-41.0","battery-v0.2","","""event"",""trial"",""time""
""fullscreenenter"",""1"",""3489""
""blur"",""141"",""1085064""
""focus"",""141"",""1087982""
","""event"",""trial"",""time""
""blur"",""141"",""1085064""
","""event"",""trial"",""time""
""focus"",""141"",""1087982""
","""event"",""trial"",""time""
""fullscreenenter"",""1"",""3489""
","
","","","1020.6999999880791","","","21","10162","4760","b","elianto","#f73b6a7A"," "," ","1","-10","[1870.9000000059605]","1","2","","","10162","37","3","3","lose","go","1"
"pit-trial","159","1166868","0.0-42.0","battery-v0.2","","""event"",""trial"",""time""
""fullscreenenter"",""1"",""3489""
""blur"",""141"",""1085064""
""focus"",""141"",""1087982""
","""event"",""trial"",""time""
""blur"",""141"",""1085064""
","""event"",""trial"",""time""
""focus"",""141"",""1087982""
","""event"",""trial"",""time""
""fullscreenenter"",""1"",""3489""
","
","","","1127.5","","","21","10162","4760","f","elianto","#3366ff99"," "," ","1","+10","[1977.9000000059605]","1","2","","","10162","38","1","1","win","go","0"
"pit-trial","160","1171722","0.0-43.0","battery-v0.2","","""event"",""trial"",""time""
""fullscreenenter"",""1"",""3489""
""blur"",""141"",""1085064""
""focus"",""141"",""1087982""
","""event"",""trial"",""time""
""blur"",""141"",""1085064""
","""event"",""trial"",""time""
""focus"",""141"",""1087982""
","""event"",""trial"",""time""
""fullscreenenter"",""1"",""3489""
","
","","","-1","","","21","10162","4760","n","elianto","#f73b6a7A","-1","-1","1","-10","[]","0","2","","","10162","39","0","4","lose","no-go","1"
"pit-trial","161","1176575","0.0-44.0","battery-v0.2","","""event"",""trial"",""time""
""fullscreenenter"",""1"",""3489""
""blur"",""141"",""1085064""
""focus"",""141"",""1087982""
","""event"",""trial"",""time""
""blur"",""141"",""1085064""
","""event"",""trial"",""time""
""focus"",""141"",""1087982""
","""event"",""trial"",""time""
""fullscreenenter"",""1"",""3489""
","
","","","-1","","","21","10162","4760","t","elianto","#f73b6a7A","-1","-1","1","0","[]","0","2","","","10162","40","2","4","lose","no-go","0"
"pit-trial","162","1181140","0.0-45.0","battery-v0.2","","""event"",""trial"",""time""
""fullscreenenter"",""1"",""3489""
""blur"",""141"",""1085064""
""focus"",""141"",""1087982""
","""event"",""trial"",""time""
""blur"",""141"",""1085064""
","""event"",""trial"",""time""
""focus"",""141"",""1087982""
","""event"",""trial"",""time""
""fullscreenenter"",""1"",""3489""
","
","","","1711.5999999940395","","","21","10162","4760","b","elianto","#f73b6a7A"," "," ","1","0","[2563.7000000178814]","1","2","","","10162","41","3","3","lose","go","0"
"pit-trial","163","1185994","0.0-46.0","battery-v0.2","","""event"",""trial"",""time""
""fullscreenenter"",""1"",""3489""
""blur"",""141"",""1085064""
""focus"",""141"",""1087982""
","""event"",""trial"",""time""
""blur"",""141"",""1085064""
","""event"",""trial"",""time""
""focus"",""141"",""1087982""
","""event"",""trial"",""time""
""fullscreenenter"",""1"",""3489""
","
","","","-1","","","21","10162","4760","n","elianto","#f73b6a7A","-1","-1","1","0","[]","0","2","","","10162","42","0","4","lose","no-go","0"
"pit-trial","164","1189803","0.0-47.0","battery-v0.2","","""event"",""trial"",""time""
""fullscreenenter"",""1"",""3489""
""blur"",""141"",""1085064""
""focus"",""141"",""1087982""
","""event"",""trial"",""time""
""blur"",""141"",""1085064""
","""event"",""trial"",""time""
""focus"",""141"",""1087982""
","""event"",""trial"",""time""
""fullscreenenter"",""1"",""3489""
","
","","","956.1999999880791","","","21","10162","4760","f","elianto","#3366ff99"," "," ","1","0","[1806.4000000059605]","1","2","","","10162","43","1","1","win","go","1"
"pit-trial","165","1194656","0.0-48.0","battery-v0.2","","""event"",""trial"",""time""
""fullscreenenter"",""1"",""3489""
""blur"",""141"",""1085064""
""focus"",""141"",""1087982""
","""event"",""trial"",""time""
""blur"",""141"",""1085064""
","""event"",""trial"",""time""
""focus"",""141"",""1087982""
","""event"",""trial"",""time""
""fullscreenenter"",""1"",""3489""
","
","","","-1","","","21","10162","4760","t","elianto","#f73b6a7A","-1","-1","1","0","[]","0","2","","","10162","44","2","4","lose","no-go","0"
"pit-trial","166","1199510","0.0-49.0","battery-v0.2","","""event"",""trial"",""time""
""fullscreenenter"",""1"",""3489""
""blur"",""141"",""1085064""
""focus"",""141"",""1087982""
","""event"",""trial"",""time""
""blur"",""141"",""1085064""
","""event"",""trial"",""time""
""focus"",""141"",""1087982""
","""event"",""trial"",""time""
""fullscreenenter"",""1"",""3489""
","
","","","-1","","","21","10162","4760","n","elianto","#f73b6a7A","-1","-1","1","0","[]","0","2","","","10162","45","0","4","lose","no-go","0"
"pit-trial","167","1203545","0.0-50.0","battery-v0.2","","""event"",""trial"",""time""
""fullscreenenter"",""1"",""3489""
""blur"",""141"",""1085064""
""focus"",""141"",""1087982""
","""event"",""trial"",""time""
""blur"",""141"",""1085064""
","""event"",""trial"",""time""
""focus"",""141"",""1087982""
","""event"",""trial"",""time""
""fullscreenenter"",""1"",""3489""
","
","","","1182","","","21","10162","4760","c","elianto","#3366ff99","-1"," ","0","0","[2032.800000011921]","1","2","","","10162","46","4","2","win","no-go","0"
"pit-trial","168","1208399","0.0-51.0","battery-v0.2","","""event"",""trial"",""time""
""fullscreenenter"",""1"",""3489""
""blur"",""141"",""1085064""
""focus"",""141"",""1087982""
","""event"",""trial"",""time""
""blur"",""141"",""1085064""
","""event"",""trial"",""time""
""focus"",""141"",""1087982""
","""event"",""trial"",""time""
""fullscreenenter"",""1"",""3489""
","
","","","-1","","","21","10162","4760","t","elianto","#f73b6a7A","-1","-1","1","0","[]","0","2","","","10162","47","2","4","lose","no-go","0"
"pit-trial","169","1212100","0.0-52.0","battery-v0.2","","""event"",""trial"",""time""
""fullscreenenter"",""1"",""3489""
""blur"",""141"",""1085064""
""focus"",""141"",""1087982""
","""event"",""trial"",""time""
""blur"",""141"",""1085064""
","""event"",""trial"",""time""
""focus"",""141"",""1087982""
","""event"",""trial"",""time""
""fullscreenenter"",""1"",""3489""
","
","","","849.3000000119209","","","21","10162","4760","b","elianto","#f73b6a7A"," "," ","1","-10","[1699.5]","1","2","","","10162","48","3","3","lose","go","1"
"pit-trial","170","1215839","0.0-53.0","battery-v0.2","","""event"",""trial"",""time""
""fullscreenenter"",""1"",""3489""
""blur"",""141"",""1085064""
""focus"",""141"",""1087982""
","""event"",""trial"",""time""
""blur"",""141"",""1085064""
","""event"",""trial"",""time""
""focus"",""141"",""1087982""
","""event"",""trial"",""time""
""fullscreenenter"",""1"",""3489""
","
","","","885","","","21","10162","4760","f","elianto","#3366ff99"," "," ","1","0","[1736.800000011921]","1","2","","","10162","49","1","1","win","go","1"
"pit-trial","171","1220693","0.0-54.0","battery-v0.2","","""event"",""trial"",""time""
""fullscreenenter"",""1"",""3489""
""blur"",""141"",""1085064""
""focus"",""141"",""1087982""
","""event"",""trial"",""time""
""blur"",""141"",""1085064""
","""event"",""trial"",""time""
""focus"",""141"",""1087982""
","""event"",""trial"",""time""
""fullscreenenter"",""1"",""3489""
","
","","","-1","","","21","10162","4760","b","elianto","#f73b6a7A"," ","-1","0","-10","[]","0","2","","","10162","50","3","3","lose","go","0"
"pit-trial","172","1225547","0.0-55.0","battery-v0.2","","""event"",""trial"",""time""
""fullscreenenter"",""1"",""3489""
""blur"",""141"",""1085064""
""focus"",""141"",""1087982""
","""event"",""trial"",""time""
""blur"",""141"",""1085064""
","""event"",""trial"",""time""
""focus"",""141"",""1087982""
","""event"",""trial"",""time""
""fullscreenenter"",""1"",""3489""
","
","","","-1","","","21","10162","4760","n","elianto","#f73b6a7A","-1","-1","1","0","[]","0","2","","","10162","51","0","4","lose","no-go","0"
"pit-trial","173","1229909","0.0-56.0","battery-v0.2","","""event"",""trial"",""time""
""fullscreenenter"",""1"",""3489""
""blur"",""141"",""1085064""
""focus"",""141"",""1087982""
","""event"",""trial"",""time""
""blur"",""141"",""1085064""
","""event"",""trial"",""time""
""focus"",""141"",""1087982""
","""event"",""trial"",""time""
""fullscreenenter"",""1"",""3489""
","
","","","1509.9000000059605","","","21","10162","4760","c","elianto","#3366ff99","-1"," ","0","+10","[2360.4000000059605]","1","2","","","10162","52","4","2","win","no-go","1"
"pit-trial","174","1234762","0.0-57.0","battery-v0.2","","""event"",""trial"",""time""
""fullscreenenter"",""1"",""3489""
""blur"",""141"",""1085064""
""focus"",""141"",""1087982""
","""event"",""trial"",""time""
""blur"",""141"",""1085064""
","""event"",""trial"",""time""
""focus"",""141"",""1087982""
","""event"",""trial"",""time""
""fullscreenenter"",""1"",""3489""
","
","","","-1","","","21","10162","4760","t","elianto","#f73b6a7A","-1","-1","1","0","[]","0","2","","","10162","53","2","4","lose","no-go","0"
"pit-trial","175","1239616","0.0-58.0","battery-v0.2","","""event"",""trial"",""time""
""fullscreenenter"",""1"",""3489""
""blur"",""141"",""1085064""
""focus"",""141"",""1087982""
","""event"",""trial"",""time""
""blur"",""141"",""1085064""
","""event"",""trial"",""time""
""focus"",""141"",""1087982""
","""event"",""trial"",""time""
""fullscreenenter"",""1"",""3489""
","
","","","-1","","","21","10162","4760","c","elianto","#3366ff99","-1","-1","1","0","[]","0","2","","","10162","54","4","2","win","no-go","1"
"pit-trial","176","1244470","0.0-59.0","battery-v0.2","","""event"",""trial"",""time""
""fullscreenenter"",""1"",""3489""
""blur"",""141"",""1085064""
""focus"",""141"",""1087982""
","""event"",""trial"",""time""
""blur"",""141"",""1085064""
","""event"",""trial"",""time""
""focus"",""141"",""1087982""
","""event"",""trial"",""time""
""fullscreenenter"",""1"",""3489""
","
","","","-1","","","21","10162","4760","n","elianto","#f73b6a7A","-1","-1","1","0","[]","0","2","","","10162","55","0","4","lose","no-go","0"
"pit-trial","177","1249326","0.0-60.0","battery-v0.2","","""event"",""trial"",""time""
""fullscreenenter"",""1"",""3489""
""blur"",""141"",""1085064""
""focus"",""141"",""1087982""
","""event"",""trial"",""time""
""blur"",""141"",""1085064""
","""event"",""trial"",""time""
""focus"",""141"",""1087982""
","""event"",""trial"",""time""
""fullscreenenter"",""1"",""3489""
","
","","","-1","","","21","10162","4760","f","elianto","#3366ff99"," ","-1","0","0","[]","0","2","","","10162","56","1","1","win","go","0"
"pit-trial","178","1253573","0.0-61.0","battery-v0.2","","""event"",""trial"",""time""
""fullscreenenter"",""1"",""3489""
""blur"",""141"",""1085064""
""focus"",""141"",""1087982""
","""event"",""trial"",""time""
""blur"",""141"",""1085064""
","""event"",""trial"",""time""
""focus"",""141"",""1087982""
","""event"",""trial"",""time""
""fullscreenenter"",""1"",""3489""
","
","","","1392.199999988079","","","21","10162","4760","c","elianto","#3366ff99","-1"," ","0","0","[2242.7999999821186]","1","2","","","10162","57","4","2","win","no-go","0"
"pit-trial","179","1258426","0.0-62.0","battery-v0.2","","""event"",""trial"",""time""
""fullscreenenter"",""1"",""3489""
""blur"",""141"",""1085064""
""focus"",""141"",""1087982""
","""event"",""trial"",""time""
""blur"",""141"",""1085064""
","""event"",""trial"",""time""
""focus"",""141"",""1087982""
","""event"",""trial"",""time""
""fullscreenenter"",""1"",""3489""
","
","","","-1","","","21","10162","4760","n","elianto","#f73b6a7A","-1","-1","1","0","[]","0","2","","","10162","58","0","4","lose","no-go","0"
"pit-trial","180","1263280","0.0-63.0","battery-v0.2","","""event"",""trial"",""time""
""fullscreenenter"",""1"",""3489""
""blur"",""141"",""1085064""
""focus"",""141"",""1087982""
","""event"",""trial"",""time""
""blur"",""141"",""1085064""
","""event"",""trial"",""time""
""focus"",""141"",""1087982""
","""event"",""trial"",""time""
""fullscreenenter"",""1"",""3489""
","
","","","-1","","","21","10162","4760","b","elianto","#f73b6a7A"," ","-1","0","-10","[]","0","2","","","10162","59","3","3","lose","go","0"
"pit-trial","181","1268134","0.0-64.0","battery-v0.2","","""event"",""trial"",""time""
""fullscreenenter"",""1"",""3489""
""blur"",""141"",""1085064""
""focus"",""141"",""1087982""
","""event"",""trial"",""time""
""blur"",""141"",""1085064""
","""event"",""trial"",""time""
""focus"",""141"",""1087982""
","""event"",""trial"",""time""
""fullscreenenter"",""1"",""3489""
","
","","","-1","","","21","10162","4760","f","elianto","#3366ff99"," ","-1","0","0","[]","0","2","","","10162","60","1","1","win","go","0"
"pit-trial","182","1271951","0.0-65.0","battery-v0.2","","""event"",""trial"",""time""
""fullscreenenter"",""1"",""3489""
""blur"",""141"",""1085064""
""focus"",""141"",""1087982""
","""event"",""trial"",""time""
""blur"",""141"",""1085064""
","""event"",""trial"",""time""
""focus"",""141"",""1087982""
","""event"",""trial"",""time""
""fullscreenenter"",""1"",""3489""
","
","","","964.4000000059605","","","21","10162","4760","f","elianto","#3366ff99"," "," ","1","0","[1815.300000011921]","1","2","","","10162","61","1","1","win","go","1"
"pit-trial","183","1275825","0.0-66.0","battery-v0.2","","""event"",""trial"",""time""
""fullscreenenter"",""1"",""3489""
""blur"",""141"",""1085064""
""focus"",""141"",""1087982""
","""event"",""trial"",""time""
""blur"",""141"",""1085064""
","""event"",""trial"",""time""
""focus"",""141"",""1087982""
","""event"",""trial"",""time""
""fullscreenenter"",""1"",""3489""
","
","","","1020.1000000238419","","","21","10162","4760","c","elianto","#3366ff99","-1"," ","0","+10","[1871.1000000238419]","1","2","","","10162","62","4","2","win","no-go","1"
"pit-trial","184","1280680","0.0-67.0","battery-v0.2","","""event"",""trial"",""time""
""fullscreenenter"",""1"",""3489""
""blur"",""141"",""1085064""
""focus"",""141"",""1087982""
","""event"",""trial"",""time""
""blur"",""141"",""1085064""
","""event"",""trial"",""time""
""focus"",""141"",""1087982""
","""event"",""trial"",""time""
""fullscreenenter"",""1"",""3489""
","
","","","-1","","","21","10162","4760","b","elianto","#f73b6a7A"," ","-1","0","-10","[]","0","2","","","10162","63","3","3","lose","go","0"
"pit-trial","185","1285533","0.0-68.0","battery-v0.2","","""event"",""trial"",""time""
""fullscreenenter"",""1"",""3489""
""blur"",""141"",""1085064""
""focus"",""141"",""1087982""
","""event"",""trial"",""time""
""blur"",""141"",""1085064""
","""event"",""trial"",""time""
""focus"",""141"",""1087982""
","""event"",""trial"",""time""
""fullscreenenter"",""1"",""3489""
","
","","","-1","","","21","10162","4760","t","elianto","#f73b6a7A","-1","-1","1","0","[]","0","2","","","10162","64","2","4","lose","no-go","0"
"pit-trial","186","1290387","0.0-69.0","battery-v0.2","","""event"",""trial"",""time""
""fullscreenenter"",""1"",""3489""
""blur"",""141"",""1085064""
""focus"",""141"",""1087982""
","""event"",""trial"",""time""
""blur"",""141"",""1085064""
","""event"",""trial"",""time""
""focus"",""141"",""1087982""
","""event"",""trial"",""time""
""fullscreenenter"",""1"",""3489""
","
","","","-1","","","21","10162","4760","f","elianto","#3366ff99"," ","-1","0","0","[]","0","2","","","10162","65","1","1","win","go","0"
"pit-trial","187","1295242","0.0-70.0","battery-v0.2","","""event"",""trial"",""time""
""fullscreenenter"",""1"",""3489""
""blur"",""141"",""1085064""
""focus"",""141"",""1087982""
","""event"",""trial"",""time""
""blur"",""141"",""1085064""
","""event"",""trial"",""time""
""focus"",""141"",""1087982""
","""event"",""trial"",""time""
""fullscreenenter"",""1"",""3489""
","
","","","-1","","","21","10162","4760","c","elianto","#3366ff99","-1","-1","1","+10","[]","0","2","","","10162","66","4","2","win","no-go","0"
"pit-trial","188","1299901","0.0-71.0","battery-v0.2","","""event"",""trial"",""time""
""fullscreenenter"",""1"",""3489""
""blur"",""141"",""1085064""
""focus"",""141"",""1087982""
","""event"",""trial"",""time""
""blur"",""141"",""1085064""
","""event"",""trial"",""time""
""focus"",""141"",""1087982""
","""event"",""trial"",""time""
""fullscreenenter"",""1"",""3489""
","
","","","1806.0999999940395","","","21","10162","4760","b","elianto","#f73b6a7A"," "," ","1","0","[2656.7999999821186]","1","2","","","10162","67","3","3","lose","go","0"
"pit-trial","189","1304755","0.0-72.0","battery-v0.2","","""event"",""trial"",""time""
""fullscreenenter"",""1"",""3489""
""blur"",""141"",""1085064""
""focus"",""141"",""1087982""
","""event"",""trial"",""time""
""blur"",""141"",""1085064""
","""event"",""trial"",""time""
""focus"",""141"",""1087982""
","""event"",""trial"",""time""
""fullscreenenter"",""1"",""3489""
","
","","","-1","","","21","10162","4760","t","elianto","#f73b6a7A","-1","-1","1","0","[]","0","2","","","10162","68","2","4","lose","no-go","0"
"pit-trial","190","1309610","0.0-73.0","battery-v0.2","","""event"",""trial"",""time""
""fullscreenenter"",""1"",""3489""
""blur"",""141"",""1085064""
""focus"",""141"",""1087982""
","""event"",""trial"",""time""
""blur"",""141"",""1085064""
","""event"",""trial"",""time""
""focus"",""141"",""1087982""
","""event"",""trial"",""time""
""fullscreenenter"",""1"",""3489""
","
","","","-1","","","21","10162","4760","b","elianto","#f73b6a7A"," ","-1","0","0","[]","0","2","","","10162","69","3","3","lose","go","1"
"pit-trial","191","1313769","0.0-74.0","battery-v0.2","","""event"",""trial"",""time""
""fullscreenenter"",""1"",""3489""
""blur"",""141"",""1085064""
""focus"",""141"",""1087982""
","""event"",""trial"",""time""
""blur"",""141"",""1085064""
","""event"",""trial"",""time""
""focus"",""141"",""1087982""
","""event"",""trial"",""time""
""fullscreenenter"",""1"",""3489""
","
","","","1304.9000000059605","","","21","10162","4760","z","elianto","#3366ff99"," "," ","1","+10","[2155.800000011921]","1","2","","","10162","70","5","1","win","go","0"
"pit-trial","192","1317438","0.0-75.0","battery-v0.2","","""event"",""trial"",""time""
""fullscreenenter"",""1"",""3489""
""blur"",""141"",""1085064""
""focus"",""141"",""1087982""
","""event"",""trial"",""time""
""blur"",""141"",""1085064""
","""event"",""trial"",""time""
""focus"",""141"",""1087982""
","""event"",""trial"",""time""
""fullscreenenter"",""1"",""3489""
","
","","","817.1000000238419","","","21","10162","4760","f","elianto","#3366ff99"," "," ","1","0","[1668.3999999761581]","1","2","","","10162","71","1","1","win","go","1"
"pit-trial","193","1321326","0.0-76.0","battery-v0.2","","""event"",""trial"",""time""
""fullscreenenter"",""1"",""3489""
""blur"",""141"",""1085064""
""focus"",""141"",""1087982""
","""event"",""trial"",""time""
""blur"",""141"",""1085064""
","""event"",""trial"",""time""
""focus"",""141"",""1087982""
","""event"",""trial"",""time""
""fullscreenenter"",""1"",""3489""
","
","","","1033.800000011921","","","21","10162","4760","c","elianto","#3366ff99","-1"," ","0","0","[1885]","1","2","","","10162","72","4","2","win","no-go","0"
"pit-trial","194","1324982","0.0-77.0","battery-v0.2","","""event"",""trial"",""time""
""fullscreenenter"",""1"",""3489""
""blur"",""141"",""1085064""
""focus"",""141"",""1087982""
","""event"",""trial"",""time""
""blur"",""141"",""1085064""
","""event"",""trial"",""time""
""focus"",""141"",""1087982""
","""event"",""trial"",""time""
""fullscreenenter"",""1"",""3489""
","
","","","803.3000000119209","","","21","10162","4760","c","elianto","#3366ff99","-1"," ","0","+10","[1654.0999999940395]","1","2","","","10162","73","4","2","win","no-go","1"
"pit-trial","195","1329834","0.0-78.0","battery-v0.2","","""event"",""trial"",""time""
""fullscreenenter"",""1"",""3489""
""blur"",""141"",""1085064""
""focus"",""141"",""1087982""
","""event"",""trial"",""time""
""blur"",""141"",""1085064""
","""event"",""trial"",""time""
""focus"",""141"",""1087982""
","""event"",""trial"",""time""
""fullscreenenter"",""1"",""3489""
","
","","","-1","","","21","10162","4760","b","elianto","#f73b6a7A"," ","-1","0","-10","[]","0","2","","","10162","74","3","3","lose","go","0"
"pit-trial","196","1333602","0.0-79.0","battery-v0.2","","""event"",""trial"",""time""
""fullscreenenter"",""1"",""3489""
""blur"",""141"",""1085064""
""focus"",""141"",""1087982""
","""event"",""trial"",""time""
""blur"",""141"",""1085064""
","""event"",""trial"",""time""
""focus"",""141"",""1087982""
","""event"",""trial"",""time""
""fullscreenenter"",""1"",""3489""
","
","","","916","","","21","10162","4760","f","elianto","#3366ff99"," "," ","1","+10","[1767.4000000059605]","1","2","","","10162","75","1","1","win","go","0"
"pit-trial","197","1338455","0.0-80.0","battery-v0.2","","""event"",""trial"",""time""
""fullscreenenter"",""1"",""3489""
""blur"",""141"",""1085064""
""focus"",""141"",""1087982""
","""event"",""trial"",""time""
""blur"",""141"",""1085064""
","""event"",""trial"",""time""
""focus"",""141"",""1087982""
","""event"",""trial"",""time""
""fullscreenenter"",""1"",""3489""
","
","","","-1","","","21","10162","4760","z","elianto","#3366ff99"," ","-1","0","0","[]","0","2","","","10162","76","5","1","win","go","0"
"pit-trial","198","1342908","0.0-81.0","battery-v0.2","","""event"",""trial"",""time""
""fullscreenenter"",""1"",""3489""
""blur"",""141"",""1085064""
""focus"",""141"",""1087982""
","""event"",""trial"",""time""
""blur"",""141"",""1085064""
","""event"",""trial"",""time""
""focus"",""141"",""1087982""
","""event"",""trial"",""time""
""fullscreenenter"",""1"",""3489""
","
","","","1598.6000000238419","","","21","10162","4760","h","elianto","#f73b6a7A","-1"," ","0","-10","[2449.4000000059605]","1","2","","","10162","77","6","4","lose","no-go","0"
"pit-trial","199","1346521","0.0-82.0","battery-v0.2","","""event"",""trial"",""time""
""fullscreenenter"",""1"",""3489""
""blur"",""141"",""1085064""
""focus"",""141"",""1087982""
","""event"",""trial"",""time""
""blur"",""141"",""1085064""
","""event"",""trial"",""time""
""focus"",""141"",""1087982""
","""event"",""trial"",""time""
""fullscreenenter"",""1"",""3489""
","
","","","759.9000000059605","","","21","10162","4760","z","elianto","#3366ff99"," "," ","1","0","[1610.699999988079]","1","2","","","10162","78","5","1","win","go","1"
"pit-trial","200","1350464","0.0-83.0","battery-v0.2","","""event"",""trial"",""time""
""fullscreenenter"",""1"",""3489""
""blur"",""141"",""1085064""
""focus"",""141"",""1087982""
","""event"",""trial"",""time""
""blur"",""141"",""1085064""
","""event"",""trial"",""time""
""focus"",""141"",""1087982""
","""event"",""trial"",""time""
""fullscreenenter"",""1"",""3489""
","
","","","1081","","","21","10162","4760","c","elianto","#3366ff99","-1"," ","0","0","[1931.5]","1","2","","","10162","79","4","2","win","no-go","0"
"pit-trial","201","1354467","0.0-84.0","battery-v0.2","","""event"",""trial"",""time""
""fullscreenenter"",""1"",""3489""
""blur"",""141"",""1085064""
""focus"",""141"",""1087982""
","""event"",""trial"",""time""
""blur"",""141"",""1085064""
","""event"",""trial"",""time""
""focus"",""141"",""1087982""
","""event"",""trial"",""time""
""fullscreenenter"",""1"",""3489""
","
","","","1149.300000011921","","","21","10162","4760","b","elianto","#f73b6a7A"," "," ","1","0","[2000.2000000178814]","1","2","","","10162","80","3","3","lose","go","0"
"pit-trial","202","1359321","0.0-85.0","battery-v0.2","","""event"",""trial"",""time""
""fullscreenenter"",""1"",""3489""
""blur"",""141"",""1085064""
""focus"",""141"",""1087982""
","""event"",""trial"",""time""
""blur"",""141"",""1085064""
","""event"",""trial"",""time""
""focus"",""141"",""1087982""
","""event"",""trial"",""time""
""fullscreenenter"",""1"",""3489""
","
","","","-1","","","21","10162","4760","h","elianto","#f73b6a7A","-1","-1","1","0","[]","0","2","","","10162","81","6","4","lose","no-go","0"
"pit-trial","203","1363209","0.0-86.0","battery-v0.2","","""event"",""trial"",""time""
""fullscreenenter"",""1"",""3489""
""blur"",""141"",""1085064""
""focus"",""141"",""1087982""
","""event"",""trial"",""time""
""blur"",""141"",""1085064""
","""event"",""trial"",""time""
""focus"",""141"",""1087982""
","""event"",""trial"",""time""
""fullscreenenter"",""1"",""3489""
","
","","","1034.199999988079","","","21","10162","4760","z","elianto","#3366ff99"," "," ","1","+10","[1884.9000000059605]","1","2","","","10162","82","5","1","win","go","0"
"pit-trial","204","1368062","0.0-87.0","battery-v0.2","","""event"",""trial"",""time""
""fullscreenenter"",""1"",""3489""
""blur"",""141"",""1085064""
""focus"",""141"",""1087982""
","""event"",""trial"",""time""
""blur"",""141"",""1085064""
","""event"",""trial"",""time""
""focus"",""141"",""1087982""
","""event"",""trial"",""time""
""fullscreenenter"",""1"",""3489""
","
","","","-1","","","21","10162","4760","y","elianto","#f73b6a7A"," ","-1","0","-10","[]","0","2","","","10162","83","7","3","lose","go","0"
"pit-trial","205","1372916","0.0-88.0","battery-v0.2","","""event"",""trial"",""time""
""fullscreenenter"",""1"",""3489""
""blur"",""141"",""1085064""
""focus"",""141"",""1087982""
","""event"",""trial"",""time""
""blur"",""141"",""1085064""
","""event"",""trial"",""time""
""focus"",""141"",""1087982""
","""event"",""trial"",""time""
""fullscreenenter"",""1"",""3489""
","
","","","-1","","","21","10162","4760","c","elianto","#3366ff99","-1","-1","1","+10","[]","0","2","","","10162","84","4","2","win","no-go","0"
"pit-trial","206","1377769","0.0-89.0","battery-v0.2","","""event"",""trial"",""time""
""fullscreenenter"",""1"",""3489""
""blur"",""141"",""1085064""
""focus"",""141"",""1087982""
","""event"",""trial"",""time""
""blur"",""141"",""1085064""
","""event"",""trial"",""time""
""focus"",""141"",""1087982""
","""event"",""trial"",""time""
""fullscreenenter"",""1"",""3489""
","
","","","-1","","","21","10162","4760","y","elianto","#f73b6a7A"," ","-1","0","-10","[2974.4000000059605]","1","2","","","10162","85","7","3","lose","go","0"
"pit-trial","207","1381494","0.0-90.0","battery-v0.2","","""event"",""trial"",""time""
""fullscreenenter"",""1"",""3489""
""blur"",""141"",""1085064""
""focus"",""141"",""1087982""
","""event"",""trial"",""time""
""blur"",""141"",""1085064""
","""event"",""trial"",""time""
""focus"",""141"",""1087982""
","""event"",""trial"",""time""
""fullscreenenter"",""1"",""3489""
","
","","","872.9000000059605","","","21","10162","4760","z","elianto","#3366ff99"," "," ","1","+10","[1723.199999988079]","1","2","","","10162","86","5","1","win","go","0"
"pit-trial","208","1386348","0.0-91.0","battery-v0.2","","""event"",""trial"",""time""
""fullscreenenter"",""1"",""3489""
""blur"",""141"",""1085064""
""focus"",""141"",""1087982""
","""event"",""trial"",""time""
""blur"",""141"",""1085064""
","""event"",""trial"",""time""
""focus"",""141"",""1087982""
","""event"",""trial"",""time""
""fullscreenenter"",""1"",""3489""
","
","","","-1","","","21","10162","4760","c","elianto","#3366ff99","-1","-1","1","+10","[]","0","2","","","10162","87","4","2","win","no-go","0"
"pit-trial","209","1391201","0.0-92.0","battery-v0.2","","""event"",""trial"",""time""
""fullscreenenter"",""1"",""3489""
""blur"",""141"",""1085064""
""focus"",""141"",""1087982""
","""event"",""trial"",""time""
""blur"",""141"",""1085064""
","""event"",""trial"",""time""
""focus"",""141"",""1087982""
","""event"",""trial"",""time""
""fullscreenenter"",""1"",""3489""
","
","","","-1","","","21","10162","4760","h","elianto","#f73b6a7A","-1","-1","1","0","[]","0","2","","","10162","88","6","4","lose","no-go","0"
"pit-trial","210","1396055","0.0-93.0","battery-v0.2","","""event"",""trial"",""time""
""fullscreenenter"",""1"",""3489""
""blur"",""141"",""1085064""
""focus"",""141"",""1087982""
","""event"",""trial"",""time""
""blur"",""141"",""1085064""
","""event"",""trial"",""time""
""focus"",""141"",""1087982""
","""event"",""trial"",""time""
""fullscreenenter"",""1"",""3489""
","
","","","-1","","","21","10162","4760","h","elianto","#f73b6a7A","-1","-1","1","-10","[]","0","2","","","10162","89","6","4","lose","no-go","1"
"pit-trial","211","1400224","0.0-94.0","battery-v0.2","","""event"",""trial"",""time""
""fullscreenenter"",""1"",""3489""
""blur"",""141"",""1085064""
""focus"",""141"",""1087982""
","""event"",""trial"",""time""
""blur"",""141"",""1085064""
","""event"",""trial"",""time""
""focus"",""141"",""1087982""
","""event"",""trial"",""time""
""fullscreenenter"",""1"",""3489""
","
","","","1314.7999999821186","","","21","10162","4760","y","elianto","#f73b6a7A"," "," ","1","0","[2165.7999999821186]","1","2","","","10162","90","7","3","lose","go","0"
"pit-trial","212","1404489","0.0-95.0","battery-v0.2","","""event"",""trial"",""time""
""fullscreenenter"",""1"",""3489""
""blur"",""141"",""1085064""
""focus"",""141"",""1087982""
","""event"",""trial"",""time""
""blur"",""141"",""1085064""
","""event"",""trial"",""time""
""focus"",""141"",""1087982""
","""event"",""trial"",""time""
""fullscreenenter"",""1"",""3489""
","
","","","1411.699999988079","","","21","10162","4760","c","elianto","#3366ff99","-1"," ","0","0","[2263.399999976158]","1","2","","","10162","91","4","2","win","no-go","0"
"pit-trial","213","1407984","0.0-96.0","battery-v0.2","","""event"",""trial"",""time""
""fullscreenenter"",""1"",""3489""
""blur"",""141"",""1085064""
""focus"",""141"",""1087982""
","""event"",""trial"",""time""
""blur"",""141"",""1085064""
","""event"",""trial"",""time""
""focus"",""141"",""1087982""
","""event"",""trial"",""time""
""fullscreenenter"",""1"",""3489""
","
","","","642.8000000119209","","","21","10162","4760","z","elianto","#3366ff99"," "," ","1","+10","[1493.800000011921]","1","2","","","10162","92","5","1","win","go","0"
"pit-trial","214","1411895","0.0-97.0","battery-v0.2","","""event"",""trial"",""time""
""fullscreenenter"",""1"",""3489""
""blur"",""141"",""1085064""
""focus"",""141"",""1087982""
","""event"",""trial"",""time""
""blur"",""141"",""1085064""
","""event"",""trial"",""time""
""focus"",""141"",""1087982""
","""event"",""trial"",""time""
""fullscreenenter"",""1"",""3489""
","
","","","1059","","","21","10162","4760","r","elianto","#3366ff99","-1"," ","0","0","[1909.4000000059605]","1","2","","","10162","93","8","2","win","no-go","0"
"pit-trial","215","1416748","0.0-98.0","battery-v0.2","","""event"",""trial"",""time""
""fullscreenenter"",""1"",""3489""
""blur"",""141"",""1085064""
""focus"",""141"",""1087982""
","""event"",""trial"",""time""
""blur"",""141"",""1085064""
","""event"",""trial"",""time""
""focus"",""141"",""1087982""
","""event"",""trial"",""time""
""fullscreenenter"",""1"",""3489""
","
","","","-1","","","21","10162","4760","h","elianto","#f73b6a7A","-1","-1","1","0","[]","0","2","","","10162","94","6","4","lose","no-go","0"
"pit-trial","216","1420407","0.0-99.0","battery-v0.2","","""event"",""trial"",""time""
""fullscreenenter"",""1"",""3489""
""blur"",""141"",""1085064""
""focus"",""141"",""1087982""
","""event"",""trial"",""time""
""blur"",""141"",""1085064""
","""event"",""trial"",""time""
""focus"",""141"",""1087982""
","""event"",""trial"",""time""
""fullscreenenter"",""1"",""3489""
","
","","","807.5","","","21","10162","4760","z","elianto","#3366ff99"," "," ","1","+10","[1658.0999999940395]","1","2","","","10162","95","5","1","win","go","0"
"pit-trial","217","1424601","0.0-100.0","battery-v0.2","","""event"",""trial"",""time""
""fullscreenenter"",""1"",""3489""
""blur"",""141"",""1085064""
""focus"",""141"",""1087982""
","""event"",""trial"",""time""
""blur"",""141"",""1085064""
","""event"",""trial"",""time""
""focus"",""141"",""1087982""
","""event"",""trial"",""time""
""fullscreenenter"",""1"",""3489""
","
","","","1339.0999999940395","","","21","10162","4760","y","elianto","#f73b6a7A"," "," ","1","0","[2191]","1","2","","","10162","96","7","3","lose","go","0"
"pit-trial","218","1428381","0.0-101.0","battery-v0.2","","""event"",""trial"",""time""
""fullscreenenter"",""1"",""3489""
""blur"",""141"",""1085064""
""focus"",""141"",""1087982""
","""event"",""trial"",""time""
""blur"",""141"",""1085064""
","""event"",""trial"",""time""
""focus"",""141"",""1087982""
","""event"",""trial"",""time""
""fullscreenenter"",""1"",""3489""
","
","","","927.5999999940395","","","21","10162","4760","y","elianto","#f73b6a7A"," "," ","1","0","[1777.8999999761581]","1","2","","","10162","97","7","3","lose","go","0"
"pit-trial","219","1431869","0.0-102.0","battery-v0.2","","""event"",""trial"",""time""
""fullscreenenter"",""1"",""3489""
""blur"",""141"",""1085064""
""focus"",""141"",""1087982""
","""event"",""trial"",""time""
""blur"",""141"",""1085064""
","""event"",""trial"",""time""
""focus"",""141"",""1087982""
","""event"",""trial"",""time""
""fullscreenenter"",""1"",""3489""
","
","","","635","","","21","10162","4760","z","elianto","#3366ff99"," "," ","1","+10","[1485.2000000178814]","1","2","","","10162","98","5","1","win","go","0"
"pit-trial","220","1436199","0.0-103.0","battery-v0.2","","""event"",""trial"",""time""
""fullscreenenter"",""1"",""3489""
""blur"",""141"",""1085064""
""focus"",""141"",""1087982""
","""event"",""trial"",""time""
""blur"",""141"",""1085064""
","""event"",""trial"",""time""
""focus"",""141"",""1087982""
","""event"",""trial"",""time""
""fullscreenenter"",""1"",""3489""
","
","","","1476","","","21","10162","4760","r","elianto","#3366ff99","-1"," ","0","0","[2326.800000011921]","1","2","","","10162","99","8","2","win","no-go","0"
"pit-trial","221","1441051","0.0-104.0","battery-v0.2","","""event"",""trial"",""time""
""fullscreenenter"",""1"",""3489""
""blur"",""141"",""1085064""
""focus"",""141"",""1087982""
","""event"",""trial"",""time""
""blur"",""141"",""1085064""
","""event"",""trial"",""time""
""focus"",""141"",""1087982""
","""event"",""trial"",""time""
""fullscreenenter"",""1"",""3489""
","
","","","-1","","","21","10162","4760","h","elianto","#f73b6a7A","-1","-1","1","0","[]","0","2","","","10162","100","6","4","lose","no-go","0"
"pit-trial","222","1444607","0.0-105.0","battery-v0.2","","""event"",""trial"",""time""
""fullscreenenter"",""1"",""3489""
""blur"",""141"",""1085064""
""focus"",""141"",""1087982""
","""event"",""trial"",""time""
""blur"",""141"",""1085064""
","""event"",""trial"",""time""
""focus"",""141"",""1087982""
","""event"",""trial"",""time""
""fullscreenenter"",""1"",""3489""
","
","","","704.3000000119209","","","21","10162","4760","z","elianto","#3366ff99"," "," ","1","+10","[1554.5]","1","2","","","10162","101","5","1","win","go","0"
"pit-trial","223","1448537","0.0-106.0","battery-v0.2","","""event"",""trial"",""time""
""fullscreenenter"",""1"",""3489""
""blur"",""141"",""1085064""
""focus"",""141"",""1087982""
","""event"",""trial"",""time""
""blur"",""141"",""1085064""
","""event"",""trial"",""time""
""focus"",""141"",""1087982""
","""event"",""trial"",""time""
""fullscreenenter"",""1"",""3489""
","
","","","1075","","","21","10162","4760","m","elianto","#3366ff99","-1"," ","0","0","[1927.199999988079]","1","2","","","10162","102","9","2","win","no-go","0"
"pit-trial","224","1453391","0.0-107.0","battery-v0.2","","""event"",""trial"",""time""
""fullscreenenter"",""1"",""3489""
""blur"",""141"",""1085064""
""focus"",""141"",""1087982""
","""event"",""trial"",""time""
""blur"",""141"",""1085064""
","""event"",""trial"",""time""
""focus"",""141"",""1087982""
","""event"",""trial"",""time""
""fullscreenenter"",""1"",""3489""
","
","","","-1","","","21","10162","4760","r","elianto","#3366ff99","-1","-1","1","+10","[]","0","2","","","10162","103","8","2","win","no-go","0"
"pit-trial","225","1458243","0.0-108.0","battery-v0.2","","""event"",""trial"",""time""
""fullscreenenter"",""1"",""3489""
""blur"",""141"",""1085064""
""focus"",""141"",""1087982""
","""event"",""trial"",""time""
""blur"",""141"",""1085064""
","""event"",""trial"",""time""
""focus"",""141"",""1087982""
","""event"",""trial"",""time""
""fullscreenenter"",""1"",""3489""
","
