"trial_type","trial_index","time_elapsed","internal_node_id","task_version","subject_id","interactions","blur_events","focus_events","fullscreenenter_events","fullscreenexit_events","success","view_history","rt","responses","num_errors","age","subject","participantId","rune","rune_set","hex","correct","choice","accuracy","outcome","keys","total_keys","block","practice","value","sub","trial","stimulus","robot","valence","action","sham"
"pavlovia","0","9","0.0-0.0","battery-v0.2","","""event"",""trial"",""time""
""fullscreenenter"",""1"",""2511""
","
","
","""event"",""trial"",""time""
""fullscreenenter"",""1"",""2511""
","
","","","","","","","","","","","","","","","","","","","","","","","","","","",""
"fullscreen","1","3468","0.0-1.0","battery-v0.2","","""event"",""trial"",""time""
""fullscreenenter"",""1"",""2511""
","
","
","""event"",""trial"",""time""
""fullscreenenter"",""1"",""2511""
","
","true","","","","","","","","","","","","","","","","","","","","","","","","","",""
"pit-instructions","2","8195","0.0-2.0-0.0","battery-v0.2","","""event"",""trial"",""time""
""fullscreenenter"",""1"",""2511""
","
","
","""event"",""trial"",""time""
""fullscreenenter"",""1"",""2511""
","
","","[{""page_index"":0,""viewing_time"":4723.100000023842}]","4723.900000095367","","","","","","","","","","","","","","","","","","","","","","","",""
"pit-comprehension","3","11434","0.0-2.0-1.0-0.0","battery-v0.2","","""event"",""trial"",""time""
""fullscreenenter"",""1"",""2511""
","
","
","""event"",""trial"",""time""
""fullscreenenter"",""1"",""2511""
","
","","","3236.899999976158","[""shark""]","0","24","4369","2921","","","","","","","","","","","","","","","","","","",""
"pit-instructions","4","13508","0.0-2.0-1.0-1.0","battery-v0.2","","""event"",""trial"",""time""
""fullscreenenter"",""1"",""2511""
","
","
","""event"",""trial"",""time""
""fullscreenenter"",""1"",""2511""
","
","","[{""page_index"":0,""viewing_time"":2064.100000023842}]","2064.399999976158","","","","","","","","","","","","","","","","","","","","","","","",""
"pit-comprehension","5","17521","0.0-2.0-2.0-0.0","battery-v0.2","","""event"",""trial"",""time""
""fullscreenenter"",""1"",""2511""
","
","
","""event"",""trial"",""time""
""fullscreenenter"",""1"",""2511""
","
","","","4009.0999999046326","[""tiger""]","0","24","4369","2921","","","","","","","","","","","","","","","","","","",""
"pit-instructions","6","18851","0.0-2.0-2.0-1.0","battery-v0.2","","""event"",""trial"",""time""
""fullscreenenter"",""1"",""2511""
","
","
","""event"",""trial"",""time""
""fullscreenenter"",""1"",""2511""
","
","","[{""page_index"":0,""viewing_time"":1327.3999999761581}]","1327.6999999284744","","","","","","","","","","","","","","","","","","","","","","","",""
"pit-instructions","7","109965","0.0-2.0-3.0","battery-v0.2","","""event"",""trial"",""time""
""fullscreenenter"",""1"",""2511""
","
","
","""event"",""trial"",""time""
""fullscreenenter"",""1"",""2511""
","
","","[{""page_index"":0,""viewing_time"":9062.800000071526},{""page_index"":1,""viewing_time"":5913.199999928474},{""page_index"":2,""viewing_time"":7718.899999976158},{""page_index"":3,""viewing_time"":5179.100000023842},{""page_index"":4,""viewing_time"":5949.700000047684},{""page_index"":5,""viewing_time"":5415},{""page_index"":6,""viewing_time"":5543.399999976158},{""page_index"":7,""viewing_time"":6179.899999976158},{""page_index"":8,""viewing_time"":6388.5},{""page_index"":9,""viewing_time"":7599.700000047684},{""page_index"":10,""viewing_time"":8349.299999952316},{""page_index"":11,""viewing_time"":6617.800000071526},{""page_index"":12,""viewing_time"":6796.5},{""page_index"":13,""viewing_time"":4396.799999952316}]","91110.89999997616","","","","","","","","","","","","","","","","","","","","","","","",""
"pit-trial","8","112952","0.0-2.0-4.0-0.0","battery-v0.2","","""event"",""trial"",""time""
""fullscreenenter"",""1"",""2511""
","
","
","""event"",""trial"",""time""
""fullscreenenter"",""1"",""2511""
","
","","","120.40000009536743","","","24","4369","2921","&#9784;","elianto","#FFFFF080"," "," ","1","&#10004","[972.7000000476837]","1","0","0","","","","","","","",""
"pit-trial","9","116235","0.0-2.0-4.1-0.1","battery-v0.2","","""event"",""trial"",""time""
""fullscreenenter"",""1"",""2511""
","
","
","""event"",""trial"",""time""
""fullscreenenter"",""1"",""2511""
","
","","","418.5","","","24","4369","2921","&#9784;","elianto","#FFFFF080"," "," ","1","&#10004","[1268.6999999284744]","1","0","0","","","","","","","",""
"pit-trial","10","119300","0.0-2.0-4.2-0.2","battery-v0.2","","""event"",""trial"",""time""
""fullscreenenter"",""1"",""2511""
","
","
","""event"",""trial"",""time""
""fullscreenenter"",""1"",""2511""
","
","","","199.89999997615814","","","24","4369","2921","&#9784;","elianto","#FFFFF080"," "," ","1","&#10004","[1053.3000000715256]","1","0","0","","","","","","","",""
"pit-trial","11","122287","0.0-2.0-4.3-0.3","battery-v0.2","","""event"",""trial"",""time""
""fullscreenenter"",""1"",""2511""
","
","
","""event"",""trial"",""time""
""fullscreenenter"",""1"",""2511""
","
","","","112.40000009536743","","","24","4369","2921","&#9784;","elianto","#FFFFF080"," "," ","1","&#10004","[970]","1","0","0","","","","","","","",""
"pit-trial","12","125378","0.0-2.0-4.4-0.4","battery-v0.2","","""event"",""trial"",""time""
""fullscreenenter"",""1"",""2511""
","
","
","""event"",""trial"",""time""
""fullscreenenter"",""1"",""2511""
","
","","","221.60000002384186","","","24","4369","2921","&#9784;","elianto","#FFFFF080"," "," ","1","&#10004","[1074]","1","0","0","","","","","","","",""
"pit-instructions","13","147280","0.0-2.0-5.0","battery-v0.2","","""event"",""trial"",""time""
""fullscreenenter"",""1"",""2511""
","
","
","""event"",""trial"",""time""
""fullscreenenter"",""1"",""2511""
","
","","[{""page_index"":0,""viewing_time"":5155.199999928474},{""page_index"":1,""viewing_time"":5078.399999976158},{""page_index"":2,""viewing_time"":5368.600000023842},{""page_index"":3,""viewing_time"":6297.399999976158}]","21900","","","","","","","","","","","","","","","","","","","","","","","",""
"pit-trial","14","152161","0.0-2.0-6.0-0.0","battery-v0.2","","""event"",""trial"",""time""
""fullscreenenter"",""1"",""2511""
","
","
","""event"",""trial"",""time""
""fullscreenenter"",""1"",""2511""
","
","","","-1","","","24","4369","2921","&#9854;","elianto","#FFFFF080","-1","-1","1","&#10004","[]","0","0","1","","","","","","","",""
"pit-trial","15","157037","0.0-2.0-6.1-0.1","battery-v0.2","","""event"",""trial"",""time""
""fullscreenenter"",""1"",""2511""
","
","
","""event"",""trial"",""time""
""fullscreenenter"",""1"",""2511""
","
","","","-1","","","24","4369","2921","&#9854;","elianto","#FFFFF080","-1","-1","1","&#10004","[]","0","0","1","","","","","","","",""
"pit-trial","16","161901","0.0-2.0-6.2-0.2","battery-v0.2","","""event"",""trial"",""time""
""fullscreenenter"",""1"",""2511""
","
","
","""event"",""trial"",""time""
""fullscreenenter"",""1"",""2511""
","
","","","-1","","","24","4369","2921","&#9854;","elianto","#FFFFF080","-1","-1","1","&#10004","[]","0","0","1","","","","","","","",""
"pit-trial","17","166788","0.0-2.0-6.3-0.3","battery-v0.2","","""event"",""trial"",""time""
""fullscreenenter"",""1"",""2511""
","
","
","""event"",""trial"",""time""
""fullscreenenter"",""1"",""2511""
","
","","","-1","","","24","4369","2921","&#9854;","elianto","#FFFFF080","-1","-1","1","&#10004","[]","0","0","1","","","","","","","",""
"pit-trial","18","171662","0.0-2.0-6.4-0.4","battery-v0.2","","""event"",""trial"",""time""
""fullscreenenter"",""1"",""2511""
","
","
","""event"",""trial"",""time""
""fullscreenenter"",""1"",""2511""
","
","","","-1","","","24","4369","2921","&#9854;","elianto","#FFFFF080","-1","-1","1","&#10004","[]","0","0","1","","","","","","","",""
"pit-instructions","19","297069","0.0-2.0-7.0","battery-v0.2","","""event"",""trial"",""time""
""fullscreenenter"",""1"",""2511""
","
","
","""event"",""trial"",""time""
""fullscreenenter"",""1"",""2511""
","
","","[{""page_index"":0,""viewing_time"":5674.699999928474},{""page_index"":1,""viewing_time"":6925.800000071526},{""page_index"":2,""viewing_time"":5346.299999952316},{""page_index"":3,""viewing_time"":5330.899999976158},{""page_index"":4,""viewing_time"":5879.800000071526},{""page_index"":5,""viewing_time"":6273.899999976158},{""page_index"":6,""viewing_time"":4402.299999952316},{""page_index"":7,""viewing_time"":8299.900000095367},{""page_index"":8,""viewing_time"":7691.399999976158},{""page_index"":9,""viewing_time"":5433.600000023842},{""page_index"":10,""viewing_time"":6770.299999952316},{""page_index"":11,""viewing_time"":5492.799999952316},{""page_index"":12,""viewing_time"":7059.600000023842},{""page_index"":13,""viewing_time"":6443.5},{""page_index"":14,""viewing_time"":9589.600000023842},{""page_index"":15,""viewing_time"":10244.5},{""page_index"":16,""viewing_time"":9121.399999976158},{""page_index"":17,""viewing_time"":9424.399999976158}]","125405.10000002384","","","","","","","","","","","","","","","","","","","","","","","",""
"pit-trial","20","301944","0.0-2.0-8.0-0.0","battery-v0.2","","""event"",""trial"",""time""
""fullscreenenter"",""1"",""2511""
","
","
","""event"",""trial"",""time""
""fullscreenenter"",""1"",""2511""
","
","","","-1","","","24","4369","2921","&#9776;","elianto","#3366ff99"," ","-1","0","0","[]","0","0","1","","","","","","","",""
"pit-trial","21","305466","0.0-2.0-8.0-1.0","battery-v0.2","","""event"",""trial"",""time""
""fullscreenenter"",""1"",""2511""
","
","
","""event"",""trial"",""time""
""fullscreenenter"",""1"",""2511""
","
","","","653.5","","","24","4369","2921","&#9776;","elianto","#3366ff99"," "," ","1","+10","[1506.5]","1","0","1","","","","","","","",""
"pit-trial","22","309140","0.0-2.0-8.0-2.0","battery-v0.2","","""event"",""trial"",""time""
""fullscreenenter"",""1"",""2511""
","
","
","""event"",""trial"",""time""
""fullscreenenter"",""1"",""2511""
","
","","","808","","","24","4369","2921","&#9776;","elianto","#3366ff99"," "," ","1","+10","[1661.2000000476837]","1","0","1","","","","","","","",""
"pit-trial","23","312288","0.0-2.0-8.0-3.0","battery-v0.2","","""event"",""trial"",""time""
""fullscreenenter"",""1"",""2511""
","
","
","""event"",""trial"",""time""
""fullscreenenter"",""1"",""2511""
","
","","","284.6999999284744","","","24","4369","2921","&#9776;","elianto","#3366ff99"," "," ","1","0","[1138.7999999523163]","1","0","1","","","","","","","",""
"pit-trial","24","315728","0.0-2.0-8.0-4.0","battery-v0.2","","""event"",""trial"",""time""
""fullscreenenter"",""1"",""2511""
","
","
","""event"",""trial"",""time""
""fullscreenenter"",""1"",""2511""
","
","","","572.6999999284744","","","24","4369","2921","&#9776;","elianto","#3366ff99"," "," ","1","+10","[1425.7000000476837]","1","0","1","","","","","","","",""
"pit-trial","25","319015","0.0-2.0-8.1-0.1","battery-v0.2","","""event"",""trial"",""time""
""fullscreenenter"",""1"",""2511""
","
","
","""event"",""trial"",""time""
""fullscreenenter"",""1"",""2511""
","
","","","415.7999999523163","","","24","4369","2921","&#9776;","elianto","#3366ff99"," "," ","1","+10","[1274.1999999284744]","1","0","1","","","","","","","",""
"pit-trial","26","322169","0.0-2.0-8.1-1.1","battery-v0.2","","""event"",""trial"",""time""
""fullscreenenter"",""1"",""2511""
","
","
","""event"",""trial"",""time""
""fullscreenenter"",""1"",""2511""
","
","","","285.09999990463257","","","24","4369","2921","&#9776;","elianto","#3366ff99"," "," ","1","+10","[1138.7999999523163]","1","0","1","","","","","","","",""
"pit-trial","27","325352","0.0-2.0-8.1-2.1","battery-v0.2","","""event"",""trial"",""time""
""fullscreenenter"",""1"",""2511""
","
","
","""event"",""trial"",""time""
""fullscreenenter"",""1"",""2511""
","
","","","320.2000000476837","","","24","4369","2921","&#9776;","elianto","#3366ff99"," "," ","1","+10","[1173.2000000476837]","1","0","1","","","","","","","",""
"pit-trial","28","328382","0.0-2.0-8.1-3.1","battery-v0.2","","""event"",""trial"",""time""
""fullscreenenter"",""1"",""2511""
","
","
","""event"",""trial"",""time""
""fullscreenenter"",""1"",""2511""
","
","","","168.79999995231628","","","24","4369","2921","&#9776;","elianto","#3366ff99"," "," ","1","0","[1020.1999999284744]","1","0","1","","","","","","","",""
"pit-trial","29","331559","0.0-2.0-8.1-4.1","battery-v0.2","","""event"",""trial"",""time""
""fullscreenenter"",""1"",""2511""
","
","
","""event"",""trial"",""time""
""fullscreenenter"",""1"",""2511""
","
","","","318.2000000476837","","","24","4369","2921","&#9776;","elianto","#3366ff99"," "," ","1","+10","[1170.7000000476837]","1","0","1","","","","","","","",""
"pit-trial","30","335534","0.0-2.0-8.2-0.2","battery-v0.2","","""event"",""trial"",""time""
""fullscreenenter"",""1"",""2511""
","
","
","""event"",""trial"",""time""
""fullscreenenter"",""1"",""2511""
","
","","","1114.2999999523163","","","24","4369","2921","&#9776;","elianto","#3366ff99"," "," ","1","+10","[1968.7000000476837,2185.9000000953674]","2","0","1","","","","","","","",""
"pit-trial","31","338676","0.0-2.0-8.2-1.2","battery-v0.2","","""event"",""trial"",""time""
""fullscreenenter"",""1"",""2511""
","
","
","""event"",""trial"",""time""
""fullscreenenter"",""1"",""2511""
","
","","","272.6999999284744","","","24","4369","2921","&#9776;","elianto","#3366ff99"," "," ","1","+10","[1129]","1","0","1","","","","","","","",""
"pit-trial","32","341765","0.0-2.0-8.2-2.2","battery-v0.2","","""event"",""trial"",""time""
""fullscreenenter"",""1"",""2511""
","
","
","""event"",""trial"",""time""
""fullscreenenter"",""1"",""2511""
","
","","","230.10000002384186","","","24","4369","2921","&#9776;","elianto","#3366ff99"," "," ","1","+10","[1083.6000000238419]","1","0","1","","","","","","","",""
"pit-trial","33","344823","0.0-2.0-8.2-3.2","battery-v0.2","","""event"",""trial"",""time""
""fullscreenenter"",""1"",""2511""
","
","
","""event"",""trial"",""time""
""fullscreenenter"",""1"",""2511""
","
","","","193.79999995231628","","","24","4369","2921","&#9776;","elianto","#3366ff99"," "," ","1","0","[1046.5]","1","0","1","","","","","","","",""
"pit-trial","34","347814","0.0-2.0-8.2-4.2","battery-v0.2","","""event"",""trial"",""time""
""fullscreenenter"",""1"",""2511""
","
","
","""event"",""trial"",""time""
""fullscreenenter"",""1"",""2511""
","
","","","127.30000007152557","","","24","4369","2921","&#9776;","elianto","#3366ff99"," "," ","1","+10","[982.5]","1","0","1","","","","","","","",""
"call-function","35","347816","0.0-2.0-9.0","battery-v0.2","","""event"",""trial"",""time""
""fullscreenenter"",""1"",""2511""
""blur"",""36"",""662337""
""focus"",""36"",""976893""
","""event"",""trial"",""time""
""blur"",""36"",""662337""
","""event"",""trial"",""time""
""focus"",""36"",""976893""
","""event"",""trial"",""time""
""fullscreenenter"",""1"",""2511""
","
","","","","","","","","","","","","","","","","","","","","","","","","","","",""
"pit-instructions","36","1011811","0.0-2.0-10.0","battery-v0.2","","""event"",""trial"",""time""
""fullscreenenter"",""1"",""2511""
""blur"",""36"",""662337""
""focus"",""36"",""976893""
","""event"",""trial"",""time""
""blur"",""36"",""662337""
","""event"",""trial"",""time""
""focus"",""36"",""976893""
","""event"",""trial"",""time""
""fullscreenenter"",""1"",""2511""
","
","","[{""page_index"":0,""viewing_time"":630510.1000000238},{""page_index"":1,""viewing_time"":7193.800000071526},{""page_index"":2,""viewing_time"":10058.899999976158},{""page_index"":3,""viewing_time"":8639.600000023842},{""page_index"":4,""viewing_time"":7592.799999952316}]","663995.7000000477","","","","","","","","","","","","","","","","","","","","","","","",""
"pit-trial","37","1015659","0.0-2.0-11.0-0.0","battery-v0.2","","""event"",""trial"",""time""
""fullscreenenter"",""1"",""2511""
""blur"",""36"",""662337""
""focus"",""36"",""976893""
","""event"",""trial"",""time""
""blur"",""36"",""662337""
","""event"",""trial"",""time""
""focus"",""36"",""976893""
","""event"",""trial"",""time""
""fullscreenenter"",""1"",""2511""
","
","","","969.1999999284744","","","24","4369","2921","&#9761;","elianto","#3366ff99","-1"," ","0","0","[1828.7999999523163]","1","0","2","","","","","","","",""
"pit-trial","38","1020542","0.0-2.0-11.0-1.0","battery-v0.2","","""event"",""trial"",""time""
""fullscreenenter"",""1"",""2511""
""blur"",""36"",""662337""
""focus"",""36"",""976893""
","""event"",""trial"",""time""
""blur"",""36"",""662337""
","""event"",""trial"",""time""
""focus"",""36"",""976893""
","""event"",""trial"",""time""
""fullscreenenter"",""1"",""2511""
","
","","","-1","","","24","4369","2921","&#9761;","elianto","#3366ff99","-1","-1","1","+10","[]","0","0","2","","","","","","","",""
"pit-trial","39","1023967","0.0-2.0-11.0-2.0","battery-v0.2","","""event"",""trial"",""time""
""fullscreenenter"",""1"",""2511""
""blur"",""36"",""662337""
""focus"",""36"",""976893""
","""event"",""trial"",""time""
""blur"",""36"",""662337""
","""event"",""trial"",""time""
""focus"",""36"",""976893""
","""event"",""trial"",""time""
""fullscreenenter"",""1"",""2511""
","
","","","552.1000000238419","","","24","4369","2921","&#9761;","elianto","#3366ff99","-1"," ","0","0","[1405.8999999761581]","1","0","2","","","","","","","",""
"pit-trial","40","1028838","0.0-2.0-11.0-3.0","battery-v0.2","","""event"",""trial"",""time""
""fullscreenenter"",""1"",""2511""
""blur"",""36"",""662337""
""focus"",""36"",""976893""
","""event"",""trial"",""time""
""blur"",""36"",""662337""
","""event"",""trial"",""time""
""focus"",""36"",""976893""
","""event"",""trial"",""time""
""fullscreenenter"",""1"",""2511""
","
","","","-1","","","24","4369","2921","&#9761;","elianto","#3366ff99","-1","-1","1","0","[]","0","0","2","","","","","","","",""
"pit-trial","41","1033714","0.0-2.0-11.0-4.0","battery-v0.2","","""event"",""trial"",""time""
""fullscreenenter"",""1"",""2511""
""blur"",""36"",""662337""
""focus"",""36"",""976893""
","""event"",""trial"",""time""
""blur"",""36"",""662337""
","""event"",""trial"",""time""
""focus"",""36"",""976893""
","""event"",""trial"",""time""
""fullscreenenter"",""1"",""2511""
","
","","","-1","","","24","4369","2921","&#9761;","elianto","#3366ff99","-1","-1","1","+10","[]","0","0","2","","","","","","","",""
"pit-trial","42","1038585","0.0-2.0-11.1-0.1","battery-v0.2","","""event"",""trial"",""time""
""fullscreenenter"",""1"",""2511""
""blur"",""36"",""662337""
""focus"",""36"",""976893""
","""event"",""trial"",""time""
""blur"",""36"",""662337""
","""event"",""trial"",""time""
""focus"",""36"",""976893""
","""event"",""trial"",""time""
""fullscreenenter"",""1"",""2511""
","
","","","-1","","","24","4369","2921","&#9761;","elianto","#3366ff99","-1","-1","1","+10","[]","0","0","2","","","","","","","",""
"pit-trial","43","1043461","0.0-2.0-11.1-1.1","battery-v0.2","","""event"",""trial"",""time""
""fullscreenenter"",""1"",""2511""
""blur"",""36"",""662337""
""focus"",""36"",""976893""
","""event"",""trial"",""time""
""blur"",""36"",""662337""
","""event"",""trial"",""time""
""focus"",""36"",""976893""
","""event"",""trial"",""time""
""fullscreenenter"",""1"",""2511""
","
","","","-1","","","24","4369","2921","&#9761;","elianto","#3366ff99","-1","-1","1","+10","[]","0","0","2","","","","","","","",""
"pit-trial","44","1048324","0.0-2.0-11.1-2.1","battery-v0.2","","""event"",""trial"",""time""
""fullscreenenter"",""1"",""2511""
""blur"",""36"",""662337""
""focus"",""36"",""976893""
","""event"",""trial"",""time""
""blur"",""36"",""662337""
","""event"",""trial"",""time""
""focus"",""36"",""976893""
","""event"",""trial"",""time""
""fullscreenenter"",""1"",""2511""
","
","","","-1","","","24","4369","2921","&#9761;","elianto","#3366ff99","-1","-1","1","+10","[]","0","0","2","","","","","","","",""
"pit-trial","45","1053192","0.0-2.0-11.1-3.1","battery-v0.2","","""event"",""trial"",""time""
""fullscreenenter"",""1"",""2511""
""blur"",""36"",""662337""
""focus"",""36"",""976893""
","""event"",""trial"",""time""
""blur"",""36"",""662337""
","""event"",""trial"",""time""
""focus"",""36"",""976893""
","""event"",""trial"",""time""
""fullscreenenter"",""1"",""2511""
","
","","","-1","","","24","4369","2921","&#9761;","elianto","#3366ff99","-1","-1","1","0","[]","0","0","2","","","","","","","",""
"pit-trial","46","1056342","0.0-2.0-11.1-4.1","battery-v0.2","","""event"",""trial"",""time""
""fullscreenenter"",""1"",""2511""
""blur"",""36"",""662337""
""focus"",""36"",""976893""
","""event"",""trial"",""time""
""blur"",""36"",""662337""
","""event"",""trial"",""time""
""focus"",""36"",""976893""
","""event"",""trial"",""time""
""fullscreenenter"",""1"",""2511""
","
","","","283.60000002384186","","","24","4369","2921","&#9761;","elianto","#3366ff99","-1"," ","0","0","[1137.5]","1","0","2","","","","","","","",""
"pit-trial","47","1061204","0.0-2.0-11.2-0.2","battery-v0.2","","""event"",""trial"",""time""
""fullscreenenter"",""1"",""2511""
""blur"",""36"",""662337""
""focus"",""36"",""976893""
","""event"",""trial"",""time""
""blur"",""36"",""662337""
","""event"",""trial"",""time""
""focus"",""36"",""976893""
","""event"",""trial"",""time""
""fullscreenenter"",""1"",""2511""
","
","","","-1","","","24","4369","2921","&#9761;","elianto","#3366ff99","-1","-1","1","+10","[]","0","0","2","","","","","","","",""
"pit-trial","48","1066079","0.0-2.0-11.2-1.2","battery-v0.2","","""event"",""trial"",""time""
""fullscreenenter"",""1"",""2511""
""blur"",""36"",""662337""
""focus"",""36"",""976893""
","""event"",""trial"",""time""
""blur"",""36"",""662337""
","""event"",""trial"",""time""
""focus"",""36"",""976893""
","""event"",""trial"",""time""
""fullscreenenter"",""1"",""2511""
","
","","","-1","","","24","4369","2921","&#9761;","elianto","#3366ff99","-1","-1","1","+10","[]","0","0","2","","","","","","","",""
"pit-trial","49","1070945","0.0-2.0-11.2-2.2","battery-v0.2","","""event"",""trial"",""time""
""fullscreenenter"",""1"",""2511""
""blur"",""36"",""662337""
""focus"",""36"",""976893""
","""event"",""trial"",""time""
""blur"",""36"",""662337""
","""event"",""trial"",""time""
""focus"",""36"",""976893""
","""event"",""trial"",""time""
""fullscreenenter"",""1"",""2511""
","
","","","-1","","","24","4369","2921","&#9761;","elianto","#3366ff99","-1","-1","1","+10","[]","0","0","2","","","","","","","",""
"pit-trial","50","1075819","0.0-2.0-11.2-3.2","battery-v0.2","","""event"",""trial"",""time""
""fullscreenenter"",""1"",""2511""
""blur"",""36"",""662337""
""focus"",""36"",""976893""
","""event"",""trial"",""time""
""blur"",""36"",""662337""
","""event"",""trial"",""time""
""focus"",""36"",""976893""
","""event"",""trial"",""time""
""fullscreenenter"",""1"",""2511""
","
","","","-1","","","24","4369","2921","&#9761;","elianto","#3366ff99","-1","-1","1","0","[]","0","0","2","","","","","","","",""
"pit-trial","51","1079319","0.0-2.0-11.2-4.2","battery-v0.2","","""event"",""trial"",""time""
""fullscreenenter"",""1"",""2511""
""blur"",""36"",""662337""
""focus"",""36"",""976893""
","""event"",""trial"",""time""
""blur"",""36"",""662337""
","""event"",""trial"",""time""
""focus"",""36"",""976893""
","""event"",""trial"",""time""
""fullscreenenter"",""1"",""2511""
","
","","","637.7999999523163","","","24","4369","2921","&#9761;","elianto","#3366ff99","-1"," ","0","0","[1493.6000000238419]","1","0","2","","","","","","","",""
"pit-trial","52","1084182","0.0-2.0-11.3-0.3","battery-v0.2","","""event"",""trial"",""time""
""fullscreenenter"",""1"",""2511""
""blur"",""36"",""662337""
""focus"",""36"",""976893""
","""event"",""trial"",""time""
""blur"",""36"",""662337""
","""event"",""trial"",""time""
""focus"",""36"",""976893""
","""event"",""trial"",""time""
""fullscreenenter"",""1"",""2511""
","
","","","-1","","","24","4369","2921","&#9761;","elianto","#3366ff99","-1","-1","1","+10","[]","0","0","2","","","","","","","",""
"pit-trial","53","1089045","0.0-2.0-11.3-1.3","battery-v0.2","","""event"",""trial"",""time""
""fullscreenenter"",""1"",""2511""
""blur"",""36"",""662337""
""focus"",""36"",""976893""
","""event"",""trial"",""time""
""blur"",""36"",""662337""
","""event"",""trial"",""time""
""focus"",""36"",""976893""
","""event"",""trial"",""time""
""fullscreenenter"",""1"",""2511""
","
","","","-1","","","24","4369","2921","&#9761;","elianto","#3366ff99","-1","-1","1","+10","[]","0","0","2","","","","","","","",""
"pit-trial","54","1093911","0.0-2.0-11.3-2.3","battery-v0.2","","""event"",""trial"",""time""
""fullscreenenter"",""1"",""2511""
""blur"",""36"",""662337""
""focus"",""36"",""976893""
","""event"",""trial"",""time""
""blur"",""36"",""662337""
","""event"",""trial"",""time""
""focus"",""36"",""976893""
","""event"",""trial"",""time""
""fullscreenenter"",""1"",""2511""
","
","","","-1","","","24","4369","2921","&#9761;","elianto","#3366ff99","-1","-1","1","+10","[]","0","0","2","","","","","","","",""
"pit-trial","55","1098771","0.0-2.0-11.3-3.3","battery-v0.2","","""event"",""trial"",""time""
""fullscreenenter"",""1"",""2511""
""blur"",""36"",""662337""
""focus"",""36"",""976893""
","""event"",""trial"",""time""
""blur"",""36"",""662337""
","""event"",""trial"",""time""
""focus"",""36"",""976893""
","""event"",""trial"",""time""
""fullscreenenter"",""1"",""2511""
","
","","","-1","","","24","4369","2921","&#9761;","elianto","#3366ff99","-1","-1","1","0","[]","0","0","2","","","","","","","",""
"pit-trial","56","1103644","0.0-2.0-11.3-4.3","battery-v0.2","","""event"",""trial"",""time""
""fullscreenenter"",""1"",""2511""
""blur"",""36"",""662337""
""focus"",""36"",""976893""
","""event"",""trial"",""time""
""blur"",""36"",""662337""
","""event"",""trial"",""time""
""focus"",""36"",""976893""
","""event"",""trial"",""time""
""fullscreenenter"",""1"",""2511""
","
","","","-1","","","24","4369","2921","&#9761;","elianto","#3366ff99","-1","-1","1","+10","[]","0","0","2","","","","","","","",""
"call-function","57","1103645","0.0-2.0-12.0","battery-v0.2","","""event"",""trial"",""time""
""fullscreenenter"",""1"",""2511""
""blur"",""36"",""662337""
""focus"",""36"",""976893""
","""event"",""trial"",""time""
""blur"",""36"",""662337""
","""event"",""trial"",""time""
""focus"",""36"",""976893""
","""event"",""trial"",""time""
""fullscreenenter"",""1"",""2511""
","
","","","","","","","","","","","","","","","","","","","","","","","","","","",""
"pit-instructions","58","1145531","0.0-2.0-13.0","battery-v0.2","","""event"",""trial"",""time""
""fullscreenenter"",""1"",""2511""
""blur"",""36"",""662337""
""focus"",""36"",""976893""
","""event"",""trial"",""time""
""blur"",""36"",""662337""
","""event"",""trial"",""time""
""focus"",""36"",""976893""
","""event"",""trial"",""time""
""fullscreenenter"",""1"",""2511""
","
","","[{""page_index"":0,""viewing_time"":4885.399999976158},{""page_index"":1,""viewing_time"":6755.600000023842},{""page_index"":2,""viewing_time"":4871.5},{""page_index"":3,""viewing_time"":15307.399999976158},{""page_index"":4,""viewing_time"":10065.899999976158}]","41886.299999952316","","","","","","","","","","","","","","","","","","","","","","","",""
"pit-trial","59","1150403","0.0-2.0-14.0-0.0","battery-v0.2","","""event"",""trial"",""time""
""fullscreenenter"",""1"",""2511""
""blur"",""36"",""662337""
""focus"",""36"",""976893""
","""event"",""trial"",""time""
""blur"",""36"",""662337""
","""event"",""trial"",""time""
""focus"",""36"",""976893""
","""event"",""trial"",""time""
""fullscreenenter"",""1"",""2511""
","
","","","-1","","","24","4369","2921","&#9826;","elianto","#f73b6a7A","-1","-1","1","0","[]","0","0","3","","","","","","","",""
"pit-trial","60","1154380","0.0-2.0-14.0-1.0","battery-v0.2","","""event"",""trial"",""time""
""fullscreenenter"",""1"",""2511""
""blur"",""36"",""662337""
""focus"",""36"",""976893""
","""event"",""trial"",""time""
""blur"",""36"",""662337""
","""event"",""trial"",""time""
""focus"",""36"",""976893""
","""event"",""trial"",""time""
""fullscreenenter"",""1"",""2511""
","
","","","1105.2999999523163","","","24","4369","2921","&#9826;","elianto","#f73b6a7A","-1"," ","0","-10","[1962.3999999761581]","1","0","3","","","","","","","",""
"pit-trial","61","1159254","0.0-2.0-14.0-2.0","battery-v0.2","","""event"",""trial"",""time""
""fullscreenenter"",""1"",""2511""
""blur"",""36"",""662337""
""focus"",""36"",""976893""
","""event"",""trial"",""time""
""blur"",""36"",""662337""
","""event"",""trial"",""time""
""focus"",""36"",""976893""
","""event"",""trial"",""time""
""fullscreenenter"",""1"",""2511""
","
","","","-1","","","24","4369","2921","&#9826;","elianto","#f73b6a7A","-1","-1","1","0","[]","0","0","3","","","","","","","",""
"pit-trial","62","1164120","0.0-2.0-14.0-3.0","battery-v0.2","","""event"",""trial"",""time""
""fullscreenenter"",""1"",""2511""
""blur"",""36"",""662337""
""focus"",""36"",""976893""
","""event"",""trial"",""time""
""blur"",""36"",""662337""
","""event"",""trial"",""time""
""focus"",""36"",""976893""
","""event"",""trial"",""time""
""fullscreenenter"",""1"",""2511""
","
","","","-1","","","24","4369","2921","&#9826;","elianto","#f73b6a7A","-1","-1","1","-10","[]","0","0","3","","","","","","","",""
"pit-trial","63","1168999","0.0-2.0-14.0-4.0","battery-v0.2","","""event"",""trial"",""time""
""fullscreenenter"",""1"",""2511""
""blur"",""36"",""662337""
""focus"",""36"",""976893""
","""event"",""trial"",""time""
""blur"",""36"",""662337""
","""event"",""trial"",""time""
""focus"",""36"",""976893""
","""event"",""trial"",""time""
""fullscreenenter"",""1"",""2511""
","
","","","-1","","","24","4369","2921","&#9826;","elianto","#f73b6a7A","-1","-1","1","0","[]","0","0","3","","","","","","","",""
"pit-trial","64","1173869","0.0-2.0-14.1-0.1","battery-v0.2","","""event"",""trial"",""time""
""fullscreenenter"",""1"",""2511""
""blur"",""36"",""662337""
""focus"",""36"",""976893""
","""event"",""trial"",""time""
""blur"",""36"",""662337""
","""event"",""trial"",""time""
""focus"",""36"",""976893""
","""event"",""trial"",""time""
""fullscreenenter"",""1"",""2511""
","
","","","-1","","","24","4369","2921","&#9826;","elianto","#f73b6a7A","-1","-1","1","0","[]","0","0","3","","","","","","","",""
"pit-trial","65","1178731","0.0-2.0-14.1-1.1","battery-v0.2","","""event"",""trial"",""time""
""fullscreenenter"",""1"",""2511""
""blur"",""36"",""662337""
""focus"",""36"",""976893""
","""event"",""trial"",""time""
""blur"",""36"",""662337""
","""event"",""trial"",""time""
""focus"",""36"",""976893""
","""event"",""trial"",""time""
""fullscreenenter"",""1"",""2511""
","
","","","-1","","","24","4369","2921","&#9826;","elianto","#f73b6a7A","-1","-1","1","0","[]","0","0","3","","","","","","","",""
"pit-trial","66","1183596","0.0-2.0-14.1-2.1","battery-v0.2","","""event"",""trial"",""time""
""fullscreenenter"",""1"",""2511""
""blur"",""36"",""662337""
""focus"",""36"",""976893""
","""event"",""trial"",""time""
""blur"",""36"",""662337""
","""event"",""trial"",""time""
""focus"",""36"",""976893""
","""event"",""trial"",""time""
""fullscreenenter"",""1"",""2511""
","
","","","-1","","","24","4369","2921","&#9826;","elianto","#f73b6a7A","-1","-1","1","0","[]","0","0","3","","","","","","","",""
"pit-trial","67","1188460","0.0-2.0-14.1-3.1","battery-v0.2","","""event"",""trial"",""time""
""fullscreenenter"",""1"",""2511""
""blur"",""36"",""662337""
""focus"",""36"",""976893""
","""event"",""trial"",""time""
""blur"",""36"",""662337""
","""event"",""trial"",""time""
""focus"",""36"",""976893""
","""event"",""trial"",""time""
""fullscreenenter"",""1"",""2511""
","
","","","-1","","","24","4369","2921","&#9826;","elianto","#f73b6a7A","-1","-1","1","-10","[]","0","0","3","","","","","","","",""
"pit-trial","68","1193323","0.0-2.0-14.1-4.1","battery-v0.2","","""event"",""trial"",""time""
""fullscreenenter"",""1"",""2511""
""blur"",""36"",""662337""
""focus"",""36"",""976893""
","""event"",""trial"",""time""
""blur"",""36"",""662337""
","""event"",""trial"",""time""
""focus"",""36"",""976893""
","""event"",""trial"",""time""
""fullscreenenter"",""1"",""2511""
","
","","","-1","","","24","4369","2921","&#9826;","elianto","#f73b6a7A","-1","-1","1","0","[]","0","0","3","","","","","","","",""
"pit-trial","69","1198187","0.0-2.0-14.2-0.2","battery-v0.2","","""event"",""trial"",""time""
""fullscreenenter"",""1"",""2511""
""blur"",""36"",""662337""
""focus"",""36"",""976893""
","""event"",""trial"",""time""
""blur"",""36"",""662337""
","""event"",""trial"",""time""
""focus"",""36"",""976893""
","""event"",""trial"",""time""
""fullscreenenter"",""1"",""2511""
","
","","","-1","","","24","4369","2921","&#9826;","elianto","#f73b6a7A","-1","-1","1","0","[]","0","0","3","","","","","","","",""
"pit-trial","70","1203052","0.0-2.0-14.2-1.2","battery-v0.2","","""event"",""trial"",""time""
""fullscreenenter"",""1"",""2511""
""blur"",""36"",""662337""
""focus"",""36"",""976893""
","""event"",""trial"",""time""
""blur"",""36"",""662337""
","""event"",""trial"",""time""
""focus"",""36"",""976893""
","""event"",""trial"",""time""
""fullscreenenter"",""1"",""2511""
","
","","","-1","","","24","4369","2921","&#9826;","elianto","#f73b6a7A","-1","-1","1","0","[]","0","0","3","","","","","","","",""
"pit-trial","71","1207915","0.0-2.0-14.2-2.2","battery-v0.2","","""event"",""trial"",""time""
""fullscreenenter"",""1"",""2511""
""blur"",""36"",""662337""
""focus"",""36"",""976893""
","""event"",""trial"",""time""
""blur"",""36"",""662337""
","""event"",""trial"",""time""
""focus"",""36"",""976893""
","""event"",""trial"",""time""
""fullscreenenter"",""1"",""2511""
","
","","","-1","","","24","4369","2921","&#9826;","elianto","#f73b6a7A","-1","-1","1","0","[]","0","0","3","","","","","","","",""
"pit-trial","72","1212780","0.0-2.0-14.2-3.2","battery-v0.2","","""event"",""trial"",""time""
""fullscreenenter"",""1"",""2511""
""blur"",""36"",""662337""
""focus"",""36"",""976893""
","""event"",""trial"",""time""
""blur"",""36"",""662337""
","""event"",""trial"",""time""
""focus"",""36"",""976893""
","""event"",""trial"",""time""
""fullscreenenter"",""1"",""2511""
","
","","","-1","","","24","4369","2921","&#9826;","elianto","#f73b6a7A","-1","-1","1","-10","[]","0","0","3","","","","","","","",""
"pit-trial","73","1217645","0.0-2.0-14.2-4.2","battery-v0.2","","""event"",""trial"",""time""
""fullscreenenter"",""1"",""2511""
""blur"",""36"",""662337""
""focus"",""36"",""976893""
","""event"",""trial"",""time""
""blur"",""36"",""662337""
","""event"",""trial"",""time""
""focus"",""36"",""976893""
","""event"",""trial"",""time""
""fullscreenenter"",""1"",""2511""
","
","","","-1","","","24","4369","2921","&#9826;","elianto","#f73b6a7A","-1","-1","1","0","[]","0","0","3","","","","","","","",""
"pit-trial","74","1222509","0.0-2.0-14.3-0.3","battery-v0.2","","""event"",""trial"",""time""
""fullscreenenter"",""1"",""2511""
""blur"",""36"",""662337""
""focus"",""36"",""976893""
","""event"",""trial"",""time""
""blur"",""36"",""662337""
","""event"",""trial"",""time""
""focus"",""36"",""976893""
","""event"",""trial"",""time""
""fullscreenenter"",""1"",""2511""
","
","","","-1","","","24","4369","2921","&#9826;","elianto","#f73b6a7A","-1","-1","1","0","[]","0","0","3","","","","","","","",""
"pit-trial","75","1227373","0.0-2.0-14.3-1.3","battery-v0.2","","""event"",""trial"",""time""
""fullscreenenter"",""1"",""2511""
""blur"",""36"",""662337""
""focus"",""36"",""976893""
","""event"",""trial"",""time""
""blur"",""36"",""662337""
","""event"",""trial"",""time""
""focus"",""36"",""976893""
","""event"",""trial"",""time""
""fullscreenenter"",""1"",""2511""
","
","","","-1","","","24","4369","2921","&#9826;","elianto","#f73b6a7A","-1","-1","1","0","[]","0","0","3","","","","","","","",""
"pit-trial","76","1232240","0.0-2.0-14.3-2.3","battery-v0.2","","""event"",""trial"",""time""
""fullscreenenter"",""1"",""2511""
""blur"",""36"",""662337""
""focus"",""36"",""976893""
","""event"",""trial"",""time""
""blur"",""36"",""662337""
","""event"",""trial"",""time""
""focus"",""36"",""976893""
","""event"",""trial"",""time""
""fullscreenenter"",""1"",""2511""
","
","","","-1","","","24","4369","2921","&#9826;","elianto","#f73b6a7A","-1","-1","1","0","[]","0","0","3","","","","","","","",""
"pit-trial","77","1237108","0.0-2.0-14.3-3.3","battery-v0.2","","""event"",""trial"",""time""
""fullscreenenter"",""1"",""2511""
""blur"",""36"",""662337""
""focus"",""36"",""976893""
","""event"",""trial"",""time""
""blur"",""36"",""662337""
","""event"",""trial"",""time""
""focus"",""36"",""976893""
","""event"",""trial"",""time""
""fullscreenenter"",""1"",""2511""
","
","","","-1","","","24","4369","2921","&#9826;","elianto","#f73b6a7A","-1","-1","1","-10","[]","0","0","3","","","","","","","",""
"pit-trial","78","1241979","0.0-2.0-14.3-4.3","battery-v0.2","","""event"",""trial"",""time""
""fullscreenenter"",""1"",""2511""
""blur"",""36"",""662337""
""focus"",""36"",""976893""
","""event"",""trial"",""time""
""blur"",""36"",""662337""
","""event"",""trial"",""time""
""focus"",""36"",""976893""
","""event"",""trial"",""time""
""fullscreenenter"",""1"",""2511""
","
","","","-1","","","24","4369","2921","&#9826;","elianto","#f73b6a7A","-1","-1","1","0","[]","0","0","3","","","","","","","",""
"call-function","79","1241980","0.0-2.0-15.0","battery-v0.2","","""event"",""trial"",""time""
""fullscreenenter"",""1"",""2511""
""blur"",""36"",""662337""
""focus"",""36"",""976893""
","""event"",""trial"",""time""
""blur"",""36"",""662337""
","""event"",""trial"",""time""
""focus"",""36"",""976893""
","""event"",""trial"",""time""
""fullscreenenter"",""1"",""2511""
","
","","","","","","","","","","","","","","","","","","","","","","","","","","",""
"pit-instructions","80","1322282","0.0-2.0-16.0","battery-v0.2","","""event"",""trial"",""time""
""fullscreenenter"",""1"",""2511""
""blur"",""36"",""662337""
""focus"",""36"",""976893""
","""event"",""trial"",""time""
""blur"",""36"",""662337""
","""event"",""trial"",""time""
""focus"",""36"",""976893""
","""event"",""trial"",""time""
""fullscreenenter"",""1"",""2511""
","
","","[{""page_index"":0,""viewing_time"":18437.800000071526},{""page_index"":1,""viewing_time"":21127.199999928474},{""page_index"":2,""viewing_time"":15051.300000071526},{""page_index"":3,""viewing_time"":25685.199999928474}]","80302.10000002384","","","","","","","","","","","","","","","","","","","","","","","",""
"pit-trial","81","1325762","0.0-2.0-17.0-0.0","battery-v0.2","","""event"",""trial"",""time""
""fullscreenenter"",""1"",""2511""
""blur"",""36"",""662337""
""focus"",""36"",""976893""
","""event"",""trial"",""time""
""blur"",""36"",""662337""
","""event"",""trial"",""time""
""focus"",""36"",""976893""
","""event"",""trial"",""time""
""fullscreenenter"",""1"",""2511""
","
","","","608.8999999761581","","","24","4369","2921","&#9789;","elianto","#f73b6a7A"," "," ","1","0","[1460.1000000238419]","1","0","4","","","","","","","",""
"pit-trial","82","1329235","0.0-2.0-17.0-1.0","battery-v0.2","","""event"",""trial"",""time""
""fullscreenenter"",""1"",""2511""
""blur"",""36"",""662337""
""focus"",""36"",""976893""
","""event"",""trial"",""time""
""blur"",""36"",""662337""
","""event"",""trial"",""time""
""focus"",""36"",""976893""
","""event"",""trial"",""time""
""fullscreenenter"",""1"",""2511""
","
","","","589.8999999761581","","","24","4369","2921","&#9789;","elianto","#f73b6a7A"," "," ","1","0","[1452.6999999284744]","1","0","4","","","","","","","",""
"pit-trial","83","1332372","0.0-2.0-17.0-2.0","battery-v0.2","","""event"",""trial"",""time""
""fullscreenenter"",""1"",""2511""
""blur"",""36"",""662337""
""focus"",""36"",""976893""
","""event"",""trial"",""time""
""blur"",""36"",""662337""
","""event"",""trial"",""time""
""focus"",""36"",""976893""
","""event"",""trial"",""time""
""fullscreenenter"",""1"",""2511""
","
","","","276.2999999523163","","","24","4369","2921","&#9789;","elianto","#f73b6a7A"," "," ","1","0","[1133]","1","0","4","","","","","","","",""
"pit-trial","84","1335877","0.0-2.0-17.0-3.0","battery-v0.2","","""event"",""trial"",""time""
""fullscreenenter"",""1"",""2511""
""blur"",""36"",""662337""
""focus"",""36"",""976893""
","""event"",""trial"",""time""
""blur"",""36"",""662337""
","""event"",""trial"",""time""
""focus"",""36"",""976893""
","""event"",""trial"",""time""
""fullscreenenter"",""1"",""2511""
","
","","","650","","","24","4369","2921","&#9789;","elianto","#f73b6a7A"," "," ","1","-10","[1500.2999999523163]","1","0","4","","","","","","","",""
"pit-trial","85","1340741","0.0-2.0-17.0-4.0","battery-v0.2","","""event"",""trial"",""time""
""fullscreenenter"",""1"",""2511""
""blur"",""36"",""662337""
""focus"",""36"",""976893""
","""event"",""trial"",""time""
""blur"",""36"",""662337""
","""event"",""trial"",""time""
""focus"",""36"",""976893""
","""event"",""trial"",""time""
""fullscreenenter"",""1"",""2511""
","
","","","-1","","","24","4369","2921","&#9789;","elianto","#f73b6a7A"," ","-1","0","-10","[]","0","0","4","","","","","","","",""
"pit-trial","86","1344013","0.0-2.0-17.1-0.1","battery-v0.2","","""event"",""trial"",""time""
""fullscreenenter"",""1"",""2511""
""blur"",""36"",""662337""
""focus"",""36"",""976893""
","""event"",""trial"",""time""
""blur"",""36"",""662337""
","""event"",""trial"",""time""
""focus"",""36"",""976893""
","""event"",""trial"",""time""
""fullscreenenter"",""1"",""2511""
","
","","","409.89999997615814","","","24","4369","2921","&#9789;","elianto","#f73b6a7A"," "," ","1","0","[1263.1999999284744]","1","0","4","","","","","","","",""
"pit-trial","87","1347884","0.0-2.0-17.1-1.1","battery-v0.2","","""event"",""trial"",""time""
""fullscreenenter"",""1"",""2511""
""blur"",""36"",""662337""
""focus"",""36"",""976893""
","""event"",""trial"",""time""
""blur"",""36"",""662337""
","""event"",""trial"",""time""
""focus"",""36"",""976893""
","""event"",""trial"",""time""
""fullscreenenter"",""1"",""2511""
","
","","","1013.7000000476837","","","24","4369","2921","&#9789;","elianto","#f73b6a7A"," "," ","1","0","[1866.6000000238419]","1","0","4","","","","","","","",""
"pit-trial","88","1350830","0.0-2.0-17.1-2.1","battery-v0.2","","""event"",""trial"",""time""
""fullscreenenter"",""1"",""2511""
""blur"",""36"",""662337""
""focus"",""36"",""976893""
","""event"",""trial"",""time""
""blur"",""36"",""662337""
","""event"",""trial"",""time""
""focus"",""36"",""976893""
","""event"",""trial"",""time""
""fullscreenenter"",""1"",""2511""
","
","","","85.29999995231628","","","24","4369","2921","&#9789;","elianto","#f73b6a7A"," "," ","1","0","[936]","1","0","4","","","","","","","",""
"pit-trial","89","1355692","0.0-2.0-17.1-3.1","battery-v0.2","","""event"",""trial"",""time""
""fullscreenenter"",""1"",""2511""
""blur"",""36"",""662337""
""focus"",""36"",""976893""
","""event"",""trial"",""time""
""blur"",""36"",""662337""
","""event"",""trial"",""time""
""focus"",""36"",""976893""
","""event"",""trial"",""time""
""fullscreenenter"",""1"",""2511""
","
","","","-1","","","24","4369","2921","&#9789;","elianto","#f73b6a7A"," ","-1","0","0","[3479.600000023842]","1","0","4","","","","","","","",""
"pit-trial","90","1358645","0.0-2.0-17.1-4.1","battery-v0.2","","""event"",""trial"",""time""
""fullscreenenter"",""1"",""2511""
""blur"",""36"",""662337""
""focus"",""36"",""976893""
","""event"",""trial"",""time""
""blur"",""36"",""662337""
","""event"",""trial"",""time""
""focus"",""36"",""976893""
","""event"",""trial"",""time""
""fullscreenenter"",""1"",""2511""
","
","","","92","","","24","4369","2921","&#9789;","elianto","#f73b6a7A"," "," ","1","0","[948.3999999761581]","1","0","4","","","","","","","",""
"pit-trial","91","1361573","0.0-2.0-17.2-0.2","battery-v0.2","","""event"",""trial"",""time""
""fullscreenenter"",""1"",""2511""
""blur"",""36"",""662337""
""focus"",""36"",""976893""
","""event"",""trial"",""time""
""blur"",""36"",""662337""
","""event"",""trial"",""time""
""focus"",""36"",""976893""
","""event"",""trial"",""time""
""fullscreenenter"",""1"",""2511""
","
","","","66.5","","","24","4369","2921","&#9789;","elianto","#f73b6a7A"," "," ","1","0","[921]","1","0","4","","","","","","","",""
"pit-trial","92","1364693","0.0-2.0-17.2-1.2","battery-v0.2","","""event"",""trial"",""time""
""fullscreenenter"",""1"",""2511""
""blur"",""36"",""662337""
""focus"",""36"",""976893""
","""event"",""trial"",""time""
""blur"",""36"",""662337""
","""event"",""trial"",""time""
""focus"",""36"",""976893""
","""event"",""trial"",""time""
""fullscreenenter"",""1"",""2511""
","
","","","255.60000002384186","","","24","4369","2921","&#9789;","elianto","#f73b6a7A"," "," ","1","0","[1110.6000000238419]","1","0","4","","","","","","","",""
"pit-trial","93","1369556","0.0-2.0-17.2-2.2","battery-v0.2","","""event"",""trial"",""time""
""fullscreenenter"",""1"",""2511""
""blur"",""36"",""662337""
""focus"",""36"",""976893""
","""event"",""trial"",""time""
""blur"",""36"",""662337""
","""event"",""trial"",""time""
""focus"",""36"",""976893""
","""event"",""trial"",""time""
""fullscreenenter"",""1"",""2511""
","
","","","-1","","","24","4369","2921","&#9789;","elianto","#f73b6a7A"," ","-1","0","-10","[3306]","1","0","4","","","","","","","",""
"pit-trial","94","1372590","0.0-2.0-17.2-3.2","battery-v0.2","","""event"",""trial"",""time""
""fullscreenenter"",""1"",""2511""
""blur"",""36"",""662337""
""focus"",""36"",""976893""
","""event"",""trial"",""time""
""blur"",""36"",""662337""
","""event"",""trial"",""time""
""focus"",""36"",""976893""
","""event"",""trial"",""time""
""fullscreenenter"",""1"",""2511""
","
","","","168.59999990463257","","","24","4369","2921","&#9789;","elianto","#f73b6a7A"," "," ","1","-10","[1022.9000000953674]","1","0","4","","","","","","","",""
"pit-trial","95","1376341","0.0-2.0-17.2-4.2","battery-v0.2","","""event"",""trial"",""time""
""fullscreenenter"",""1"",""2511""
""blur"",""36"",""662337""
""focus"",""36"",""976893""
","""event"",""trial"",""time""
""blur"",""36"",""662337""
","""event"",""trial"",""time""
""focus"",""36"",""976893""
","""event"",""trial"",""time""
""fullscreenenter"",""1"",""2511""
","
","","","888.1000000238419","","","24","4369","2921","&#9789;","elianto","#f73b6a7A"," "," ","1","0","[1742]","1","0","4","","","","","","","",""
"pit-trial","96","1379508","0.0-2.0-17.3-0.3","battery-v0.2","","""event"",""trial"",""time""
""fullscreenenter"",""1"",""2511""
""blur"",""36"",""662337""
""focus"",""36"",""976893""
","""event"",""trial"",""time""
""blur"",""36"",""662337""
","""event"",""trial"",""time""
""focus"",""36"",""976893""
","""event"",""trial"",""time""
""fullscreenenter"",""1"",""2511""
","
","","","307.89999997615814","","","24","4369","2921","&#9789;","elianto","#f73b6a7A"," "," ","1","0","[1161.3999999761581]","1","0","4","","","","","","","",""
"pit-trial","97","1382644","0.0-2.0-17.3-1.3","battery-v0.2","","""event"",""trial"",""time""
""fullscreenenter"",""1"",""2511""
""blur"",""36"",""662337""
""focus"",""36"",""976893""
","""event"",""trial"",""time""
""blur"",""36"",""662337""
","""event"",""trial"",""time""
""focus"",""36"",""976893""
","""event"",""trial"",""time""
""fullscreenenter"",""1"",""2511""
","
","","","275.10000002384186","","","24","4369","2921","&#9789;","elianto","#f73b6a7A"," "," ","1","0","[1130]","1","0","4","","","","","","","",""
"pit-trial","98","1385700","0.0-2.0-17.3-2.3","battery-v0.2","","""event"",""trial"",""time""
""fullscreenenter"",""1"",""2511""
""blur"",""36"",""662337""
""focus"",""36"",""976893""
","""event"",""trial"",""time""
""blur"",""36"",""662337""
","""event"",""trial"",""time""
""focus"",""36"",""976893""
","""event"",""trial"",""time""
""fullscreenenter"",""1"",""2511""
","
","","","194.79999995231628","","","24","4369","2921","&#9789;","elianto","#f73b6a7A"," "," ","1","0","[1050]","1","0","4","","","","","","","",""
"pit-trial","99","1388860","0.0-2.0-17.3-3.3","battery-v0.2","","""event"",""trial"",""time""
""fullscreenenter"",""1"",""2511""
""blur"",""36"",""662337""
""focus"",""36"",""976893""
","""event"",""trial"",""time""
""blur"",""36"",""662337""
","""event"",""trial"",""time""
""focus"",""36"",""976893""
","""event"",""trial"",""time""
""fullscreenenter"",""1"",""2511""
","
","","","300.60000002384186","","","24","4369","2921","&#9789;","elianto","#f73b6a7A"," "," ","1","-10","[1154.7999999523163]","1","0","4","","","","","","","",""
"pit-trial","100","1393724","0.0-2.0-17.3-4.3","battery-v0.2","","""event"",""trial"",""time""
""fullscreenenter"",""1"",""2511""
""blur"",""36"",""662337""
""focus"",""36"",""976893""
","""event"",""trial"",""time""
""blur"",""36"",""662337""
","""event"",""trial"",""time""
""focus"",""36"",""976893""
","""event"",""trial"",""time""
""fullscreenenter"",""1"",""2511""
","
","","","-1","","","24","4369","2921","&#9789;","elianto","#f73b6a7A"," ","-1","0","-10","[]","0","0","4","","","","","","","",""
"call-function","101","1393726","0.0-2.0-18.0","battery-v0.2","","""event"",""trial"",""time""
""fullscreenenter"",""1"",""2511""
""blur"",""36"",""662337""
""focus"",""36"",""976893""
","""event"",""trial"",""time""
""blur"",""36"",""662337""
","""event"",""trial"",""time""
""focus"",""36"",""976893""
","""event"",""trial"",""time""
""fullscreenenter"",""1"",""2511""
","
","","","","","","","","","","","","","","","","","","","","","","","","","","",""
"pit-instructions","102","1531277","0.0-2.0-19.0","battery-v0.2","","""event"",""trial"",""time""
""fullscreenenter"",""1"",""2511""
""blur"",""36"",""662337""
""focus"",""36"",""976893""
","""event"",""trial"",""time""
""blur"",""36"",""662337""
","""event"",""trial"",""time""
""focus"",""36"",""976893""
","""event"",""trial"",""time""
""fullscreenenter"",""1"",""2511""
","
","","[{""page_index"":0,""viewing_time"":20657.800000071526},{""page_index"":1,""viewing_time"":33782.699999928474},{""page_index"":2,""viewing_time"":19457.100000023842},{""page_index"":3,""viewing_time"":21806.100000023842},{""page_index"":4,""viewing_time"":10044.600000023842},{""page_index"":5,""viewing_time"":9917.099999904633},{""page_index"":6,""viewing_time"":10268.600000023842},{""page_index"":7,""viewing_time"":7043.5},{""page_index"":8,""viewing_time"":4572.899999976158}]","137550.70000004768","","","","","","","","","","","","","","","","","","","","","","","",""
"pit-comprehension","103","1536221","0.0-2.0-20.0-0.0","battery-v0.2","","""event"",""trial"",""time""
""fullscreenenter"",""1"",""2511""
""blur"",""36"",""662337""
""focus"",""36"",""976893""
","""event"",""trial"",""time""
""blur"",""36"",""662337""
","""event"",""trial"",""time""
""focus"",""36"",""976893""
","""event"",""trial"",""time""
""fullscreenenter"",""1"",""2511""
","
","","","4941.399999976158","[""SPACE""]","0","24","4369","2921","","","","","","","","","","","","","","","","","","",""
"pit-instructions","104","1540534","0.0-2.0-20.0-1.0","battery-v0.2","","""event"",""trial"",""time""
""fullscreenenter"",""1"",""2511""
""blur"",""36"",""662337""
""focus"",""36"",""976893""
","""event"",""trial"",""time""
""blur"",""36"",""662337""
","""event"",""trial"",""time""
""focus"",""36"",""976893""
","""event"",""trial"",""time""
""fullscreenenter"",""1"",""2511""
","
","","[{""page_index"":0,""viewing_time"":4271}]","4271.100000023842","","","","","","","","","","","","","","","","","","","","","","","",""
"pit-comprehension","105","1547259","0.0-2.0-21.0-0.0","battery-v0.2","","""event"",""trial"",""time""
""fullscreenenter"",""1"",""2511""
""blur"",""36"",""662337""
""focus"",""36"",""976893""
","""event"",""trial"",""time""
""blur"",""36"",""662337""
","""event"",""trial"",""time""
""focus"",""36"",""976893""
","""event"",""trial"",""time""
""fullscreenenter"",""1"",""2511""
","
","","","6723.099999904633","[""10""]","0","24","4369","2921","","","","","","","","","","","","","","","","","","",""
"pit-instructions","106","1568004","0.0-2.0-21.0-1.0","battery-v0.2","","""event"",""trial"",""time""
""fullscreenenter"",""1"",""2511""
""blur"",""36"",""662337""
""focus"",""36"",""976893""
","""event"",""trial"",""time""
""blur"",""36"",""662337""
","""event"",""trial"",""time""
""focus"",""36"",""976893""
","""event"",""trial"",""time""
""fullscreenenter"",""1"",""2511""
","
","","[{""page_index"":0,""viewing_time"":20713.5}]","20713.800000071526","","","","","","","","","","","","","","","","","","","","","","","",""
"pit-comprehension","107","1578116","0.0-2.0-22.0-0.0","battery-v0.2","","""event"",""trial"",""time""
""fullscreenenter"",""1"",""2511""
""blur"",""36"",""662337""
""focus"",""36"",""976893""
","""event"",""trial"",""time""
""blur"",""36"",""662337""
","""event"",""trial"",""time""
""focus"",""36"",""976893""
","""event"",""trial"",""time""
""fullscreenenter"",""1"",""2511""
","
","","","10109.5","[""5""]","1","24","4369","2921","","","","","","","","","","","","","","","","","","",""
"pit-instructions","108","1584314","0.0-2.0-22.0-1.0","battery-v0.2","","""event"",""trial"",""time""
""fullscreenenter"",""1"",""2511""
""blur"",""36"",""662337""
""focus"",""36"",""976893""
","""event"",""trial"",""time""
""blur"",""36"",""662337""
","""event"",""trial"",""time""
""focus"",""36"",""976893""
","""event"",""trial"",""time""
""fullscreenenter"",""1"",""2511""
","
","","[{""page_index"":0,""viewing_time"":6169.700000047684}]","6170.100000023842","","","","","","","","","","","","","","","","","","","","","","","",""
"pit-instructions","109","1585086","0.0-2.0-22.0-2.0-0.0","battery-v0.2","","""event"",""trial"",""time""
""fullscreenenter"",""1"",""2511""
""blur"",""36"",""662337""
""focus"",""36"",""976893""
","""event"",""trial"",""time""
""blur"",""36"",""662337""
","""event"",""trial"",""time""
""focus"",""36"",""976893""
","""event"",""trial"",""time""
""fullscreenenter"",""1"",""2511""
","
","","[{""page_index"":0,""viewing_time"":770.6000000238419}]","770.8999999761581","","","","","","","","","","","","","","","","","","","","","","","",""
"pit-comprehension","110","1591552","0.0-2.0-22.1-0.1","battery-v0.2","","""event"",""trial"",""time""
""fullscreenenter"",""1"",""2511""
""blur"",""36"",""662337""
""focus"",""36"",""976893""
","""event"",""trial"",""time""
""blur"",""36"",""662337""
","""event"",""trial"",""time""
""focus"",""36"",""976893""
","""event"",""trial"",""time""
""fullscreenenter"",""1"",""2511""
","
","","","6464.200000047684","[""0""]","0","24","4369","2921","","","","","","","","","","","","","","","","","","",""
"pit-instructions","111","1598567","0.0-2.0-22.1-1.1","battery-v0.2","","""event"",""trial"",""time""
""fullscreenenter"",""1"",""2511""
""blur"",""36"",""662337""
""focus"",""36"",""976893""
","""event"",""trial"",""time""
""blur"",""36"",""662337""
","""event"",""trial"",""time""
""focus"",""36"",""976893""
","""event"",""trial"",""time""
""fullscreenenter"",""1"",""2511""
","
","","[{""page_index"":0,""viewing_time"":6985.100000023842}]","6985.399999976158","","","","","","","","","","","","","","","","","","","","","","","",""
"pit-comprehension","112","1608910","0.0-2.0-23.0-0.0","battery-v0.2","","""event"",""trial"",""time""
""fullscreenenter"",""1"",""2511""
""blur"",""36"",""662337""
""focus"",""36"",""976893""
","""event"",""trial"",""time""
""blur"",""36"",""662337""
","""event"",""trial"",""time""
""focus"",""36"",""976893""
","""event"",""trial"",""time""
""fullscreenenter"",""1"",""2511""
","
","","","10340.200000047684","[""True""]","0","24","4369","2921","","","","","","","","","","","","","","","","","","",""
"pit-instructions","113","1613467","0.0-2.0-23.0-1.0","battery-v0.2","","""event"",""trial"",""time""
""fullscreenenter"",""1"",""2511""
""blur"",""36"",""662337""
""focus"",""36"",""976893""
","""event"",""trial"",""time""
""blur"",""36"",""662337""
","""event"",""trial"",""time""
""focus"",""36"",""976893""
","""event"",""trial"",""time""
""fullscreenenter"",""1"",""2511""
","
","","[{""page_index"":0,""viewing_time"":4526.899999976158}]","4527.199999928474","","","","","","","","","","","","","","","","","","","","","","","",""
"pit-comprehension","114","1625346","0.0-2.0-24.0-0.0","battery-v0.2","","""event"",""trial"",""time""
""fullscreenenter"",""1"",""2511""
""blur"",""36"",""662337""
""focus"",""36"",""976893""
","""event"",""trial"",""time""
""blur"",""36"",""662337""
","""event"",""trial"",""time""
""focus"",""36"",""976893""
","""event"",""trial"",""time""
""fullscreenenter"",""1"",""2511""
","
","","","11876.899999976158","[""True""]","0","24","4369","2921","","","","","","","","","","","","","","","","","","",""
"pit-instructions","115","1631024","0.0-2.0-24.0-1.0","battery-v0.2","","""event"",""trial"",""time""
""fullscreenenter"",""1"",""2511""
""blur"",""36"",""662337""
""focus"",""36"",""976893""
","""event"",""trial"",""time""
""blur"",""36"",""662337""
","""event"",""trial"",""time""
""focus"",""36"",""976893""
","""event"",""trial"",""time""
""fullscreenenter"",""1"",""2511""
","
","","[{""page_index"":0,""viewing_time"":5647.399999976158}]","5647.600000023842","","","","","","","","","","","","","","","","","","","","","","","",""
"pit-comprehension","116","1637475","0.0-2.0-25.0-0.0","battery-v0.2","","""event"",""trial"",""time""
""fullscreenenter"",""1"",""2511""
""blur"",""36"",""662337""
""focus"",""36"",""976893""
","""event"",""trial"",""time""
""blur"",""36"",""662337""
","""event"",""trial"",""time""
""focus"",""36"",""976893""
","""event"",""trial"",""time""
""fullscreenenter"",""1"",""2511""
","
","","","6449","[""True""]","0","24","4369","2921","","","","","","","","","","","","","","","","","","",""
"pit-instructions","117","1640749","0.0-2.0-25.0-1.0","battery-v0.2","","""event"",""trial"",""time""
""fullscreenenter"",""1"",""2511""
""blur"",""36"",""662337""
""focus"",""36"",""976893""
","""event"",""trial"",""time""
""blur"",""36"",""662337""
","""event"",""trial"",""time""
""focus"",""36"",""976893""
","""event"",""trial"",""time""
""fullscreenenter"",""1"",""2511""
","
","","[{""page_index"":0,""viewing_time"":3243.6999999284744}]","3244.1999999284744","","","","","","","","","","","","","","","","","","","","","","","",""
"pit-comprehension","118","1645418","0.0-2.0-26.0-0.0","battery-v0.2","","""event"",""trial"",""time""
""fullscreenenter"",""1"",""2511""
""blur"",""36"",""662337""
""focus"",""36"",""976893""
","""event"",""trial"",""time""
""blur"",""36"",""662337""
","""event"",""trial"",""time""
""focus"",""36"",""976893""
","""event"",""trial"",""time""
""fullscreenenter"",""1"",""2511""
","
","","","4666.600000023842","[""False""]","0","24","4369","2921","","","","","","","","","","","","","","","","","","",""
"pit-instructions","119","1647733","0.0-2.0-26.0-1.0","battery-v0.2","","""event"",""trial"",""time""
""fullscreenenter"",""1"",""2511""
""blur"",""36"",""662337""
""focus"",""36"",""976893""
","""event"",""trial"",""time""
""blur"",""36"",""662337""
","""event"",""trial"",""time""
""focus"",""36"",""976893""
","""event"",""trial"",""time""
""fullscreenenter"",""1"",""2511""
","
","","[{""page_index"":0,""viewing_time"":2284}]","2284.2000000476837","","","","","","","","","","","","","","","","","","","","","","","",""
"pit-instructions","120","1663826","0.0-3.0","battery-v0.2","","""event"",""trial"",""time""
""fullscreenenter"",""1"",""2511""
""blur"",""36"",""662337""
""focus"",""36"",""976893""
","""event"",""trial"",""time""
""blur"",""36"",""662337""
","""event"",""trial"",""time""
""focus"",""36"",""976893""
","""event"",""trial"",""time""
""fullscreenenter"",""1"",""2511""
","
","","[{""page_index"":0,""viewing_time"":4334.300000071526},{""page_index"":1,""viewing_time"":5283.5},{""page_index"":2,""viewing_time"":6473.199999928474}]","16091.5","","","","","","","","","","","","","","","","","","","","","","","",""
"pit-trial","121","1667149","0.0-4.0","battery-v0.2","","""event"",""trial"",""time""
""fullscreenenter"",""1"",""2511""
""blur"",""36"",""662337""
""focus"",""36"",""976893""
","""event"",""trial"",""time""
""blur"",""36"",""662337""
","""event"",""trial"",""time""
""focus"",""36"",""976893""
","""event"",""trial"",""time""
""fullscreenenter"",""1"",""2511""
","
","","","462.7000000476837","","","24","4369","2921","&#9733;","elianto","#3366ff99","-1"," ","0","+10","[1318.3999999761581]","1","1","","","4369","1","2","2","win","no-go","1"
"pit-trial","122","1670271","0.0-5.0","battery-v0.2","","""event"",""trial"",""time""
""fullscreenenter"",""1"",""2511""
""blur"",""36"",""662337""
""focus"",""36"",""976893""
","""event"",""trial"",""time""
""blur"",""36"",""662337""
","""event"",""trial"",""time""
""focus"",""36"",""976893""
","""event"",""trial"",""time""
""fullscreenenter"",""1"",""2511""
","
","","","253.80000007152557","","","24","4369","2921","&#9730;","elianto","#3366ff99"," "," ","1","+10","[1108.4000000953674]","1","1","","","4369","2","1","1","win","go","0"
"pit-trial","123","1673523","0.0-6.0","battery-v0.2","","""event"",""trial"",""time""
""fullscreenenter"",""1"",""2511""
""blur"",""36"",""662337""
""focus"",""36"",""976893""
","""event"",""trial"",""time""
""blur"",""36"",""662337""
","""event"",""trial"",""time""
""focus"",""36"",""976893""
","""event"",""trial"",""time""
""fullscreenenter"",""1"",""2511""
","
","","","375.89999997615814","","","24","4369","2921","&#9728;","elianto","#f73b6a7A","-1"," ","0","-10","[1229.6000000238419]","1","1","","","4369","3","0","4","lose","no-go","0"
"pit-trial","124","1678397","0.0-7.0","battery-v0.2","","""event"",""trial"",""time""
""fullscreenenter"",""1"",""2511""
""blur"",""36"",""662337""
""focus"",""36"",""976893""
","""event"",""trial"",""time""
""blur"",""36"",""662337""
","""event"",""trial"",""time""
""focus"",""36"",""976893""
","""event"",""trial"",""time""
""fullscreenenter"",""1"",""2511""
","
","","","-1","","","24","4369","2921","&#9752;","elianto","#f73b6a7A"," ","-1","0","-10","[]","0","1","","","4369","4","3","3","lose","go","0"
"pit-trial","125","1681457","0.0-8.0","battery-v0.2","","""event"",""trial"",""time""
""fullscreenenter"",""1"",""2511""
""blur"",""36"",""662337""
""focus"",""36"",""976893""
","""event"",""trial"",""time""
""blur"",""36"",""662337""
","""event"",""trial"",""time""
""focus"",""36"",""976893""
","""event"",""trial"",""time""
""fullscreenenter"",""1"",""2511""
","
","","","191","","","24","4369","2921","&#9752;","elianto","#f73b6a7A"," "," ","1","-10","[1050.8000000715256]","1","1","","","4369","5","3","3","lose","go","1"
"pit-trial","126","1684980","0.0-9.0","battery-v0.2","","""event"",""trial"",""time""
""fullscreenenter"",""1"",""2511""
""blur"",""36"",""662337""
""focus"",""36"",""976893""
","""event"",""trial"",""time""
""blur"",""36"",""662337""
","""event"",""trial"",""time""
""focus"",""36"",""976893""
","""event"",""trial"",""time""
""fullscreenenter"",""1"",""2511""
","
","","","651.2999999523163","","","24","4369","2921","&#9733;","elianto","#3366ff99","-1"," ","0","0","[1501.7999999523163]","1","1","","","4369","6","2","2","win","no-go","0"
"pit-trial","127","1689859","0.0-10.0","battery-v0.2","","""event"",""trial"",""time""
""fullscreenenter"",""1"",""2511""
""blur"",""36"",""662337""
""focus"",""36"",""976893""
","""event"",""trial"",""time""
""blur"",""36"",""662337""
","""event"",""trial"",""time""
""focus"",""36"",""976893""
","""event"",""trial"",""time""
""fullscreenenter"",""1"",""2511""
","
","","","-1","","","24","4369","2921","&#9728;","elianto","#f73b6a7A","-1","-1","1","0","[]","0","1","","","4369","7","0","4","lose","no-go","0"
"pit-trial","128","1693453","0.0-11.0","battery-v0.2","","""event"",""trial"",""time""
""fullscreenenter"",""1"",""2511""
""blur"",""36"",""662337""
""focus"",""36"",""976893""
","""event"",""trial"",""time""
""blur"",""36"",""662337""
","""event"",""trial"",""time""
""focus"",""36"",""976893""
","""event"",""trial"",""time""
""fullscreenenter"",""1"",""2511""
","
","","","737","","","24","4369","2921","&#9730;","elianto","#3366ff99"," "," ","1","+10","[1589.8000000715256]","1","1","","","4369","8","1","1","win","go","0"
"pit-trial","129","1698317","0.0-12.0","battery-v0.2","","""event"",""trial"",""time""
""fullscreenenter"",""1"",""2511""
""blur"",""36"",""662337""
""focus"",""36"",""976893""
","""event"",""trial"",""time""
""blur"",""36"",""662337""
","""event"",""trial"",""time""
""focus"",""36"",""976893""
","""event"",""trial"",""time""
""fullscreenenter"",""1"",""2511""
","
","","","-1","","","24","4369","2921","&#9728;","elianto","#f73b6a7A","-1","-1","1","0","[]","0","1","","","4369","9","0","4","lose","no-go","0"
"pit-trial","130","1701893","0.0-13.0","battery-v0.2","","""event"",""trial"",""time""
""fullscreenenter"",""1"",""2511""
""blur"",""36"",""662337""
""focus"",""36"",""976893""
","""event"",""trial"",""time""
""blur"",""36"",""662337""
","""event"",""trial"",""time""
""focus"",""36"",""976893""
","""event"",""trial"",""time""
""fullscreenenter"",""1"",""2511""
","
","","","719.7999999523163","","","24","4369","2921","&#9730;","elianto","#3366ff99"," "," ","1","0","[1573.3999999761581]","1","1","","","4369","10","1","1","win","go","1"
"pit-trial","131","1705372","0.0-14.0","battery-v0.2","","""event"",""trial"",""time""
""fullscreenenter"",""1"",""2511""
""blur"",""36"",""662337""
""focus"",""36"",""976893""
","""event"",""trial"",""time""
""blur"",""36"",""662337""
","""event"",""trial"",""time""
""focus"",""36"",""976893""
","""event"",""trial"",""time""
""fullscreenenter"",""1"",""2511""
","
","","","618.7999999523163","","","24","4369","2921","&#9733;","elianto","#3366ff99","-1"," ","0","0","[1472.5]","1","1","","","4369","11","2","2","win","no-go","0"
"pit-trial","132","1710245","0.0-15.0","battery-v0.2","","""event"",""trial"",""time""
""fullscreenenter"",""1"",""2511""
""blur"",""36"",""662337""
""focus"",""36"",""976893""
","""event"",""trial"",""time""
""blur"",""36"",""662337""
","""event"",""trial"",""time""
""focus"",""36"",""976893""
","""event"",""trial"",""time""
""fullscreenenter"",""1"",""2511""
","
","","","-1","","","24","4369","2921","&#9752;","elianto","#f73b6a7A"," ","-1","0","0","[]","0","1","","","4369","12","3","3","lose","go","1"
"pit-trial","133","1715109","0.0-16.0","battery-v0.2","","""event"",""trial"",""time""
""fullscreenenter"",""1"",""2511""
""blur"",""36"",""662337""
""focus"",""36"",""976893""
","""event"",""trial"",""time""
""blur"",""36"",""662337""
","""event"",""trial"",""time""
""focus"",""36"",""976893""
","""event"",""trial"",""time""
""fullscreenenter"",""1"",""2511""
","
","","","-1","","","24","4369","2921","&#9752;","elianto","#f73b6a7A"," ","-1","0","0","[]","0","1","","","4369","13","3","3","lose","go","1"
"pit-trial","134","1718693","0.0-17.0","battery-v0.2","","""event"",""trial"",""time""
""fullscreenenter"",""1"",""2511""
""blur"",""36"",""662337""
""focus"",""36"",""976893""
","""event"",""trial"",""time""
""blur"",""36"",""662337""
","""event"",""trial"",""time""
""focus"",""36"",""976893""
","""event"",""trial"",""time""
""fullscreenenter"",""1"",""2511""
","
","","","727.6000000238419","","","24","4369","2921","&#9733;","elianto","#3366ff99","-1"," ","0","0","[1581.3000000715256]","1","1","","","4369","14","2","2","win","no-go","0"
"pit-trial","135","1721891","0.0-18.0","battery-v0.2","","""event"",""trial"",""time""
""fullscreenenter"",""1"",""2511""
""blur"",""36"",""662337""
""focus"",""36"",""976893""
","""event"",""trial"",""time""
""blur"",""36"",""662337""
","""event"",""trial"",""time""
""focus"",""36"",""976893""
","""event"",""trial"",""time""
""fullscreenenter"",""1"",""2511""
","
","","","330.89999997615814","","","24","4369","2921","&#9728;","elianto","#f73b6a7A","-1"," ","0","-10","[1186.1000000238419]","1","1","","","4369","15","0","4","lose","no-go","0"
"pit-trial","136","1724876","0.0-19.0","battery-v0.2","","""event"",""trial"",""time""
""fullscreenenter"",""1"",""2511""
""blur"",""36"",""662337""
""focus"",""36"",""976893""
","""event"",""trial"",""time""
""blur"",""36"",""662337""
","""event"",""trial"",""time""
""focus"",""36"",""976893""
","""event"",""trial"",""time""
""fullscreenenter"",""1"",""2511""
","
","","","124.89999997615814","","","24","4369","2921","&#9730;","elianto","#3366ff99"," "," ","1","+10","[979.6000000238419]","1","1","","","4369","16","1","1","win","go","0"
"pit-trial","137","1729740","0.0-20.0","battery-v0.2","","""event"",""trial"",""time""
""fullscreenenter"",""1"",""2511""
""blur"",""36"",""662337""
""focus"",""36"",""976893""
","""event"",""trial"",""time""
""blur"",""36"",""662337""
","""event"",""trial"",""time""
""focus"",""36"",""976893""
","""event"",""trial"",""time""
""fullscreenenter"",""1"",""2511""
","
","","","-1","","","24","4369","2921","&#9728;","elianto","#f73b6a7A","-1","-1","1","0","[]","0","1","","","4369","17","0","4","lose","no-go","0"
"pit-trial","138","1733205","0.0-21.0","battery-v0.2","","""event"",""trial"",""time""
""fullscreenenter"",""1"",""2511""
""blur"",""36"",""662337""
""focus"",""36"",""976893""
","""event"",""trial"",""time""
""blur"",""36"",""662337""
","""event"",""trial"",""time""
""focus"",""36"",""976893""
","""event"",""trial"",""time""
""fullscreenenter"",""1"",""2511""
","
","","","605.1999999284744","","","24","4369","2921","&#9733;","elianto","#3366ff99","-1"," ","0","+10","[1460.5999999046326]","1","1","","","4369","18","2","2","win","no-go","1"
"pit-trial","139","1738068","0.0-22.0","battery-v0.2","","""event"",""trial"",""time""
""fullscreenenter"",""1"",""2511""
""blur"",""36"",""662337""
""focus"",""36"",""976893""
","""event"",""trial"",""time""
""blur"",""36"",""662337""
","""event"",""trial"",""time""
""focus"",""36"",""976893""
","""event"",""trial"",""time""
""fullscreenenter"",""1"",""2511""
","
","","","-1","","","24","4369","2921","&#9752;","elianto","#f73b6a7A"," ","-1","0","0","[]","0","1","","","4369","19","3","3","lose","go","1"
"pit-trial","140","1741779","0.0-23.0","battery-v0.2","","""event"",""trial"",""time""
""fullscreenenter"",""1"",""2511""
""blur"",""36"",""662337""
""focus"",""36"",""976893""
""blur"",""141"",""2353271""
""focus"",""141"",""20929612""
""blur"",""141"",""21529764""
""focus"",""141"",""22101082""
","""event"",""trial"",""time""
""blur"",""36"",""662337""
""blur"",""141"",""2353271""
""blur"",""141"",""21529764""
","""event"",""trial"",""time""
""focus"",""36"",""976893""
""focus"",""141"",""20929612""
""focus"",""141"",""22101082""
","""event"",""trial"",""time""
""fullscreenenter"",""1"",""2511""
","
","","","842.5","","","24","4369","2921","&#9730;","elianto","#3366ff99"," "," ","1","+10","[1697]","1","1","","","4369","20","1","1","win","go","0"
"pit-instructions","141","22104197","0.0-24.0","battery-v0.2","","""event"",""trial"",""time""
""fullscreenenter"",""1"",""2511""
""blur"",""36"",""662337""
""focus"",""36"",""976893""
""blur"",""141"",""2353271""
""focus"",""141"",""20929612""
""blur"",""141"",""21529764""
""focus"",""141"",""22101082""
","""event"",""trial"",""time""
""blur"",""36"",""662337""
""blur"",""141"",""2353271""
""blur"",""141"",""21529764""
","""event"",""trial"",""time""
""focus"",""36"",""976893""
""focus"",""141"",""20929612""
""focus"",""141"",""22101082""
","""event"",""trial"",""time""
""fullscreenenter"",""1"",""2511""
","
","","[{""page_index"":0,""viewing_time"":5955.899999976158},{""page_index"":1,""viewing_time"":20356464.69999993}]","20362421.099999905","","","","","","","","","","","","","","","","","","","","","","","",""
"pit-trial","142","22108938","0.0-25.0","battery-v0.2","","""event"",""trial"",""time""
""fullscreenenter"",""1"",""2511""
""blur"",""36"",""662337""
""focus"",""36"",""976893""
""blur"",""141"",""2353271""
""focus"",""141"",""20929612""
""blur"",""141"",""21529764""
""focus"",""141"",""22101082""
","""event"",""trial"",""time""
""blur"",""36"",""662337""
""blur"",""141"",""2353271""
""blur"",""141"",""21529764""
","""event"",""trial"",""time""
""focus"",""36"",""976893""
""focus"",""141"",""20929612""
""focus"",""141"",""22101082""
","""event"",""trial"",""time""
""fullscreenenter"",""1"",""2511""
","
","","","1873.3999999761581","","","24","4369","2921","g","elianto","#f73b6a7A","-1"," ","0","-10","[2726.9000000953674]","1","2","","","4369","21","3","4","lose","no-go","0"
"pit-trial","143","22113799","0.0-26.0","battery-v0.2","","""event"",""trial"",""time""
""fullscreenenter"",""1"",""2511""
""blur"",""36"",""662337""
""focus"",""36"",""976893""
""blur"",""141"",""2353271""
""focus"",""141"",""20929612""
""blur"",""141"",""21529764""
""focus"",""141"",""22101082""
","""event"",""trial"",""time""
""blur"",""36"",""662337""
""blur"",""141"",""2353271""
""blur"",""141"",""21529764""
","""event"",""trial"",""time""
""focus"",""36"",""976893""
""focus"",""141"",""20929612""
""focus"",""141"",""22101082""
","""event"",""trial"",""time""
""fullscreenenter"",""1"",""2511""
","
","","","-1","","","24","4369","2921","a","elianto","#f73b6a7A"," ","-1","0","-10","[]","0","2","","","4369","22","2","3","lose","go","0"
"pit-trial","144","22117273","0.0-27.0","battery-v0.2","","""event"",""trial"",""time""
""fullscreenenter"",""1"",""2511""
""blur"",""36"",""662337""
""focus"",""36"",""976893""
""blur"",""141"",""2353271""
""focus"",""141"",""20929612""
""blur"",""141"",""21529764""
""focus"",""141"",""22101082""
","""event"",""trial"",""time""
""blur"",""36"",""662337""
""blur"",""141"",""2353271""
""blur"",""141"",""21529764""
","""event"",""trial"",""time""
""focus"",""36"",""976893""
""focus"",""141"",""20929612""
""focus"",""141"",""22101082""
","""event"",""trial"",""time""
""fullscreenenter"",""1"",""2511""
","
","","","612.0999999046326","","","24","4369","2921","l","elianto","#3366ff99","-1"," ","0","0","[1470]","1","2","","","4369","23","1","2","win","no-go","0"
"pit-trial","145","22122137","0.0-28.0","battery-v0.2","","""event"",""trial"",""time""
""fullscreenenter"",""1"",""2511""
""blur"",""36"",""662337""
""focus"",""36"",""976893""
""blur"",""141"",""2353271""
""focus"",""141"",""20929612""
""blur"",""141"",""21529764""
""focus"",""141"",""22101082""
","""event"",""trial"",""time""
""blur"",""36"",""662337""
""blur"",""141"",""2353271""
""blur"",""141"",""21529764""
","""event"",""trial"",""time""
""focus"",""36"",""976893""
""focus"",""141"",""20929612""
""focus"",""141"",""22101082""
","""event"",""trial"",""time""
""fullscreenenter"",""1"",""2511""
","
","","","-1","","","24","4369","2921","u","elianto","#f73b6a7A"," ","-1","0","-10","[]","0","2","","","4369","24","0","3","lose","go","0"
"pit-trial","146","22125688","0.0-29.0","battery-v0.2","","""event"",""trial"",""time""
""fullscreenenter"",""1"",""2511""
""blur"",""36"",""662337""
""focus"",""36"",""976893""
""blur"",""141"",""2353271""
""focus"",""141"",""20929612""
""blur"",""141"",""21529764""
""focus"",""141"",""22101082""
","""event"",""trial"",""time""
""blur"",""36"",""662337""
""blur"",""141"",""2353271""
""blur"",""141"",""21529764""
","""event"",""trial"",""time""
""focus"",""36"",""976893""
""focus"",""141"",""20929612""
""focus"",""141"",""22101082""
","""event"",""trial"",""time""
""fullscreenenter"",""1"",""2511""
","
","","","691.2000000476837","","","24","4369","2921","a","elianto","#f73b6a7A"," "," ","1","0","[1544.5]","1","2","","","4369","25","2","3","lose","go","0"
"pit-trial","147","22129325","0.0-30.0","battery-v0.2","","""event"",""trial"",""time""
""fullscreenenter"",""1"",""2511""
""blur"",""36"",""662337""
""focus"",""36"",""976893""
""blur"",""141"",""2353271""
""focus"",""141"",""20929612""
""blur"",""141"",""21529764""
""focus"",""141"",""22101082""
","""event"",""trial"",""time""
""blur"",""36"",""662337""
""blur"",""141"",""2353271""
""blur"",""141"",""21529764""
","""event"",""trial"",""time""
""focus"",""36"",""976893""
""focus"",""141"",""20929612""
""focus"",""141"",""22101082""
","""event"",""trial"",""time""
""fullscreenenter"",""1"",""2511""
","
","","","774.5999999046326","","","24","4369","2921","u","elianto","#f73b6a7A"," "," ","1","-10","[1627.6999999284744]","1","2","","","4369","26","0","3","lose","go","1"
"pit-trial","148","22133171","0.0-31.0","battery-v0.2","","""event"",""trial"",""time""
""fullscreenenter"",""1"",""2511""
""blur"",""36"",""662337""
""focus"",""36"",""976893""
""blur"",""141"",""2353271""
""focus"",""141"",""20929612""
""blur"",""141"",""21529764""
""focus"",""141"",""22101082""
","""event"",""trial"",""time""
""blur"",""36"",""662337""
""blur"",""141"",""2353271""
""blur"",""141"",""21529764""
","""event"",""trial"",""time""
""focus"",""36"",""976893""
""focus"",""141"",""20929612""
""focus"",""141"",""22101082""
","""event"",""trial"",""time""
""fullscreenenter"",""1"",""2511""
","
","","","978.3999999761581","","","24","4369","2921","l","elianto","#3366ff99","-1"," ","0","+10","[1831.7999999523163]","1","2","","","4369","27","1","2","win","no-go","1"
"pit-trial","149","22136748","0.0-32.0","battery-v0.2","","""event"",""trial"",""time""
""fullscreenenter"",""1"",""2511""
""blur"",""36"",""662337""
""focus"",""36"",""976893""
""blur"",""141"",""2353271""
""focus"",""141"",""20929612""
""blur"",""141"",""21529764""
""focus"",""141"",""22101082""
","""event"",""trial"",""time""
""blur"",""36"",""662337""
""blur"",""141"",""2353271""
""blur"",""141"",""21529764""
","""event"",""trial"",""time""
""focus"",""36"",""976893""
""focus"",""141"",""20929612""
""focus"",""141"",""22101082""
","""event"",""trial"",""time""
""fullscreenenter"",""1"",""2511""
","
","","","718.2000000476837","","","24","4369","2921","g","elianto","#f73b6a7A","-1"," ","0","-10","[1569.8000000715256]","1","2","","","4369","28","3","4","lose","no-go","0"
"pit-trial","150","22140281","0.0-33.0","battery-v0.2","","""event"",""trial"",""time""
""fullscreenenter"",""1"",""2511""
""blur"",""36"",""662337""
""focus"",""36"",""976893""
""blur"",""141"",""2353271""
""focus"",""141"",""20929612""
""blur"",""141"",""21529764""
""focus"",""141"",""22101082""
","""event"",""trial"",""time""
""blur"",""36"",""662337""
""blur"",""141"",""2353271""
""blur"",""141"",""21529764""
","""event"",""trial"",""time""
""focus"",""36"",""976893""
""focus"",""141"",""20929612""
""focus"",""141"",""22101082""
","""event"",""trial"",""time""
""fullscreenenter"",""1"",""2511""
","
","","","661.7000000476837","","","24","4369","2921","a","elianto","#f73b6a7A"," "," ","1","-10","[1525.5]","1","2","","","4369","29","2","3","lose","go","1"
"pit-trial","151","22144008","0.0-34.0","battery-v0.2","","""event"",""trial"",""time""
""fullscreenenter"",""1"",""2511""
""blur"",""36"",""662337""
""focus"",""36"",""976893""
""blur"",""141"",""2353271""
""focus"",""141"",""20929612""
""blur"",""141"",""21529764""
""focus"",""141"",""22101082""
","""event"",""trial"",""time""
""blur"",""36"",""662337""
""blur"",""141"",""2353271""
""blur"",""141"",""21529764""
","""event"",""trial"",""time""
""focus"",""36"",""976893""
""focus"",""141"",""20929612""
""focus"",""141"",""22101082""
","""event"",""trial"",""time""
""fullscreenenter"",""1"",""2511""
","
","","","871.8999999761581","","","24","4369","2921","u","elianto","#f73b6a7A"," "," ","1","0","[1723]","1","2","","","4369","30","0","3","lose","go","0"
"pit-trial","152","22147747","0.0-35.0","battery-v0.2","","""event"",""trial"",""time""
""fullscreenenter"",""1"",""2511""
""blur"",""36"",""662337""
""focus"",""36"",""976893""
""blur"",""141"",""2353271""
""focus"",""141"",""20929612""
""blur"",""141"",""21529764""
""focus"",""141"",""22101082""
","""event"",""trial"",""time""
""blur"",""36"",""662337""
""blur"",""141"",""2353271""
""blur"",""141"",""21529764""
","""event"",""trial"",""time""
""focus"",""36"",""976893""
""focus"",""141"",""20929612""
""focus"",""141"",""22101082""
","""event"",""trial"",""time""
""fullscreenenter"",""1"",""2511""
","
","","","880.2000000476837","","","24","4369","2921","g","elianto","#f73b6a7A","-1"," ","0","-10","[1733.5]","1","2","","","4369","31","3","4","lose","no-go","0"
"pit-trial","153","22151256","0.0-36.0","battery-v0.2","","""event"",""trial"",""time""
""fullscreenenter"",""1"",""2511""
""blur"",""36"",""662337""
""focus"",""36"",""976893""
""blur"",""141"",""2353271""
""focus"",""141"",""20929612""
""blur"",""141"",""21529764""
""focus"",""141"",""22101082""
","""event"",""trial"",""time""
""blur"",""36"",""662337""
""blur"",""141"",""2353271""
""blur"",""141"",""21529764""
","""event"",""trial"",""time""
""focus"",""36"",""976893""
""focus"",""141"",""20929612""
""focus"",""141"",""22101082""
","""event"",""trial"",""time""
""fullscreenenter"",""1"",""2511""
","
","","","650.5","","","24","4369","2921","l","elianto","#3366ff99","-1"," ","0","+10","[1502.7000000476837]","1","2","","","4369","32","1","2","win","no-go","1"
"pit-trial","154","22155162","0.0-37.0","battery-v0.2","","""event"",""trial"",""time""
""fullscreenenter"",""1"",""2511""
""blur"",""36"",""662337""
""focus"",""36"",""976893""
""blur"",""141"",""2353271""
""focus"",""141"",""20929612""
""blur"",""141"",""21529764""
""focus"",""141"",""22101082""
","""event"",""trial"",""time""
""blur"",""36"",""662337""
""blur"",""141"",""2353271""
""blur"",""141"",""21529764""
","""event"",""trial"",""time""
""focus"",""36"",""976893""
""focus"",""141"",""20929612""
""focus"",""141"",""22101082""
","""event"",""trial"",""time""
""fullscreenenter"",""1"",""2511""
","
","","","1045.3999999761581","","","24","4369","2921","g","elianto","#f73b6a7A","-1"," ","0","-10","[1897.7000000476837]","1","2","","","4369","33","3","4","lose","no-go","0"
"pit-trial","155","22158538","0.0-38.0","battery-v0.2","","""event"",""trial"",""time""
""fullscreenenter"",""1"",""2511""
""blur"",""36"",""662337""
""focus"",""36"",""976893""
""blur"",""141"",""2353271""
""focus"",""141"",""20929612""
""blur"",""141"",""21529764""
""focus"",""141"",""22101082""
","""event"",""trial"",""time""
""blur"",""36"",""662337""
""blur"",""141"",""2353271""
""blur"",""141"",""21529764""
","""event"",""trial"",""time""
""focus"",""36"",""976893""
""focus"",""141"",""20929612""
""focus"",""141"",""22101082""
","""event"",""trial"",""time""
""fullscreenenter"",""1"",""2511""
","
","","","510.6999999284744","","","24","4369","2921","a","elianto","#f73b6a7A"," "," ","1","0","[1363.3999999761581]","1","2","","","4369","34","2","3","lose","go","0"
"pit-trial","156","22161981","0.0-39.0","battery-v0.2","","""event"",""trial"",""time""
""fullscreenenter"",""1"",""2511""
""blur"",""36"",""662337""
""focus"",""36"",""976893""
""blur"",""141"",""2353271""
""focus"",""141"",""20929612""
""blur"",""141"",""21529764""
""focus"",""141"",""22101082""
","""event"",""trial"",""time""
""blur"",""36"",""662337""
""blur"",""141"",""2353271""
""blur"",""141"",""21529764""
","""event"",""trial"",""time""
""focus"",""36"",""976893""
""focus"",""141"",""20929612""
""focus"",""141"",""22101082""
","""event"",""trial"",""time""
""fullscreenenter"",""1"",""2511""
","
","","","577.2000000476837","","","24","4369","2921","u","elianto","#f73b6a7A"," "," ","1","0","[1429.7999999523163]","1","2","","","4369","35","0","3","lose","go","0"
"pit-trial","157","22165490","0.0-40.0","battery-v0.2","","""event"",""trial"",""time""
""fullscreenenter"",""1"",""2511""
""blur"",""36"",""662337""
""focus"",""36"",""976893""
""blur"",""141"",""2353271""
""focus"",""141"",""20929612""
""blur"",""141"",""21529764""
""focus"",""141"",""22101082""
","""event"",""trial"",""time""
""blur"",""36"",""662337""
""blur"",""141"",""2353271""
""blur"",""141"",""21529764""
","""event"",""trial"",""time""
""focus"",""36"",""976893""
""focus"",""141"",""20929612""
""focus"",""141"",""22101082""
","""event"",""trial"",""time""
""fullscreenenter"",""1"",""2511""
","
","","","638.1000000238419","","","24","4369","2921","l","elianto","#3366ff99","-1"," ","0","0","[1494.6000000238419]","1","2","","","4369","36","1","2","win","no-go","0"
"pit-trial","158","22168966","0.0-41.0","battery-v0.2","","""event"",""trial"",""time""
""fullscreenenter"",""1"",""2511""
""blur"",""36"",""662337""
""focus"",""36"",""976893""
""blur"",""141"",""2353271""
""focus"",""141"",""20929612""
""blur"",""141"",""21529764""
""focus"",""141"",""22101082""
","""event"",""trial"",""time""
""blur"",""36"",""662337""
""blur"",""141"",""2353271""
""blur"",""141"",""21529764""
","""event"",""trial"",""time""
""focus"",""36"",""976893""
""focus"",""141"",""20929612""
""focus"",""141"",""22101082""
","""event"",""trial"",""time""
""fullscreenenter"",""1"",""2511""
","
","","","617.8000000715256","","","24","4369","2921","l","elianto","#3366ff99","-1"," ","0","0","[1468.1000000238419]","1","2","","","4369","37","1","2","win","no-go","0"
"pit-trial","159","22172711","0.0-42.0","battery-v0.2","","""event"",""trial"",""time""
""fullscreenenter"",""1"",""2511""
""blur"",""36"",""662337""
""focus"",""36"",""976893""
""blur"",""141"",""2353271""
""focus"",""141"",""20929612""
""blur"",""141"",""21529764""
""focus"",""141"",""22101082""
","""event"",""trial"",""time""
""blur"",""36"",""662337""
""blur"",""141"",""2353271""
""blur"",""141"",""21529764""
","""event"",""trial"",""time""
""focus"",""36"",""976893""
""focus"",""141"",""20929612""
""focus"",""141"",""22101082""
","""event"",""trial"",""time""
""fullscreenenter"",""1"",""2511""
","
","","","882","","","24","4369","2921","a","elianto","#f73b6a7A"," "," ","1","0","[1734.7000000476837]","1","2","","","4369","38","2","3","lose","go","0"
"pit-trial","160","22176772","0.0-43.0","battery-v0.2","","""event"",""trial"",""time""
""fullscreenenter"",""1"",""2511""
""blur"",""36"",""662337""
""focus"",""36"",""976893""
""blur"",""141"",""2353271""
""focus"",""141"",""20929612""
""blur"",""141"",""21529764""
""focus"",""141"",""22101082""
","""event"",""trial"",""time""
""blur"",""36"",""662337""
""blur"",""141"",""2353271""
""blur"",""141"",""21529764""
","""event"",""trial"",""time""
""focus"",""36"",""976893""
""focus"",""141"",""20929612""
""focus"",""141"",""22101082""
","""event"",""trial"",""time""
""fullscreenenter"",""1"",""2511""
","
","","","1208.2999999523163","","","24","4369","2921","u","elianto","#f73b6a7A"," "," ","1","0","[2059.2000000476837]","1","2","","","4369","39","0","3","lose","go","0"
"pit-trial","161","22180412","0.0-44.0","battery-v0.2","","""event"",""trial"",""time""
""fullscreenenter"",""1"",""2511""
""blur"",""36"",""662337""
""focus"",""36"",""976893""
""blur"",""141"",""2353271""
""focus"",""141"",""20929612""
""blur"",""141"",""21529764""
""focus"",""141"",""22101082""
","""event"",""trial"",""time""
""blur"",""36"",""662337""
""blur"",""141"",""2353271""
""blur"",""141"",""21529764""
","""event"",""trial"",""time""
""focus"",""36"",""976893""
""focus"",""141"",""20929612""
""focus"",""141"",""22101082""
","""event"",""trial"",""time""
""fullscreenenter"",""1"",""2511""
","
","","","769.2999999523163","","","24","4369","2921","g","elianto","#f73b6a7A","-1"," ","0","-10","[1630.7999999523163]","1","2","","","4369","40","3","4","lose","no-go","0"
"pit-trial","162","22183708","0.0-45.0","battery-v0.2","","""event"",""trial"",""time""
""fullscreenenter"",""1"",""2511""
""blur"",""36"",""662337""
""focus"",""36"",""976893""
""blur"",""141"",""2353271""
""focus"",""141"",""20929612""
""blur"",""141"",""21529764""
""focus"",""141"",""22101082""
","""event"",""trial"",""time""
""blur"",""36"",""662337""
""blur"",""141"",""2353271""
""blur"",""141"",""21529764""
","""event"",""trial"",""time""
""focus"",""36"",""976893""
""focus"",""141"",""20929612""
""focus"",""141"",""22101082""
","""event"",""trial"",""time""
""fullscreenenter"",""1"",""2511""
","
","","","430.10000002384186","","","24","4369","2921","l","elianto","#3366ff99","-1"," ","0","0","[1283.3999999761581]","1","2","","","4369","41","1","2","win","no-go","0"
"pit-trial","163","22186869","0.0-46.0","battery-v0.2","","""event"",""trial"",""time""
""fullscreenenter"",""1"",""2511""
""blur"",""36"",""662337""
""focus"",""36"",""976893""
""blur"",""141"",""2353271""
""focus"",""141"",""20929612""
""blur"",""141"",""21529764""
""focus"",""141"",""22101082""
","""event"",""trial"",""time""
""blur"",""36"",""662337""
""blur"",""141"",""2353271""
""blur"",""141"",""21529764""
","""event"",""trial"",""time""
""focus"",""36"",""976893""
""focus"",""141"",""20929612""
""focus"",""141"",""22101082""
","""event"",""trial"",""time""
""fullscreenenter"",""1"",""2511""
","
","","","301.6999999284744","","","24","4369","2921","a","elianto","#f73b6a7A"," "," ","1","0","[1157.7999999523163]","1","2","","","4369","42","2","3","lose","go","0"
"pit-trial","164","22190221","0.0-47.0","battery-v0.2","","""event"",""trial"",""time""
""fullscreenenter"",""1"",""2511""
""blur"",""36"",""662337""
""focus"",""36"",""976893""
""blur"",""141"",""2353271""
""focus"",""141"",""20929612""
""blur"",""141"",""21529764""
""focus"",""141"",""22101082""
","""event"",""trial"",""time""
""blur"",""36"",""662337""
""blur"",""141"",""2353271""
""blur"",""141"",""21529764""
","""event"",""trial"",""time""
""focus"",""36"",""976893""
""focus"",""141"",""20929612""
""focus"",""141"",""22101082""
","""event"",""trial"",""time""
""fullscreenenter"",""1"",""2511""
","
","","","493.2999999523163","","","24","4369","2921","g","elianto","#f73b6a7A","-1"," ","0","-10","[1343.7999999523163]","1","2","","","4369","43","3","4","lose","no-go","0"
"pit-trial","165","22193436","0.0-48.0","battery-v0.2","","""event"",""trial"",""time""
""fullscreenenter"",""1"",""2511""
""blur"",""36"",""662337""
""focus"",""36"",""976893""
""blur"",""141"",""2353271""
""focus"",""141"",""20929612""
""blur"",""141"",""21529764""
""focus"",""141"",""22101082""
","""event"",""trial"",""time""
""blur"",""36"",""662337""
""blur"",""141"",""2353271""
""blur"",""141"",""21529764""
","""event"",""trial"",""time""
""focus"",""36"",""976893""
""focus"",""141"",""20929612""
""focus"",""141"",""22101082""
","""event"",""trial"",""time""
""fullscreenenter"",""1"",""2511""
","
","","","352.7999999523163","","","24","4369","2921","u","elianto","#f73b6a7A"," "," ","1","0","[1206.3999999761581]","1","2","","","4369","44","0","3","lose","go","0"
"pit-trial","166","22196589","0.0-49.0","battery-v0.2","","""event"",""trial"",""time""
""fullscreenenter"",""1"",""2511""
""blur"",""36"",""662337""
""focus"",""36"",""976893""
""blur"",""141"",""2353271""
""focus"",""141"",""20929612""
""blur"",""141"",""21529764""
""focus"",""141"",""22101082""
","""event"",""trial"",""time""
""blur"",""36"",""662337""
""blur"",""141"",""2353271""
""blur"",""141"",""21529764""
","""event"",""trial"",""time""
""focus"",""36"",""976893""
""focus"",""141"",""20929612""
""focus"",""141"",""22101082""
","""event"",""trial"",""time""
""fullscreenenter"",""1"",""2511""
","
","","","290.5","","","24","4369","2921","a","elianto","#f73b6a7A"," "," ","1","0","[1143.7999999523163]","1","2","","","4369","45","2","3","lose","go","0"
"pit-trial","167","22199775","0.0-50.0","battery-v0.2","","""event"",""trial"",""time""
""fullscreenenter"",""1"",""2511""
""blur"",""36"",""662337""
""focus"",""36"",""976893""
""blur"",""141"",""2353271""
""focus"",""141"",""20929612""
""blur"",""141"",""21529764""
""focus"",""141"",""22101082""
","""event"",""trial"",""time""
""blur"",""36"",""662337""
""blur"",""141"",""2353271""
""blur"",""141"",""21529764""
","""event"",""trial"",""time""
""focus"",""36"",""976893""
""focus"",""141"",""20929612""
""focus"",""141"",""22101082""
","""event"",""trial"",""time""
""fullscreenenter"",""1"",""2511""
","
","","","320.60000002384186","","","24","4369","2921","g","elianto","#f73b6a7A","-1"," ","0","-10","[1173.9000000953674]","1","2","","","4369","46","3","4","lose","no-go","0"
"pit-trial","168","22203428","0.0-51.0","battery-v0.2","","""event"",""trial"",""time""
""fullscreenenter"",""1"",""2511""
""blur"",""36"",""662337""
""focus"",""36"",""976893""
""blur"",""141"",""2353271""
""focus"",""141"",""20929612""
""blur"",""141"",""21529764""
""focus"",""141"",""22101082""
","""event"",""trial"",""time""
""blur"",""36"",""662337""
""blur"",""141"",""2353271""
""blur"",""141"",""21529764""
","""event"",""trial"",""time""
""focus"",""36"",""976893""
""focus"",""141"",""20929612""
""focus"",""141"",""22101082""
","""event"",""trial"",""time""
""fullscreenenter"",""1"",""2511""
","
","","","796.8000000715256","","","24","4369","2921","l","elianto","#3366ff99","-1"," ","0","0","[1649.7000000476837]","1","2","","","4369","47","1","2","win","no-go","0"
"pit-trial","169","22206757","0.0-52.0","battery-v0.2","","""event"",""trial"",""time""
""fullscreenenter"",""1"",""2511""
""blur"",""36"",""662337""
""focus"",""36"",""976893""
""blur"",""141"",""2353271""
""focus"",""141"",""20929612""
""blur"",""141"",""21529764""
""focus"",""141"",""22101082""
","""event"",""trial"",""time""
""blur"",""36"",""662337""
""blur"",""141"",""2353271""
""blur"",""141"",""21529764""
","""event"",""trial"",""time""
""focus"",""36"",""976893""
""focus"",""141"",""20929612""
""focus"",""141"",""22101082""
","""event"",""trial"",""time""
""fullscreenenter"",""1"",""2511""
","
","","","468.2000000476837","","","24","4369","2921","u","elianto","#f73b6a7A"," "," ","1","-10","[1321.7000000476837]","1","2","","","4369","48","0","3","lose","go","1"
"pit-trial","170","22209917","0.0-53.0","battery-v0.2","","""event"",""trial"",""time""
""fullscreenenter"",""1"",""2511""
""blur"",""36"",""662337""
""focus"",""36"",""976893""
""blur"",""141"",""2353271""
""focus"",""141"",""20929612""
""blur"",""141"",""21529764""
""focus"",""141"",""22101082""
","""event"",""trial"",""time""
""blur"",""36"",""662337""
""blur"",""141"",""2353271""
""blur"",""141"",""21529764""
","""event"",""trial"",""time""
""focus"",""36"",""976893""
""focus"",""141"",""20929612""
""focus"",""141"",""22101082""
","""event"",""trial"",""time""
""fullscreenenter"",""1"",""2511""
","
","","","302","","","24","4369","2921","g","elianto","#f73b6a7A","-1"," ","0","-10","[1155]","1","2","","","4369","49","3","4","lose","no-go","0"
"pit-trial","171","22213000","0.0-54.0","battery-v0.2","","""event"",""trial"",""time""
""fullscreenenter"",""1"",""2511""
""blur"",""36"",""662337""
""focus"",""36"",""976893""
""blur"",""141"",""2353271""
""focus"",""141"",""20929612""
""blur"",""141"",""21529764""
""focus"",""141"",""22101082""
","""event"",""trial"",""time""
""blur"",""36"",""662337""
""blur"",""141"",""2353271""
""blur"",""141"",""21529764""
","""event"",""trial"",""time""
""focus"",""36"",""976893""
""focus"",""141"",""20929612""
""focus"",""141"",""22101082""
","""event"",""trial"",""time""
""fullscreenenter"",""1"",""2511""
","
","","","215.60000002384186","","","24","4369","2921","u","elianto","#f73b6a7A"," "," ","1","0","[1068.8999999761581]","1","2","","","4369","50","0","3","lose","go","0"
"pit-trial","172","22216772","0.0-55.0","battery-v0.2","","""event"",""trial"",""time""
""fullscreenenter"",""1"",""2511""
""blur"",""36"",""662337""
""focus"",""36"",""976893""
""blur"",""141"",""2353271""
""focus"",""141"",""20929612""
""blur"",""141"",""21529764""
""focus"",""141"",""22101082""
","""event"",""trial"",""time""
""blur"",""36"",""662337""
""blur"",""141"",""2353271""
""blur"",""141"",""21529764""
","""event"",""trial"",""time""
""focus"",""36"",""976893""
""focus"",""141"",""20929612""
""focus"",""141"",""22101082""
","""event"",""trial"",""time""
""fullscreenenter"",""1"",""2511""
","
","","","917.6000000238419","","","24","4369","2921","a","elianto","#f73b6a7A"," "," ","1","0","[1768]","1","2","","","4369","51","2","3","lose","go","0"
"pit-trial","173","22219892","0.0-56.0","battery-v0.2","","""event"",""trial"",""time""
""fullscreenenter"",""1"",""2511""
""blur"",""36"",""662337""
""focus"",""36"",""976893""
""blur"",""141"",""2353271""
""focus"",""141"",""20929612""
""blur"",""141"",""21529764""
""focus"",""141"",""22101082""
","""event"",""trial"",""time""
""blur"",""36"",""662337""
""blur"",""141"",""2353271""
""blur"",""141"",""21529764""
","""event"",""trial"",""time""
""focus"",""36"",""976893""
""focus"",""141"",""20929612""
""focus"",""141"",""22101082""
","""event"",""trial"",""time""
""fullscreenenter"",""1"",""2511""
","
","","","263.5","","","24","4369","2921","l","elianto","#3366ff99","-1"," ","0","0","[1116.8999999761581]","1","2","","","4369","52","1","2","win","no-go","0"
"pit-trial","174","22223101","0.0-57.0","battery-v0.2","","""event"",""trial"",""time""
""fullscreenenter"",""1"",""2511""
""blur"",""36"",""662337""
""focus"",""36"",""976893""
""blur"",""141"",""2353271""
""focus"",""141"",""20929612""
""blur"",""141"",""21529764""
""focus"",""141"",""22101082""
","""event"",""trial"",""time""
""blur"",""36"",""662337""
""blur"",""141"",""2353271""
""blur"",""141"",""21529764""
","""event"",""trial"",""time""
""focus"",""36"",""976893""
""focus"",""141"",""20929612""
""focus"",""141"",""22101082""
","""event"",""trial"",""time""
""fullscreenenter"",""1"",""2511""
","
","","","345.6999999284744","","","24","4369","2921","u","elianto","#f73b6a7A"," "," ","1","-10","[1199.1999999284744]","1","2","","","4369","53","0","3","lose","go","1"
"pit-trial","175","22226229","0.0-58.0","battery-v0.2","","""event"",""trial"",""time""
""fullscreenenter"",""1"",""2511""
""blur"",""36"",""662337""
""focus"",""36"",""976893""
""blur"",""141"",""2353271""
""focus"",""141"",""20929612""
""blur"",""141"",""21529764""
""focus"",""141"",""22101082""
","""event"",""trial"",""time""
""blur"",""36"",""662337""
""blur"",""141"",""2353271""
""blur"",""141"",""21529764""
","""event"",""trial"",""time""
""focus"",""36"",""976893""
""focus"",""141"",""20929612""
""focus"",""141"",""22101082""
","""event"",""trial"",""time""
""fullscreenenter"",""1"",""2511""
","
","","","262.8000000715256","","","24","4369","2921","l","elianto","#3366ff99","-1"," ","0","0","[1122.3000000715256]","1","2","","","4369","54","1","2","win","no-go","0"
