"trial_type","trial_index","time_elapsed","internal_node_id","task_version","subject_id","interactions","blur_events","focus_events","fullscreenenter_events","fullscreenexit_events","success","view_history","rt","responses","num_errors","age","subject","participantId","rune","rune_set","hex","correct","choice","accuracy","outcome","keys","total_keys","block","practice","value","sub","trial","stimulus","robot","valence","action","sham"
"pavlovia","0","8","0.0-0.0","battery-v0.2","","""event"",""trial"",""time""
""fullscreenenter"",""1"",""1647""
","
","
","""event"",""trial"",""time""
""fullscreenenter"",""1"",""1647""
","
","","","","","","","","","","","","","","","","","","","","","","","","","","",""
"fullscreen","1","2594","0.0-1.0","battery-v0.2","","""event"",""trial"",""time""
""fullscreenenter"",""1"",""1647""
","
","
","""event"",""trial"",""time""
""fullscreenenter"",""1"",""1647""
","
","true","","","","","","","","","","","","","","","","","","","","","","","","","",""
"pit-instructions","2","10945","0.0-2.0-0.0","battery-v0.2","","""event"",""trial"",""time""
""fullscreenenter"",""1"",""1647""
","
","
","""event"",""trial"",""time""
""fullscreenenter"",""1"",""1647""
","
","","[{""page_index"":0,""viewing_time"":8347.099999904633}]","8347.700000047684","","","","","","","","","","","","","","","","","","","","","","","",""
"pit-comprehension","3","14547","0.0-2.0-1.0-0.0","battery-v0.2","","""event"",""trial"",""time""
""fullscreenenter"",""1"",""1647""
","
","
","""event"",""trial"",""time""
""fullscreenenter"",""1"",""1647""
","
","","","3593.9000000953674","[""shark""]","0","14","4569","710","","","","","","","","","","","","","","","","","","",""
"pit-instructions","4","16466","0.0-2.0-1.0-1.0","battery-v0.2","","""event"",""trial"",""time""
""fullscreenenter"",""1"",""1647""
","
","
","""event"",""trial"",""time""
""fullscreenenter"",""1"",""1647""
","
","","[{""page_index"":0,""viewing_time"":1906.5999999046326}]","1906.9000000953674","","","","","","","","","","","","","","","","","","","","","","","",""
"pit-comprehension","5","18940","0.0-2.0-2.0-0.0","battery-v0.2","","""event"",""trial"",""time""
""fullscreenenter"",""1"",""1647""
","
","
","""event"",""trial"",""time""
""fullscreenenter"",""1"",""1647""
","
","","","2468.0999999046326","[""tiger""]","0","14","4569","710","","","","","","","","","","","","","","","","","","",""
"pit-instructions","6","20132","0.0-2.0-2.0-1.0","battery-v0.2","","""event"",""trial"",""time""
""fullscreenenter"",""1"",""1647""
","
","
","""event"",""trial"",""time""
""fullscreenenter"",""1"",""1647""
","
","","[{""page_index"":0,""viewing_time"":1187.5}]","1187.7999999523163","","","","","","","","","","","","","","","","","","","","","","","",""
"pit-instructions","7","117843","0.0-2.0-3.0","battery-v0.2","","""event"",""trial"",""time""
""fullscreenenter"",""1"",""1647""
","
","
","""event"",""trial"",""time""
""fullscreenenter"",""1"",""1647""
","
","","[{""page_index"":0,""viewing_time"":9420.5},{""page_index"":1,""viewing_time"":6635.700000047684},{""page_index"":2,""viewing_time"":7840.5},{""page_index"":3,""viewing_time"":5991.5},{""page_index"":4,""viewing_time"":6102.399999856949},{""page_index"":5,""viewing_time"":5718.600000143051},{""page_index"":6,""viewing_time"":6958.699999809265},{""page_index"":7,""viewing_time"":6440.5},{""page_index"":8,""viewing_time"":6665.100000143051},{""page_index"":9,""viewing_time"":8257.899999856949},{""page_index"":10,""viewing_time"":7481.400000095367},{""page_index"":11,""viewing_time"":8534.700000047684},{""page_index"":12,""viewing_time"":6345.200000047684},{""page_index"":13,""viewing_time"":5311.099999904633}]","97705.39999985695","","","","","","","","","","","","","","","","","","","","","","","",""
"pit-trial","8","120722","0.0-2.0-4.0-0.0","battery-v0.2","","""event"",""trial"",""time""
""fullscreenenter"",""1"",""1647""
","
","
","""event"",""trial"",""time""
""fullscreenenter"",""1"",""1647""
","
","","","8.599999904632568","","","14","4569","710","&#9784;","elianto","#FFFFF080"," "," ","1","&#10004","[863.8000001907349]","1","0","0","","","","","","","",""
"pit-trial","9","124178","0.0-2.0-4.1-0.1","battery-v0.2","","""event"",""trial"",""time""
""fullscreenenter"",""1"",""1647""
","
","
","""event"",""trial"",""time""
""fullscreenenter"",""1"",""1647""
","
","","","590.4000000953674","","","14","4569","710","&#9784;","elianto","#FFFFF080"," "," ","1","&#10004","[1441]","1","0","0","","","","","","","",""
"pit-trial","10","128028","0.0-2.0-4.2-0.2","battery-v0.2","","""event"",""trial"",""time""
""fullscreenenter"",""1"",""1647""
","
","
","""event"",""trial"",""time""
""fullscreenenter"",""1"",""1647""
","
","","","969.7999999523163","","","14","4569","710","&#9784;","elianto","#FFFFF080"," "," ","1","&#10004","[1827.4000000953674]","1","0","0","","","","","","","",""
"pit-trial","11","131697","0.0-2.0-4.3-0.3","battery-v0.2","","""event"",""trial"",""time""
""fullscreenenter"",""1"",""1647""
","
","
","""event"",""trial"",""time""
""fullscreenenter"",""1"",""1647""
","
","","","795.5","","","14","4569","710","&#9784;","elianto","#FFFFF080"," "," ","1","&#10004","[1652.2999999523163]","1","0","0","","","","","","","",""
"pit-trial","12","135264","0.0-2.0-4.4-0.4","battery-v0.2","","""event"",""trial"",""time""
""fullscreenenter"",""1"",""1647""
","
","
","""event"",""trial"",""time""
""fullscreenenter"",""1"",""1647""
","
","","","680.2999999523163","","","14","4569","710","&#9784;","elianto","#FFFFF080"," "," ","1","&#10004","[1538.3999998569489]","1","0","0","","","","","","","",""
"pit-instructions","13","158134","0.0-2.0-5.0","battery-v0.2","","""event"",""trial"",""time""
""fullscreenenter"",""1"",""1647""
","
","
","""event"",""trial"",""time""
""fullscreenenter"",""1"",""1647""
","
","","[{""page_index"":0,""viewing_time"":4970.900000095367},{""page_index"":1,""viewing_time"":6922.200000047684},{""page_index"":2,""viewing_time"":4897.099999904633},{""page_index"":3,""viewing_time"":6071.200000047684}]","22862.200000047684","","","","","","","","","","","","","","","","","","","","","","","",""
"pit-trial","14","163012","0.0-2.0-6.0-0.0","battery-v0.2","","""event"",""trial"",""time""
""fullscreenenter"",""1"",""1647""
","
","
","""event"",""trial"",""time""
""fullscreenenter"",""1"",""1647""
","
","","","-1","","","14","4569","710","&#9854;","elianto","#FFFFF080","-1","-1","1","&#10004","[]","0","0","1","","","","","","","",""
"pit-trial","15","167895","0.0-2.0-6.1-0.1","battery-v0.2","","""event"",""trial"",""time""
""fullscreenenter"",""1"",""1647""
","
","
","""event"",""trial"",""time""
""fullscreenenter"",""1"",""1647""
","
","","","-1","","","14","4569","710","&#9854;","elianto","#FFFFF080","-1","-1","1","&#10004","[]","0","0","1","","","","","","","",""
"pit-trial","16","172774","0.0-2.0-6.2-0.2","battery-v0.2","","""event"",""trial"",""time""
""fullscreenenter"",""1"",""1647""
","
","
","""event"",""trial"",""time""
""fullscreenenter"",""1"",""1647""
","
","","","-1","","","14","4569","710","&#9854;","elianto","#FFFFF080","-1","-1","1","&#10004","[]","0","0","1","","","","","","","",""
"pit-trial","17","177661","0.0-2.0-6.3-0.3","battery-v0.2","","""event"",""trial"",""time""
""fullscreenenter"",""1"",""1647""
","
","
","""event"",""trial"",""time""
""fullscreenenter"",""1"",""1647""
","
","","","-1","","","14","4569","710","&#9854;","elianto","#FFFFF080","-1","-1","1","&#10004","[]","0","0","1","","","","","","","",""
"pit-trial","18","182544","0.0-2.0-6.4-0.4","battery-v0.2","","""event"",""trial"",""time""
""fullscreenenter"",""1"",""1647""
","
","
","""event"",""trial"",""time""
""fullscreenenter"",""1"",""1647""
","
","","","-1","","","14","4569","710","&#9854;","elianto","#FFFFF080","-1","-1","1","&#10004","[]","0","0","1","","","","","","","",""
"pit-instructions","19","296421","0.0-2.0-7.0","battery-v0.2","","""event"",""trial"",""time""
""fullscreenenter"",""1"",""1647""
","
","
","""event"",""trial"",""time""
""fullscreenenter"",""1"",""1647""
","
","","[{""page_index"":0,""viewing_time"":6856},{""page_index"":1,""viewing_time"":6665},{""page_index"":2,""viewing_time"":5699.700000047684},{""page_index"":3,""viewing_time"":5932.700000047684},{""page_index"":4,""viewing_time"":5427.799999952316},{""page_index"":5,""viewing_time"":5707.400000095367},{""page_index"":6,""viewing_time"":4664.699999809265},{""page_index"":7,""viewing_time"":8031.200000047684},{""page_index"":8,""viewing_time"":6865.5},{""page_index"":9,""viewing_time"":5641.600000143051},{""page_index"":10,""viewing_time"":6834.299999952316},{""page_index"":11,""viewing_time"":4586.399999856949},{""page_index"":12,""viewing_time"":6769},{""page_index"":13,""viewing_time"":7129.5},{""page_index"":14,""viewing_time"":6667.300000190735},{""page_index"":15,""viewing_time"":6115.399999856949},{""page_index"":16,""viewing_time"":6734.900000095367},{""page_index"":17,""viewing_time"":7539.5}]","113868.5","","","","","","","","","","","","","","","","","","","","","","","",""
"pit-trial","20","299891","0.0-2.0-8.0-0.0","battery-v0.2","","""event"",""trial"",""time""
""fullscreenenter"",""1"",""1647""
","
","
","""event"",""trial"",""time""
""fullscreenenter"",""1"",""1647""
","
","","","589.1000001430511","","","14","4569","710","&#9776;","elianto","#3366ff99"," "," ","1","+10","[1444.3999998569489]","1","0","1","","","","","","","",""
"pit-trial","21","303265","0.0-2.0-8.0-1.0","battery-v0.2","","""event"",""trial"",""time""
""fullscreenenter"",""1"",""1647""
","
","
","""event"",""trial"",""time""
""fullscreenenter"",""1"",""1647""
","
","","","508.40000009536743","","","14","4569","710","&#9776;","elianto","#3366ff99"," "," ","1","+10","[1359.3000001907349]","1","0","1","","","","","","","",""
"pit-trial","22","306670","0.0-2.0-8.0-2.0","battery-v0.2","","""event"",""trial"",""time""
""fullscreenenter"",""1"",""1647""
","
","
","""event"",""trial"",""time""
""fullscreenenter"",""1"",""1647""
","
","","","527.7000000476837","","","14","4569","710","&#9776;","elianto","#3366ff99"," "," ","1","+10","[1386]","1","0","1","","","","","","","",""
"pit-trial","23","310012","0.0-2.0-8.0-3.0","battery-v0.2","","""event"",""trial"",""time""
""fullscreenenter"",""1"",""1647""
","
","
","""event"",""trial"",""time""
""fullscreenenter"",""1"",""1647""
","
","","","478","","","14","4569","710","&#9776;","elianto","#3366ff99"," "," ","1","0","[1333.7000000476837]","1","0","1","","","","","","","",""
"pit-trial","24","313456","0.0-2.0-8.0-4.0","battery-v0.2","","""event"",""trial"",""time""
""fullscreenenter"",""1"",""1647""
","
","
","""event"",""trial"",""time""
""fullscreenenter"",""1"",""1647""
","
","","","557.1999998092651","","","14","4569","710","&#9776;","elianto","#3366ff99"," "," ","1","+10","[1416.1999998092651]","1","0","1","","","","","","","",""
"pit-trial","25","316780","0.0-2.0-8.1-0.1","battery-v0.2","","""event"",""trial"",""time""
""fullscreenenter"",""1"",""1647""
","
","
","""event"",""trial"",""time""
""fullscreenenter"",""1"",""1647""
","
","","","449.2000000476837","","","14","4569","710","&#9776;","elianto","#3366ff99"," "," ","1","+10","[1307.3999998569489]","1","0","1","","","","","","","",""
"pit-trial","26","320137","0.0-2.0-8.1-1.1","battery-v0.2","","""event"",""trial"",""time""
""fullscreenenter"",""1"",""1647""
","
","
","""event"",""trial"",""time""
""fullscreenenter"",""1"",""1647""
","
","","","472.09999990463257","","","14","4569","710","&#9776;","elianto","#3366ff99"," "," ","1","+10","[1327.7000000476837]","1","0","1","","","","","","","",""
"pit-trial","27","323645","0.0-2.0-8.1-2.1","battery-v0.2","","""event"",""trial"",""time""
""fullscreenenter"",""1"",""1647""
","
","
","""event"",""trial"",""time""
""fullscreenenter"",""1"",""1647""
","
","","","632.2999999523163","","","14","4569","710","&#9776;","elianto","#3366ff99"," "," ","1","+10","[1491]","1","0","1","","","","","","","",""
"pit-trial","28","326987","0.0-2.0-8.1-3.1","battery-v0.2","","""event"",""trial"",""time""
""fullscreenenter"",""1"",""1647""
","
","
","""event"",""trial"",""time""
""fullscreenenter"",""1"",""1647""
","
","","","465.5","","","14","4569","710","&#9776;","elianto","#3366ff99"," "," ","1","0","[1327.7000000476837]","1","0","1","","","","","","","",""
"pit-trial","29","330377","0.0-2.0-8.1-4.1","battery-v0.2","","""event"",""trial"",""time""
""fullscreenenter"",""1"",""1647""
","
","
","""event"",""trial"",""time""
""fullscreenenter"",""1"",""1647""
","
","","","505","","","14","4569","710","&#9776;","elianto","#3366ff99"," "," ","1","+10","[1363.0999999046326]","1","0","1","","","","","","","",""
"pit-trial","30","333772","0.0-2.0-8.2-0.2","battery-v0.2","","""event"",""trial"",""time""
""fullscreenenter"",""1"",""1647""
","
","
","""event"",""trial"",""time""
""fullscreenenter"",""1"",""1647""
","
","","","528.1000001430511","","","14","4569","710","&#9776;","elianto","#3366ff99"," "," ","1","+10","[1382.4000000953674]","1","0","1","","","","","","","",""
"pit-trial","31","337196","0.0-2.0-8.2-1.2","battery-v0.2","","""event"",""trial"",""time""
""fullscreenenter"",""1"",""1647""
","
","
","""event"",""trial"",""time""
""fullscreenenter"",""1"",""1647""
","
","","","557.8999998569489","","","14","4569","710","&#9776;","elianto","#3366ff99"," "," ","1","+10","[1414.3999998569489]","1","0","1","","","","","","","",""
"pit-trial","32","340556","0.0-2.0-8.2-2.2","battery-v0.2","","""event"",""trial"",""time""
""fullscreenenter"",""1"",""1647""
","
","
","""event"",""trial"",""time""
""fullscreenenter"",""1"",""1647""
","
","","","493.39999985694885","","","14","4569","710","&#9776;","elianto","#3366ff99"," "," ","1","+10","[1350.1999998092651]","1","0","1","","","","","","","",""
"pit-trial","33","344083","0.0-2.0-8.2-3.2","battery-v0.2","","""event"",""trial"",""time""
""fullscreenenter"",""1"",""1647""
","
","
","""event"",""trial"",""time""
""fullscreenenter"",""1"",""1647""
","
","","","660.4000000953674","","","14","4569","710","&#9776;","elianto","#3366ff99"," "," ","1","0","[1517]","1","0","1","","","","","","","",""
"pit-trial","34","347555","0.0-2.0-8.2-4.2","battery-v0.2","","""event"",""trial"",""time""
""fullscreenenter"",""1"",""1647""
","
","
","""event"",""trial"",""time""
""fullscreenenter"",""1"",""1647""
","
","","","599.2000000476837","","","14","4569","710","&#9776;","elianto","#3366ff99"," "," ","1","+10","[1454.5]","1","0","1","","","","","","","",""
"call-function","35","347562","0.0-2.0-9.0","battery-v0.2","","""event"",""trial"",""time""
""fullscreenenter"",""1"",""1647""
","
","
","""event"",""trial"",""time""
""fullscreenenter"",""1"",""1647""
","
","","","","","","","","","","","","","","","","","","","","","","","","","","",""
"pit-instructions","36","389501","0.0-2.0-10.0","battery-v0.2","","""event"",""trial"",""time""
""fullscreenenter"",""1"",""1647""
","
","
","""event"",""trial"",""time""
""fullscreenenter"",""1"",""1647""
","
","","[{""page_index"":0,""viewing_time"":6829.700000047684},{""page_index"":1,""viewing_time"":6787.299999952316},{""page_index"":2,""viewing_time"":9830.400000095367},{""page_index"":3,""viewing_time"":10492.299999952316},{""page_index"":4,""viewing_time"":7997.900000095367}]","41938.300000190735","","","","","","","","","","","","","","","","","","","","","","","",""
"pit-trial","37","394389","0.0-2.0-11.0-0.0","battery-v0.2","","""event"",""trial"",""time""
""fullscreenenter"",""1"",""1647""
","
","
","""event"",""trial"",""time""
""fullscreenenter"",""1"",""1647""
","
","","","-1","","","14","4569","710","&#9761;","elianto","#3366ff99","-1","-1","1","+10","[]","0","0","2","","","","","","","",""
"pit-trial","38","399279","0.0-2.0-11.0-1.0","battery-v0.2","","""event"",""trial"",""time""
""fullscreenenter"",""1"",""1647""
","
","
","""event"",""trial"",""time""
""fullscreenenter"",""1"",""1647""
","
","","","-1","","","14","4569","710","&#9761;","elianto","#3366ff99","-1","-1","1","+10","[]","0","0","2","","","","","","","",""
"pit-trial","39","404169","0.0-2.0-11.0-2.0","battery-v0.2","","""event"",""trial"",""time""
""fullscreenenter"",""1"",""1647""
","
","
","""event"",""trial"",""time""
""fullscreenenter"",""1"",""1647""
","
","","","-1","","","14","4569","710","&#9761;","elianto","#3366ff99","-1","-1","1","+10","[]","0","0","2","","","","","","","",""
"pit-trial","40","409055","0.0-2.0-11.0-3.0","battery-v0.2","","""event"",""trial"",""time""
""fullscreenenter"",""1"",""1647""
","
","
","""event"",""trial"",""time""
""fullscreenenter"",""1"",""1647""
","
","","","-1","","","14","4569","710","&#9761;","elianto","#3366ff99","-1","-1","1","0","[]","0","0","2","","","","","","","",""
"pit-trial","41","413947","0.0-2.0-11.0-4.0","battery-v0.2","","""event"",""trial"",""time""
""fullscreenenter"",""1"",""1647""
","
","
","""event"",""trial"",""time""
""fullscreenenter"",""1"",""1647""
","
","","","-1","","","14","4569","710","&#9761;","elianto","#3366ff99","-1","-1","1","+10","[]","0","0","2","","","","","","","",""
"pit-trial","42","418832","0.0-2.0-11.1-0.1","battery-v0.2","","""event"",""trial"",""time""
""fullscreenenter"",""1"",""1647""
","
","
","""event"",""trial"",""time""
""fullscreenenter"",""1"",""1647""
","
","","","-1","","","14","4569","710","&#9761;","elianto","#3366ff99","-1","-1","1","+10","[]","0","0","2","","","","","","","",""
"pit-trial","43","423716","0.0-2.0-11.1-1.1","battery-v0.2","","""event"",""trial"",""time""
""fullscreenenter"",""1"",""1647""
","
","
","""event"",""trial"",""time""
""fullscreenenter"",""1"",""1647""
","
","","","-1","","","14","4569","710","&#9761;","elianto","#3366ff99","-1","-1","1","+10","[]","0","0","2","","","","","","","",""
"pit-trial","44","428588","0.0-2.0-11.1-2.1","battery-v0.2","","""event"",""trial"",""time""
""fullscreenenter"",""1"",""1647""
","
","
","""event"",""trial"",""time""
""fullscreenenter"",""1"",""1647""
","
","","","-1","","","14","4569","710","&#9761;","elianto","#3366ff99","-1","-1","1","+10","[]","0","0","2","","","","","","","",""
"pit-trial","45","433478","0.0-2.0-11.1-3.1","battery-v0.2","","""event"",""trial"",""time""
""fullscreenenter"",""1"",""1647""
","
","
","""event"",""trial"",""time""
""fullscreenenter"",""1"",""1647""
","
","","","-1","","","14","4569","710","&#9761;","elianto","#3366ff99","-1","-1","1","0","[]","0","0","2","","","","","","","",""
"pit-trial","46","438350","0.0-2.0-11.1-4.1","battery-v0.2","","""event"",""trial"",""time""
""fullscreenenter"",""1"",""1647""
","
","
","""event"",""trial"",""time""
""fullscreenenter"",""1"",""1647""
","
","","","-1","","","14","4569","710","&#9761;","elianto","#3366ff99","-1","-1","1","+10","[]","0","0","2","","","","","","","",""
"pit-trial","47","443220","0.0-2.0-11.2-0.2","battery-v0.2","","""event"",""trial"",""time""
""fullscreenenter"",""1"",""1647""
","
","
","""event"",""trial"",""time""
""fullscreenenter"",""1"",""1647""
","
","","","-1","","","14","4569","710","&#9761;","elianto","#3366ff99","-1","-1","1","+10","[]","0","0","2","","","","","","","",""
"pit-trial","48","448105","0.0-2.0-11.2-1.2","battery-v0.2","","""event"",""trial"",""time""
""fullscreenenter"",""1"",""1647""
","
","
","""event"",""trial"",""time""
""fullscreenenter"",""1"",""1647""
","
","","","-1","","","14","4569","710","&#9761;","elianto","#3366ff99","-1","-1","1","+10","[]","0","0","2","","","","","","","",""
"pit-trial","49","452974","0.0-2.0-11.2-2.2","battery-v0.2","","""event"",""trial"",""time""
""fullscreenenter"",""1"",""1647""
","
","
","""event"",""trial"",""time""
""fullscreenenter"",""1"",""1647""
","
","","","-1","","","14","4569","710","&#9761;","elianto","#3366ff99","-1","-1","1","+10","[]","0","0","2","","","","","","","",""
"pit-trial","50","457844","0.0-2.0-11.2-3.2","battery-v0.2","","""event"",""trial"",""time""
""fullscreenenter"",""1"",""1647""
","
","
","""event"",""trial"",""time""
""fullscreenenter"",""1"",""1647""
","
","","","-1","","","14","4569","710","&#9761;","elianto","#3366ff99","-1","-1","1","0","[]","0","0","2","","","","","","","",""
"pit-trial","51","462728","0.0-2.0-11.2-4.2","battery-v0.2","","""event"",""trial"",""time""
""fullscreenenter"",""1"",""1647""
","
","
","""event"",""trial"",""time""
""fullscreenenter"",""1"",""1647""
","
","","","-1","","","14","4569","710","&#9761;","elianto","#3366ff99","-1","-1","1","+10","[]","0","0","2","","","","","","","",""
"pit-trial","52","467605","0.0-2.0-11.3-0.3","battery-v0.2","","""event"",""trial"",""time""
""fullscreenenter"",""1"",""1647""
","
","
","""event"",""trial"",""time""
""fullscreenenter"",""1"",""1647""
","
","","","-1","","","14","4569","710","&#9761;","elianto","#3366ff99","-1","-1","1","+10","[]","0","0","2","","","","","","","",""
"pit-trial","53","472476","0.0-2.0-11.3-1.3","battery-v0.2","","""event"",""trial"",""time""
""fullscreenenter"",""1"",""1647""
","
","
","""event"",""trial"",""time""
""fullscreenenter"",""1"",""1647""
","
","","","-1","","","14","4569","710","&#9761;","elianto","#3366ff99","-1","-1","1","+10","[]","0","0","2","","","","","","","",""
"pit-trial","54","477348","0.0-2.0-11.3-2.3","battery-v0.2","","""event"",""trial"",""time""
""fullscreenenter"",""1"",""1647""
","
","
","""event"",""trial"",""time""
""fullscreenenter"",""1"",""1647""
","
","","","-1","","","14","4569","710","&#9761;","elianto","#3366ff99","-1","-1","1","+10","[]","0","0","2","","","","","","","",""
"pit-trial","55","482219","0.0-2.0-11.3-3.3","battery-v0.2","","""event"",""trial"",""time""
""fullscreenenter"",""1"",""1647""
","
","
","""event"",""trial"",""time""
""fullscreenenter"",""1"",""1647""
","
","","","-1","","","14","4569","710","&#9761;","elianto","#3366ff99","-1","-1","1","0","[]","0","0","2","","","","","","","",""
"pit-trial","56","487091","0.0-2.0-11.3-4.3","battery-v0.2","","""event"",""trial"",""time""
""fullscreenenter"",""1"",""1647""
","
","
","""event"",""trial"",""time""
""fullscreenenter"",""1"",""1647""
","
","","","-1","","","14","4569","710","&#9761;","elianto","#3366ff99","-1","-1","1","+10","[]","0","0","2","","","","","","","",""
"call-function","57","487098","0.0-2.0-12.0","battery-v0.2","","""event"",""trial"",""time""
""fullscreenenter"",""1"",""1647""
","
","
","""event"",""trial"",""time""
""fullscreenenter"",""1"",""1647""
","
","","","","","","","","","","","","","","","","","","","","","","","","","","",""
"pit-instructions","58","521190","0.0-2.0-13.0","battery-v0.2","","""event"",""trial"",""time""
""fullscreenenter"",""1"",""1647""
","
","
","""event"",""trial"",""time""
""fullscreenenter"",""1"",""1647""
","
","","[{""page_index"":0,""viewing_time"":6325.800000190735},{""page_index"":1,""viewing_time"":7793.5},{""page_index"":2,""viewing_time"":4424.099999904633},{""page_index"":3,""viewing_time"":10757.700000047684},{""page_index"":4,""viewing_time"":4789.200000047684}]","34090.90000009537","","","","","","","","","","","","","","","","","","","","","","","",""
"pit-trial","59","524730","0.0-2.0-14.0-0.0","battery-v0.2","","""event"",""trial"",""time""
""fullscreenenter"",""1"",""1647""
","
","
","""event"",""trial"",""time""
""fullscreenenter"",""1"",""1647""
","
","","","615.5","","","14","4569","710","&#9826;","elianto","#f73b6a7A","-1"," ","0","-10","[1469]","1","0","3","","","","","","","",""
"pit-trial","60","529598","0.0-2.0-14.0-1.0","battery-v0.2","","""event"",""trial"",""time""
""fullscreenenter"",""1"",""1647""
","
","
","""event"",""trial"",""time""
""fullscreenenter"",""1"",""1647""
","
","","","-1","","","14","4569","710","&#9826;","elianto","#f73b6a7A","-1","-1","1","0","[]","0","0","3","","","","","","","",""
"pit-trial","61","534483","0.0-2.0-14.0-2.0","battery-v0.2","","""event"",""trial"",""time""
""fullscreenenter"",""1"",""1647""
","
","
","""event"",""trial"",""time""
""fullscreenenter"",""1"",""1647""
","
","","","-1","","","14","4569","710","&#9826;","elianto","#f73b6a7A","-1","-1","1","0","[]","0","0","3","","","","","","","",""
"pit-trial","62","539368","0.0-2.0-14.0-3.0","battery-v0.2","","""event"",""trial"",""time""
""fullscreenenter"",""1"",""1647""
","
","
","""event"",""trial"",""time""
""fullscreenenter"",""1"",""1647""
","
","","","-1","","","14","4569","710","&#9826;","elianto","#f73b6a7A","-1","-1","1","-10","[]","0","0","3","","","","","","","",""
"pit-trial","63","544245","0.0-2.0-14.0-4.0","battery-v0.2","","""event"",""trial"",""time""
""fullscreenenter"",""1"",""1647""
","
","
","""event"",""trial"",""time""
""fullscreenenter"",""1"",""1647""
","
","","","-1","","","14","4569","710","&#9826;","elianto","#f73b6a7A","-1","-1","1","0","[]","0","0","3","","","","","","","",""
"pit-trial","64","549133","0.0-2.0-14.1-0.1","battery-v0.2","","""event"",""trial"",""time""
""fullscreenenter"",""1"",""1647""
","
","
","""event"",""trial"",""time""
""fullscreenenter"",""1"",""1647""
","
","","","-1","","","14","4569","710","&#9826;","elianto","#f73b6a7A","-1","-1","1","0","[]","0","0","3","","","","","","","",""
"pit-trial","65","554015","0.0-2.0-14.1-1.1","battery-v0.2","","""event"",""trial"",""time""
""fullscreenenter"",""1"",""1647""
","
","
","""event"",""trial"",""time""
""fullscreenenter"",""1"",""1647""
","
","","","-1","","","14","4569","710","&#9826;","elianto","#f73b6a7A","-1","-1","1","0","[]","0","0","3","","","","","","","",""
"pit-trial","66","558885","0.0-2.0-14.1-2.1","battery-v0.2","","""event"",""trial"",""time""
""fullscreenenter"",""1"",""1647""
","
","
","""event"",""trial"",""time""
""fullscreenenter"",""1"",""1647""
","
","","","-1","","","14","4569","710","&#9826;","elianto","#f73b6a7A","-1","-1","1","0","[]","0","0","3","","","","","","","",""
"pit-trial","67","563757","0.0-2.0-14.1-3.1","battery-v0.2","","""event"",""trial"",""time""
""fullscreenenter"",""1"",""1647""
","
","
","""event"",""trial"",""time""
""fullscreenenter"",""1"",""1647""
","
","","","-1","","","14","4569","710","&#9826;","elianto","#f73b6a7A","-1","-1","1","-10","[]","0","0","3","","","","","","","",""
"pit-trial","68","568635","0.0-2.0-14.1-4.1","battery-v0.2","","""event"",""trial"",""time""
""fullscreenenter"",""1"",""1647""
","
","
","""event"",""trial"",""time""
""fullscreenenter"",""1"",""1647""
","
","","","-1","","","14","4569","710","&#9826;","elianto","#f73b6a7A","-1","-1","1","0","[]","0","0","3","","","","","","","",""
"pit-trial","69","573508","0.0-2.0-14.2-0.2","battery-v0.2","","""event"",""trial"",""time""
""fullscreenenter"",""1"",""1647""
","
","
","""event"",""trial"",""time""
""fullscreenenter"",""1"",""1647""
","
","","","-1","","","14","4569","710","&#9826;","elianto","#f73b6a7A","-1","-1","1","0","[]","0","0","3","","","","","","","",""
"pit-trial","70","578380","0.0-2.0-14.2-1.2","battery-v0.2","","""event"",""trial"",""time""
""fullscreenenter"",""1"",""1647""
","
","
","""event"",""trial"",""time""
""fullscreenenter"",""1"",""1647""
","
","","","-1","","","14","4569","710","&#9826;","elianto","#f73b6a7A","-1","-1","1","0","[]","0","0","3","","","","","","","",""
"pit-trial","71","583273","0.0-2.0-14.2-2.2","battery-v0.2","","""event"",""trial"",""time""
""fullscreenenter"",""1"",""1647""
","
","
","""event"",""trial"",""time""
""fullscreenenter"",""1"",""1647""
","
","","","-1","","","14","4569","710","&#9826;","elianto","#f73b6a7A","-1","-1","1","0","[]","0","0","3","","","","","","","",""
"pit-trial","72","588156","0.0-2.0-14.2-3.2","battery-v0.2","","""event"",""trial"",""time""
""fullscreenenter"",""1"",""1647""
","
","
","""event"",""trial"",""time""
""fullscreenenter"",""1"",""1647""
","
","","","-1","","","14","4569","710","&#9826;","elianto","#f73b6a7A","-1","-1","1","-10","[]","0","0","3","","","","","","","",""
"pit-trial","73","593020","0.0-2.0-14.2-4.2","battery-v0.2","","""event"",""trial"",""time""
""fullscreenenter"",""1"",""1647""
","
","
","""event"",""trial"",""time""
""fullscreenenter"",""1"",""1647""
","
","","","-1","","","14","4569","710","&#9826;","elianto","#f73b6a7A","-1","-1","1","0","[]","0","0","3","","","","","","","",""
"pit-trial","74","597891","0.0-2.0-14.3-0.3","battery-v0.2","","""event"",""trial"",""time""
""fullscreenenter"",""1"",""1647""
","
","
","""event"",""trial"",""time""
""fullscreenenter"",""1"",""1647""
","
","","","-1","","","14","4569","710","&#9826;","elianto","#f73b6a7A","-1","-1","1","0","[]","0","0","3","","","","","","","",""
"pit-trial","75","602763","0.0-2.0-14.3-1.3","battery-v0.2","","""event"",""trial"",""time""
""fullscreenenter"",""1"",""1647""
","
","
","""event"",""trial"",""time""
""fullscreenenter"",""1"",""1647""
","
","","","-1","","","14","4569","710","&#9826;","elianto","#f73b6a7A","-1","-1","1","0","[]","0","0","3","","","","","","","",""
"pit-trial","76","607637","0.0-2.0-14.3-2.3","battery-v0.2","","""event"",""trial"",""time""
""fullscreenenter"",""1"",""1647""
","
","
","""event"",""trial"",""time""
""fullscreenenter"",""1"",""1647""
","
","","","-1","","","14","4569","710","&#9826;","elianto","#f73b6a7A","-1","-1","1","0","[]","0","0","3","","","","","","","",""
"pit-trial","77","612508","0.0-2.0-14.3-3.3","battery-v0.2","","""event"",""trial"",""time""
""fullscreenenter"",""1"",""1647""
","
","
","""event"",""trial"",""time""
""fullscreenenter"",""1"",""1647""
","
","","","-1","","","14","4569","710","&#9826;","elianto","#f73b6a7A","-1","-1","1","-10","[]","0","0","3","","","","","","","",""
"pit-trial","78","617388","0.0-2.0-14.3-4.3","battery-v0.2","","""event"",""trial"",""time""
""fullscreenenter"",""1"",""1647""
","
","
","""event"",""trial"",""time""
""fullscreenenter"",""1"",""1647""
","
","","","-1","","","14","4569","710","&#9826;","elianto","#f73b6a7A","-1","-1","1","0","[]","0","0","3","","","","","","","",""
"call-function","79","617396","0.0-2.0-15.0","battery-v0.2","","""event"",""trial"",""time""
""fullscreenenter"",""1"",""1647""
","
","
","""event"",""trial"",""time""
""fullscreenenter"",""1"",""1647""
","
","","","","","","","","","","","","","","","","","","","","","","","","","","",""
"pit-instructions","80","644040","0.0-2.0-16.0","battery-v0.2","","""event"",""trial"",""time""
""fullscreenenter"",""1"",""1647""
","
","
","""event"",""trial"",""time""
""fullscreenenter"",""1"",""1647""
","
","","[{""page_index"":0,""viewing_time"":6743},{""page_index"":1,""viewing_time"":10784.900000095367},{""page_index"":2,""viewing_time"":4016.5},{""page_index"":3,""viewing_time"":5099.200000047684}]","26644.299999952316","","","","","","","","","","","","","","","","","","","","","","","",""
"pit-trial","81","647534","0.0-2.0-17.0-0.0","battery-v0.2","","""event"",""trial"",""time""
""fullscreenenter"",""1"",""1647""
","
","
","""event"",""trial"",""time""
""fullscreenenter"",""1"",""1647""
","
","","","618","","","14","4569","710","&#9789;","elianto","#f73b6a7A"," "," ","1","0","[1468.7000000476837]","1","0","4","","","","","","","",""
"pit-trial","82","650754","0.0-2.0-17.0-1.0","battery-v0.2","","""event"",""trial"",""time""
""fullscreenenter"",""1"",""1647""
","
","
","""event"",""trial"",""time""
""fullscreenenter"",""1"",""1647""
","
","","","347.59999990463257","","","14","4569","710","&#9789;","elianto","#f73b6a7A"," "," ","1","0","[1201.7000000476837]","1","0","4","","","","","","","",""
"pit-trial","83","653966","0.0-2.0-17.0-2.0","battery-v0.2","","""event"",""trial"",""time""
""fullscreenenter"",""1"",""1647""
","
","
","""event"",""trial"",""time""
""fullscreenenter"",""1"",""1647""
","
","","","351.2000000476837","","","14","4569","710","&#9789;","elianto","#f73b6a7A"," "," ","1","0","[1201.5999999046326]","1","0","4","","","","","","","",""
"pit-trial","84","657185","0.0-2.0-17.0-3.0","battery-v0.2","","""event"",""trial"",""time""
""fullscreenenter"",""1"",""1647""
","
","
","""event"",""trial"",""time""
""fullscreenenter"",""1"",""1647""
","
","","","338.2999999523163","","","14","4569","710","&#9789;","elianto","#f73b6a7A"," "," ","1","-10","[1198.2000000476837]","1","0","4","","","","","","","",""
"pit-trial","85","660430","0.0-2.0-17.0-4.0","battery-v0.2","","""event"",""trial"",""time""
""fullscreenenter"",""1"",""1647""
","
","
","""event"",""trial"",""time""
""fullscreenenter"",""1"",""1647""
","
","","","366.30000019073486","","","14","4569","710","&#9789;","elianto","#f73b6a7A"," "," ","1","0","[1225.6000001430511]","1","0","4","","","","","","","",""
"pit-trial","86","663836","0.0-2.0-17.1-0.1","battery-v0.2","","""event"",""trial"",""time""
""fullscreenenter"",""1"",""1647""
","
","
","""event"",""trial"",""time""
""fullscreenenter"",""1"",""1647""
","
","","","525.5","","","14","4569","710","&#9789;","elianto","#f73b6a7A"," "," ","1","0","[1383.1999998092651]","1","0","4","","","","","","","",""
"pit-trial","87","667200","0.0-2.0-17.1-1.1","battery-v0.2","","""event"",""trial"",""time""
""fullscreenenter"",""1"",""1647""
","
","
","""event"",""trial"",""time""
""fullscreenenter"",""1"",""1647""
","
","","","481.90000009536743","","","14","4569","710","&#9789;","elianto","#f73b6a7A"," "," ","1","0","[1340.5]","1","0","4","","","","","","","",""
"pit-trial","88","670605","0.0-2.0-17.1-2.1","battery-v0.2","","""event"",""trial"",""time""
""fullscreenenter"",""1"",""1647""
","
","
","""event"",""trial"",""time""
""fullscreenenter"",""1"",""1647""
","
","","","526.2999999523163","","","14","4569","710","&#9789;","elianto","#f73b6a7A"," "," ","1","0","[1384.7999999523163]","1","0","4","","","","","","","",""
"pit-trial","89","673846","0.0-2.0-17.1-3.1","battery-v0.2","","""event"",""trial"",""time""
""fullscreenenter"",""1"",""1647""
","
","
","""event"",""trial"",""time""
""fullscreenenter"",""1"",""1647""
","
","","","372.80000019073486","","","14","4569","710","&#9789;","elianto","#f73b6a7A"," "," ","1","-10","[1229.5]","1","0","4","","","","","","","",""
"pit-trial","90","677156","0.0-2.0-17.1-4.1","battery-v0.2","","""event"",""trial"",""time""
""fullscreenenter"",""1"",""1647""
","
","
","""event"",""trial"",""time""
""fullscreenenter"",""1"",""1647""
","
","","","441.90000009536743","","","14","4569","710","&#9789;","elianto","#f73b6a7A"," "," ","1","0","[1295.5]","1","0","4","","","","","","","",""
"pit-trial","91","680532","0.0-2.0-17.2-0.2","battery-v0.2","","""event"",""trial"",""time""
""fullscreenenter"",""1"",""1647""
","
","
","""event"",""trial"",""time""
""fullscreenenter"",""1"",""1647""
","
","","","509.10000014305115","","","14","4569","710","&#9789;","elianto","#f73b6a7A"," "," ","1","0","[324.7000000476837,1364.8000001907349]","2","0","4","","","","","","","",""
"pit-trial","92","683865","0.0-2.0-17.2-1.2","battery-v0.2","","""event"",""trial"",""time""
""fullscreenenter"",""1"",""1647""
","
","
","""event"",""trial"",""time""
""fullscreenenter"",""1"",""1647""
","
","","","447.2999999523163","","","14","4569","710","&#9789;","elianto","#f73b6a7A"," "," ","1","0","[1303.9000000953674]","1","0","4","","","","","","","",""
"pit-trial","93","687221","0.0-2.0-17.2-2.2","battery-v0.2","","""event"",""trial"",""time""
""fullscreenenter"",""1"",""1647""
","
","
","""event"",""trial"",""time""
""fullscreenenter"",""1"",""1647""
","
","","","490.09999990463257","","","14","4569","710","&#9789;","elianto","#f73b6a7A"," "," ","1","0","[1343.0999999046326]","1","0","4","","","","","","","",""
"pit-trial","94","690548","0.0-2.0-17.2-3.2","battery-v0.2","","""event"",""trial"",""time""
""fullscreenenter"",""1"",""1647""
","
","
","""event"",""trial"",""time""
""fullscreenenter"",""1"",""1647""
","
","","","458","","","14","4569","710","&#9789;","elianto","#f73b6a7A"," "," ","1","-10","[1313.0999999046326]","1","0","4","","","","","","","",""
"pit-trial","95","693828","0.0-2.0-17.2-4.2","battery-v0.2","","""event"",""trial"",""time""
""fullscreenenter"",""1"",""1647""
","
","
","""event"",""trial"",""time""
""fullscreenenter"",""1"",""1647""
","
","","","413.7999999523163","","","14","4569","710","&#9789;","elianto","#f73b6a7A"," "," ","1","0","[1270]","1","0","4","","","","","","","",""
"pit-trial","96","697175","0.0-2.0-17.3-0.3","battery-v0.2","","""event"",""trial"",""time""
""fullscreenenter"",""1"",""1647""
","
","
","""event"",""trial"",""time""
""fullscreenenter"",""1"",""1647""
","
","","","469.7000000476837","","","14","4569","710","&#9789;","elianto","#f73b6a7A"," "," ","1","0","[1327.6000001430511]","1","0","4","","","","","","","",""
"pit-trial","97","700476","0.0-2.0-17.3-1.3","battery-v0.2","","""event"",""trial"",""time""
""fullscreenenter"",""1"",""1647""
","
","
","""event"",""trial"",""time""
""fullscreenenter"",""1"",""1647""
","
","","","426.7999999523163","","","14","4569","710","&#9789;","elianto","#f73b6a7A"," "," ","1","0","[1284.1999998092651]","1","0","4","","","","","","","",""
"pit-trial","98","703667","0.0-2.0-17.3-2.3","battery-v0.2","","""event"",""trial"",""time""
""fullscreenenter"",""1"",""1647""
","
","
","""event"",""trial"",""time""
""fullscreenenter"",""1"",""1647""
","
","","","324.5","","","14","4569","710","&#9789;","elianto","#f73b6a7A"," "," ","1","0","[1181.5999999046326]","1","0","4","","","","","","","",""
"pit-trial","99","707020","0.0-2.0-17.3-3.3","battery-v0.2","","""event"",""trial"",""time""
""fullscreenenter"",""1"",""1647""
","
","
","""event"",""trial"",""time""
""fullscreenenter"",""1"",""1647""
","
","","","482.7999999523163","","","14","4569","710","&#9789;","elianto","#f73b6a7A"," "," ","1","-10","[1341.5]","1","0","4","","","","","","","",""
"pit-trial","100","710308","0.0-2.0-17.3-4.3","battery-v0.2","","""event"",""trial"",""time""
""fullscreenenter"",""1"",""1647""
","
","
","""event"",""trial"",""time""
""fullscreenenter"",""1"",""1647""
","
","","","414.40000009536743","","","14","4569","710","&#9789;","elianto","#f73b6a7A"," "," ","1","0","[1270]","1","0","4","","","","","","","",""
"call-function","101","710317","0.0-2.0-18.0","battery-v0.2","","""event"",""trial"",""time""
""fullscreenenter"",""1"",""1647""
","
","
","""event"",""trial"",""time""
""fullscreenenter"",""1"",""1647""
","
","","","","","","","","","","","","","","","","","","","","","","","","","","",""
"pit-instructions","102","775581","0.0-2.0-19.0","battery-v0.2","","""event"",""trial"",""time""
""fullscreenenter"",""1"",""1647""
","
","
","""event"",""trial"",""time""
""fullscreenenter"",""1"",""1647""
","
","","[{""page_index"":0,""viewing_time"":7234.099999904633},{""page_index"":1,""viewing_time"":6344.600000143051},{""page_index"":2,""viewing_time"":10104.399999856949},{""page_index"":3,""viewing_time"":7610.700000047684},{""page_index"":4,""viewing_time"":6237.200000047684},{""page_index"":5,""viewing_time"":9469.5},{""page_index"":6,""viewing_time"":8306},{""page_index"":7,""viewing_time"":5872.399999856949},{""page_index"":8,""viewing_time"":4084.4000000953674}]","65264","","","","","","","","","","","","","","","","","","","","","","","",""
"pit-comprehension","103","780526","0.0-2.0-20.0-0.0","battery-v0.2","","""event"",""trial"",""time""
""fullscreenenter"",""1"",""1647""
","
","
","""event"",""trial"",""time""
""fullscreenenter"",""1"",""1647""
","
","","","4936.600000143051","[""SPACE""]","0","14","4569","710","","","","","","","","","","","","","","","","","","",""
"pit-instructions","104","783266","0.0-2.0-20.0-1.0","battery-v0.2","","""event"",""trial"",""time""
""fullscreenenter"",""1"",""1647""
","
","
","""event"",""trial"",""time""
""fullscreenenter"",""1"",""1647""
","
","","[{""page_index"":0,""viewing_time"":2699.5}]","2700.4000000953674","","","","","","","","","","","","","","","","","","","","","","","",""
"pit-comprehension","105","790184","0.0-2.0-21.0-0.0","battery-v0.2","","""event"",""trial"",""time""
""fullscreenenter"",""1"",""1647""
","
","
","""event"",""trial"",""time""
""fullscreenenter"",""1"",""1647""
","
","","","6910.299999952316","[""10""]","0","14","4569","710","","","","","","","","","","","","","","","","","","",""
"pit-instructions","106","792398","0.0-2.0-21.0-1.0","battery-v0.2","","""event"",""trial"",""time""
""fullscreenenter"",""1"",""1647""
","
","
","""event"",""trial"",""time""
""fullscreenenter"",""1"",""1647""
","
","","[{""page_index"":0,""viewing_time"":2187.9000000953674}]","2188.300000190735","","","","","","","","","","","","","","","","","","","","","","","",""
"pit-comprehension","107","799052","0.0-2.0-22.0-0.0","battery-v0.2","","""event"",""trial"",""time""
""fullscreenenter"",""1"",""1647""
","
","
","""event"",""trial"",""time""
""fullscreenenter"",""1"",""1647""
","
","","","6649.800000190735","[""0""]","0","14","4569","710","","","","","","","","","","","","","","","","","","",""
"pit-instructions","108","800739","0.0-2.0-22.0-1.0","battery-v0.2","","""event"",""trial"",""time""
""fullscreenenter"",""1"",""1647""
","
","
","""event"",""trial"",""time""
""fullscreenenter"",""1"",""1647""
","
","","[{""page_index"":0,""viewing_time"":1664.2000000476837}]","1664.5999999046326","","","","","","","","","","","","","","","","","","","","","","","",""
"pit-comprehension","109","809124","0.0-2.0-23.0-0.0","battery-v0.2","","""event"",""trial"",""time""
""fullscreenenter"",""1"",""1647""
","
","
","""event"",""trial"",""time""
""fullscreenenter"",""1"",""1647""
","
","","","8380.200000047684","[""True""]","0","14","4569","710","","","","","","","","","","","","","","","","","","",""
"pit-instructions","110","810563","0.0-2.0-23.0-1.0","battery-v0.2","","""event"",""trial"",""time""
""fullscreenenter"",""1"",""1647""
","
","
","""event"",""trial"",""time""
""fullscreenenter"",""1"",""1647""
","
","","[{""page_index"":0,""viewing_time"":1408.2999999523163}]","1408.6999998092651","","","","","","","","","","","","","","","","","","","","","","","",""
"pit-comprehension","111","818919","0.0-2.0-24.0-0.0","battery-v0.2","","""event"",""trial"",""time""
""fullscreenenter"",""1"",""1647""
","
","
","""event"",""trial"",""time""
""fullscreenenter"",""1"",""1647""
","
","","","8351.300000190735","[""True""]","0","14","4569","710","","","","","","","","","","","","","","","","","","",""
"pit-instructions","112","820292","0.0-2.0-24.0-1.0","battery-v0.2","","""event"",""trial"",""time""
""fullscreenenter"",""1"",""1647""
","
","
","""event"",""trial"",""time""
""fullscreenenter"",""1"",""1647""
","
","","[{""page_index"":0,""viewing_time"":1348.1000001430511}]","1348.6000001430511","","","","","","","","","","","","","","","","","","","","","","","",""
"pit-comprehension","113","827525","0.0-2.0-25.0-0.0","battery-v0.2","","""event"",""trial"",""time""
""fullscreenenter"",""1"",""1647""
","
","
","""event"",""trial"",""time""
""fullscreenenter"",""1"",""1647""
","
","","","7226.800000190735","[""True""]","0","14","4569","710","","","","","","","","","","","","","","","","","","",""
"pit-instructions","114","828979","0.0-2.0-25.0-1.0","battery-v0.2","","""event"",""trial"",""time""
""fullscreenenter"",""1"",""1647""
","
","
","""event"",""trial"",""time""
""fullscreenenter"",""1"",""1647""
","
","","[{""page_index"":0,""viewing_time"":1430.3999998569489}]","1430.7000000476837","","","","","","","","","","","","","","","","","","","","","","","",""
"pit-comprehension","115","834422","0.0-2.0-26.0-0.0","battery-v0.2","","""event"",""trial"",""time""
""fullscreenenter"",""1"",""1647""
","
","
","""event"",""trial"",""time""
""fullscreenenter"",""1"",""1647""
","
","","","5437.699999809265","[""False""]","0","14","4569","710","","","","","","","","","","","","","","","","","","",""
"pit-instructions","116","835828","0.0-2.0-26.0-1.0","battery-v0.2","","""event"",""trial"",""time""
""fullscreenenter"",""1"",""1647""
","
","
","""event"",""trial"",""time""
""fullscreenenter"",""1"",""1647""
","
","","[{""page_index"":0,""viewing_time"":1381}]","1381.2999999523163","","","","","","","","","","","","","","","","","","","","","","","",""
"pit-instructions","117","852744","0.0-3.0","battery-v0.2","","""event"",""trial"",""time""
""fullscreenenter"",""1"",""1647""
","
","
","""event"",""trial"",""time""
""fullscreenenter"",""1"",""1647""
","
","","[{""page_index"":0,""viewing_time"":4105},{""page_index"":1,""viewing_time"":5220.600000143051},{""page_index"":2,""viewing_time"":7586.200000047684}]","16912.300000190735","","","","","","","","","","","","","","","","","","","","","","","",""
"pit-trial","118","856436","0.0-4.0","battery-v0.2","","""event"",""trial"",""time""
""fullscreenenter"",""1"",""1647""
","
","
","""event"",""trial"",""time""
""fullscreenenter"",""1"",""1647""
","
","","","819.5","","","14","4569","710","&#9752;","elianto","#f73b6a7A"," "," ","1","-10","[1670.7999999523163]","1","1","","","4569","1","3","3","lose","go","1"
"pit-trial","119","860414","0.0-5.0","battery-v0.2","","""event"",""trial"",""time""
""fullscreenenter"",""1"",""1647""
","
","
","""event"",""trial"",""time""
""fullscreenenter"",""1"",""1647""
","
","","","1094.2000000476837","","","14","4569","710","&#9730;","elianto","#3366ff99"," "," ","1","0","[1953.7000000476837]","1","1","","","4569","2","1","1","win","go","1"
"pit-trial","120","864181","0.0-6.0","battery-v0.2","","""event"",""trial"",""time""
""fullscreenenter"",""1"",""1647""
","
","
","""event"",""trial"",""time""
""fullscreenenter"",""1"",""1647""
","
","","","897.0999999046326","","","14","4569","710","&#9733;","elianto","#3366ff99","-1"," ","0","0","[1751.0999999046326]","1","1","","","4569","3","2","2","win","no-go","0"
"pit-trial","121","869064","0.0-7.0","battery-v0.2","","""event"",""trial"",""time""
""fullscreenenter"",""1"",""1647""
","
","
","""event"",""trial"",""time""
""fullscreenenter"",""1"",""1647""
","
","","","-1","","","14","4569","710","&#9728;","elianto","#f73b6a7A","-1","-1","1","0","[]","0","1","","","4569","4","0","4","lose","no-go","0"
"pit-trial","122","873949","0.0-8.0","battery-v0.2","","""event"",""trial"",""time""
""fullscreenenter"",""1"",""1647""
","
","
","""event"",""trial"",""time""
""fullscreenenter"",""1"",""1647""
","
","","","-1","","","14","4569","710","&#9733;","elianto","#3366ff99","-1","-1","1","+10","[]","0","1","","","4569","5","2","2","win","no-go","0"
"pit-trial","123","878840","0.0-9.0","battery-v0.2","","""event"",""trial"",""time""
""fullscreenenter"",""1"",""1647""
","
","
","""event"",""trial"",""time""
""fullscreenenter"",""1"",""1647""
","
","","","-1","","","14","4569","710","&#9728;","elianto","#f73b6a7A","-1","-1","1","0","[]","0","1","","","4569","6","0","4","lose","no-go","0"
"pit-trial","124","883716","0.0-10.0","battery-v0.2","","""event"",""trial"",""time""
""fullscreenenter"",""1"",""1647""
","
","
","""event"",""trial"",""time""
""fullscreenenter"",""1"",""1647""
","
","","","-1","","","14","4569","710","&#9730;","elianto","#3366ff99"," ","-1","0","0","[]","0","1","","","4569","7","1","1","win","go","0"
"pit-trial","125","888591","0.0-11.0","battery-v0.2","","""event"",""trial"",""time""
""fullscreenenter"",""1"",""1647""
","
","
","""event"",""trial"",""time""
""fullscreenenter"",""1"",""1647""
","
","","","-1","","","14","4569","710","&#9752;","elianto","#f73b6a7A"," ","-1","0","-10","[]","0","1","","","4569","8","3","3","lose","go","0"
"pit-trial","126","893459","0.0-12.0","battery-v0.2","","""event"",""trial"",""time""
""fullscreenenter"",""1"",""1647""
","
","
","""event"",""trial"",""time""
""fullscreenenter"",""1"",""1647""
","
","","","-1","","","14","4569","710","&#9728;","elianto","#f73b6a7A","-1","-1","1","-10","[]","0","1","","","4569","9","0","4","lose","no-go","1"
"pit-trial","127","897108","0.0-13.0","battery-v0.2","","""event"",""trial"",""time""
""fullscreenenter"",""1"",""1647""
","
","
","""event"",""trial"",""time""
""fullscreenenter"",""1"",""1647""
","
","","","782.8999998569489","","","14","4569","710","&#9730;","elianto","#3366ff99"," "," ","1","+10","[1638.6000001430511]","1","1","","","4569","10","1","1","win","go","0"
"pit-trial","128","900628","0.0-14.0","battery-v0.2","","""event"",""trial"",""time""
""fullscreenenter"",""1"",""1647""
","
","
","""event"",""trial"",""time""
""fullscreenenter"",""1"",""1647""
","
","","","648.3999998569489","","","14","4569","710","&#9733;","elianto","#3366ff99","-1"," ","0","0","[1504.0999999046326]","1","1","","","4569","11","2","2","win","no-go","0"
"pit-trial","129","904741","0.0-15.0","battery-v0.2","","""event"",""trial"",""time""
""fullscreenenter"",""1"",""1647""
","
","
","""event"",""trial"",""time""
""fullscreenenter"",""1"",""1647""
","
","","","1235.2000000476837","","","14","4569","710","&#9752;","elianto","#f73b6a7A"," "," ","1","-10","[2092.699999809265]","1","1","","","4569","12","3","3","lose","go","1"
"pit-trial","130","908692","0.0-16.0","battery-v0.2","","""event"",""trial"",""time""
""fullscreenenter"",""1"",""1647""
","
","
","""event"",""trial"",""time""
""fullscreenenter"",""1"",""1647""
","
","","","1072.4000000953674","","","14","4569","710","&#9733;","elianto","#3366ff99","-1"," ","0","0","[1927.1000001430511]","1","1","","","4569","13","2","2","win","no-go","0"
"pit-trial","131","913036","0.0-17.0","battery-v0.2","","""event"",""trial"",""time""
""fullscreenenter"",""1"",""1647""
","
","
","""event"",""trial"",""time""
""fullscreenenter"",""1"",""1647""
","
","","","1476.8999998569489","","","14","4569","710","&#9752;","elianto","#f73b6a7A"," "," ","1","0","[2331.4000000953674]","1","1","","","4569","14","3","3","lose","go","0"
"pit-trial","132","917035","0.0-18.0","battery-v0.2","","""event"",""trial"",""time""
""fullscreenenter"",""1"",""1647""
","
","
","""event"",""trial"",""time""
""fullscreenenter"",""1"",""1647""
","
","","","1121.8000001907349","","","14","4569","710","&#9730;","elianto","#3366ff99"," "," ","1","+10","[1978.1000001430511]","1","1","","","4569","15","1","1","win","go","0"
"pit-trial","133","920964","0.0-19.0","battery-v0.2","","""event"",""trial"",""time""
""fullscreenenter"",""1"",""1647""
","
","
","""event"",""trial"",""time""
""fullscreenenter"",""1"",""1647""
","
","","","1056","","","14","4569","710","&#9728;","elianto","#f73b6a7A","-1"," ","0","-10","[1915.2999999523163]","1","1","","","4569","16","0","4","lose","no-go","0"
"pit-trial","134","925848","0.0-20.0","battery-v0.2","","""event"",""trial"",""time""
""fullscreenenter"",""1"",""1647""
","
","
","""event"",""trial"",""time""
""fullscreenenter"",""1"",""1647""
","
","","","-1","","","14","4569","710","&#9752;","elianto","#f73b6a7A"," ","-1","0","-10","[]","0","1","","","4569","17","3","3","lose","go","0"
"pit-trial","135","930326","0.0-21.0","battery-v0.2","","""event"",""trial"",""time""
""fullscreenenter"",""1"",""1647""
","
","
","""event"",""trial"",""time""
""fullscreenenter"",""1"",""1647""
","
","","","1592.0999999046326","","","14","4569","710","&#9728;","elianto","#f73b6a7A","-1"," ","0","-10","[2449.5999999046326]","1","1","","","4569","18","0","4","lose","no-go","0"
"pit-trial","136","934004","0.0-22.0","battery-v0.2","","""event"",""trial"",""time""
""fullscreenenter"",""1"",""1647""
","
","
","""event"",""trial"",""time""
""fullscreenenter"",""1"",""1647""
","
","","","813.3999998569489","","","14","4569","710","&#9733;","elianto","#3366ff99","-1"," ","0","+10","[1667.1999998092651]","1","1","","","4569","19","2","2","win","no-go","1"
"pit-trial","137","937692","0.0-23.0","battery-v0.2","","""event"",""trial"",""time""
""fullscreenenter"",""1"",""1647""
","
","
","""event"",""trial"",""time""
""fullscreenenter"",""1"",""1647""
","
","","","819.1000001430511","","","14","4569","710","&#9730;","elianto","#3366ff99"," "," ","1","+10","[1675.3999998569489]","1","1","","","4569","20","1","1","win","go","0"
"pit-instructions","138","950844","0.0-24.0","battery-v0.2","","""event"",""trial"",""time""
""fullscreenenter"",""1"",""1647""
","
","
","""event"",""trial"",""time""
""fullscreenenter"",""1"",""1647""
","
","","[{""page_index"":0,""viewing_time"":6012.200000047684},{""page_index"":1,""viewing_time"":7131.200000047684}]","13143.900000095367","","","","","","","","","","","","","","","","","","","","","","","",""
"pit-trial","139","954757","0.0-25.0","battery-v0.2","","""event"",""trial"",""time""
""fullscreenenter"",""1"",""1647""
","
","
","""event"",""trial"",""time""
""fullscreenenter"",""1"",""1647""
","
","","","1049.7000000476837","","","14","4569","710","t","elianto","#f73b6a7A"," "," ","1","0","[1901.7999999523163]","1","2","","","4569","21","2","3","lose","go","0"
"pit-trial","140","958934","0.0-26.0","battery-v0.2","","""event"",""trial"",""time""
""fullscreenenter"",""1"",""1647""
","
","
","""event"",""trial"",""time""
""fullscreenenter"",""1"",""1647""
","
","","","1303.7000000476837","","","14","4569","710","n","elianto","#f73b6a7A"," "," ","1","0","[2162.7000000476837]","1","2","","","4569","22","0","3","lose","go","0"
"pit-trial","141","962848","0.0-27.0","battery-v0.2","","""event"",""trial"",""time""
""fullscreenenter"",""1"",""1647""
","
","
","""event"",""trial"",""time""
""fullscreenenter"",""1"",""1647""
","
","","","1029.9000000953674","","","14","4569","710","f","elianto","#3366ff99","-1"," ","0","0","[1888.5]","1","2","","","4569","23","1","2","win","no-go","0"
"pit-trial","142","966740","0.0-28.0","battery-v0.2","","""event"",""trial"",""time""
""fullscreenenter"",""1"",""1647""
","
","
","""event"",""trial"",""time""
""fullscreenenter"",""1"",""1647""
","
","","","1013.0999999046326","","","14","4569","710","b","elianto","#f73b6a7A","-1"," ","0","-10","[1871.0999999046326]","1","2","","","4569","24","3","4","lose","no-go","0"
"pit-trial","143","971630","0.0-29.0","battery-v0.2","","""event"",""trial"",""time""
""fullscreenenter"",""1"",""1647""
","
","
","""event"",""trial"",""time""
""fullscreenenter"",""1"",""1647""
","
","","","-1","","","14","4569","710","f","elianto","#3366ff99","-1","-1","1","+10","[]","0","2","","","4569","25","1","2","win","no-go","0"
"pit-trial","144","975890","0.0-30.0","battery-v0.2","","""event"",""trial"",""time""
""fullscreenenter"",""1"",""1647""
","
","
","""event"",""trial"",""time""
""fullscreenenter"",""1"",""1647""
","
","","","1377.5","","","14","4569","710","n","elianto","#f73b6a7A"," "," ","1","0","[2235.7000000476837]","1","2","","","4569","26","0","3","lose","go","0"
"pit-trial","145","979624","0.0-31.0","battery-v0.2","","""event"",""trial"",""time""
""fullscreenenter"",""1"",""1647""
","
","
","""event"",""trial"",""time""
""fullscreenenter"",""1"",""1647""
","
","","","852.2999999523163","","","14","4569","710","t","elianto","#f73b6a7A"," "," ","1","0","[1710]","1","2","","","4569","27","2","3","lose","go","0"
"pit-trial","146","984491","0.0-32.0","battery-v0.2","","""event"",""trial"",""time""
""fullscreenenter"",""1"",""1647""
","
","
","""event"",""trial"",""time""
""fullscreenenter"",""1"",""1647""
","
","","","-1","","","14","4569","710","b","elianto","#f73b6a7A","-1","-1","1","0","[]","0","2","","","4569","28","3","4","lose","no-go","0"
"pit-trial","147","988116","0.0-33.0","battery-v0.2","","""event"",""trial"",""time""
""fullscreenenter"",""1"",""1647""
","
","
","""event"",""trial"",""time""
""fullscreenenter"",""1"",""1647""
","
","","","753.7000000476837","","","14","4569","710","n","elianto","#f73b6a7A"," "," ","1","0","[1610.5999999046326]","1","2","","","4569","29","0","3","lose","go","0"
"pit-trial","148","992877","0.0-34.0","battery-v0.2","","""event"",""trial"",""time""
""fullscreenenter"",""1"",""1647""
","
","
","""event"",""trial"",""time""
""fullscreenenter"",""1"",""1647""
","
","","","1894.2000000476837","","","14","4569","710","t","elianto","#f73b6a7A"," "," ","1","0","[2751]","1","2","","","4569","30","2","3","lose","go","0"
"pit-trial","149","997748","0.0-35.0","battery-v0.2","","""event"",""trial"",""time""
""fullscreenenter"",""1"",""1647""
","
","
","""event"",""trial"",""time""
""fullscreenenter"",""1"",""1647""
","
","","","-1","","","14","4569","710","b","elianto","#f73b6a7A","-1","-1","1","-10","[]","0","2","","","4569","31","3","4","lose","no-go","1"
"pit-trial","150","1001428","0.0-36.0","battery-v0.2","","""event"",""trial"",""time""
""fullscreenenter"",""1"",""1647""
","
","
","""event"",""trial"",""time""
""fullscreenenter"",""1"",""1647""
","
","","","810.4000000953674","","","14","4569","710","f","elianto","#3366ff99","-1"," ","0","0","[1667.7999999523163]","1","2","","","4569","32","1","2","win","no-go","0"
"pit-trial","151","1005116","0.0-37.0","battery-v0.2","","""event"",""trial"",""time""
""fullscreenenter"",""1"",""1647""
","
","
","""event"",""trial"",""time""
""fullscreenenter"",""1"",""1647""
","
","","","821.5999999046326","","","14","4569","710","n","elianto","#f73b6a7A"," "," ","1","0","[1679.4000000953674]","1","2","","","4569","33","0","3","lose","go","0"
"pit-trial","152","1009997","0.0-38.0","battery-v0.2","","""event"",""trial"",""time""
""fullscreenenter"",""1"",""1647""
","
","
","""event"",""trial"",""time""
""fullscreenenter"",""1"",""1647""
","
","","","-1","","","14","4569","710","f","elianto","#3366ff99","-1","-1","1","+10","[]","0","2","","","4569","34","1","2","win","no-go","0"
"pit-trial","153","1013636","0.0-39.0","battery-v0.2","","""event"",""trial"",""time""
""fullscreenenter"",""1"",""1647""
","
","
","""event"",""trial"",""time""
""fullscreenenter"",""1"",""1647""
","
","","","771.1000001430511","","","14","4569","710","t","elianto","#f73b6a7A"," "," ","1","0","[1625.9000000953674]","1","2","","","4569","35","2","3","lose","go","0"
"pit-trial","154","1018509","0.0-40.0","battery-v0.2","","""event"",""trial"",""time""
""fullscreenenter"",""1"",""1647""
","
","
","""event"",""trial"",""time""
""fullscreenenter"",""1"",""1647""
","
","","","-1","","","14","4569","710","b","elianto","#f73b6a7A","-1","-1","1","0","[]","0","2","","","4569","36","3","4","lose","no-go","0"
"pit-trial","155","1023380","0.0-41.0","battery-v0.2","","""event"",""trial"",""time""
""fullscreenenter"",""1"",""1647""
","
","
","""event"",""trial"",""time""
""fullscreenenter"",""1"",""1647""
","
","","","-1","","","14","4569","710","b","elianto","#f73b6a7A","-1","-1","1","0","[]","0","2","","","4569","37","3","4","lose","no-go","0"
"pit-trial","156","1028251","0.0-42.0","battery-v0.2","","""event"",""trial"",""time""
""fullscreenenter"",""1"",""1647""
","
","
","""event"",""trial"",""time""
""fullscreenenter"",""1"",""1647""
","
","","","-1","","","14","4569","710","f","elianto","#3366ff99","-1","-1","1","+10","[]","0","2","","","4569","38","1","2","win","no-go","0"
"pit-trial","157","1031933","0.0-43.0","battery-v0.2","","""event"",""trial"",""time""
""fullscreenenter"",""1"",""1647""
","
","
","""event"",""trial"",""time""
""fullscreenenter"",""1"",""1647""
","
","","","809.5","","","14","4569","710","t","elianto","#f73b6a7A"," "," ","1","0","[1667.8999998569489]","1","2","","","4569","39","2","3","lose","go","0"
"pit-trial","158","1035557","0.0-44.0","battery-v0.2","","""event"",""trial"",""time""
""fullscreenenter"",""1"",""1647""
","
","
","""event"",""trial"",""time""
""fullscreenenter"",""1"",""1647""
","
","","","756.5999999046326","","","14","4569","710","n","elianto","#f73b6a7A"," "," ","1","-10","[1612.4000000953674]","1","2","","","4569","40","0","3","lose","go","1"
"pit-trial","159","1039308","0.0-45.0","battery-v0.2","","""event"",""trial"",""time""
""fullscreenenter"",""1"",""1647""
","
","
","""event"",""trial"",""time""
""fullscreenenter"",""1"",""1647""
","
","","","881","","","14","4569","710","t","elianto","#f73b6a7A"," "," ","1","0","[1736.7000000476837]","1","2","","","4569","41","2","3","lose","go","0"
"pit-trial","160","1044180","0.0-46.0","battery-v0.2","","""event"",""trial"",""time""
""fullscreenenter"",""1"",""1647""
","
","
","""event"",""trial"",""time""
""fullscreenenter"",""1"",""1647""
","
","","","-1","","","14","4569","710","b","elianto","#f73b6a7A","-1","-1","1","0","[]","0","2","","","4569","42","3","4","lose","no-go","0"
"pit-trial","161","1049052","0.0-47.0","battery-v0.2","","""event"",""trial"",""time""
""fullscreenenter"",""1"",""1647""
","
","
","""event"",""trial"",""time""
""fullscreenenter"",""1"",""1647""
","
","","","-1","","","14","4569","710","f","elianto","#3366ff99","-1","-1","1","+10","[]","0","2","","","4569","43","1","2","win","no-go","0"
"pit-trial","162","1052733","0.0-48.0","battery-v0.2","","""event"",""trial"",""time""
""fullscreenenter"",""1"",""1647""
","
","
","""event"",""trial"",""time""
""fullscreenenter"",""1"",""1647""
","
","","","810.0999999046326","","","14","4569","710","n","elianto","#f73b6a7A"," "," ","1","0","[1667]","1","2","","","4569","44","0","3","lose","go","0"
"pit-trial","163","1057604","0.0-49.0","battery-v0.2","","""event"",""trial"",""time""
""fullscreenenter"",""1"",""1647""
","
","
","""event"",""trial"",""time""
""fullscreenenter"",""1"",""1647""
","
","","","-1","","","14","4569","710","f","elianto","#3366ff99","-1","-1","1","+10","[]","0","2","","","4569","45","1","2","win","no-go","0"
"pit-trial","164","1061581","0.0-50.0","battery-v0.2","","""event"",""trial"",""time""
""fullscreenenter"",""1"",""1647""
","
","
","""event"",""trial"",""time""
""fullscreenenter"",""1"",""1647""
","
","","","1103.9000000953674","","","14","4569","710","t","elianto","#f73b6a7A"," "," ","1","0","[1962.7000000476837]","1","2","","","4569","46","2","3","lose","go","0"
"pit-trial","165","1066467","0.0-51.0","battery-v0.2","","""event"",""trial"",""time""
""fullscreenenter"",""1"",""1647""
","
","
","""event"",""trial"",""time""
""fullscreenenter"",""1"",""1647""
","
","","","-1","","","14","4569","710","b","elianto","#f73b6a7A","-1","-1","1","-10","[]","0","2","","","4569","47","3","4","lose","no-go","1"
"pit-trial","166","1070337","0.0-52.0","battery-v0.2","","""event"",""trial"",""time""
""fullscreenenter"",""1"",""1647""
","
","
","""event"",""trial"",""time""
""fullscreenenter"",""1"",""1647""
","
","","","997.2000000476837","","","14","4569","710","n","elianto","#f73b6a7A"," "," ","1","0","[1854.0999999046326]","1","2","","","4569","48","0","3","lose","go","0"
"pit-trial","167","1075213","0.0-53.0","battery-v0.2","","""event"",""trial"",""time""
""fullscreenenter"",""1"",""1647""
","
","
","""event"",""trial"",""time""
""fullscreenenter"",""1"",""1647""
","
","","","-1","","","14","4569","710","f","elianto","#3366ff99","-1","-1","1","+10","[]","0","2","","","4569","49","1","2","win","no-go","0"
"pit-trial","168","1078956","0.0-54.0","battery-v0.2","","""event"",""trial"",""time""
""fullscreenenter"",""1"",""1647""
","
","
","""event"",""trial"",""time""
""fullscreenenter"",""1"",""1647""
","
","","","861.5999999046326","","","14","4569","710","t","elianto","#f73b6a7A"," "," ","1","0","[1717.7000000476837]","1","2","","","4569","50","2","3","lose","go","0"
"pit-trial","169","1083830","0.0-55.0","battery-v0.2","","""event"",""trial"",""time""
""fullscreenenter"",""1"",""1647""
","
","
","""event"",""trial"",""time""
""fullscreenenter"",""1"",""1647""
","
","","","-1","","","14","4569","710","b","elianto","#f73b6a7A","-1","-1","1","0","[]","0","2","","","4569","51","3","4","lose","no-go","0"
"pit-trial","170","1087777","0.0-56.0","battery-v0.2","","""event"",""trial"",""time""
""fullscreenenter"",""1"",""1647""
","
","
","""event"",""trial"",""time""
""fullscreenenter"",""1"",""1647""
","
","","","1067.8999998569489","","","14","4569","710","n","elianto","#f73b6a7A"," "," ","1","-10","[1923.4000000953674]","1","2","","","4569","52","0","3","lose","go","1"
"pit-trial","171","1091453","0.0-57.0","battery-v0.2","","""event"",""trial"",""time""
""fullscreenenter"",""1"",""1647""
","
","
","""event"",""trial"",""time""
""fullscreenenter"",""1"",""1647""
","
","","","805.2000000476837","","","14","4569","710","t","elianto","#f73b6a7A"," "," ","1","0","[1662.7999999523163]","1","2","","","4569","53","2","3","lose","go","0"
"pit-trial","172","1095061","0.0-58.0","battery-v0.2","","""event"",""trial"",""time""
""fullscreenenter"",""1"",""1647""
","
","
","""event"",""trial"",""time""
""fullscreenenter"",""1"",""1647""
","
","","","741.5999999046326","","","14","4569","710","n","elianto","#f73b6a7A"," "," ","1","0","[1597.5]","1","2","","","4569","54","0","3","lose","go","0"
"pit-trial","173","1099933","0.0-59.0","battery-v0.2","","""event"",""trial"",""time""
""fullscreenenter"",""1"",""1647""
","
","
","""event"",""trial"",""time""
""fullscreenenter"",""1"",""1647""
","
","","","-1","","","14","4569","710","b","elianto","#f73b6a7A","-1","-1","1","0","[]","0","2","","","4569","55","3","4","lose","no-go","0"
"pit-trial","174","1104820","0.0-60.0","battery-v0.2","","""event"",""trial"",""time""
""fullscreenenter"",""1"",""1647""
","
","
","""event"",""trial"",""time""
""fullscreenenter"",""1"",""1647""
","
","","","-1","","","14","4569","710","f","elianto","#3366ff99","-1","-1","1","+10","[]","0","2","","","4569","56","1","2","win","no-go","0"
"pit-trial","175","1108460","0.0-61.0","battery-v0.2","","""event"",""trial"",""time""
""fullscreenenter"",""1"",""1647""
","
","
","""event"",""trial"",""time""
""fullscreenenter"",""1"",""1647""
","
","","","767.4000000953674","","","14","4569","710","t","elianto","#f73b6a7A"," "," ","1","0","[1622.4000000953674]","1","2","","","4569","57","2","3","lose","go","0"
"pit-trial","176","1113077","0.0-62.0","battery-v0.2","","""event"",""trial"",""time""
""fullscreenenter"",""1"",""1647""
","
","
","""event"",""trial"",""time""
""fullscreenenter"",""1"",""1647""
","
","","","1745.8000001907349","","","14","4569","710","c","elianto","#3366ff99"," "," ","1","0","[2602.100000143051]","1","2","","","4569","58","4","1","win","go","1"
"pit-trial","177","1117948","0.0-63.0","battery-v0.2","","""event"",""trial"",""time""
""fullscreenenter"",""1"",""1647""
","
","
","""event"",""trial"",""time""
""fullscreenenter"",""1"",""1647""
","
","","","-1","","","14","4569","710","b","elianto","#f73b6a7A","-1","-1","1","0","[]","0","2","","","4569","59","3","4","lose","no-go","0"
"pit-trial","178","1121539","0.0-64.0","battery-v0.2","","""event"",""trial"",""time""
""fullscreenenter"",""1"",""1647""
","
","
","""event"",""trial"",""time""
""fullscreenenter"",""1"",""1647""
","
","","","724.2000000476837","","","14","4569","710","n","elianto","#f73b6a7A"," "," ","1","0","[1580]","1","2","","","4569","60","0","3","lose","go","0"
"pit-trial","179","1126413","0.0-65.0","battery-v0.2","","""event"",""trial"",""time""
""fullscreenenter"",""1"",""1647""
","
","
","""event"",""trial"",""time""
""fullscreenenter"",""1"",""1647""
","
","","","-1","","","14","4569","710","c","elianto","#3366ff99"," ","-1","0","+10","[]","0","2","","","4569","61","4","1","win","go","1"
"pit-trial","180","1131284","0.0-66.0","battery-v0.2","","""event"",""trial"",""time""
""fullscreenenter"",""1"",""1647""
","
","
","""event"",""trial"",""time""
""fullscreenenter"",""1"",""1647""
","
","","","-1","","","14","4569","710","b","elianto","#f73b6a7A","-1","-1","1","-10","[]","0","2","","","4569","62","3","4","lose","no-go","1"
"pit-trial","181","1134954","0.0-67.0","battery-v0.2","","""event"",""trial"",""time""
""fullscreenenter"",""1"",""1647""
","
","
","""event"",""trial"",""time""
""fullscreenenter"",""1"",""1647""
","
","","","788.4000000953674","","","14","4569","710","t","elianto","#f73b6a7A"," "," ","1","0","[1644.9000000953674]","1","2","","","4569","63","2","3","lose","go","0"
"pit-trial","182","1139841","0.0-68.0","battery-v0.2","","""event"",""trial"",""time""
""fullscreenenter"",""1"",""1647""
","
","
","""event"",""trial"",""time""
""fullscreenenter"",""1"",""1647""
","
","","","-1","","","14","4569","710","f","elianto","#3366ff99","-1","-1","1","+10","[]","0","2","","","4569","64","1","2","win","no-go","0"
"pit-trial","183","1144708","0.0-69.0","battery-v0.2","","""event"",""trial"",""time""
""fullscreenenter"",""1"",""1647""
","
","
","""event"",""trial"",""time""
""fullscreenenter"",""1"",""1647""
","
","","","-1","","","14","4569","710","c","elianto","#3366ff99"," ","-1","0","0","[]","0","2","","","4569","65","4","1","win","go","0"
"pit-trial","184","1148987","0.0-70.0","battery-v0.2","","""event"",""trial"",""time""
""fullscreenenter"",""1"",""1647""
","
","
","""event"",""trial"",""time""
""fullscreenenter"",""1"",""1647""
","
","","","1408.5","","","14","4569","710","z","elianto","#3366ff99","-1"," ","0","0","[2264.5]","1","2","","","4569","66","5","2","win","no-go","0"
"pit-trial","185","1153859","0.0-71.0","battery-v0.2","","""event"",""trial"",""time""
""fullscreenenter"",""1"",""1647""
","
","
","""event"",""trial"",""time""
""fullscreenenter"",""1"",""1647""
","
","","","-1","","","14","4569","710","b","elianto","#f73b6a7A","-1","-1","1","-10","[]","0","2","","","4569","67","3","4","lose","no-go","1"
"pit-trial","186","1158732","0.0-72.0","battery-v0.2","","""event"",""trial"",""time""
""fullscreenenter"",""1"",""1647""
","
","
","""event"",""trial"",""time""
""fullscreenenter"",""1"",""1647""
","
","","","-1","","","14","4569","710","f","elianto","#3366ff99","-1","-1","1","0","[]","0","2","","","4569","68","1","2","win","no-go","1"
"pit-trial","187","1163603","0.0-73.0","battery-v0.2","","""event"",""trial"",""time""
""fullscreenenter"",""1"",""1647""
","
","
","""event"",""trial"",""time""
""fullscreenenter"",""1"",""1647""
","
","","","-1","","","14","4569","710","z","elianto","#3366ff99","-1","-1","1","0","[]","0","2","","","4569","69","5","2","win","no-go","1"
"pit-trial","188","1167348","0.0-74.0","battery-v0.2","","""event"",""trial"",""time""
""fullscreenenter"",""1"",""1647""
","
","
","""event"",""trial"",""time""
""fullscreenenter"",""1"",""1647""
","
","","","873.2000000476837","","","14","4569","710","t","elianto","#f73b6a7A"," "," ","1","0","[1729.8999998569489]","1","2","","","4569","70","2","3","lose","go","0"
"pit-trial","189","1170875","0.0-75.0","battery-v0.2","","""event"",""trial"",""time""
""fullscreenenter"",""1"",""1647""
","
","
","""event"",""trial"",""time""
""fullscreenenter"",""1"",""1647""
","
","","","657.7000000476837","","","14","4569","710","f","elianto","#3366ff99","-1"," ","0","0","[1512.5]","1","2","","","4569","71","1","2","win","no-go","0"
"pit-trial","190","1175748","0.0-76.0","battery-v0.2","","""event"",""trial"",""time""
""fullscreenenter"",""1"",""1647""
","
","
","""event"",""trial"",""time""
""fullscreenenter"",""1"",""1647""
","
","","","-1","","","14","4569","710","c","elianto","#3366ff99"," ","-1","0","0","[]","0","2","","","4569","72","4","1","win","go","0"
"pit-trial","191","1179980","0.0-77.0","battery-v0.2","","""event"",""trial"",""time""
""fullscreenenter"",""1"",""1647""
","
","
","""event"",""trial"",""time""
""fullscreenenter"",""1"",""1647""
","
","","","1354.5","","","14","4569","710","z","elianto","#3366ff99","-1"," ","0","0","[2210.600000143051]","1","2","","","4569","73","5","2","win","no-go","0"
"pit-trial","192","1184852","0.0-78.0","battery-v0.2","","""event"",""trial"",""time""
""fullscreenenter"",""1"",""1647""
","
","
","""event"",""trial"",""time""
""fullscreenenter"",""1"",""1647""
","
","","","-1","","","14","4569","710","b","elianto","#f73b6a7A","-1","-1","1","-10","[]","0","2","","","4569","74","3","4","lose","no-go","1"
"pit-trial","193","1189725","0.0-79.0","battery-v0.2","","""event"",""trial"",""time""
""fullscreenenter"",""1"",""1647""
","
","
","""event"",""trial"",""time""
""fullscreenenter"",""1"",""1647""
","
","","","-1","","","14","4569","710","f","elianto","#3366ff99","-1","-1","1","+10","[]","0","2","","","4569","75","1","2","win","no-go","0"
"pit-trial","194","1193363","0.0-80.0","battery-v0.2","","""event"",""trial"",""time""
""fullscreenenter"",""1"",""1647""
","
","
","""event"",""trial"",""time""
""fullscreenenter"",""1"",""1647""
","
","","","772.2999999523163","","","14","4569","710","c","elianto","#3366ff99"," "," ","1","+10","[1625.5999999046326]","1","2","","","4569","76","4","1","win","go","0"
"pit-trial","195","1197059","0.0-81.0","battery-v0.2","","""event"",""trial"",""time""
""fullscreenenter"",""1"",""1647""
","
","
","""event"",""trial"",""time""
""fullscreenenter"",""1"",""1647""
","
","","","826","","","14","4569","710","c","elianto","#3366ff99"," "," ","1","+10","[1682.9000000953674]","1","2","","","4569","77","4","1","win","go","0"
"pit-trial","196","1200715","0.0-82.0","battery-v0.2","","""event"",""trial"",""time""
""fullscreenenter"",""1"",""1647""
","
","
","""event"",""trial"",""time""
""fullscreenenter"",""1"",""1647""
","
","","","777.6000001430511","","","14","4569","710","c","elianto","#3366ff99"," "," ","1","+10","[1635]","1","2","","","4569","78","4","1","win","go","0"
"pit-trial","197","1204308","0.0-83.0","battery-v0.2","","""event"",""trial"",""time""
""fullscreenenter"",""1"",""1647""
","
","
","""event"",""trial"",""time""
""fullscreenenter"",""1"",""1647""
","
","","","724.7000000476837","","","14","4569","710","z","elianto","#3366ff99","-1"," ","0","+10","[1581.8999998569489]","1","2","","","4569","79","5","2","win","no-go","1"
"pit-trial","198","1209179","0.0-84.0","battery-v0.2","","""event"",""trial"",""time""
""fullscreenenter"",""1"",""1647""
","
","
","""event"",""trial"",""time""
""fullscreenenter"",""1"",""1647""
","
","","","-1","","","14","4569","710","b","elianto","#f73b6a7A","-1","-1","1","0","[]","0","2","","","4569","80","3","4","lose","no-go","0"
"pit-trial","199","1214052","0.0-85.0","battery-v0.2","","""event"",""trial"",""time""
""fullscreenenter"",""1"",""1647""
","
","
","""event"",""trial"",""time""
""fullscreenenter"",""1"",""1647""
","
","","","-1","","","14","4569","710","b","elianto","#f73b6a7A","-1","-1","1","0","[]","0","2","","","4569","81","3","4","lose","no-go","0"
"pit-trial","200","1217581","0.0-86.0","battery-v0.2","","""event"",""trial"",""time""
""fullscreenenter"",""1"",""1647""
","
","
","""event"",""trial"",""time""
""fullscreenenter"",""1"",""1647""
","
","","","660.3000001907349","","","14","4569","710","z","elianto","#3366ff99","-1"," ","0","0","[1517.2000000476837]","1","2","","","4569","82","5","2","win","no-go","0"
"pit-trial","201","1221124","0.0-87.0","battery-v0.2","","""event"",""trial"",""time""
""fullscreenenter"",""1"",""1647""
","
","
","""event"",""trial"",""time""
""fullscreenenter"",""1"",""1647""
","
","","","672.7000000476837","","","14","4569","710","c","elianto","#3366ff99"," "," ","1","0","[1529.5]","1","2","","","4569","83","4","1","win","go","1"
"pit-trial","202","1225948","0.0-88.0","battery-v0.2","","""event"",""trial"",""time""
""fullscreenenter"",""1"",""1647""
","
","
","""event"",""trial"",""time""
""fullscreenenter"",""1"",""1647""
","
","","","1957.5","","","14","4569","710","y","elianto","#f73b6a7A","-1"," ","0","-10","[2814.0999999046326]","1","2","","","4569","84","7","4","lose","no-go","0"
"pit-trial","203","1230820","0.0-89.0","battery-v0.2","","""event"",""trial"",""time""
""fullscreenenter"",""1"",""1647""
","
","
","""event"",""trial"",""time""
""fullscreenenter"",""1"",""1647""
","
","","","-1","","","14","4569","710","h","elianto","#f73b6a7A"," ","-1","0","-10","[]","0","2","","","4569","85","6","3","lose","go","0"
"pit-trial","204","1234791","0.0-90.0","battery-v0.2","","""event"",""trial"",""time""
""fullscreenenter"",""1"",""1647""
","
","
","""event"",""trial"",""time""
""fullscreenenter"",""1"",""1647""
","
","","","1088.9000000953674","","","14","4569","710","c","elianto","#3366ff99"," "," ","1","+10","[1945.4000000953674]","1","2","","","4569","86","4","1","win","go","0"
"pit-trial","205","1239661","0.0-91.0","battery-v0.2","","""event"",""trial"",""time""
""fullscreenenter"",""1"",""1647""
","
","
","""event"",""trial"",""time""
""fullscreenenter"",""1"",""1647""
","
","","","-1","","","14","4569","710","y","elianto","#f73b6a7A","-1","-1","1","0","[]","0","2","","","4569","87","7","4","lose","no-go","0"
"pit-trial","206","1243533","0.0-92.0","battery-v0.2","","""event"",""trial"",""time""
""fullscreenenter"",""1"",""1647""
","
","
","""event"",""trial"",""time""
""fullscreenenter"",""1"",""1647""
","
","","","1003.7999999523163","","","14","4569","710","z","elianto","#3366ff99","-1"," ","0","0","[1858.5]","1","2","","","4569","88","5","2","win","no-go","0"
"pit-trial","207","1248190","0.0-93.0","battery-v0.2","","""event"",""trial"",""time""
""fullscreenenter"",""1"",""1647""
","
","
","""event"",""trial"",""time""
""fullscreenenter"",""1"",""1647""
","
","","","1789.3999998569489","","","14","4569","710","h","elianto","#f73b6a7A"," "," ","1","0","[2645.2999999523163]","1","2","","","4569","89","6","3","lose","go","0"
"pit-trial","208","1253060","0.0-94.0","battery-v0.2","","""event"",""trial"",""time""
""fullscreenenter"",""1"",""1647""
","
","
","""event"",""trial"",""time""
""fullscreenenter"",""1"",""1647""
","
","","","-1","","","14","4569","710","z","elianto","#3366ff99","-1","-1","1","+10","[]","0","2","","","4569","90","5","2","win","no-go","0"
"pit-trial","209","1257932","0.0-95.0","battery-v0.2","","""event"",""trial"",""time""
""fullscreenenter"",""1"",""1647""
","
","
","""event"",""trial"",""time""
""fullscreenenter"",""1"",""1647""
","
","","","-1","","","14","4569","710","y","elianto","#f73b6a7A","-1","-1","1","0","[]","0","2","","","4569","91","7","4","lose","no-go","0"
"pit-trial","210","1261676","0.0-96.0","battery-v0.2","","""event"",""trial"",""time""
""fullscreenenter"",""1"",""1647""
","
","
","""event"",""trial"",""time""
""fullscreenenter"",""1"",""1647""
","
","","","874.2999999523163","","","14","4569","710","c","elianto","#3366ff99"," "," ","1","0","[1732]","1","2","","","4569","92","4","1","win","go","1"
"pit-trial","211","1266548","0.0-97.0","battery-v0.2","","""event"",""trial"",""time""
""fullscreenenter"",""1"",""1647""
","
","
","""event"",""trial"",""time""
""fullscreenenter"",""1"",""1647""
","
","","","-1","","","14","4569","710","z","elianto","#3366ff99","-1","-1","1","+10","[]","0","2","","","4569","93","5","2","win","no-go","0"
"pit-trial","212","1271421","0.0-98.0","battery-v0.2","","""event"",""trial"",""time""
""fullscreenenter"",""1"",""1647""
","
","
","""event"",""trial"",""time""
""fullscreenenter"",""1"",""1647""
","
","","","-1","","","14","4569","710","y","elianto","#f73b6a7A","-1","-1","1","0","[]","0","2","","","4569","94","7","4","lose","no-go","0"
"pit-trial","213","1275797","0.0-99.0","battery-v0.2","","""event"",""trial"",""time""
""fullscreenenter"",""1"",""1647""
","
","
","""event"",""trial"",""time""
""fullscreenenter"",""1"",""1647""
","
","","","1507.5","","","14","4569","710","r","elianto","#3366ff99"," "," ","1","+10","[2362.2000000476837]","1","2","","","4569","95","8","1","win","go","0"
"pit-trial","214","1280668","0.0-100.0","battery-v0.2","","""event"",""trial"",""time""
""fullscreenenter"",""1"",""1647""
","
","
","""event"",""trial"",""time""
""fullscreenenter"",""1"",""1647""
","
","","","-1","","","14","4569","710","h","elianto","#f73b6a7A"," ","-1","0","-10","[]","0","2","","","4569","96","6","3","lose","go","0"
"pit-trial","215","1285539","0.0-101.0","battery-v0.2","","""event"",""trial"",""time""
""fullscreenenter"",""1"",""1647""
","
","
","""event"",""trial"",""time""
""fullscreenenter"",""1"",""1647""
","
","","","-1","","","14","4569","710","z","elianto","#3366ff99","-1","-1","1","+10","[]","0","2","","","4569","97","5","2","win","no-go","0"
"pit-trial","216","1290412","0.0-102.0","battery-v0.2","","""event"",""trial"",""time""
""fullscreenenter"",""1"",""1647""
","
","
","""event"",""trial"",""time""
""fullscreenenter"",""1"",""1647""
","
","","","-1","","","14","4569","710","y","elianto","#f73b6a7A","-1","-1","1","0","[]","0","2","","","4569","98","7","4","lose","no-go","0"
"pit-trial","217","1293917","0.0-103.0","battery-v0.2","","""event"",""trial"",""time""
""fullscreenenter"",""1"",""1647""
","
","
","""event"",""trial"",""time""
""fullscreenenter"",""1"",""1647""
","
","","","634.2999999523163","","","14","4569","710","h","elianto","#f73b6a7A"," "," ","1","-10","[1489.8999998569489]","1","2","","","4569","99","6","3","lose","go","1"
"pit-trial","218","1298332","0.0-104.0","battery-v0.2","","""event"",""trial"",""time""
""fullscreenenter"",""1"",""1647""
","
","
","""event"",""trial"",""time""
""fullscreenenter"",""1"",""1647""
","
","","","1550.3999998569489","","","14","4569","710","r","elianto","#3366ff99"," "," ","1","+10","[2405.899999856949]","1","2","","","4569","100","8","1","win","go","0"
"pit-trial","219","1303205","0.0-105.0","battery-v0.2","","""event"",""trial"",""time""
""fullscreenenter"",""1"",""1647""
","
","
","""event"",""trial"",""time""
""fullscreenenter"",""1"",""1647""
","
","","","-1","","","14","4569","710","z","elianto","#3366ff99","-1","-1","1","+10","[]","0","2","","","4569","101","5","2","win","no-go","0"
"pit-trial","220","1308076","0.0-106.0","battery-v0.2","","""event"",""trial"",""time""
""fullscreenenter"",""1"",""1647""
","
","
","""event"",""trial"",""time""
""fullscreenenter"",""1"",""1647""
","
","","","-1","","","14","4569","710","y","elianto","#f73b6a7A","-1","-1","1","-10","[]","0","2","","","4569","102","7","4","lose","no-go","1"
"pit-trial","221","1312315","0.0-107.0","battery-v0.2","","""event"",""trial"",""time""
""fullscreenenter"",""1"",""1647""
","
","
","""event"",""trial"",""time""
""fullscreenenter"",""1"",""1647""
","
","","","1356.7999999523163","","","14","4569","710","m","elianto","#3366ff99"," "," ","1","+10","[2214.7999999523163]","1","2","","","4569","103","9","1","win","go","0"
"pit-trial","222","1316696","0.0-108.0","battery-v0.2","","""event"",""trial"",""time""
""fullscreenenter"",""1"",""1647""
","
","
","""event"",""trial"",""time""
""fullscreenenter"",""1"",""1647""
","
","","","1495.5999999046326","","","14","4569","710","r","elianto","#3366ff99"," "," ","1","+10","[2352.899999856949]","1","2","","","4569","104","8","1","win","go","0"
"pit-trial","223","1320452","0.0-109.0","battery-v0.2","","""event"",""trial"",""time""
""fullscreenenter"",""1"",""1647""
","
","
","""event"",""trial"",""time""
""fullscreenenter"",""1"",""1647""
","
","","","892.9000000953674","","","14","4569","710","m","elianto","#3366ff99"," "," ","1","+10","[1745.4000000953674]","1","2","","","4569","105","9","1","win","go","0"
"pit-trial","224","1324864","0.0-110.0","battery-v0.2","","""event"",""trial"",""time""
""fullscreenenter"",""1"",""1647""
","
","
","""event"",""trial"",""time""
""fullscreenenter"",""1"",""1647""
","
","","","1537.6000001430511","","","14","4569","710","h","elianto","#f73b6a7A"," "," ","1","0","[2393.300000190735]","1","2","","","4569","106","6","3","lose","go","0"
"pit-trial","225","1329731","0.0-111.0","battery-v0.2","","""event"",""trial"",""time""
""fullscreenenter"",""1"",""1647""
","
","
","""event"",""trial"",""time""
""fullscreenenter"",""1"",""1647""
","
","","","-1","","","14","4569","710","c","elianto","#3366ff99"," ","-1","0","0","[2880.2999999523163]","1","2","","","4569","107","4","1","win","go","0"
"pit-trial","226","1333826","0.0-112.0","battery-v0.2","","""event"",""trial"",""time""
""fullscreenenter"",""1"",""1647""
","
","
","""event"",""trial"",""time""
""fullscreenenter"",""1"",""1647""
","
","","","1221.7000000476837","","","14","4569","710","r","elianto","#3366ff99"," "," ","1","0","[2080.300000190735]","1","2","","","4569","108","8","1","win","go","1"
"pit-trial","227","1338700","0.0-113.0","battery-v0.2","","""event"",""trial"",""time""
""fullscreenenter"",""1"",""1647""
","
","
","""event"",""trial"",""time""
""fullscreenenter"",""1"",""1647""
","
","","","-1","","","14","4569","710","z","elianto","#3366ff99","-1","-1","1","+10","[]","0","2","","","4569","109","5","2","win","no-go","0"
"pit-trial","228","1343364","0.0-114.0","battery-v0.2","","""event"",""trial"",""time""
""fullscreenenter"",""1"",""1647""
","
","
","""event"",""trial"",""time""
""fullscreenenter"",""1"",""1647""
","
","","","1793","","","14","4569","710","r","elianto","#3366ff99"," "," ","1","+10","[2649.5]","1","2","","","4569","110","8","1","win","go","0"
"pit-trial","229","1347828","0.0-115.0","battery-v0.2","","""event"",""trial"",""time""
""fullscreenenter"",""1"",""1647""
","
","
","""event"",""trial"",""time""
""fullscreenenter"",""1"",""1647""
","
","","","1594.7000000476837","","","14","4569","710","h","elianto","#f73b6a7A"," "," ","1","0","[2452.100000143051]","1","2","","","4569","111","6","3","lose","go","0"
"pit-trial","230","1352109","0.0-116.0","battery-v0.2","","""event"",""trial"",""time""
""fullscreenenter"",""1"",""1647""
","
","
","""event"",""trial"",""time""
""fullscreenenter"",""1"",""1647""
","
","","","1414.5","","","14","4569","710","m","elianto","#3366ff99"," "," ","1","+10","[2269.5]","1","2","","","4569","112","9","1","win","go","0"
"pit-trial","231","1356004","0.0-117.0","battery-v0.2","","""event"",""trial"",""time""
""fullscreenenter"",""1"",""1647""
","
","
","""event"",""trial"",""time""
""fullscreenenter"",""1"",""1647""
","
","","","1026.6999998092651","","","14","4569","710","r","elianto","#3366ff99"," "," ","1","+10","[1881.2999999523163]","1","2","","","4569","113","8","1","win","go","0"
"pit-trial","232","1360867","0.0-118.0","battery-v0.2","","""event"",""trial"",""time""
""fullscreenenter"",""1"",""1647""
","
","
","""event"",""trial"",""time""
""fullscreenenter"",""1"",""1647""
","
","","","1996.2000000476837","","","14","4569","710","h","elianto","#f73b6a7A"," "," ","1","0","[2851.399999856949]","1","2","","","4569","114","6","3","lose","go","0"
"pit-trial","233","1365740","0.0-119.0","battery-v0.2","","""event"",""trial"",""time""
""fullscreenenter"",""1"",""1647""
","
","
","""event"",""trial"",""time""
""fullscreenenter"",""1"",""1647""
","
","","","-1","","","14","4569","710","z","elianto","#3366ff99","-1","-1","1","+10","[]","0","2","","","4569","115","5","2","win","no-go","0"
"pit-trial","234","1369699","0.0-120.0","battery-v0.2","","""event"",""trial"",""time""
""fullscreenenter"",""1"",""1647""
","
","
","""event"",""trial"",""time""
""fullscreenenter"",""1"",""1647""
","
","","","1091.2000000476837","","","14","4569","710","m","elianto","#3366ff99"," "," ","1","0","[1947]","1","2","","","4569","116","9","1","win","go","1"
"pit-trial","235","1374469","0.0-121.0","battery-v0.2","","""event"",""trial"",""time""
""fullscreenenter"",""1"",""1647""
","
","
","""event"",""trial"",""time""
""fullscreenenter"",""1"",""1647""
","
","","","1890.4000000953674","","","14","4569","710","h","elianto","#f73b6a7A"," "," ","1","0","[2747.5]","1","2","","","4569","117","6","3","lose","go","0"
"pit-trial","236","1377940","0.0-122.0","battery-v0.2","","""event"",""trial"",""time""
""fullscreenenter"",""1"",""1647""
","
","
","""event"",""trial"",""time""
""fullscreenenter"",""1"",""1647""
","
","","","603.5","","","14","4569","710","r","elianto","#3366ff99"," "," ","1","+10","[1457.4000000953674]","1","2","","","4569","118","8","1","win","go","0"
"pit-trial","237","1382828","0.0-123.0","battery-v0.2","","""event"",""trial"",""time""
""fullscreenenter"",""1"",""1647""
","
","
","""event"",""trial"",""time""
""fullscreenenter"",""1"",""1647""
","
","","","-1","","","14","4569","710","z","elianto","#3366ff99","-1","-1","1","+10","[]","0","2","","","4569","119","5","2","win","no-go","0"
"pit-trial","238","1386500","0.0-124.0","battery-v0.2","","""event"",""trial"",""time""
""fullscreenenter"",""1"",""1647""
","
","
","""event"",""trial"",""time""
""fullscreenenter"",""1"",""1647""
","
","","","794.0999999046326","","","14","4569","710","m","elianto","#3366ff99"," "," ","1","0","[1648.5]","1","2","","","4569","120","9","1","win","go","1"
"pit-trial","239","1390212","0.0-125.0","battery-v0.2","","""event"",""trial"",""time""
""fullscreenenter"",""1"",""1647""
","
","
","""event"",""trial"",""time""
""fullscreenenter"",""1"",""1647""
","
","","","840.5999999046326","","","14","4569","710","m","elianto","#3366ff99"," "," ","1","+10","[1696.7000000476837]","1","2","","","4569","121","9","1","win","go","0"
"pit-trial","240","1393708","0.0-126.0","battery-v0.2","","""event"",""trial"",""time""
""fullscreenenter"",""1"",""1647""
","
","
","""event"",""trial"",""time""
""fullscreenenter"",""1"",""1647""
","
","","","622.0999999046326","","","14","4569","710","r","elianto","#3366ff99"," "," ","1","+10","[1479.5]","1","2","","","4569","122","8","1","win","go","0"
"pit-trial","241","1397868","0.0-127.0","battery-v0.2","","""event"",""trial"",""time""
""fullscreenenter"",""1"",""1647""
","
","
","""event"",""trial"",""time""
""fullscreenenter"",""1"",""1647""
","
","","","1287.2999999523163","","","14","4569","710","h","elianto","#f73b6a7A"," "," ","1","-10","[2143]","1","2","","","4569","123","6","3","lose","go","1"
"pit-trial","242","1402740","0.0-128.0","battery-v0.2","","""event"",""trial"",""time""
""fullscreenenter"",""1"",""1647""
","
","
","""event"",""trial"",""time""
""fullscreenenter"",""1"",""1647""
","
","","","-1","","","14","4569","710","y","elianto","#f73b6a7A","-1","-1","1","-10","[]","0","2","","","4569","124","7","4","lose","no-go","1"
"pit-trial","243","1406283","0.0-129.0","battery-v0.2","","""event"",""trial"",""time""
""fullscreenenter"",""1"",""1647""
","
","
","""event"",""trial"",""time""
""fullscreenenter"",""1"",""1647""
","
","","","677.4000000953674","","","14","4569","710","m","elianto","#3366ff99"," "," ","1","+10","[1533.9000000953674]","1","2","","","4569","125","9","1","win","go","0"
"pit-trial","244","1410908","0.0-130.0","battery-v0.2","","""event"",""trial"",""time""
""fullscreenenter"",""1"",""1647""
","
","
","""event"",""trial"",""time""
""fullscreenenter"",""1"",""1647""
","
","","","1762","","","14","4569","710","h","elianto","#f73b6a7A"," "," ","1","0","[2614.800000190735]","1","2","","","4569","126","6","3","lose","go","0"
"pit-trial","245","1414668","0.0-131.0","battery-v0.2","","""event"",""trial"",""time""
""fullscreenenter"",""1"",""1647""
","
","
","""event"",""trial"",""time""
""fullscreenenter"",""1"",""1647""
","
","","","893.2000000476837","","","14","4569","710","r","elianto","#3366ff99"," "," ","1","0","[1749.3000001907349]","1","2","","","4569","127","8","1","win","go","1"
"pit-trial","246","1419541","0.0-132.0","battery-v0.2","","""event"",""trial"",""time""
""fullscreenenter"",""1"",""1647""
","
","
","""event"",""trial"",""time""
""fullscreenenter"",""1"",""1647""
","
","","","-1","","","14","4569","710","y","elianto","#f73b6a7A","-1","-1","1","0","[]","0","2","","","4569","128","7","4","lose","no-go","0"
"pit-trial","247","1423980","0.0-133.0","battery-v0.2","","""event"",""trial"",""time""
""fullscreenenter"",""1"",""1647""
","
","
","""event"",""trial"",""time""
""fullscreenenter"",""1"",""1647""
","
","","","1572.2999999523163","","","14","4569","710","h","elianto","#f73b6a7A"," "," ","1","0","[2425.600000143051]","1","2","","","4569","129","6","3","lose","go","0"
"pit-trial","248","1428853","0.0-134.0","battery-v0.2","","""event"",""trial"",""time""
""fullscreenenter"",""1"",""1647""
","
","
","""event"",""trial"",""time""
""fullscreenenter"",""1"",""1647""
","
","","","-1","","","14","4569","710","y","elianto","#f73b6a7A","-1","-1","1","0","[]","0","2","","","4569","130","7","4","lose","no-go","0"
"pit-trial","249","1432621","0.0-135.0","battery-v0.2","","""event"",""trial"",""time""
""fullscreenenter"",""1"",""1647""
","
","
","""event"",""trial"",""time""
""fullscreenenter"",""1"",""1647""
","
","","","900.0999999046326","","","14","4569","710","m","elianto","#3366ff99"," "," ","1","+10","[1756.5]","1","2","","","4569","131","9","1","win","go","0"
"pit-trial","250","1436349","0.0-136.0","battery-v0.2","","""event"",""trial"",""time""
""fullscreenenter"",""1"",""1647""
","
","
","""event"",""trial"",""time""
""fullscreenenter"",""1"",""1647""
","
","","","855.2000000476837","","","14","4569","710","r","elianto","#3366ff99"," "," ","1","+10","[1711]","1","2","","","4569","132","8","1","win","go","0"
"pit-trial","251","1440427","0.0-137.0","battery-v0.2","","""event"",""trial"",""time""
""fullscreenenter"",""1"",""1647""
","
","
","""event"",""trial"",""time""
""fullscreenenter"",""1"",""1647""
","
","","","1209.2000000476837","","","14","4569","710","m","elianto","#3366ff99"," "," ","1","+10","[2063.100000143051]","1","2","","","4569","133","9","1","win","go","0"
"pit-trial","252","1444195","0.0-138.0","battery-v0.2","","""event"",""trial"",""time""
""fullscreenenter"",""1"",""1647""
","
","
","""event"",""trial"",""time""
""fullscreenenter"",""1"",""1647""
","
","","","903","","","14","4569","710","r","elianto","#3366ff99"," "," ","1","+10","[1759.8999998569489]","1","2","","","4569","134","8","1","win","go","0"
"pit-trial","253","1449067","0.0-139.0","battery-v0.2","","""event"",""trial"",""time""
""fullscreenenter"",""1"",""1647""
","
","
","""event"",""trial"",""time""
""fullscreenenter"",""1"",""1647""
","
","","","-1","","","14","4569","710","y","elianto","#f73b6a7A","-1","-1","1","0","[]","0","2","","","4569","135","7","4","lose","no-go","0"
"pit-trial","254","1453196","0.0-140.0","battery-v0.2","","""event"",""trial"",""time""
""fullscreenenter"",""1"",""1647""
","
","
","""event"",""trial"",""time""
""fullscreenenter"",""1"",""1647""
","
","","","1263.1000001430511","","","14","4569","710","h","elianto","#f73b6a7A"," "," ","1","0","[2119.5]","1","2","","","4569","136","6","3","lose","go","0"
"pit-trial","255","1458067","0.0-141.0","battery-v0.2","","""event"",""trial"",""time""
""fullscreenenter"",""1"",""1647""
","
","
","""event"",""trial"",""time""
""fullscreenenter"",""1"",""1647""
","
","","","-1","","","14","4569","710","y","elianto","#f73b6a7A","-1","-1","1","-10","[]","0","2","","","4569","137","7","4","lose","no-go","1"
"pit-trial","256","1461715","0.0-142.0","battery-v0.2","","""event"",""trial"",""time""
""fullscreenenter"",""1"",""1647""
","
","
","""event"",""trial"",""time""
""fullscreenenter"",""1"",""1647""
","
","","","776.7999999523163","","","14","4569","710","r","elianto","#3366ff99"," "," ","1","+10","[1634.2999999523163]","1","2","","","4569","138","8","1","win","go","0"
"pit-trial","257","1466139","0.0-143.0","battery-v0.2","","""event"",""trial"",""time""
""fullscreenenter"",""1"",""1647""
","
","
","""event"",""trial"",""time""
""fullscreenenter"",""1"",""1647""
","
","","","1550.2999999523163","","","14","4569","710","h","elianto","#f73b6a7A"," "," ","1","-10","[2410]","1","2","","","4569","139","6","3","lose","go","1"
"pit-trial","258","1469659","0.0-144.0","battery-v0.2","","""event"",""trial"",""time""
""fullscreenenter"",""1"",""1647""
","
","
","""event"",""trial"",""time""
""fullscreenenter"",""1"",""1647""
","
","","","649.7000000476837","","","14","4569","710","m","elianto","#3366ff99"," "," ","1","+10","[1506.5999999046326]","1","2","","","4569","140","9","1","win","go","0"
"pit-instructions","259","1483877","0.0-145.0","battery-v0.2","","""event"",""trial"",""time""
""fullscreenenter"",""1"",""1647""
","
","
","""event"",""trial"",""time""
""fullscreenenter"",""1"",""1647""
","
","","[{""page_index"":0,""viewing_time"":5935},{""page_index"":1,""viewing_time"":8275.299999952316}]","14211","","","","","","","","","","","","","","","","","","","","","","","",""
"pit-trial","260","1488175","0.0-146.0","battery-v0.2","","""event"",""trial"",""time""
""fullscreenenter"",""1"",""1647""
","
","
","""event"",""trial"",""time""
""fullscreenenter"",""1"",""1647""
","
","","","1419.6000001430511","","","14","4569","710","u","elianto","#f73b6a7A","-1"," ","0","-10","[2272.600000143051]","1","3","","","4569","141","0","4","lose","no-go","0"
"pit-trial","261","1493050","0.0-147.0","battery-v0.2","","""event"",""trial"",""time""
""fullscreenenter"",""1"",""1647""
","
","
","""event"",""trial"",""time""
""fullscreenenter"",""1"",""1647""
","
","","","-1","","","14","4569","710","g","elianto","#f73b6a7A"," ","-1","0","-10","[]","0","3","","","4569","142","3","3","lose","go","0"
"pit-trial","262","1496782","0.0-148.0","battery-v0.2","","""event"",""trial"",""time""
""fullscreenenter"",""1"",""1647""
","
","
","""event"",""trial"",""time""
""fullscreenenter"",""1"",""1647""
","
","","","848.2000000476837","","","14","4569","710","l","elianto","#3366ff99"," "," ","1","+10","[1707.3000001907349]","1","3","","","4569","143","1","1","win","go","0"
"pit-trial","263","1501661","0.0-149.0","battery-v0.2","","""event"",""trial"",""time""
""fullscreenenter"",""1"",""1647""
","
","
","""event"",""trial"",""time""
""fullscreenenter"",""1"",""1647""
","
","","","-1","","","14","4569","710","a","elianto","#f73b6a7A","-1","-1","1","0","[]","0","3","","","4569","144","2","4","lose","no-go","0"
"pit-trial","264","1506534","0.0-150.0","battery-v0.2","","""event"",""trial"",""time""
""fullscreenenter"",""1"",""1647""
","
","
","""event"",""trial"",""time""
""fullscreenenter"",""1"",""1647""
","
","","","-1","","","14","4569","710","u","elianto","#f73b6a7A","-1","-1","1","0","[]","0","3","","","4569","145","0","4","lose","no-go","0"
"pit-trial","265","1510468","0.0-151.0","battery-v0.2","","""event"",""trial"",""time""
""fullscreenenter"",""1"",""1647""
","
","
","""event"",""trial"",""time""
""fullscreenenter"",""1"",""1647""
","
","","","1061.7999999523163","","","14","4569","710","l","elianto","#3366ff99"," "," ","1","+10","[1921.5999999046326]","1","3","","","4569","146","1","1","win","go","0"
"pit-trial","266","1515348","0.0-152.0","battery-v0.2","","""event"",""trial"",""time""
""fullscreenenter"",""1"",""1647""
","
","
","""event"",""trial"",""time""
""fullscreenenter"",""1"",""1647""
","
","","","-1","","","14","4569","710","a","elianto","#f73b6a7A","-1","-1","1","0","[]","0","3","","","4569","147","2","4","lose","no-go","0"
"pit-trial","267","1519268","0.0-153.0","battery-v0.2","","""event"",""trial"",""time""
""fullscreenenter"",""1"",""1647""
","
","
","""event"",""trial"",""time""
""fullscreenenter"",""1"",""1647""
","
","","","1061.3999998569489","","","14","4569","710","g","elianto","#f73b6a7A"," "," ","1","0","[1914.0999999046326]","1","3","","","4569","148","3","3","lose","go","0"
"pit-trial","268","1524161","0.0-154.0","battery-v0.2","","""event"",""trial"",""time""
""fullscreenenter"",""1"",""1647""
","
","
","""event"",""trial"",""time""
""fullscreenenter"",""1"",""1647""
","
