"trial_type","trial_index","time_elapsed","internal_node_id","task_version","subject_id","interactions","blur_events","focus_events","fullscreenenter_events","fullscreenexit_events","success","view_history","rt","responses","num_errors","age","subject","participantId","rune","rune_set","hex","correct","choice","accuracy","outcome","keys","total_keys","block","practice","value","sub","trial","stimulus","robot","valence","action","sham"
"pavlovia","0","17","0.0-0.0","battery-v0.2","","""event"",""trial"",""time""
""fullscreenenter"",""1"",""3904""
","
","
","""event"",""trial"",""time""
""fullscreenenter"",""1"",""3904""
","
","","","","","","","","","","","","","","","","","","","","","","","","","","",""
"fullscreen","1","4889","0.0-1.0","battery-v0.2","","""event"",""trial"",""time""
""fullscreenenter"",""1"",""3904""
","
","
","""event"",""trial"",""time""
""fullscreenenter"",""1"",""3904""
","
","true","","","","","","","","","","","","","","","","","","","","","","","","","",""
"pit-instructions","2","10202","0.0-2.0-0.0","battery-v0.2","","""event"",""trial"",""time""
""fullscreenenter"",""1"",""3904""
","
","
","""event"",""trial"",""time""
""fullscreenenter"",""1"",""3904""
","
","","[{""page_index"":0,""viewing_time"":5305.899999976158}]","5307.299999952316","","","","","","","","","","","","","","","","","","","","","","","",""
"pit-comprehension","3","14154","0.0-2.0-1.0-0.0","battery-v0.2","","""event"",""trial"",""time""
""fullscreenenter"",""1"",""3904""
","
","
","""event"",""trial"",""time""
""fullscreenenter"",""1"",""3904""
","
","","","3945.5","[""shark""]","0","23","5240","395","","","","","","","","","","","","","","","","","","",""
"pit-instructions","4","15983","0.0-2.0-1.0-1.0","battery-v0.2","","""event"",""trial"",""time""
""fullscreenenter"",""1"",""3904""
","
","
","""event"",""trial"",""time""
""fullscreenenter"",""1"",""3904""
","
","","[{""page_index"":0,""viewing_time"":1812.6999999284744}]","1813.1999999284744","","","","","","","","","","","","","","","","","","","","","","","",""
"pit-comprehension","5","21152","0.0-2.0-2.0-0.0","battery-v0.2","","""event"",""trial"",""time""
""fullscreenenter"",""1"",""3904""
","
","
","""event"",""trial"",""time""
""fullscreenenter"",""1"",""3904""
","
","","","5164.600000023842","[""tiger""]","0","23","5240","395","","","","","","","","","","","","","","","","","","",""
"pit-instructions","6","22723","0.0-2.0-2.0-1.0","battery-v0.2","","""event"",""trial"",""time""
""fullscreenenter"",""1"",""3904""
","
","
","""event"",""trial"",""time""
""fullscreenenter"",""1"",""3904""
","
","","[{""page_index"":0,""viewing_time"":1566.1000000238419}]","1566.5","","","","","","","","","","","","","","","","","","","","","","","",""
"pit-instructions","7","123804","0.0-2.0-3.0","battery-v0.2","","""event"",""trial"",""time""
""fullscreenenter"",""1"",""3904""
","
","
","""event"",""trial"",""time""
""fullscreenenter"",""1"",""3904""
","
","","[{""page_index"":0,""viewing_time"":9584.5},{""page_index"":1,""viewing_time"":7552.899999976158},{""page_index"":2,""viewing_time"":7237.600000023842},{""page_index"":3,""viewing_time"":5779.100000023842},{""page_index"":4,""viewing_time"":6687},{""page_index"":5,""viewing_time"":6333.600000023842},{""page_index"":6,""viewing_time"":7226.399999976158},{""page_index"":7,""viewing_time"":8047.899999976158},{""page_index"":8,""viewing_time"":6504.700000047684},{""page_index"":9,""viewing_time"":8383.199999928474},{""page_index"":10,""viewing_time"":7373.400000095367},{""page_index"":11,""viewing_time"":8070.399999976158},{""page_index"":12,""viewing_time"":6792.199999928474},{""page_index"":13,""viewing_time"":5493.800000071526}]","101067.30000007153","","","","","","","","","","","","","","","","","","","","","","","",""
"pit-trial","8","127311","0.0-2.0-4.0-0.0","battery-v0.2","","""event"",""trial"",""time""
""fullscreenenter"",""1"",""3904""
","
","
","""event"",""trial"",""time""
""fullscreenenter"",""1"",""3904""
","
","","","643.5","","","23","5240","395","&#9784;","elianto","#FFFFF080"," "," ","1","&#10004","[1496.8999999761581]","1","0","0","","","","","","","",""
"pit-trial","9","130756","0.0-2.0-4.1-0.1","battery-v0.2","","""event"",""trial"",""time""
""fullscreenenter"",""1"",""3904""
","
","
","""event"",""trial"",""time""
""fullscreenenter"",""1"",""3904""
","
","","","575.2999999523163","","","23","5240","395","&#9784;","elianto","#FFFFF080"," "," ","1","&#10004","[1433.1999999284744]","1","0","0","","","","","","","",""
"pit-trial","10","134101","0.0-2.0-4.2-0.2","battery-v0.2","","""event"",""trial"",""time""
""fullscreenenter"",""1"",""3904""
","
","
","""event"",""trial"",""time""
""fullscreenenter"",""1"",""3904""
","
","","","472.39999997615814","","","23","5240","395","&#9784;","elianto","#FFFFF080"," "," ","1","&#10004","[1326.6000000238419]","1","0","0","","","","","","","",""
"pit-trial","11","137428","0.0-2.0-4.3-0.3","battery-v0.2","","""event"",""trial"",""time""
""fullscreenenter"",""1"",""3904""
","
","
","""event"",""trial"",""time""
""fullscreenenter"",""1"",""3904""
","
","","","455.1999999284744","","","23","5240","395","&#9784;","elianto","#FFFFF080"," "," ","1","&#10004","[1314.2000000476837]","1","0","0","","","","","","","",""
"pit-trial","12","140838","0.0-2.0-4.4-0.4","battery-v0.2","","""event"",""trial"",""time""
""fullscreenenter"",""1"",""3904""
","
","
","""event"",""trial"",""time""
""fullscreenenter"",""1"",""3904""
","
","","","542.8000000715256","","","23","5240","395","&#9784;","elianto","#FFFFF080"," "," ","1","&#10004","[1402.5]","1","0","0","","","","","","","",""
"pit-instructions","13","162817","0.0-2.0-5.0","battery-v0.2","","""event"",""trial"",""time""
""fullscreenenter"",""1"",""3904""
","
","
","""event"",""trial"",""time""
""fullscreenenter"",""1"",""3904""
","
","","[{""page_index"":0,""viewing_time"":5703.5},{""page_index"":1,""viewing_time"":5690.199999928474},{""page_index"":2,""viewing_time"":5007.200000047684},{""page_index"":3,""viewing_time"":5579.100000023842}]","21980.600000023842","","","","","","","","","","","","","","","","","","","","","","","",""
"pit-trial","14","167697","0.0-2.0-6.0-0.0","battery-v0.2","","""event"",""trial"",""time""
""fullscreenenter"",""1"",""3904""
","
","
","""event"",""trial"",""time""
""fullscreenenter"",""1"",""3904""
","
","","","-1","","","23","5240","395","&#9854;","elianto","#FFFFF080","-1","-1","1","&#10004","[]","0","0","1","","","","","","","",""
"pit-trial","15","172592","0.0-2.0-6.1-0.1","battery-v0.2","","""event"",""trial"",""time""
""fullscreenenter"",""1"",""3904""
","
","
","""event"",""trial"",""time""
""fullscreenenter"",""1"",""3904""
","
","","","-1","","","23","5240","395","&#9854;","elianto","#FFFFF080","-1","-1","1","&#10004","[]","0","0","1","","","","","","","",""
"pit-trial","16","177455","0.0-2.0-6.2-0.2","battery-v0.2","","""event"",""trial"",""time""
""fullscreenenter"",""1"",""3904""
","
","
","""event"",""trial"",""time""
""fullscreenenter"",""1"",""3904""
","
","","","-1","","","23","5240","395","&#9854;","elianto","#FFFFF080","-1","-1","1","&#10004","[]","0","0","1","","","","","","","",""
"pit-trial","17","182340","0.0-2.0-6.3-0.3","battery-v0.2","","""event"",""trial"",""time""
""fullscreenenter"",""1"",""3904""
","
","
","""event"",""trial"",""time""
""fullscreenenter"",""1"",""3904""
","
","","","-1","","","23","5240","395","&#9854;","elianto","#FFFFF080","-1","-1","1","&#10004","[]","0","0","1","","","","","","","",""
"pit-trial","18","187229","0.0-2.0-6.4-0.4","battery-v0.2","","""event"",""trial"",""time""
""fullscreenenter"",""1"",""3904""
","
","
","""event"",""trial"",""time""
""fullscreenenter"",""1"",""3904""
","
","","","-1","","","23","5240","395","&#9854;","elianto","#FFFFF080","-1","-1","1","&#10004","[]","0","0","1","","","","","","","",""
"pit-instructions","19","316214","0.0-2.0-7.0","battery-v0.2","","""event"",""trial"",""time""
""fullscreenenter"",""1"",""3904""
","
","
","""event"",""trial"",""time""
""fullscreenenter"",""1"",""3904""
","
","","[{""page_index"":0,""viewing_time"":13306.799999952316},{""page_index"":1,""viewing_time"":7825.300000071526},{""page_index"":2,""viewing_time"":7094.399999976158},{""page_index"":3,""viewing_time"":6301.5},{""page_index"":4,""viewing_time"":6239.699999928474},{""page_index"":5,""viewing_time"":5921.200000047684},{""page_index"":6,""viewing_time"":5765.5},{""page_index"":7,""viewing_time"":7429.600000023842},{""page_index"":8,""viewing_time"":7280},{""page_index"":9,""viewing_time"":7092.199999928474},{""page_index"":10,""viewing_time"":7429.5},{""page_index"":11,""viewing_time"":4869.700000047684},{""page_index"":12,""viewing_time"":7157.299999952316},{""page_index"":13,""viewing_time"":7040.400000095367},{""page_index"":14,""viewing_time"":7381.099999904633},{""page_index"":15,""viewing_time"":7001.5},{""page_index"":16,""viewing_time"":6567.600000023842},{""page_index"":17,""viewing_time"":7264.600000023842}]","128968.60000002384","","","","","","","","","","","","","","","","","","","","","","","",""
"pit-trial","20","319730","0.0-2.0-8.0-0.0","battery-v0.2","","""event"",""trial"",""time""
""fullscreenenter"",""1"",""3904""
","
","
","""event"",""trial"",""time""
""fullscreenenter"",""1"",""3904""
","
","","","648.6000000238419","","","23","5240","395","&#9776;","elianto","#3366ff99"," "," ","1","+10","[1508.3999999761581]","1","0","1","","","","","","","",""
"pit-trial","21","323167","0.0-2.0-8.0-1.0","battery-v0.2","","""event"",""trial"",""time""
""fullscreenenter"",""1"",""3904""
","
","
","""event"",""trial"",""time""
""fullscreenenter"",""1"",""3904""
","
","","","569.6000000238419","","","23","5240","395","&#9776;","elianto","#3366ff99"," "," ","1","+10","[1423.1999999284744]","1","0","1","","","","","","","",""
"pit-trial","22","326520","0.0-2.0-8.0-2.0","battery-v0.2","","""event"",""trial"",""time""
""fullscreenenter"",""1"",""3904""
","
","
","""event"",""trial"",""time""
""fullscreenenter"",""1"",""3904""
","
","","","482.5","","","23","5240","395","&#9776;","elianto","#3366ff99"," "," ","1","+10","[1334.5]","1","0","1","","","","","","","",""
"pit-trial","23","329832","0.0-2.0-8.0-3.0","battery-v0.2","","""event"",""trial"",""time""
""fullscreenenter"",""1"",""3904""
","
","
","""event"",""trial"",""time""
""fullscreenenter"",""1"",""3904""
","
","","","446.7999999523163","","","23","5240","395","&#9776;","elianto","#3366ff99"," "," ","1","0","[1301.6000000238419]","1","0","1","","","","","","","",""
"pit-trial","24","333137","0.0-2.0-8.0-4.0","battery-v0.2","","""event"",""trial"",""time""
""fullscreenenter"",""1"",""3904""
","
","
","""event"",""trial"",""time""
""fullscreenenter"",""1"",""3904""
","
","","","431.60000002384186","","","23","5240","395","&#9776;","elianto","#3366ff99"," "," ","1","+10","[1284.8999999761581]","1","0","1","","","","","","","",""
"pit-trial","25","336532","0.0-2.0-8.1-0.1","battery-v0.2","","""event"",""trial"",""time""
""fullscreenenter"",""1"",""3904""
","
","
","""event"",""trial"",""time""
""fullscreenenter"",""1"",""3904""
","
","","","523.3000000715256","","","23","5240","395","&#9776;","elianto","#3366ff99"," "," ","1","+10","[1382.3999999761581]","1","0","1","","","","","","","",""
"pit-trial","26","339882","0.0-2.0-8.1-1.1","battery-v0.2","","""event"",""trial"",""time""
""fullscreenenter"",""1"",""3904""
","
","
","""event"",""trial"",""time""
""fullscreenenter"",""1"",""3904""
","
","","","484.5","","","23","5240","395","&#9776;","elianto","#3366ff99"," "," ","1","+10","[1341.1000000238419]","1","0","1","","","","","","","",""
"pit-trial","27","343265","0.0-2.0-8.1-2.1","battery-v0.2","","""event"",""trial"",""time""
""fullscreenenter"",""1"",""3904""
","
","
","""event"",""trial"",""time""
""fullscreenenter"",""1"",""3904""
","
","","","509","","","23","5240","395","&#9776;","elianto","#3366ff99"," "," ","1","+10","[1365.1000000238419]","1","0","1","","","","","","","",""
"pit-trial","28","346612","0.0-2.0-8.1-3.1","battery-v0.2","","""event"",""trial"",""time""
""fullscreenenter"",""1"",""3904""
","
","
","""event"",""trial"",""time""
""fullscreenenter"",""1"",""3904""
","
","","","475.5","","","23","5240","395","&#9776;","elianto","#3366ff99"," "," ","1","0","[1330.9000000953674]","1","0","1","","","","","","","",""
"pit-trial","29","350075","0.0-2.0-8.1-4.1","battery-v0.2","","""event"",""trial"",""time""
""fullscreenenter"",""1"",""3904""
","
","
","""event"",""trial"",""time""
""fullscreenenter"",""1"",""3904""
","
","","","598.8999999761581","","","23","5240","395","&#9776;","elianto","#3366ff99"," "," ","1","+10","[1452.5]","1","0","1","","","","","","","",""
"pit-trial","30","353418","0.0-2.0-8.2-0.2","battery-v0.2","","""event"",""trial"",""time""
""fullscreenenter"",""1"",""3904""
","
","
","""event"",""trial"",""time""
""fullscreenenter"",""1"",""3904""
","
","","","473","","","23","5240","395","&#9776;","elianto","#3366ff99"," "," ","1","+10","[1332]","1","0","1","","","","","","","",""
"pit-trial","31","356774","0.0-2.0-8.2-1.2","battery-v0.2","","""event"",""trial"",""time""
""fullscreenenter"",""1"",""3904""
","
","
","""event"",""trial"",""time""
""fullscreenenter"",""1"",""3904""
","
","","","490.10000002384186","","","23","5240","395","&#9776;","elianto","#3366ff99"," "," ","1","+10","[1340.6000000238419]","1","0","1","","","","","","","",""
"pit-trial","32","360034","0.0-2.0-8.2-2.2","battery-v0.2","","""event"",""trial"",""time""
""fullscreenenter"",""1"",""3904""
","
","
","""event"",""trial"",""time""
""fullscreenenter"",""1"",""3904""
","
","","","395.10000002384186","","","23","5240","395","&#9776;","elianto","#3366ff99"," "," ","1","+10","[1250.7000000476837]","1","0","1","","","","","","","",""
"pit-trial","33","363152","0.0-2.0-8.2-3.2","battery-v0.2","","""event"",""trial"",""time""
""fullscreenenter"",""1"",""3904""
","
","
","""event"",""trial"",""time""
""fullscreenenter"",""1"",""3904""
","
","","","254.90000009536743","","","23","5240","395","&#9776;","elianto","#3366ff99"," "," ","1","0","[1111.8000000715256]","1","0","1","","","","","","","",""
"pit-trial","34","366402","0.0-2.0-8.2-4.2","battery-v0.2","","""event"",""trial"",""time""
""fullscreenenter"",""1"",""3904""
","
","
","""event"",""trial"",""time""
""fullscreenenter"",""1"",""3904""
","
","","","388","","","23","5240","395","&#9776;","elianto","#3366ff99"," "," ","1","+10","[1239.7999999523163]","1","0","1","","","","","","","",""
"call-function","35","366404","0.0-2.0-9.0","battery-v0.2","","""event"",""trial"",""time""
""fullscreenenter"",""1"",""3904""
","
","
","""event"",""trial"",""time""
""fullscreenenter"",""1"",""3904""
","
","","","","","","","","","","","","","","","","","","","","","","","","","","",""
"pit-instructions","36","410541","0.0-2.0-10.0","battery-v0.2","","""event"",""trial"",""time""
""fullscreenenter"",""1"",""3904""
","
","
","""event"",""trial"",""time""
""fullscreenenter"",""1"",""3904""
","
","","[{""page_index"":0,""viewing_time"":6974.100000023842},{""page_index"":1,""viewing_time"":10217.399999976158},{""page_index"":2,""viewing_time"":9267.300000071526},{""page_index"":3,""viewing_time"":9426.5},{""page_index"":4,""viewing_time"":8255.699999928474}]","44141.40000009537","","","","","","","","","","","","","","","","","","","","","","","",""
"pit-trial","37","413939","0.0-2.0-11.0-0.0","battery-v0.2","","""event"",""trial"",""time""
""fullscreenenter"",""1"",""3904""
","
","
","""event"",""trial"",""time""
""fullscreenenter"",""1"",""3904""
","
","","","540.5","","","23","5240","395","&#9761;","elianto","#3366ff99","-1"," ","0","0","[1392.8999999761581]","1","0","2","","","","","","","",""
"pit-trial","38","418812","0.0-2.0-11.0-1.0","battery-v0.2","","""event"",""trial"",""time""
""fullscreenenter"",""1"",""3904""
","
","
","""event"",""trial"",""time""
""fullscreenenter"",""1"",""3904""
","
","","","-1","","","23","5240","395","&#9761;","elianto","#3366ff99","-1","-1","1","+10","[]","0","0","2","","","","","","","",""
"pit-trial","39","423701","0.0-2.0-11.0-2.0","battery-v0.2","","""event"",""trial"",""time""
""fullscreenenter"",""1"",""3904""
","
","
","""event"",""trial"",""time""
""fullscreenenter"",""1"",""3904""
","
","","","-1","","","23","5240","395","&#9761;","elianto","#3366ff99","-1","-1","1","+10","[]","0","0","2","","","","","","","",""
"pit-trial","40","428598","0.0-2.0-11.0-3.0","battery-v0.2","","""event"",""trial"",""time""
""fullscreenenter"",""1"",""3904""
","
","
","""event"",""trial"",""time""
""fullscreenenter"",""1"",""3904""
","
","","","-1","","","23","5240","395","&#9761;","elianto","#3366ff99","-1","-1","1","0","[]","0","0","2","","","","","","","",""
"pit-trial","41","433483","0.0-2.0-11.0-4.0","battery-v0.2","","""event"",""trial"",""time""
""fullscreenenter"",""1"",""3904""
","
","
","""event"",""trial"",""time""
""fullscreenenter"",""1"",""3904""
","
","","","-1","","","23","5240","395","&#9761;","elianto","#3366ff99","-1","-1","1","+10","[]","0","0","2","","","","","","","",""
"pit-trial","42","438364","0.0-2.0-11.1-0.1","battery-v0.2","","""event"",""trial"",""time""
""fullscreenenter"",""1"",""3904""
","
","
","""event"",""trial"",""time""
""fullscreenenter"",""1"",""3904""
","
","","","-1","","","23","5240","395","&#9761;","elianto","#3366ff99","-1","-1","1","+10","[]","0","0","2","","","","","","","",""
"pit-trial","43","443239","0.0-2.0-11.1-1.1","battery-v0.2","","""event"",""trial"",""time""
""fullscreenenter"",""1"",""3904""
","
","
","""event"",""trial"",""time""
""fullscreenenter"",""1"",""3904""
","
","","","-1","","","23","5240","395","&#9761;","elianto","#3366ff99","-1","-1","1","+10","[]","0","0","2","","","","","","","",""
"pit-trial","44","448107","0.0-2.0-11.1-2.1","battery-v0.2","","""event"",""trial"",""time""
""fullscreenenter"",""1"",""3904""
","
","
","""event"",""trial"",""time""
""fullscreenenter"",""1"",""3904""
","
","","","-1","","","23","5240","395","&#9761;","elianto","#3366ff99","-1","-1","1","+10","[]","0","0","2","","","","","","","",""
"pit-trial","45","452974","0.0-2.0-11.1-3.1","battery-v0.2","","""event"",""trial"",""time""
""fullscreenenter"",""1"",""3904""
","
","
","""event"",""trial"",""time""
""fullscreenenter"",""1"",""3904""
","
","","","-1","","","23","5240","395","&#9761;","elianto","#3366ff99","-1","-1","1","0","[]","0","0","2","","","","","","","",""
"pit-trial","46","457856","0.0-2.0-11.1-4.1","battery-v0.2","","""event"",""trial"",""time""
""fullscreenenter"",""1"",""3904""
","
","
","""event"",""trial"",""time""
""fullscreenenter"",""1"",""3904""
","
","","","-1","","","23","5240","395","&#9761;","elianto","#3366ff99","-1","-1","1","+10","[]","0","0","2","","","","","","","",""
"pit-trial","47","462728","0.0-2.0-11.2-0.2","battery-v0.2","","""event"",""trial"",""time""
""fullscreenenter"",""1"",""3904""
","
","
","""event"",""trial"",""time""
""fullscreenenter"",""1"",""3904""
","
","","","-1","","","23","5240","395","&#9761;","elianto","#3366ff99","-1","-1","1","+10","[]","0","0","2","","","","","","","",""
"pit-trial","48","467597","0.0-2.0-11.2-1.2","battery-v0.2","","""event"",""trial"",""time""
""fullscreenenter"",""1"",""3904""
","
","
","""event"",""trial"",""time""
""fullscreenenter"",""1"",""3904""
","
","","","-1","","","23","5240","395","&#9761;","elianto","#3366ff99","-1","-1","1","+10","[]","0","0","2","","","","","","","",""
"pit-trial","49","472480","0.0-2.0-11.2-2.2","battery-v0.2","","""event"",""trial"",""time""
""fullscreenenter"",""1"",""3904""
","
","
","""event"",""trial"",""time""
""fullscreenenter"",""1"",""3904""
","
","","","-1","","","23","5240","395","&#9761;","elianto","#3366ff99","-1","-1","1","+10","[]","0","0","2","","","","","","","",""
"pit-trial","50","477349","0.0-2.0-11.2-3.2","battery-v0.2","","""event"",""trial"",""time""
""fullscreenenter"",""1"",""3904""
","
","
","""event"",""trial"",""time""
""fullscreenenter"",""1"",""3904""
","
","","","-1","","","23","5240","395","&#9761;","elianto","#3366ff99","-1","-1","1","0","[]","0","0","2","","","","","","","",""
"pit-trial","51","482216","0.0-2.0-11.2-4.2","battery-v0.2","","""event"",""trial"",""time""
""fullscreenenter"",""1"",""3904""
","
","
","""event"",""trial"",""time""
""fullscreenenter"",""1"",""3904""
","
","","","-1","","","23","5240","395","&#9761;","elianto","#3366ff99","-1","-1","1","+10","[]","0","0","2","","","","","","","",""
"pit-trial","52","487089","0.0-2.0-11.3-0.3","battery-v0.2","","""event"",""trial"",""time""
""fullscreenenter"",""1"",""3904""
","
","
","""event"",""trial"",""time""
""fullscreenenter"",""1"",""3904""
","
","","","-1","","","23","5240","395","&#9761;","elianto","#3366ff99","-1","-1","1","+10","[]","0","0","2","","","","","","","",""
"pit-trial","53","491971","0.0-2.0-11.3-1.3","battery-v0.2","","""event"",""trial"",""time""
""fullscreenenter"",""1"",""3904""
","
","
","""event"",""trial"",""time""
""fullscreenenter"",""1"",""3904""
","
","","","-1","","","23","5240","395","&#9761;","elianto","#3366ff99","-1","-1","1","+10","[]","0","0","2","","","","","","","",""
"pit-trial","54","496844","0.0-2.0-11.3-2.3","battery-v0.2","","""event"",""trial"",""time""
""fullscreenenter"",""1"",""3904""
","
","
","""event"",""trial"",""time""
""fullscreenenter"",""1"",""3904""
","
","","","-1","","","23","5240","395","&#9761;","elianto","#3366ff99","-1","-1","1","+10","[]","0","0","2","","","","","","","",""
"pit-trial","55","501711","0.0-2.0-11.3-3.3","battery-v0.2","","""event"",""trial"",""time""
""fullscreenenter"",""1"",""3904""
","
","
","""event"",""trial"",""time""
""fullscreenenter"",""1"",""3904""
","
","","","-1","","","23","5240","395","&#9761;","elianto","#3366ff99","-1","-1","1","0","[]","0","0","2","","","","","","","",""
"pit-trial","56","506577","0.0-2.0-11.3-4.3","battery-v0.2","","""event"",""trial"",""time""
""fullscreenenter"",""1"",""3904""
","
","
","""event"",""trial"",""time""
""fullscreenenter"",""1"",""3904""
","
","","","-1","","","23","5240","395","&#9761;","elianto","#3366ff99","-1","-1","1","+10","[]","0","0","2","","","","","","","",""
"call-function","57","506579","0.0-2.0-12.0","battery-v0.2","","""event"",""trial"",""time""
""fullscreenenter"",""1"",""3904""
","
","
","""event"",""trial"",""time""
""fullscreenenter"",""1"",""3904""
","
","","","","","","","","","","","","","","","","","","","","","","","","","","",""
"pit-instructions","58","540589","0.0-2.0-13.0","battery-v0.2","","""event"",""trial"",""time""
""fullscreenenter"",""1"",""3904""
","
","
","""event"",""trial"",""time""
""fullscreenenter"",""1"",""3904""
","
","","[{""page_index"":0,""viewing_time"":6101.800000071526},{""page_index"":1,""viewing_time"":7779.199999928474},{""page_index"":2,""viewing_time"":3876.100000023842},{""page_index"":3,""viewing_time"":10795.100000023842},{""page_index"":4,""viewing_time"":5453.899999976158}]","34007.40000009537","","","","","","","","","","","","","","","","","","","","","","","",""
"pit-trial","59","545468","0.0-2.0-14.0-0.0","battery-v0.2","","""event"",""trial"",""time""
""fullscreenenter"",""1"",""3904""
","
","
","""event"",""trial"",""time""
""fullscreenenter"",""1"",""3904""
","
","","","-1","","","23","5240","395","&#9826;","elianto","#f73b6a7A","-1","-1","1","0","[]","0","0","3","","","","","","","",""
"pit-trial","60","550352","0.0-2.0-14.0-1.0","battery-v0.2","","""event"",""trial"",""time""
""fullscreenenter"",""1"",""3904""
","
","
","""event"",""trial"",""time""
""fullscreenenter"",""1"",""3904""
","
","","","-1","","","23","5240","395","&#9826;","elianto","#f73b6a7A","-1","-1","1","0","[]","0","0","3","","","","","","","",""
"pit-trial","61","555237","0.0-2.0-14.0-2.0","battery-v0.2","","""event"",""trial"",""time""
""fullscreenenter"",""1"",""3904""
","
","
","""event"",""trial"",""time""
""fullscreenenter"",""1"",""3904""
","
","","","-1","","","23","5240","395","&#9826;","elianto","#f73b6a7A","-1","-1","1","0","[]","0","0","3","","","","","","","",""
"pit-trial","62","560118","0.0-2.0-14.0-3.0","battery-v0.2","","""event"",""trial"",""time""
""fullscreenenter"",""1"",""3904""
","
","
","""event"",""trial"",""time""
""fullscreenenter"",""1"",""3904""
","
","","","-1","","","23","5240","395","&#9826;","elianto","#f73b6a7A","-1","-1","1","-10","[]","0","0","3","","","","","","","",""
"pit-trial","63","564997","0.0-2.0-14.0-4.0","battery-v0.2","","""event"",""trial"",""time""
""fullscreenenter"",""1"",""3904""
","
","
","""event"",""trial"",""time""
""fullscreenenter"",""1"",""3904""
","
","","","-1","","","23","5240","395","&#9826;","elianto","#f73b6a7A","-1","-1","1","0","[]","0","0","3","","","","","","","",""
"pit-trial","64","569872","0.0-2.0-14.1-0.1","battery-v0.2","","""event"",""trial"",""time""
""fullscreenenter"",""1"",""3904""
","
","
","""event"",""trial"",""time""
""fullscreenenter"",""1"",""3904""
","
","","","-1","","","23","5240","395","&#9826;","elianto","#f73b6a7A","-1","-1","1","0","[]","0","0","3","","","","","","","",""
"pit-trial","65","574739","0.0-2.0-14.1-1.1","battery-v0.2","","""event"",""trial"",""time""
""fullscreenenter"",""1"",""3904""
","
","
","""event"",""trial"",""time""
""fullscreenenter"",""1"",""3904""
","
","","","-1","","","23","5240","395","&#9826;","elianto","#f73b6a7A","-1","-1","1","0","[]","0","0","3","","","","","","","",""
"pit-trial","66","579610","0.0-2.0-14.1-2.1","battery-v0.2","","""event"",""trial"",""time""
""fullscreenenter"",""1"",""3904""
","
","
","""event"",""trial"",""time""
""fullscreenenter"",""1"",""3904""
","
","","","-1","","","23","5240","395","&#9826;","elianto","#f73b6a7A","-1","-1","1","0","[]","0","0","3","","","","","","","",""
"pit-trial","67","584472","0.0-2.0-14.1-3.1","battery-v0.2","","""event"",""trial"",""time""
""fullscreenenter"",""1"",""3904""
","
","
","""event"",""trial"",""time""
""fullscreenenter"",""1"",""3904""
","
","","","-1","","","23","5240","395","&#9826;","elianto","#f73b6a7A","-1","-1","1","-10","[]","0","0","3","","","","","","","",""
"pit-trial","68","589343","0.0-2.0-14.1-4.1","battery-v0.2","","""event"",""trial"",""time""
""fullscreenenter"",""1"",""3904""
","
","
","""event"",""trial"",""time""
""fullscreenenter"",""1"",""3904""
","
","","","-1","","","23","5240","395","&#9826;","elianto","#f73b6a7A","-1","-1","1","0","[]","0","0","3","","","","","","","",""
"pit-trial","69","594210","0.0-2.0-14.2-0.2","battery-v0.2","","""event"",""trial"",""time""
""fullscreenenter"",""1"",""3904""
","
","
","""event"",""trial"",""time""
""fullscreenenter"",""1"",""3904""
","
","","","-1","","","23","5240","395","&#9826;","elianto","#f73b6a7A","-1","-1","1","0","[]","0","0","3","","","","","","","",""
"pit-trial","70","599068","0.0-2.0-14.2-1.2","battery-v0.2","","""event"",""trial"",""time""
""fullscreenenter"",""1"",""3904""
","
","
","""event"",""trial"",""time""
""fullscreenenter"",""1"",""3904""
","
","","","-1","","","23","5240","395","&#9826;","elianto","#f73b6a7A","-1","-1","1","0","[]","0","0","3","","","","","","","",""
"pit-trial","71","603933","0.0-2.0-14.2-2.2","battery-v0.2","","""event"",""trial"",""time""
""fullscreenenter"",""1"",""3904""
","
","
","""event"",""trial"",""time""
""fullscreenenter"",""1"",""3904""
","
","","","-1","","","23","5240","395","&#9826;","elianto","#f73b6a7A","-1","-1","1","0","[]","0","0","3","","","","","","","",""
"pit-trial","72","608799","0.0-2.0-14.2-3.2","battery-v0.2","","""event"",""trial"",""time""
""fullscreenenter"",""1"",""3904""
","
","
","""event"",""trial"",""time""
""fullscreenenter"",""1"",""3904""
","
","","","-1","","","23","5240","395","&#9826;","elianto","#f73b6a7A","-1","-1","1","-10","[]","0","0","3","","","","","","","",""
"pit-trial","73","613686","0.0-2.0-14.2-4.2","battery-v0.2","","""event"",""trial"",""time""
""fullscreenenter"",""1"",""3904""
","
","
","""event"",""trial"",""time""
""fullscreenenter"",""1"",""3904""
","
","","","-1","","","23","5240","395","&#9826;","elianto","#f73b6a7A","-1","-1","1","0","[]","0","0","3","","","","","","","",""
"pit-trial","74","618556","0.0-2.0-14.3-0.3","battery-v0.2","","""event"",""trial"",""time""
""fullscreenenter"",""1"",""3904""
","
","
","""event"",""trial"",""time""
""fullscreenenter"",""1"",""3904""
","
","","","-1","","","23","5240","395","&#9826;","elianto","#f73b6a7A","-1","-1","1","0","[]","0","0","3","","","","","","","",""
"pit-trial","75","623432","0.0-2.0-14.3-1.3","battery-v0.2","","""event"",""trial"",""time""
""fullscreenenter"",""1"",""3904""
","
","
","""event"",""trial"",""time""
""fullscreenenter"",""1"",""3904""
","
","","","-1","","","23","5240","395","&#9826;","elianto","#f73b6a7A","-1","-1","1","0","[]","0","0","3","","","","","","","",""
"pit-trial","76","628310","0.0-2.0-14.3-2.3","battery-v0.2","","""event"",""trial"",""time""
""fullscreenenter"",""1"",""3904""
","
","
","""event"",""trial"",""time""
""fullscreenenter"",""1"",""3904""
","
","","","-1","","","23","5240","395","&#9826;","elianto","#f73b6a7A","-1","-1","1","0","[]","0","0","3","","","","","","","",""
"pit-trial","77","633188","0.0-2.0-14.3-3.3","battery-v0.2","","""event"",""trial"",""time""
""fullscreenenter"",""1"",""3904""
","
","
","""event"",""trial"",""time""
""fullscreenenter"",""1"",""3904""
","
","","","-1","","","23","5240","395","&#9826;","elianto","#f73b6a7A","-1","-1","1","-10","[]","0","0","3","","","","","","","",""
"pit-trial","78","638055","0.0-2.0-14.3-4.3","battery-v0.2","","""event"",""trial"",""time""
""fullscreenenter"",""1"",""3904""
","
","
","""event"",""trial"",""time""
""fullscreenenter"",""1"",""3904""
","
","","","-1","","","23","5240","395","&#9826;","elianto","#f73b6a7A","-1","-1","1","0","[]","0","0","3","","","","","","","",""
"call-function","79","638057","0.0-2.0-15.0","battery-v0.2","","""event"",""trial"",""time""
""fullscreenenter"",""1"",""3904""
","
","
","""event"",""trial"",""time""
""fullscreenenter"",""1"",""3904""
","
","","","","","","","","","","","","","","","","","","","","","","","","","","",""
"pit-instructions","80","664034","0.0-2.0-16.0","battery-v0.2","","""event"",""trial"",""time""
""fullscreenenter"",""1"",""3904""
","
","
","""event"",""trial"",""time""
""fullscreenenter"",""1"",""3904""
","
","","[{""page_index"":0,""viewing_time"":7161.600000023842},{""page_index"":1,""viewing_time"":8816.5},{""page_index"":2,""viewing_time"":4565.799999952316},{""page_index"":3,""viewing_time"":5425.700000047684}]","25970.100000023842","","","","","","","","","","","","","","","","","","","","","","","",""
"pit-trial","81","667393","0.0-2.0-17.0-0.0","battery-v0.2","","""event"",""trial"",""time""
""fullscreenenter"",""1"",""3904""
","
","
","""event"",""trial"",""time""
""fullscreenenter"",""1"",""3904""
","
","","","499.39999997615814","","","23","5240","395","&#9789;","elianto","#f73b6a7A"," "," ","1","0","[1350.2999999523163]","1","0","4","","","","","","","",""
"pit-trial","82","670765","0.0-2.0-17.0-1.0","battery-v0.2","","""event"",""trial"",""time""
""fullscreenenter"",""1"",""3904""
","
","
","""event"",""trial"",""time""
""fullscreenenter"",""1"",""3904""
","
","","","507.1999999284744","","","23","5240","395","&#9789;","elianto","#f73b6a7A"," "," ","1","0","[1360.5999999046326]","1","0","4","","","","","","","",""
"pit-trial","83","674106","0.0-2.0-17.0-2.0","battery-v0.2","","""event"",""trial"",""time""
""fullscreenenter"",""1"",""3904""
","
","
","""event"",""trial"",""time""
""fullscreenenter"",""1"",""3904""
","
","","","474.39999997615814","","","23","5240","395","&#9789;","elianto","#f73b6a7A"," "," ","1","0","[1333.7999999523163]","1","0","4","","","","","","","",""
"pit-trial","84","677463","0.0-2.0-17.0-3.0","battery-v0.2","","""event"",""trial"",""time""
""fullscreenenter"",""1"",""3904""
","
","
","""event"",""trial"",""time""
""fullscreenenter"",""1"",""3904""
","
","","","484.39999997615814","","","23","5240","395","&#9789;","elianto","#f73b6a7A"," "," ","1","-10","[1344.2000000476837]","1","0","4","","","","","","","",""
"pit-trial","85","680809","0.0-2.0-17.0-4.0","battery-v0.2","","""event"",""trial"",""time""
""fullscreenenter"",""1"",""3904""
","
","
","""event"",""trial"",""time""
""fullscreenenter"",""1"",""3904""
","
","","","475.7999999523163","","","23","5240","395","&#9789;","elianto","#f73b6a7A"," "," ","1","0","[1327.6000000238419]","1","0","4","","","","","","","",""
"pit-trial","86","684091","0.0-2.0-17.1-0.1","battery-v0.2","","""event"",""trial"",""time""
""fullscreenenter"",""1"",""3904""
","
","
","""event"",""trial"",""time""
""fullscreenenter"",""1"",""3904""
","
","","","414","","","23","5240","395","&#9789;","elianto","#f73b6a7A"," "," ","1","0","[1268]","1","0","4","","","","","","","",""
"pit-trial","87","687418","0.0-2.0-17.1-1.1","battery-v0.2","","""event"",""trial"",""time""
""fullscreenenter"",""1"",""3904""
","
","
","""event"",""trial"",""time""
""fullscreenenter"",""1"",""3904""
","
","","","464.89999997615814","","","23","5240","395","&#9789;","elianto","#f73b6a7A"," "," ","1","0","[1317.0999999046326]","1","0","4","","","","","","","",""
"pit-trial","88","690825","0.0-2.0-17.1-2.1","battery-v0.2","","""event"",""trial"",""time""
""fullscreenenter"",""1"",""3904""
","
","
","""event"",""trial"",""time""
""fullscreenenter"",""1"",""3904""
","
","","","545.1000000238419","","","23","5240","395","&#9789;","elianto","#f73b6a7A"," "," ","1","0","[1396.2999999523163]","1","0","4","","","","","","","",""
"pit-trial","89","694161","0.0-2.0-17.1-3.1","battery-v0.2","","""event"",""trial"",""time""
""fullscreenenter"",""1"",""3904""
","
","
","""event"",""trial"",""time""
""fullscreenenter"",""1"",""3904""
","
","","","477.7000000476837","","","23","5240","395","&#9789;","elianto","#f73b6a7A"," "," ","1","-10","[1331]","1","0","4","","","","","","","",""
"pit-trial","90","698293","0.0-2.0-17.1-4.1","battery-v0.2","","""event"",""trial"",""time""
""fullscreenenter"",""1"",""3904""
","
","
","""event"",""trial"",""time""
""fullscreenenter"",""1"",""3904""
","
","","","1268.6000000238419","","","23","5240","395","&#9789;","elianto","#f73b6a7A"," "," ","1","0","[2119.600000023842]","1","0","4","","","","","","","",""
"pit-trial","91","701536","0.0-2.0-17.2-0.2","battery-v0.2","","""event"",""trial"",""time""
""fullscreenenter"",""1"",""3904""
","
","
","""event"",""trial"",""time""
""fullscreenenter"",""1"",""3904""
","
","","","382.10000002384186","","","23","5240","395","&#9789;","elianto","#f73b6a7A"," "," ","1","0","[1238.3999999761581]","1","0","4","","","","","","","",""
"pit-trial","92","704884","0.0-2.0-17.2-1.2","battery-v0.2","","""event"",""trial"",""time""
""fullscreenenter"",""1"",""3904""
","
","
","""event"",""trial"",""time""
""fullscreenenter"",""1"",""3904""
","
","","","480.89999997615814","","","23","5240","395","&#9789;","elianto","#f73b6a7A"," "," ","1","0","[1337.1000000238419]","1","0","4","","","","","","","",""
"pit-trial","93","708368","0.0-2.0-17.2-2.2","battery-v0.2","","""event"",""trial"",""time""
""fullscreenenter"",""1"",""3904""
","
","
","""event"",""trial"",""time""
""fullscreenenter"",""1"",""3904""
","
","","","623","","","23","5240","395","&#9789;","elianto","#f73b6a7A"," "," ","1","0","[1478.7999999523163]","1","0","4","","","","","","","",""
"pit-trial","94","711999","0.0-2.0-17.2-3.2","battery-v0.2","","""event"",""trial"",""time""
""fullscreenenter"",""1"",""3904""
","
","
","""event"",""trial"",""time""
""fullscreenenter"",""1"",""3904""
","
","","","759.9000000953674","","","23","5240","395","&#9789;","elianto","#f73b6a7A"," "," ","1","-10","[1615.2000000476837]","1","0","4","","","","","","","",""
"pit-trial","95","715135","0.0-2.0-17.2-4.2","battery-v0.2","","""event"",""trial"",""time""
""fullscreenenter"",""1"",""3904""
","
","
","""event"",""trial"",""time""
""fullscreenenter"",""1"",""3904""
","
","","","261.09999990463257","","","23","5240","395","&#9789;","elianto","#f73b6a7A"," "," ","1","0","[1122.8000000715256]","1","0","4","","","","","","","",""
"pit-trial","96","718468","0.0-2.0-17.3-0.3","battery-v0.2","","""event"",""trial"",""time""
""fullscreenenter"",""1"",""3904""
","
","
","""event"",""trial"",""time""
""fullscreenenter"",""1"",""3904""
","
","","","466.09999990463257","","","23","5240","395","&#9789;","elianto","#f73b6a7A"," "," ","1","0","[1321.3000000715256]","1","0","4","","","","","","","",""
"pit-trial","97","721645","0.0-2.0-17.3-1.3","battery-v0.2","","""event"",""trial"",""time""
""fullscreenenter"",""1"",""3904""
","
","
","""event"",""trial"",""time""
""fullscreenenter"",""1"",""3904""
","
","","","316.7999999523163","","","23","5240","395","&#9789;","elianto","#f73b6a7A"," "," ","1","0","[1167.1999999284744]","1","0","4","","","","","","","",""
"pit-trial","98","724956","0.0-2.0-17.3-2.3","battery-v0.2","","""event"",""trial"",""time""
""fullscreenenter"",""1"",""3904""
","
","
","""event"",""trial"",""time""
""fullscreenenter"",""1"",""3904""
","
","","","450.5","","","23","5240","395","&#9789;","elianto","#f73b6a7A"," "," ","1","0","[1303.1000000238419]","1","0","4","","","","","","","",""
"pit-trial","99","728194","0.0-2.0-17.3-3.3","battery-v0.2","","""event"",""trial"",""time""
""fullscreenenter"",""1"",""3904""
","
","
","""event"",""trial"",""time""
""fullscreenenter"",""1"",""3904""
","
","","","374.5","","","23","5240","395","&#9789;","elianto","#f73b6a7A"," "," ","1","-10","[1227.1000000238419]","1","0","4","","","","","","","",""
"pit-trial","100","731551","0.0-2.0-17.3-4.3","battery-v0.2","","""event"",""trial"",""time""
""fullscreenenter"",""1"",""3904""
","
","
","""event"",""trial"",""time""
""fullscreenenter"",""1"",""3904""
","
","","","492.39999997615814","","","23","5240","395","&#9789;","elianto","#f73b6a7A"," "," ","1","0","[1345.5]","1","0","4","","","","","","","",""
"call-function","101","731553","0.0-2.0-18.0","battery-v0.2","","""event"",""trial"",""time""
""fullscreenenter"",""1"",""3904""
","
","
","""event"",""trial"",""time""
""fullscreenenter"",""1"",""3904""
","
","","","","","","","","","","","","","","","","","","","","","","","","","","",""
"pit-instructions","102","805852","0.0-2.0-19.0","battery-v0.2","","""event"",""trial"",""time""
""fullscreenenter"",""1"",""3904""
","
","
","""event"",""trial"",""time""
""fullscreenenter"",""1"",""3904""
","
","","[{""page_index"":0,""viewing_time"":6799.299999952316},{""page_index"":1,""viewing_time"":6780.800000071526},{""page_index"":2,""viewing_time"":14299.799999952316},{""page_index"":3,""viewing_time"":8357.399999976158},{""page_index"":4,""viewing_time"":8719.900000095367},{""page_index"":5,""viewing_time"":9764.299999952316},{""page_index"":6,""viewing_time"":8710.899999976158},{""page_index"":7,""viewing_time"":6511.399999976158},{""page_index"":8,""viewing_time"":4355}]","74299.29999995232","","","","","","","","","","","","","","","","","","","","","","","",""
"pit-comprehension","103","811036","0.0-2.0-20.0-0.0","battery-v0.2","","""event"",""trial"",""time""
""fullscreenenter"",""1"",""3904""
","
","
","""event"",""trial"",""time""
""fullscreenenter"",""1"",""3904""
","
","","","5176.899999976158","[""SPACE""]","0","23","5240","395","","","","","","","","","","","","","","","","","","",""
"pit-instructions","104","814356","0.0-2.0-20.0-1.0","battery-v0.2","","""event"",""trial"",""time""
""fullscreenenter"",""1"",""3904""
","
","
","""event"",""trial"",""time""
""fullscreenenter"",""1"",""3904""
","
","","[{""page_index"":0,""viewing_time"":3224.5}]","3225","","","","","","","","","","","","","","","","","","","","","","","",""
"pit-comprehension","105","820681","0.0-2.0-21.0-0.0","battery-v0.2","","""event"",""trial"",""time""
""fullscreenenter"",""1"",""3904""
","
","
","""event"",""trial"",""time""
""fullscreenenter"",""1"",""3904""
","
","","","6317.600000023842","[""10""]","0","23","5240","395","","","","","","","","","","","","","","","","","","",""
"pit-instructions","106","822582","0.0-2.0-21.0-1.0","battery-v0.2","","""event"",""trial"",""time""
""fullscreenenter"",""1"",""3904""
","
","
","""event"",""trial"",""time""
""fullscreenenter"",""1"",""3904""
","
","","[{""page_index"":0,""viewing_time"":1805.5}]","1806.2000000476837","","","","","","","","","","","","","","","","","","","","","","","",""
"pit-comprehension","107","829257","0.0-2.0-22.0-0.0","battery-v0.2","","""event"",""trial"",""time""
""fullscreenenter"",""1"",""3904""
","
","
","""event"",""trial"",""time""
""fullscreenenter"",""1"",""3904""
","
","","","6663.599999904633","[""0""]","0","23","5240","395","","","","","","","","","","","","","","","","","","",""
"pit-instructions","108","831273","0.0-2.0-22.0-1.0","battery-v0.2","","""event"",""trial"",""time""
""fullscreenenter"",""1"",""3904""
","
","
","""event"",""trial"",""time""
""fullscreenenter"",""1"",""3904""
","
","","[{""page_index"":0,""viewing_time"":1924.1000000238419}]","1924.5","","","","","","","","","","","","","","","","","","","","","","","",""
"pit-comprehension","109","840085","0.0-2.0-23.0-0.0","battery-v0.2","","""event"",""trial"",""time""
""fullscreenenter"",""1"",""3904""
","
","
","""event"",""trial"",""time""
""fullscreenenter"",""1"",""3904""
","
","","","8807.899999976158","[""True""]","0","23","5240","395","","","","","","","","","","","","","","","","","","",""
"pit-instructions","110","842071","0.0-2.0-23.0-1.0","battery-v0.2","","""event"",""trial"",""time""
""fullscreenenter"",""1"",""3904""
","
","
","""event"",""trial"",""time""
""fullscreenenter"",""1"",""3904""
","
","","[{""page_index"":0,""viewing_time"":1885.1000000238419}]","1885.5","","","","","","","","","","","","","","","","","","","","","","","",""
"pit-comprehension","111","849753","0.0-2.0-24.0-0.0","battery-v0.2","","""event"",""trial"",""time""
""fullscreenenter"",""1"",""3904""
","
","
","""event"",""trial"",""time""
""fullscreenenter"",""1"",""3904""
","
","","","7681.600000023842","[""True""]","0","23","5240","395","","","","","","","","","","","","","","","","","","",""
"pit-instructions","112","851874","0.0-2.0-24.0-1.0","battery-v0.2","","""event"",""trial"",""time""
""fullscreenenter"",""1"",""3904""
","
","
","""event"",""trial"",""time""
""fullscreenenter"",""1"",""3904""
","
","","[{""page_index"":0,""viewing_time"":2020.1000000238419}]","2020.5","","","","","","","","","","","","","","","","","","","","","","","",""
"pit-comprehension","113","860231","0.0-2.0-25.0-0.0","battery-v0.2","","""event"",""trial"",""time""
""fullscreenenter"",""1"",""3904""
","
","
","""event"",""trial"",""time""
""fullscreenenter"",""1"",""3904""
","
","","","8348.5","[""True""]","0","23","5240","395","","","","","","","","","","","","","","","","","","",""
"pit-instructions","114","862149","0.0-2.0-25.0-1.0","battery-v0.2","","""event"",""trial"",""time""
""fullscreenenter"",""1"",""3904""
","
","
","""event"",""trial"",""time""
""fullscreenenter"",""1"",""3904""
","
","","[{""page_index"":0,""viewing_time"":1846.3999999761581}]","1846.8999999761581","","","","","","","","","","","","","","","","","","","","","","","",""
"pit-comprehension","115","867034","0.0-2.0-26.0-0.0","battery-v0.2","","""event"",""trial"",""time""
""fullscreenenter"",""1"",""3904""
","
","
","""event"",""trial"",""time""
""fullscreenenter"",""1"",""3904""
","
","","","4879.600000023842","[""False""]","0","23","5240","395","","","","","","","","","","","","","","","","","","",""
"pit-instructions","116","868973","0.0-2.0-26.0-1.0","battery-v0.2","","""event"",""trial"",""time""
""fullscreenenter"",""1"",""3904""
","
","
","""event"",""trial"",""time""
""fullscreenenter"",""1"",""3904""
","
","","[{""page_index"":0,""viewing_time"":1840.1000000238419}]","1840.6000000238419","","","","","","","","","","","","","","","","","","","","","","","",""
"pit-instructions","117","886103","0.0-3.0","battery-v0.2","","""event"",""trial"",""time""
""fullscreenenter"",""1"",""3904""
","
","
","""event"",""trial"",""time""
""fullscreenenter"",""1"",""3904""
","
","","[{""page_index"":0,""viewing_time"":3900.1999999284744},{""page_index"":1,""viewing_time"":5407.800000071526},{""page_index"":2,""viewing_time"":7818.899999976158}]","17127.299999952316","","","","","","","","","","","","","","","","","","","","","","","",""
"pit-trial","118","889696","0.0-4.0","battery-v0.2","","""event"",""trial"",""time""
""fullscreenenter"",""1"",""3904""
","
","
","""event"",""trial"",""time""
""fullscreenenter"",""1"",""3904""
","
","","","716.1999999284744","","","23","5240","395","&#9733;","elianto","#3366ff99","-1"," ","0","0","[1566.5999999046326]","1","1","","","5240","1","2","2","win","no-go","0"
"pit-trial","119","893280","0.0-5.0","battery-v0.2","","""event"",""trial"",""time""
""fullscreenenter"",""1"",""3904""
","
","
","""event"",""trial"",""time""
""fullscreenenter"",""1"",""3904""
","
","","","715.8999999761581","","","23","5240","395","&#9728;","elianto","#f73b6a7A","-1"," ","0","-10","[1572.0999999046326]","1","1","","","5240","2","0","4","lose","no-go","0"
"pit-trial","120","897157","0.0-6.0","battery-v0.2","","""event"",""trial"",""time""
""fullscreenenter"",""1"",""3904""
","
","
","""event"",""trial"",""time""
""fullscreenenter"",""1"",""3904""
","
","","","1009.3999999761581","","","23","5240","395","&#9730;","elianto","#3366ff99"," "," ","1","+10","[1860.2000000476837]","1","1","","","5240","3","1","1","win","go","0"
"pit-trial","121","900898","0.0-7.0","battery-v0.2","","""event"",""trial"",""time""
""fullscreenenter"",""1"",""3904""
","
","
","""event"",""trial"",""time""
""fullscreenenter"",""1"",""3904""
","
","","","883","","","23","5240","395","&#9752;","elianto","#f73b6a7A"," "," ","1","0","[1734.3999999761581]","1","1","","","5240","4","3","3","lose","go","0"
"pit-trial","122","905780","0.0-8.0","battery-v0.2","","""event"",""trial"",""time""
""fullscreenenter"",""1"",""3904""
","
","
","""event"",""trial"",""time""
""fullscreenenter"",""1"",""3904""
","
","","","-1","","","23","5240","395","&#9728;","elianto","#f73b6a7A","-1","-1","1","0","[]","0","1","","","5240","5","0","4","lose","no-go","0"
"pit-trial","123","909529","0.0-9.0","battery-v0.2","","""event"",""trial"",""time""
""fullscreenenter"",""1"",""3904""
","
","
","""event"",""trial"",""time""
""fullscreenenter"",""1"",""3904""
","
","","","871.6000000238419","","","23","5240","395","&#9730;","elianto","#3366ff99"," "," ","1","+10","[1728.4000000953674]","1","1","","","5240","6","1","1","win","go","0"
"pit-trial","124","913702","0.0-10.0","battery-v0.2","","""event"",""trial"",""time""
""fullscreenenter"",""1"",""3904""
","
","
","""event"",""trial"",""time""
""fullscreenenter"",""1"",""3904""
","
","","","1304.5","","","23","5240","395","&#9752;","elianto","#f73b6a7A"," "," ","1","0","[2155.7999999523163]","1","1","","","5240","7","3","3","lose","go","0"
"pit-trial","125","918571","0.0-11.0","battery-v0.2","","""event"",""trial"",""time""
""fullscreenenter"",""1"",""3904""
","
","
","""event"",""trial"",""time""
""fullscreenenter"",""1"",""3904""
","
","","","-1","","","23","5240","395","&#9733;","elianto","#3366ff99","-1","-1","1","+10","[]","0","1","","","5240","8","2","2","win","no-go","0"
"pit-trial","126","923444","0.0-12.0","battery-v0.2","","""event"",""trial"",""time""
""fullscreenenter"",""1"",""3904""
","
","
","""event"",""trial"",""time""
""fullscreenenter"",""1"",""3904""
","
","","","-1","","","23","5240","395","&#9728;","elianto","#f73b6a7A","-1","-1","1","0","[]","0","1","","","5240","9","0","4","lose","no-go","0"
"pit-trial","127","926905","0.0-13.0","battery-v0.2","","""event"",""trial"",""time""
""fullscreenenter"",""1"",""3904""
","
","
","""event"",""trial"",""time""
""fullscreenenter"",""1"",""3904""
","
","","","585.1000000238419","","","23","5240","395","&#9730;","elianto","#3366ff99"," "," ","1","+10","[1440.7999999523163]","1","1","","","5240","10","1","1","win","go","0"
"pit-trial","128","930517","0.0-14.0","battery-v0.2","","""event"",""trial"",""time""
""fullscreenenter"",""1"",""3904""
","
","
","""event"",""trial"",""time""
""fullscreenenter"",""1"",""3904""
","
","","","744.3999999761581","","","23","5240","395","&#9752;","elianto","#f73b6a7A"," "," ","1","0","[1596.1999999284744]","1","1","","","5240","11","3","3","lose","go","0"
"pit-trial","129","935387","0.0-15.0","battery-v0.2","","""event"",""trial"",""time""
""fullscreenenter"",""1"",""3904""
","
","
","""event"",""trial"",""time""
""fullscreenenter"",""1"",""3904""
","
","","","-1","","","23","5240","395","&#9733;","elianto","#3366ff99","-1","-1","1","+10","[]","0","1","","","5240","12","2","2","win","no-go","0"
"pit-trial","130","940270","0.0-16.0","battery-v0.2","","""event"",""trial"",""time""
""fullscreenenter"",""1"",""3904""
","
","
","""event"",""trial"",""time""
""fullscreenenter"",""1"",""3904""
","
","","","-1","","","23","5240","395","&#9733;","elianto","#3366ff99","-1","-1","1","0","[]","0","1","","","5240","13","2","2","win","no-go","1"
"pit-trial","131","943833","0.0-17.0","battery-v0.2","","""event"",""trial"",""time""
""fullscreenenter"",""1"",""3904""
","
","
","""event"",""trial"",""time""
""fullscreenenter"",""1"",""3904""
","
","","","700.7000000476837","","","23","5240","395","&#9752;","elianto","#f73b6a7A"," "," ","1","0","[1554.8999999761581]","1","1","","","5240","14","3","3","lose","go","0"
"pit-trial","132","948702","0.0-18.0","battery-v0.2","","""event"",""trial"",""time""
""fullscreenenter"",""1"",""3904""
","
","
","""event"",""trial"",""time""
""fullscreenenter"",""1"",""3904""
","
","","","-1","","","23","5240","395","&#9728;","elianto","#f73b6a7A","-1","-1","1","0","[]","0","1","","","5240","15","0","4","lose","no-go","0"
"pit-trial","133","952137","0.0-19.0","battery-v0.2","","""event"",""trial"",""time""
""fullscreenenter"",""1"",""3904""
","
","
","""event"",""trial"",""time""
""fullscreenenter"",""1"",""3904""
","
","","","569.8000000715256","","","23","5240","395","&#9730;","elianto","#3366ff99"," "," ","1","+10","[1423.3000000715256]","1","1","","","5240","16","1","1","win","go","0"
"pit-trial","134","955797","0.0-20.0","battery-v0.2","","""event"",""trial"",""time""
""fullscreenenter"",""1"",""3904""
","
","
","""event"",""trial"",""time""
""fullscreenenter"",""1"",""3904""
","
","","","791.5","","","23","5240","395","&#9730;","elianto","#3366ff99"," "," ","1","+10","[1644.2999999523163]","1","1","","","5240","17","1","1","win","go","0"
"pit-trial","135","960670","0.0-21.0","battery-v0.2","","""event"",""trial"",""time""
""fullscreenenter"",""1"",""3904""
","
","
","""event"",""trial"",""time""
""fullscreenenter"",""1"",""3904""
","
","","","-1","","","23","5240","395","&#9733;","elianto","#3366ff99","-1","-1","1","+10","[]","0","1","","","5240","18","2","2","win","no-go","0"
"pit-trial","136","964260","0.0-22.0","battery-v0.2","","""event"",""trial"",""time""
""fullscreenenter"",""1"",""3904""
","
","
","""event"",""trial"",""time""
""fullscreenenter"",""1"",""3904""
","
","","","717.1000000238419","","","23","5240","395","&#9752;","elianto","#f73b6a7A"," "," ","1","-10","[1567.2000000476837]","1","1","","","5240","19","3","3","lose","go","1"
"pit-trial","137","969139","0.0-23.0","battery-v0.2","","""event"",""trial"",""time""
""fullscreenenter"",""1"",""3904""
","
","
","""event"",""trial"",""time""
""fullscreenenter"",""1"",""3904""
","
","","","-1","","","23","5240","395","&#9728;","elianto","#f73b6a7A","-1","-1","1","-10","[]","0","1","","","5240","20","0","4","lose","no-go","1"
"pit-instructions","138","988711","0.0-24.0","battery-v0.2","","""event"",""trial"",""time""
""fullscreenenter"",""1"",""3904""
","
","
","""event"",""trial"",""time""
""fullscreenenter"",""1"",""3904""
","
","","[{""page_index"":0,""viewing_time"":11413.5},{""page_index"":1,""viewing_time"":8156.799999952316}]","19570.700000047684","","","","","","","","","","","","","","","","","","","","","","","",""
"pit-trial","139","992205","0.0-25.0","battery-v0.2","","""event"",""trial"",""time""
""fullscreenenter"",""1"",""3904""
","
","
","""event"",""trial"",""time""
""fullscreenenter"",""1"",""3904""
","
","","","606.1000000238419","","","23","5240","395","y","elianto","#f73b6a7A"," "," ","1","-10","[1464.7000000476837]","1","2","","","5240","21","2","3","lose","go","1"
"pit-trial","140","995838","0.0-26.0","battery-v0.2","","""event"",""trial"",""time""
""fullscreenenter"",""1"",""3904""
","
","
","""event"",""trial"",""time""
""fullscreenenter"",""1"",""3904""
","
","","","777.7999999523163","","","23","5240","395","r","elianto","#3366ff99","-1"," ","0","0","[1628.8999999761581]","1","2","","","5240","22","1","2","win","no-go","0"
"pit-trial","141","999542","0.0-27.0","battery-v0.2","","""event"",""trial"",""time""
""fullscreenenter"",""1"",""3904""
","
","
","""event"",""trial"",""time""
""fullscreenenter"",""1"",""3904""
","
","","","838.0999999046326","","","23","5240","395","h","elianto","#f73b6a7A","-1"," ","0","-10","[1691.5]","1","2","","","5240","23","3","4","lose","no-go","0"
"pit-trial","142","1003319","0.0-28.0","battery-v0.2","","""event"",""trial"",""time""
""fullscreenenter"",""1"",""3904""
","
","
","""event"",""trial"",""time""
""fullscreenenter"",""1"",""3904""
","
","","","908.2999999523163","","","23","5240","395","m","elianto","#f73b6a7A"," "," ","1","0","[1761.2000000476837]","1","2","","","5240","24","0","3","lose","go","0"
"pit-trial","143","1007179","0.0-29.0","battery-v0.2","","""event"",""trial"",""time""
""fullscreenenter"",""1"",""3904""
","
","
","""event"",""trial"",""time""
""fullscreenenter"",""1"",""3904""
","
","","","997","","","23","5240","395","r","elianto","#3366ff99","-1"," ","0","0","[1849.6000000238419]","1","2","","","5240","25","1","2","win","no-go","0"
"pit-trial","144","1010677","0.0-30.0","battery-v0.2","","""event"",""trial"",""time""
""fullscreenenter"",""1"",""3904""
","
","
","""event"",""trial"",""time""
""fullscreenenter"",""1"",""3904""
","
","","","635.3999999761581","","","23","5240","395","m","elianto","#f73b6a7A"," "," ","1","0","[1489]","1","2","","","5240","26","0","3","lose","go","0"
"pit-trial","145","1015552","0.0-31.0","battery-v0.2","","""event"",""trial"",""time""
""fullscreenenter"",""1"",""3904""
","
","
","""event"",""trial"",""time""
""fullscreenenter"",""1"",""3904""
","
","","","-1","","","23","5240","395","y","elianto","#f73b6a7A"," ","-1","0","-10","[]","0","2","","","5240","27","2","3","lose","go","0"
"pit-trial","146","1020418","0.0-32.0","battery-v0.2","","""event"",""trial"",""time""
""fullscreenenter"",""1"",""3904""
","
","
","""event"",""trial"",""time""
""fullscreenenter"",""1"",""3904""
","
","","","-1","","","23","5240","395","h","elianto","#f73b6a7A","-1","-1","1","0","[]","0","2","","","5240","28","3","4","lose","no-go","0"
"pit-trial","147","1025296","0.0-33.0","battery-v0.2","","""event"",""trial"",""time""
""fullscreenenter"",""1"",""3904""
","
","
","""event"",""trial"",""time""
""fullscreenenter"",""1"",""3904""
","
","","","-1","","","23","5240","395","h","elianto","#f73b6a7A","-1","-1","1","0","[]","0","2","","","5240","29","3","4","lose","no-go","0"
"pit-trial","148","1028739","0.0-34.0","battery-v0.2","","""event"",""trial"",""time""
""fullscreenenter"",""1"",""3904""
","
","
","""event"",""trial"",""time""
""fullscreenenter"",""1"",""3904""
","
","","","572.6000000238419","","","23","5240","395","m","elianto","#f73b6a7A"," "," ","1","0","[1431.7000000476837]","1","2","","","5240","30","0","3","lose","go","0"
"pit-trial","149","1033607","0.0-35.0","battery-v0.2","","""event"",""trial"",""time""
""fullscreenenter"",""1"",""3904""
","
","
","""event"",""trial"",""time""
""fullscreenenter"",""1"",""3904""
","
","","","-1","","","23","5240","395","y","elianto","#f73b6a7A"," ","-1","0","0","[]","0","2","","","5240","31","2","3","lose","go","1"
"pit-trial","150","1037006","0.0-36.0","battery-v0.2","","""event"",""trial"",""time""
""fullscreenenter"",""1"",""3904""
","
","
","""event"",""trial"",""time""
""fullscreenenter"",""1"",""3904""
","
","","","529.6000000238419","","","23","5240","395","r","elianto","#3366ff99","-1"," ","0","0","[1383.5]","1","2","","","5240","32","1","2","win","no-go","0"
"pit-trial","151","1040477","0.0-37.0","battery-v0.2","","""event"",""trial"",""time""
""fullscreenenter"",""1"",""3904""
","
","
","""event"",""trial"",""time""
""fullscreenenter"",""1"",""3904""
","
","","","604.0999999046326","","","23","5240","395","r","elianto","#3366ff99","-1"," ","0","0","[1454.5999999046326]","1","2","","","5240","33","1","2","win","no-go","0"
"pit-trial","152","1044015","0.0-38.0","battery-v0.2","","""event"",""trial"",""time""
""fullscreenenter"",""1"",""3904""
","
","
","""event"",""trial"",""time""
""fullscreenenter"",""1"",""3904""
","
","","","663.4000000953674","","","23","5240","395","m","elianto","#f73b6a7A"," "," ","1","0","[1520.4000000953674]","1","2","","","5240","34","0","3","lose","go","0"
"pit-trial","153","1048891","0.0-39.0","battery-v0.2","","""event"",""trial"",""time""
""fullscreenenter"",""1"",""3904""
","
","
","""event"",""trial"",""time""
""fullscreenenter"",""1"",""3904""
","
","","","-1","","","23","5240","395","h","elianto","#f73b6a7A","-1","-1","1","-10","[]","0","2","","","5240","35","3","4","lose","no-go","1"
"pit-trial","154","1053769","0.0-40.0","battery-v0.2","","""event"",""trial"",""time""
""fullscreenenter"",""1"",""3904""
","
","
","""event"",""trial"",""time""
""fullscreenenter"",""1"",""3904""
","
","","","-1","","","23","5240","395","y","elianto","#f73b6a7A"," ","-1","0","-10","[]","0","2","","","5240","36","2","3","lose","go","0"
"pit-trial","155","1058654","0.0-41.0","battery-v0.2","","""event"",""trial"",""time""
""fullscreenenter"",""1"",""3904""
","
","
","""event"",""trial"",""time""
""fullscreenenter"",""1"",""3904""
","
","","","-1","","","23","5240","395","r","elianto","#3366ff99","-1","-1","1","+10","[]","0","2","","","5240","37","1","2","win","no-go","0"
"pit-trial","156","1062084","0.0-42.0","battery-v0.2","","""event"",""trial"",""time""
""fullscreenenter"",""1"",""3904""
","
","
","""event"",""trial"",""time""
""fullscreenenter"",""1"",""3904""
","
","","","553.7000000476837","","","23","5240","395","m","elianto","#f73b6a7A"," "," ","1","0","[1407.1000000238419]","1","2","","","5240","38","0","3","lose","go","0"
"pit-trial","157","1065656","0.0-43.0","battery-v0.2","","""event"",""trial"",""time""
""fullscreenenter"",""1"",""3904""
","
","
","""event"",""trial"",""time""
""fullscreenenter"",""1"",""3904""
","
","","","712.3999999761581","","","23","5240","395","y","elianto","#f73b6a7A"," "," ","1","0","[1563.8999999761581]","1","2","","","5240","39","2","3","lose","go","0"
"pit-trial","158","1070523","0.0-44.0","battery-v0.2","","""event"",""trial"",""time""
""fullscreenenter"",""1"",""3904""
","
","
","""event"",""trial"",""time""
""fullscreenenter"",""1"",""3904""
","
","","","-1","","","23","5240","395","h","elianto","#f73b6a7A","-1","-1","1","0","[]","0","2","","","5240","40","3","4","lose","no-go","0"
"pit-trial","159","1073982","0.0-45.0","battery-v0.2","","""event"",""trial"",""time""
""fullscreenenter"",""1"",""3904""
","
","
","""event"",""trial"",""time""
""fullscreenenter"",""1"",""3904""
","
","","","593.2000000476837","","","23","5240","395","y","elianto","#f73b6a7A"," "," ","1","0","[1448]","1","2","","","5240","41","2","3","lose","go","0"
"pit-trial","160","1077416","0.0-46.0","battery-v0.2","","""event"",""trial"",""time""
""fullscreenenter"",""1"",""3904""
","
","
","""event"",""trial"",""time""
""fullscreenenter"",""1"",""3904""
","
","","","567.5","","","23","5240","395","m","elianto","#f73b6a7A"," "," ","1","0","[1419.1000000238419]","1","2","","","5240","42","0","3","lose","go","0"
"pit-trial","161","1082288","0.0-47.0","battery-v0.2","","""event"",""trial"",""time""
""fullscreenenter"",""1"",""3904""
","
","
","""event"",""trial"",""time""
""fullscreenenter"",""1"",""3904""
","
","","","-1","","","23","5240","395","h","elianto","#f73b6a7A","-1","-1","1","0","[]","0","2","","","5240","43","3","4","lose","no-go","0"
"pit-trial","162","1087174","0.0-48.0","battery-v0.2","","""event"",""trial"",""time""
""fullscreenenter"",""1"",""3904""
","
","
","""event"",""trial"",""time""
""fullscreenenter"",""1"",""3904""
","
","","","-1","","","23","5240","395","r","elianto","#3366ff99","-1","-1","1","+10","[]","0","2","","","5240","44","1","2","win","no-go","0"
"pit-trial","163","1092051","0.0-49.0","battery-v0.2","","""event"",""trial"",""time""
""fullscreenenter"",""1"",""3904""
","
","
","""event"",""trial"",""time""
""fullscreenenter"",""1"",""3904""
","
","","","-1","","","23","5240","395","r","elianto","#3366ff99","-1","-1","1","0","[]","0","2","","","5240","45","1","2","win","no-go","1"
"pit-trial","164","1096918","0.0-50.0","battery-v0.2","","""event"",""trial"",""time""
""fullscreenenter"",""1"",""3904""
","
","
","""event"",""trial"",""time""
""fullscreenenter"",""1"",""3904""
","
","","","-1","","","23","5240","395","h","elianto","#f73b6a7A","-1","-1","1","0","[]","0","2","","","5240","46","3","4","lose","no-go","0"
"pit-trial","165","1100463","0.0-51.0","battery-v0.2","","""event"",""trial"",""time""
""fullscreenenter"",""1"",""3904""
","
","
","""event"",""trial"",""time""
""fullscreenenter"",""1"",""3904""
","
","","","678.2000000476837","","","23","5240","395","y","elianto","#f73b6a7A"," "," ","1","0","[1537.3000000715256]","1","2","","","5240","47","2","3","lose","go","0"
"pit-trial","166","1103840","0.0-52.0","battery-v0.2","","""event"",""trial"",""time""
""fullscreenenter"",""1"",""3904""
","
","
","""event"",""trial"",""time""
""fullscreenenter"",""1"",""3904""
","
","","","513.5","","","23","5240","395","m","elianto","#f73b6a7A"," "," ","1","0","[1370.5]","1","2","","","5240","48","0","3","lose","go","0"
"pit-trial","167","1108716","0.0-53.0","battery-v0.2","","""event"",""trial"",""time""
""fullscreenenter"",""1"",""3904""
","
","
","""event"",""trial"",""time""
""fullscreenenter"",""1"",""3904""
","
","","","-1","","","23","5240","395","r","elianto","#3366ff99","-1","-1","1","0","[]","0","2","","","5240","49","1","2","win","no-go","1"
"pit-trial","168","1112235","0.0-54.0","battery-v0.2","","""event"",""trial"",""time""
""fullscreenenter"",""1"",""3904""
","
","
","""event"",""trial"",""time""
""fullscreenenter"",""1"",""3904""
","
","","","647.6000000238419","","","23","5240","395","y","elianto","#f73b6a7A"," "," ","1","0","[1505.7000000476837]","1","2","","","5240","50","2","3","lose","go","0"
"pit-trial","169","1115566","0.0-55.0","battery-v0.2","","""event"",""trial"",""time""
""fullscreenenter"",""1"",""3904""
","
","
","""event"",""trial"",""time""
""fullscreenenter"",""1"",""3904""
","
","","","469.39999997615814","","","23","5240","395","m","elianto","#f73b6a7A"," "," ","1","0","[1325]","1","2","","","5240","51","0","3","lose","go","0"
"pit-trial","170","1120433","0.0-56.0","battery-v0.2","","""event"",""trial"",""time""
""fullscreenenter"",""1"",""3904""
","
","
","""event"",""trial"",""time""
""fullscreenenter"",""1"",""3904""
","
","","","-1","","","23","5240","395","h","elianto","#f73b6a7A","-1","-1","1","0","[]","0","2","","","5240","52","3","4","lose","no-go","0"
"pit-trial","171","1123950","0.0-57.0","battery-v0.2","","""event"",""trial"",""time""
""fullscreenenter"",""1"",""3904""
","
","
","""event"",""trial"",""time""
""fullscreenenter"",""1"",""3904""
","
","","","642","","","23","5240","395","y","elianto","#f73b6a7A"," "," ","1","-10","[1503.3999999761581]","1","2","","","5240","53","2","3","lose","go","1"
"pit-trial","172","1127303","0.0-58.0","battery-v0.2","","""event"",""trial"",""time""
""fullscreenenter"",""1"",""3904""
","
","
","""event"",""trial"",""time""
""fullscreenenter"",""1"",""3904""
","
","","","482.5","","","23","5240","395","m","elianto","#f73b6a7A"," "," ","1","-10","[1337.1999999284744]","1","2","","","5240","54","0","3","lose","go","1"
"pit-trial","173","1132180","0.0-59.0","battery-v0.2","","""event"",""trial"",""time""
""fullscreenenter"",""1"",""3904""
","
","
","""event"",""trial"",""time""
""fullscreenenter"",""1"",""3904""
","
","","","-1","","","23","5240","395","h","elianto","#f73b6a7A","-1","-1","1","0","[]","0","2","","","5240","55","3","4","lose","no-go","0"
"pit-trial","174","1137047","0.0-60.0","battery-v0.2","","""event"",""trial"",""time""
""fullscreenenter"",""1"",""3904""
","
","
","""event"",""trial"",""time""
""fullscreenenter"",""1"",""3904""
","
","","","-1","","","23","5240","395","r","elianto","#3366ff99","-1","-1","1","+10","[]","0","2","","","5240","56","1","2","win","no-go","0"
"pit-trial","175","1140453","0.0-61.0","battery-v0.2","","""event"",""trial"",""time""
""fullscreenenter"",""1"",""3904""
","
","
","""event"",""trial"",""time""
""fullscreenenter"",""1"",""3904""
","
","","","535.5999999046326","","","23","5240","395","m","elianto","#f73b6a7A"," "," ","1","0","[1393.1999999284744]","1","2","","","5240","57","0","3","lose","go","0"
"pit-trial","176","1143977","0.0-62.0","battery-v0.2","","""event"",""trial"",""time""
""fullscreenenter"",""1"",""3904""
","
","
","""event"",""trial"",""time""
""fullscreenenter"",""1"",""3904""
","
","","","651.1999999284744","","","23","5240","395","y","elianto","#f73b6a7A"," "," ","1","0","[1512.2000000476837]","1","2","","","5240","58","2","3","lose","go","0"
"pit-trial","177","1148850","0.0-63.0","battery-v0.2","","""event"",""trial"",""time""
""fullscreenenter"",""1"",""3904""
","
","
","""event"",""trial"",""time""
""fullscreenenter"",""1"",""3904""
","
","","","-1","","","23","5240","395","h","elianto","#f73b6a7A","-1","-1","1","0","[]","0","2","","","5240","59","3","4","lose","no-go","0"
"pit-trial","178","1153722","0.0-64.0","battery-v0.2","","""event"",""trial"",""time""
""fullscreenenter"",""1"",""3904""
","
","
","""event"",""trial"",""time""
""fullscreenenter"",""1"",""3904""
","
","","","-1","","","23","5240","395","z","elianto","#3366ff99"," ","-1","0","0","[]","0","2","","","5240","60","4","1","win","go","0"
"pit-trial","179","1158592","0.0-65.0","battery-v0.2","","""event"",""trial"",""time""
""fullscreenenter"",""1"",""3904""
","
","
","""event"",""trial"",""time""
""fullscreenenter"",""1"",""3904""
","
","","","-1","","","23","5240","395","h","elianto","#f73b6a7A","-1","-1","1","0","[]","0","2","","","5240","61","3","4","lose","no-go","0"
"pit-trial","180","1163463","0.0-66.0","battery-v0.2","","""event"",""trial"",""time""
""fullscreenenter"",""1"",""3904""
","
","
","""event"",""trial"",""time""
""fullscreenenter"",""1"",""3904""
","
","","","-1","","","23","5240","395","r","elianto","#3366ff99","-1","-1","1","0","[]","0","2","","","5240","62","1","2","win","no-go","1"
"pit-trial","181","1167252","0.0-67.0","battery-v0.2","","""event"",""trial"",""time""
""fullscreenenter"",""1"",""3904""
","
","
","""event"",""trial"",""time""
""fullscreenenter"",""1"",""3904""
","
","","","921.2999999523163","","","23","5240","395","z","elianto","#3366ff99"," "," ","1","0","[1772.3999999761581]","1","2","","","5240","63","4","1","win","go","1"
"pit-trial","182","1170867","0.0-68.0","battery-v0.2","","""event"",""trial"",""time""
""fullscreenenter"",""1"",""3904""
","
","
","""event"",""trial"",""time""
""fullscreenenter"",""1"",""3904""
","
","","","745","","","23","5240","395","y","elianto","#f73b6a7A"," "," ","1","0","[1604.5]","1","2","","","5240","64","2","3","lose","go","0"
"pit-trial","183","1175734","0.0-69.0","battery-v0.2","","""event"",""trial"",""time""
""fullscreenenter"",""1"",""3904""
","
","
","""event"",""trial"",""time""
""fullscreenenter"",""1"",""3904""
","
","","","-1","","","23","5240","395","h","elianto","#f73b6a7A","-1","-1","1","0","[]","0","2","","","5240","65","3","4","lose","no-go","0"
"pit-trial","184","1179782","0.0-70.0","battery-v0.2","","""event"",""trial"",""time""
""fullscreenenter"",""1"",""3904""
","
","
","""event"",""trial"",""time""
""fullscreenenter"",""1"",""3904""
","
","","","1188.6000000238419","","","23","5240","395","c","elianto","#3366ff99","-1"," ","0","0","[2040.1000000238419]","1","2","","","5240","66","5","2","win","no-go","0"
"pit-trial","185","1183432","0.0-71.0","battery-v0.2","","""event"",""trial"",""time""
""fullscreenenter"",""1"",""3904""
","
","
","""event"",""trial"",""time""
""fullscreenenter"",""1"",""3904""
","
","","","781.6000000238419","","","23","5240","395","r","elianto","#3366ff99","-1"," ","0","0","[1639.8000000715256]","1","2","","","5240","67","1","2","win","no-go","0"
"pit-trial","186","1187386","0.0-72.0","battery-v0.2","","""event"",""trial"",""time""
""fullscreenenter"",""1"",""3904""
","
","
","""event"",""trial"",""time""
""fullscreenenter"",""1"",""3904""
","
","","","1082","","","23","5240","395","z","elianto","#3366ff99"," "," ","1","+10","[1933.8999999761581]","1","2","","","5240","68","4","1","win","go","0"
"pit-trial","187","1190908","0.0-73.0","battery-v0.2","","""event"",""trial"",""time""
""fullscreenenter"",""1"",""3904""
","
","
","""event"",""trial"",""time""
""fullscreenenter"",""1"",""3904""
","
","","","650.2999999523163","","","23","5240","395","z","elianto","#3366ff99"," "," ","1","+10","[1509.5]","1","2","","","5240","69","4","1","win","go","0"
"pit-trial","188","1195779","0.0-74.0","battery-v0.2","","""event"",""trial"",""time""
""fullscreenenter"",""1"",""3904""
","
","
","""event"",""trial"",""time""
""fullscreenenter"",""1"",""3904""
","
","","","-1","","","23","5240","395","r","elianto","#3366ff99","-1","-1","1","+10","[]","0","2","","","5240","70","1","2","win","no-go","0"
"pit-trial","189","1199545","0.0-75.0","battery-v0.2","","""event"",""trial"",""time""
""fullscreenenter"",""1"",""3904""
","
","
","""event"",""trial"",""time""
""fullscreenenter"",""1"",""3904""
","
","","","897.8999999761581","","","23","5240","395","c","elianto","#3366ff99","-1"," ","0","0","[1752.3000000715256]","1","2","","","5240","71","5","2","win","no-go","0"
"pit-trial","190","1203430","0.0-76.0","battery-v0.2","","""event"",""trial"",""time""
""fullscreenenter"",""1"",""3904""
","
","
","""event"",""trial"",""time""
""fullscreenenter"",""1"",""3904""
","
","","","1011.3999999761581","","","23","5240","395","y","elianto","#f73b6a7A"," "," ","1","0","[1862]","1","2","","","5240","72","2","3","lose","go","0"
"pit-trial","191","1208300","0.0-77.0","battery-v0.2","","""event"",""trial"",""time""
""fullscreenenter"",""1"",""3904""
","
","
","""event"",""trial"",""time""
""fullscreenenter"",""1"",""3904""
","
","","","-1","","","23","5240","395","c","elianto","#3366ff99","-1","-1","1","0","[]","0","2","","","5240","73","5","2","win","no-go","1"
"pit-trial","192","1213170","0.0-78.0","battery-v0.2","","""event"",""trial"",""time""
""fullscreenenter"",""1"",""3904""
","
","
","""event"",""trial"",""time""
""fullscreenenter"",""1"",""3904""
","
","","","-1","","","23","5240","395","h","elianto","#f73b6a7A","-1","-1","1","0","[]","0","2","","","5240","74","3","4","lose","no-go","0"
"pit-trial","193","1216656","0.0-79.0","battery-v0.2","","""event"",""trial"",""time""
""fullscreenenter"",""1"",""3904""
","
","
","""event"",""trial"",""time""
""fullscreenenter"",""1"",""3904""
","
","","","624.2000000476837","","","23","5240","395","z","elianto","#3366ff99"," "," ","1","+10","[1479.5]","1","2","","","5240","75","4","1","win","go","0"
"pit-trial","194","1221534","0.0-80.0","battery-v0.2","","""event"",""trial"",""time""
""fullscreenenter"",""1"",""3904""
","
","
","""event"",""trial"",""time""
""fullscreenenter"",""1"",""3904""
","
","","","-1","","","23","5240","395","r","elianto","#3366ff99","-1","-1","1","+10","[]","0","2","","","5240","76","1","2","win","no-go","0"
"pit-trial","195","1225141","0.0-81.0","battery-v0.2","","""event"",""trial"",""time""
""fullscreenenter"",""1"",""3904""
","
","
","""event"",""trial"",""time""
""fullscreenenter"",""1"",""3904""
","
","","","736.3999999761581","","","23","5240","395","z","elianto","#3366ff99"," "," ","1","+10","[1597.6000000238419]","1","2","","","5240","77","4","1","win","go","0"
"pit-trial","196","1228901","0.0-82.0","battery-v0.2","","""event"",""trial"",""time""
""fullscreenenter"",""1"",""3904""
","
","
","""event"",""trial"",""time""
""fullscreenenter"",""1"",""3904""
","
","","","897.6000000238419","","","23","5240","395","z","elianto","#3366ff99"," "," ","1","+10","[1748.5]","1","2","","","5240","78","4","1","win","go","0"
"pit-trial","197","1233771","0.0-83.0","battery-v0.2","","""event"",""trial"",""time""
""fullscreenenter"",""1"",""3904""
","
","
","""event"",""trial"",""time""
""fullscreenenter"",""1"",""3904""
","
","","","-1","","","23","5240","395","h","elianto","#f73b6a7A","-1","-1","1","0","[]","0","2","","","5240","79","3","4","lose","no-go","0"
"pit-trial","198","1237217","0.0-84.0","battery-v0.2","","""event"",""trial"",""time""
""fullscreenenter"",""1"",""3904""
","
","
","""event"",""trial"",""time""
""fullscreenenter"",""1"",""3904""
","
","","","582.3999999761581","","","23","5240","395","c","elianto","#3366ff99","-1"," ","0","0","[1438]","1","2","","","5240","80","5","2","win","no-go","0"
"pit-trial","199","1241108","0.0-85.0","battery-v0.2","","""event"",""trial"",""time""
""fullscreenenter"",""1"",""3904""
","
","
","""event"",""trial"",""time""
""fullscreenenter"",""1"",""3904""
","
","","","1014.6999999284744","","","23","5240","395","t","elianto","#f73b6a7A","-1"," ","0","-10","[1868.7000000476837]","1","2","","","5240","81","7","4","lose","no-go","0"
"pit-trial","200","1244640","0.0-86.0","battery-v0.2","","""event"",""trial"",""time""
""fullscreenenter"",""1"",""3904""
","
","
","""event"",""trial"",""time""
""fullscreenenter"",""1"",""3904""
","
","","","666.7999999523163","","","23","5240","395","c","elianto","#3366ff99","-1"," ","0","0","[1524.0999999046326]","1","2","","","5240","82","5","2","win","no-go","0"
"pit-trial","201","1249515","0.0-87.0","battery-v0.2","","""event"",""trial"",""time""
""fullscreenenter"",""1"",""3904""
","
","
","""event"",""trial"",""time""
""fullscreenenter"",""1"",""3904""
","
","","","-1","","","23","5240","395","h","elianto","#f73b6a7A","-1","-1","1","0","[]","0","2","","","5240","83","3","4","lose","no-go","0"
"pit-trial","202","1252908","0.0-88.0","battery-v0.2","","""event"",""trial"",""time""
""fullscreenenter"",""1"",""3904""
","
","
","""event"",""trial"",""time""
""fullscreenenter"",""1"",""3904""
","
","","","522.7000000476837","","","23","5240","395","z","elianto","#3366ff99"," "," ","1","+10","[1377.3999999761581]","1","2","","","5240","84","4","1","win","go","0"
"pit-trial","203","1256839","0.0-89.0","battery-v0.2","","""event"",""trial"",""time""
""fullscreenenter"",""1"",""3904""
","
","
","""event"",""trial"",""time""
""fullscreenenter"",""1"",""3904""
","
","","","1059.3999999761581","","","23","5240","395","b","elianto","#f73b6a7A"," "," ","1","0","[1915.8999999761581]","1","2","","","5240","85","6","3","lose","go","0"
"pit-trial","204","1260211","0.0-90.0","battery-v0.2","","""event"",""trial"",""time""
""fullscreenenter"",""1"",""3904""
","
","
","""event"",""trial"",""time""
""fullscreenenter"",""1"",""3904""
","
","","","507.89999997615814","","","23","5240","395","z","elianto","#3366ff99"," "," ","1","+10","[1361.2000000476837]","1","2","","","5240","86","4","1","win","go","0"
"pit-trial","205","1263780","0.0-91.0","battery-v0.2","","""event"",""trial"",""time""
""fullscreenenter"",""1"",""3904""
","
","
","""event"",""trial"",""time""
""fullscreenenter"",""1"",""3904""
","
","","","700","","","23","5240","395","t","elianto","#f73b6a7A","-1"," ","0","-10","[1557.8999999761581]","1","2","","","5240","87","7","4","lose","no-go","0"
"pit-trial","206","1268652","0.0-92.0","battery-v0.2","","""event"",""trial"",""time""
""fullscreenenter"",""1"",""3904""
","
","
","""event"",""trial"",""time""
""fullscreenenter"",""1"",""3904""
","
","","","-1","","","23","5240","395","c","elianto","#3366ff99","-1","-1","1","+10","[]","0","2","","","5240","88","5","2","win","no-go","0"
"pit-trial","207","1273527","0.0-93.0","battery-v0.2","","""event"",""trial"",""time""
""fullscreenenter"",""1"",""3904""
","
","
","""event"",""trial"",""time""
""fullscreenenter"",""1"",""3904""
","
","","","-1","","","23","5240","395","t","elianto","#f73b6a7A","-1","-1","1","0","[]","0","2","","","5240","89","7","4","lose","no-go","0"
"pit-trial","208","1277086","0.0-94.0","battery-v0.2","","""event"",""trial"",""time""
""fullscreenenter"",""1"",""3904""
","
","
","""event"",""trial"",""time""
""fullscreenenter"",""1"",""3904""
","
","","","685.3999999761581","","","23","5240","395","b","elianto","#f73b6a7A"," "," ","1","0","[1541.7000000476837]","1","2","","","5240","90","6","3","lose","go","0"
"pit-trial","209","1280447","0.0-95.0","battery-v0.2","","""event"",""trial"",""time""
""fullscreenenter"",""1"",""3904""
","
","
","""event"",""trial"",""time""
""fullscreenenter"",""1"",""3904""
","
","","","494.1999999284744","","","23","5240","395","z","elianto","#3366ff99"," "," ","1","+10","[1350.4000000953674]","1","2","","","5240","91","4","1","win","go","0"
"pit-trial","210","1285312","0.0-96.0","battery-v0.2","","""event"",""trial"",""time""
""fullscreenenter"",""1"",""3904""
","
","
","""event"",""trial"",""time""
""fullscreenenter"",""1"",""3904""
","
","","","-1","","","23","5240","395","c","elianto","#3366ff99","-1","-1","1","+10","[]","0","2","","","5240","92","5","2","win","no-go","0"
"pit-trial","211","1290186","0.0-97.0","battery-v0.2","","""event"",""trial"",""time""
""fullscreenenter"",""1"",""3904""
","
","
","""event"",""trial"",""time""
""fullscreenenter"",""1"",""3904""
","
","","","-1","","","23","5240","395","c","elianto","#3366ff99","-1","-1","1","+10","[]","0","2","","","5240","93","5","2","win","no-go","0"
"pit-trial","212","1295060","0.0-98.0","battery-v0.2","","""event"",""trial"",""time""
""fullscreenenter"",""1"",""3904""
","
","
","""event"",""trial"",""time""
""fullscreenenter"",""1"",""3904""
","
","","","-1","","","23","5240","395","t","elianto","#f73b6a7A","-1","-1","1","0","[]","0","2","","","5240","94","7","4","lose","no-go","0"
"pit-trial","213","1298509","0.0-99.0","battery-v0.2","","""event"",""trial"",""time""
""fullscreenenter"",""1"",""3904""
","
","
","""event"",""trial"",""time""
""fullscreenenter"",""1"",""3904""
","
","","","586.0999999046326","","","23","5240","395","b","elianto","#f73b6a7A"," "," ","1","0","[1442.1999999284744]","1","2","","","5240","95","6","3","lose","go","0"
"pit-trial","214","1303374","0.0-100.0","battery-v0.2","","""event"",""trial"",""time""
""fullscreenenter"",""1"",""3904""
","
","
","""event"",""trial"",""time""
""fullscreenenter"",""1"",""3904""
","
","","","-1","","","23","5240","395","f","elianto","#3366ff99"," ","-1","0","0","[]","0","2","","","5240","96","8","1","win","go","0"
"pit-trial","215","1306880","0.0-101.0","battery-v0.2","","""event"",""trial"",""time""
""fullscreenenter"",""1"",""3904""
","
","
","""event"",""trial"",""time""
""fullscreenenter"",""1"",""3904""
","
","","","638.5","","","23","5240","395","b","elianto","#f73b6a7A"," "," ","1","0","[1494.1999999284744]","1","2","","","5240","97","6","3","lose","go","0"
"pit-trial","216","1311744","0.0-102.0","battery-v0.2","","""event"",""trial"",""time""
""fullscreenenter"",""1"",""3904""
","
","
","""event"",""trial"",""time""
""fullscreenenter"",""1"",""3904""
","
","","","-1","","","23","5240","395","t","elianto","#f73b6a7A","-1","-1","1","0","[]","0","2","","","5240","98","7","4","lose","no-go","0"
"pit-trial","217","1315339","0.0-103.0","battery-v0.2","","""event"",""trial"",""time""
""fullscreenenter"",""1"",""3904""
","
","
","""event"",""trial"",""time""
""fullscreenenter"",""1"",""3904""
","
","","","717.5","","","23","5240","395","f","elianto","#3366ff99"," "," ","1","+10","[1579.5]","1","2","","","5240","99","8","1","win","go","0"
"pit-trial","218","1320206","0.0-104.0","battery-v0.2","","""event"",""trial"",""time""
""fullscreenenter"",""1"",""3904""
","
","
","""event"",""trial"",""time""
""fullscreenenter"",""1"",""3904""
","
","","","-1","","","23","5240","395","c","elianto","#3366ff99","-1","-1","1","+10","[]","0","2","","","5240","100","5","2","win","no-go","0"
"pit-trial","219","1325069","0.0-105.0","battery-v0.2","","""event"",""trial"",""time""
""fullscreenenter"",""1"",""3904""
","
","
","""event"",""trial"",""time""
""fullscreenenter"",""1"",""3904""
","
","","","-1","","","23","5240","395","t","elianto","#f73b6a7A","-1","-1","1","0","[]","0","2","","","5240","101","7","4","lose","no-go","0"
"pit-trial","220","1329940","0.0-106.0","battery-v0.2","","""event"",""trial"",""time""
""fullscreenenter"",""1"",""3904""
","
","
","""event"",""trial"",""time""
""fullscreenenter"",""1"",""3904""
","
","","","-1","","","23","5240","395","c","elianto","#3366ff99","-1","-1","1","+10","[]","0","2","","","5240","102","5","2","win","no-go","0"
"pit-trial","221","1333467","0.0-107.0","battery-v0.2","","""event"",""trial"",""time""
""fullscreenenter"",""1"",""3904""
","
","
","""event"",""trial"",""time""
""fullscreenenter"",""1"",""3904""
","
","","","659.1000000238419","","","23","5240","395","f","elianto","#3366ff99"," "," ","1","+10","[1514.2999999523163]","1","2","","","5240","103","8","1","win","go","0"
"pit-trial","222","1338341","0.0-108.0","battery-v0.2","","""event"",""trial"",""time""
""fullscreenenter"",""1"",""3904""
","
","
","""event"",""trial"",""time""
""fullscreenenter"",""1"",""3904""
","
","","","-1","","","23","5240","395","n","elianto","#3366ff99"," ","-1","0","0","[]","0","2","","","5240","104","9","1","win","go","0"
"pit-trial","223","1341850","0.0-109.0","battery-v0.2","","""event"",""trial"",""time""
""fullscreenenter"",""1"",""3904""
","
","
","""event"",""trial"",""time""
""fullscreenenter"",""1"",""3904""
","
","","","639.8999999761581","","","23","5240","395","z","elianto","#3366ff99"," "," ","1","+10","[1499.5999999046326]","1","2","","","5240","105","4","1","win","go","0"
"pit-trial","224","1345374","0.0-110.0","battery-v0.2","","""event"",""trial"",""time""
""fullscreenenter"",""1"",""3904""
","
","
","""event"",""trial"",""time""
""fullscreenenter"",""1"",""3904""
","
","","","660.0999999046326","","","23","5240","395","n","elianto","#3366ff99"," "," ","1","0","[1517.7000000476837]","1","2","","","5240","106","9","1","win","go","1"
"pit-trial","225","1348920","0.0-111.0","battery-v0.2","","""event"",""trial"",""time""
""fullscreenenter"",""1"",""3904""
","
","
","""event"",""trial"",""time""
""fullscreenenter"",""1"",""3904""
","
","","","672.3999999761581","","","23","5240","395","b","elianto","#f73b6a7A"," "," ","1","0","[1524.1999999284744]","1","2","","","5240","107","6","3","lose","go","0"
"pit-trial","226","1352449","0.0-112.0","battery-v0.2","","""event"",""trial"",""time""
""fullscreenenter"",""1"",""3904""
","
","
","""event"",""trial"",""time""
""fullscreenenter"",""1"",""3904""
","
","","","667.7999999523163","","","23","5240","395","f","elianto","#3366ff99"," "," ","1","+10","[1517.8999999761581]","1","2","","","5240","108","8","1","win","go","0"
"pit-trial","227","1357325","0.0-113.0","battery-v0.2","","""event"",""trial"",""time""
""fullscreenenter"",""1"",""3904""
","
","
","""event"",""trial"",""time""
""fullscreenenter"",""1"",""3904""
","
","","","-1","","","23","5240","395","c","elianto","#3366ff99","-1","-1","1","+10","[]","0","2","","","5240","109","5","2","win","no-go","0"
"pit-trial","228","1361196","0.0-114.0","battery-v0.2","","""event"",""trial"",""time""
""fullscreenenter"",""1"",""3904""
","
","
","""event"",""trial"",""time""
""fullscreenenter"",""1"",""3904""
","
","","","996.1000000238419","","","23","5240","395","n","elianto","#3366ff99"," "," ","1","+10","[1846.2000000476837]","1","2","","","5240","110","9","1","win","go","0"
"pit-trial","229","1365042","0.0-115.0","battery-v0.2","","""event"",""trial"",""time""
""fullscreenenter"",""1"",""3904""
","
","
","""event"",""trial"",""time""
""fullscreenenter"",""1"",""3904""
","
","","","979.5","","","23","5240","395","f","elianto","#3366ff99"," "," ","1","0","[1833.3999999761581]","1","2","","","5240","111","8","1","win","go","1"
"pit-trial","230","1368771","0.0-116.0","battery-v0.2","","""event"",""trial"",""time""
""fullscreenenter"",""1"",""3904""
","
","
","""event"",""trial"",""time""
""fullscreenenter"",""1"",""3904""
","
","","","859.8000000715256","","","23","5240","395","b","elianto","#f73b6a7A"," "," ","1","0","[1711.3999999761581]","1","2","","","5240","112","6","3","lose","go","0"
"pit-trial","231","1372318","0.0-117.0","battery-v0.2","","""event"",""trial"",""time""
""fullscreenenter"",""1"",""3904""
","
","
","""event"",""trial"",""time""
""fullscreenenter"",""1"",""3904""
","
","","","680.2000000476837","","","23","5240","395","n","elianto","#3366ff99"," "," ","1","0","[1534.2000000476837]","1","2","","","5240","113","9","1","win","go","1"
"pit-trial","232","1377182","0.0-118.0","battery-v0.2","","""event"",""trial"",""time""
""fullscreenenter"",""1"",""3904""
","
","
","""event"",""trial"",""time""
""fullscreenenter"",""1"",""3904""
","
","","","-1","","","23","5240","395","c","elianto","#3366ff99","-1","-1","1","+10","[]","0","2","","","5240","114","5","2","win","no-go","0"
"pit-trial","233","1380712","0.0-119.0","battery-v0.2","","""event"",""trial"",""time""
""fullscreenenter"",""1"",""3904""
","
","
","""event"",""trial"",""time""
""fullscreenenter"",""1"",""3904""
","
","","","664.2000000476837","","","23","5240","395","b","elianto","#f73b6a7A"," "," ","1","0","[1521.8000000715256]","1","2","","","5240","115","6","3","lose","go","0"
"pit-trial","234","1384177","0.0-120.0","battery-v0.2","","""event"",""trial"",""time""
""fullscreenenter"",""1"",""3904""
","
","
","""event"",""trial"",""time""
""fullscreenenter"",""1"",""3904""
","
","","","596.7000000476837","","","23","5240","395","f","elianto","#3366ff99"," "," ","1","+10","[1454.8999999761581]","1","2","","","5240","116","8","1","win","go","0"
"pit-trial","235","1387782","0.0-121.0","battery-v0.2","","""event"",""trial"",""time""
""fullscreenenter"",""1"",""3904""
","
","
","""event"",""trial"",""time""
""fullscreenenter"",""1"",""3904""
","
","","","739.5","","","23","5240","395","n","elianto","#3366ff99"," "," ","1","+10","[1594]","1","2","","","5240","117","9","1","win","go","0"
"pit-trial","236","1391299","0.0-122.0","battery-v0.2","","""event"",""trial"",""time""
""fullscreenenter"",""1"",""3904""
","
","
","""event"",""trial"",""time""
""fullscreenenter"",""1"",""3904""
","
","","","642.1000000238419","","","23","5240","395","f","elianto","#3366ff99"," "," ","1","+10","[1500.6000000238419]","1","2","","","5240","118","8","1","win","go","0"
"pit-trial","237","1396174","0.0-123.0","battery-v0.2","","""event"",""trial"",""time""
""fullscreenenter"",""1"",""3904""
","
","
","""event"",""trial"",""time""
""fullscreenenter"",""1"",""3904""
","
","","","-1","","","23","5240","395","c","elianto","#3366ff99","-1","-1","1","+10","[]","0","2","","","5240","119","5","2","win","no-go","0"
"pit-trial","238","1399829","0.0-124.0","battery-v0.2","","""event"",""trial"",""time""
""fullscreenenter"",""1"",""3904""
","
","
","""event"",""trial"",""time""
""fullscreenenter"",""1"",""3904""
","
","","","782.8999999761581","","","23","5240","395","b","elianto","#f73b6a7A"," "," ","1","0","[1638.2000000476837]","1","2","","","5240","120","6","3","lose","go","0"
"pit-trial","239","1403292","0.0-125.0","battery-v0.2","","""event"",""trial"",""time""
""fullscreenenter"",""1"",""3904""
","
","
","""event"",""trial"",""time""
""fullscreenenter"",""1"",""3904""
","
","","","598.2000000476837","","","23","5240","395","f","elianto","#3366ff99"," "," ","1","0","[1448.7000000476837]","1","2","","","5240","121","8","1","win","go","1"
"pit-trial","240","1406675","0.0-126.0","battery-v0.2","","""event"",""trial"",""time""
""fullscreenenter"",""1"",""3904""
","
","
","""event"",""trial"",""time""
""fullscreenenter"",""1"",""3904""
","
","","","523.2000000476837","","","23","5240","395","b","elianto","#f73b6a7A"," "," ","1","0","[1374.2000000476837]","1","2","","","5240","122","6","3","lose","go","0"
"pit-trial","241","1411543","0.0-127.0","battery-v0.2","","""event"",""trial"",""time""
""fullscreenenter"",""1"",""3904""
","
","
","""event"",""trial"",""time""
""fullscreenenter"",""1"",""3904""
","
","","","-1","","","23","5240","395","t","elianto","#f73b6a7A","-1","-1","1","0","[]","0","2","","","5240","123","7","4","lose","no-go","0"
"pit-trial","242","1415090","0.0-128.0","battery-v0.2","","""event"",""trial"",""time""
""fullscreenenter"",""1"",""3904""
","
","
","""event"",""trial"",""time""
""fullscreenenter"",""1"",""3904""
","
","","","680.4000000953674","","","23","5240","395","n","elianto","#3366ff99"," "," ","1","+10","[1531.2000000476837]","1","2","","","5240","124","9","1","win","go","0"
"pit-trial","243","1418592","0.0-129.0","battery-v0.2","","""event"",""trial"",""time""
""fullscreenenter"",""1"",""3904""
","
","
","""event"",""trial"",""time""
""fullscreenenter"",""1"",""3904""
","
","","","644.1000000238419","","","23","5240","395","b","elianto","#f73b6a7A"," "," ","1","0","[1496.1000000238419]","1","2","","","5240","125","6","3","lose","go","0"
"pit-trial","244","1422012","0.0-130.0","battery-v0.2","","""event"",""trial"",""time""
""fullscreenenter"",""1"",""3904""
","
","
","""event"",""trial"",""time""
""fullscreenenter"",""1"",""3904""
","
","","","548.3999999761581","","","23","5240","395","f","elianto","#3366ff99"," "," ","1","+10","[1404.8999999761581]","1","2","","","5240","126","8","1","win","go","0"
"pit-trial","245","1426879","0.0-131.0","battery-v0.2","","""event"",""trial"",""time""
""fullscreenenter"",""1"",""3904""
","
","
","""event"",""trial"",""time""
""fullscreenenter"",""1"",""3904""
","
","","","-1","","","23","5240","395","t","elianto","#f73b6a7A","-1","-1","1","0","[]","0","2","","","5240","127","7","4","lose","no-go","0"
"pit-trial","246","1430434","0.0-132.0","battery-v0.2","","""event"",""trial"",""time""
""fullscreenenter"",""1"",""3904""
","
","
","""event"",""trial"",""time""
""fullscreenenter"",""1"",""3904""
","
","","","688.5","","","23","5240","395","n","elianto","#3366ff99"," "," ","1","+10","[1545.0999999046326]","1","2","","","5240","128","9","1","win","go","0"
"pit-trial","247","1433922","0.0-133.0","battery-v0.2","","""event"",""trial"",""time""
""fullscreenenter"",""1"",""3904""
","
","
","""event"",""trial"",""time""
""fullscreenenter"",""1"",""3904""
","
","","","618","","","23","5240","395","b","elianto","#f73b6a7A"," "," ","1","0","[1476.7000000476837]","1","2","","","5240","129","6","3","lose","go","0"
"pit-trial","248","1438797","0.0-134.0","battery-v0.2","","""event"",""trial"",""time""
""fullscreenenter"",""1"",""3904""
","
","
","""event"",""trial"",""time""
""fullscreenenter"",""1"",""3904""
","
","","","-1","","","23","5240","395","t","elianto","#f73b6a7A","-1","-1","1","0","[]","0","2","","","5240","130","7","4","lose","no-go","0"
"pit-trial","249","1442285","0.0-135.0","battery-v0.2","","""event"",""trial"",""time""
""fullscreenenter"",""1"",""3904""
","
","
","""event"",""trial"",""time""
""fullscreenenter"",""1"",""3904""
","
","","","627.6000000238419","","","23","5240","395","n","elianto","#3366ff99"," "," ","1","+10","[1481.5]","1","2","","","5240","131","9","1","win","go","0"
"pit-trial","250","1445681","0.0-136.0","battery-v0.2","","""event"",""trial"",""time""
""fullscreenenter"",""1"",""3904""
","
","
","""event"",""trial"",""time""
""fullscreenenter"",""1"",""3904""
","
","","","527.5999999046326","","","23","5240","395","f","elianto","#3366ff99"," "," ","1","+10","[1384.7999999523163]","1","2","","","5240","132","8","1","win","go","0"
"pit-trial","251","1450553","0.0-137.0","battery-v0.2","","""event"",""trial"",""time""
""fullscreenenter"",""1"",""3904""
","
","
","""event"",""trial"",""time""
""fullscreenenter"",""1"",""3904""
","
","","","-1","","","23","5240","395","t","elianto","#f73b6a7A","-1","-1","1","0","[]","0","2","","","5240","133","7","4","lose","no-go","0"
"pit-trial","252","1454046","0.0-138.0","battery-v0.2","","""event"",""trial"",""time""
""fullscreenenter"",""1"",""3904""
","
","
","""event"",""trial"",""time""
""fullscreenenter"",""1"",""3904""
","
","","","626.0999999046326","","","23","5240","395","n","elianto","#3366ff99"," "," ","1","+10","[1488.9000000953674]","1","2","","","5240","134","9","1","win","go","0"
"pit-trial","253","1457510","0.0-139.0","battery-v0.2","","""event"",""trial"",""time""
""fullscreenenter"",""1"",""3904""
","
","
","""event"",""trial"",""time""
""fullscreenenter"",""1"",""3904""
","
","","","591.7999999523163","","","23","5240","395","b","elianto","#f73b6a7A"," "," ","1","0","[1442.6000000238419]","1","2","","","5240","135","6","3","lose","go","0"
"pit-trial","254","1461046","0.0-140.0","battery-v0.2","","""event"",""trial"",""time""
""fullscreenenter"",""1"",""3904""
","
","
","""event"",""trial"",""time""
""fullscreenenter"",""1"",""3904""
","
","","","667.5","","","23","5240","395","f","elianto","#3366ff99"," "," ","1","+10","[1522.7000000476837]","1","2","","","5240","136","8","1","win","go","0"
"pit-trial","255","1465916","0.0-141.0","battery-v0.2","","""event"",""trial"",""time""
""fullscreenenter"",""1"",""3904""
","
","
","""event"",""trial"",""time""
""fullscreenenter"",""1"",""3904""
","
","","","-1","","","23","5240","395","t","elianto","#f73b6a7A","-1","-1","1","0","[]","0","2","","","5240","137","7","4","lose","no-go","0"
"pit-trial","256","1469467","0.0-142.0","battery-v0.2","","""event"",""trial"",""time""
""fullscreenenter"",""1"",""3904""
","
","
","""event"",""trial"",""time""
""fullscreenenter"",""1"",""3904""
","
","","","685.5","","","23","5240","395","b","elianto","#f73b6a7A"," "," ","1","0","[1536.2999999523163]","1","2","","","5240","138","6","3","lose","go","0"
"pit-trial","257","1472961","0.0-143.0","battery-v0.2","","""event"",""trial"",""time""
""fullscreenenter"",""1"",""3904""
","
","
","""event"",""trial"",""time""
""fullscreenenter"",""1"",""3904""
","
","","","632.4000000953674","","","23","5240","395","n","elianto","#3366ff99"," "," ","1","+10","[1487.5]","1","2","","","5240","139","9","1","win","go","0"
"pit-trial","258","1476416","0.0-144.0","battery-v0.2","","""event"",""trial"",""time""
""fullscreenenter"",""1"",""3904""
","
","
","""event"",""trial"",""time""
""fullscreenenter"",""1"",""3904""
","
","","","596.8000000715256","","","23","5240","395","f","elianto","#3366ff99"," "," ","1","+10","[1449.2999999523163]","1","2","","","5240","140","8","1","win","go","0"
"pit-instructions","259","1503464","0.0-145.0","battery-v0.2","","""event"",""trial"",""time""
""fullscreenenter"",""1"",""3904""
","
","
","""event"",""trial"",""time""
""fullscreenenter"",""1"",""3904""
","
","","[{""page_index"":0,""viewing_time"":18114.400000095367},{""page_index"":1,""viewing_time"":8930.899999976158}]","27045.900000095367","","","","","","","","","","","","","","","","","","","","","","","",""
"pit-trial","260","1507113","0.0-146.0","battery-v0.2","","""event"",""trial"",""time""
""fullscreenenter"",""1"",""3904""
","
","
","""event"",""trial"",""time""
""fullscreenenter"",""1"",""3904""
","
","","","780.5","","","23","5240","395","d","elianto","#3366ff99"," "," ","1","+10","[1632.3000000715256]","1","3","","","5240","141","1","1","win","go","0"
"pit-trial","261","1511979","0.0-147.0","battery-v0.2","","""event"",""trial"",""time""
""fullscreenenter"",""1"",""3904""
","
","
","""event"",""trial"",""time""
""fullscreenenter"",""1"",""3904""
","
","","","-1","","","23","5240","395","j","elianto","#f73b6a7A","-1","-1","1","0","[]","0","3","","","5240","142","0","4","lose","no-go","0"
"pit-trial","262","1516864","0.0-148.0","battery-v0.2","","""event"",""trial"",""time""
""fullscreenenter"",""1"",""3904""
","
","
","""event"",""trial"",""time""
""fullscreenenter"",""1"",""3904""
","
","","","-1","","","23","5240","395","w","elianto","#f73b6a7A"," ","-1","0","-10","[]","0","3","","","5240","143","3","3","lose","go","0"
"pit-trial","263","1521738","0.0-149.0","battery-v0.2","","""event"",""trial"",""time""
""fullscreenenter"",""1"",""3904""
","
","
","""event"",""trial"",""time""
""fullscreenenter"",""1"",""3904""
","
","","","-1","","","23","5240","395","e","elianto","#f73b6a7A","-1","-1","1","0","[]","0","3","","","5240","144","2","4","lose","no-go","0"
"pit-trial","264","1525158","0.0-150.0","battery-v0.2","","""event"",""trial"",""time""
""fullscreenenter"",""1"",""3904""
","
","
","""event"",""trial"",""time""
""fullscreenenter"",""1"",""3904""
","
","","","555.8000000715256","","","23","5240","395","d","elianto","#3366ff99"," "," ","1","+10","[1410.7000000476837]","1","3","","","5240","145","1","1","win","go","0"
"pit-trial","265","1530036","0.0-151.0","battery-v0.2","","""event"",""trial"",""time""
""fullscreenenter"",""1"",""3904""
","
","
","""event"",""trial"",""time""
""fullscreenenter"",""1"",""3904""
","
","","","-1","","","23","5240","395","j","elianto","#f73b6a7A","-1","-1","1","0","[]","0","3","","","5240","146","0","4","lose","no-go","0"
"pit-trial","266","1533362","0.0-152.0","battery-v0.2","","""event"",""trial"",""time""
""fullscreenenter"",""1"",""3904""
","
","
","""event"",""trial"",""time""
""fullscreenenter"",""1"",""3904""
","
","","","457.10000002384186","","","23","5240","395","w","elianto","#f73b6a7A"," "," ","1","0","[1315.6000000238419]","1","3","","","5240","147","3","3","lose","go","0"
"pit-trial","267","1538229","0.0-153.0","battery-v0.2","","""event"",""trial"",""time""
""fullscreenenter"",""1"",""3904""
","
","
","""event"",""trial"",""time""
""fullscreenenter"",""1"",""3904""
","
","","","-1","","","23","5240","395","e","elianto","#f73b6a7A","-1","-1","1","0","[]","0","3","","","5240","148","2","4","lose","no-go","0"
"pit-trial","268","1543103","0.0-154.0","battery-v0.2","","""event"",""trial"",""time""
""fullscreenenter"",""1"",""3904""
","
","
","""event"",""trial"",""time""
""fullscreenenter"",""1"",""3904""
","
