"trial_type","trial_index","time_elapsed","internal_node_id","task_version","subject_id","interactions","blur_events","focus_events","fullscreenenter_events","fullscreenexit_events","success","view_history","rt","responses","num_errors","age","subject","participantId","rune","rune_set","hex","correct","choice","accuracy","outcome","keys","total_keys","block","practice","value","sub","trial","stimulus","robot","valence","action","sham"
"pavlovia","0","25","0.0-0.0","battery-v0.2","","""event"",""trial"",""time""
""fullscreenenter"",""1"",""1457""
","
","
","""event"",""trial"",""time""
""fullscreenenter"",""1"",""1457""
","
","","","","","","","","","","","","","","","","","","","","","","","","","","",""
"fullscreen","1","2447","0.0-1.0","battery-v0.2","","""event"",""trial"",""time""
""fullscreenenter"",""1"",""1457""
","
","
","""event"",""trial"",""time""
""fullscreenenter"",""1"",""1457""
","
","true","","","","","","","","","","","","","","","","","","","","","","","","","",""
"pit-instructions","2","7353","0.0-2.0-0.0","battery-v0.2","","""event"",""trial"",""time""
""fullscreenenter"",""1"",""1457""
","
","
","""event"",""trial"",""time""
""fullscreenenter"",""1"",""1457""
","
","","[{""page_index"":0,""viewing_time"":4902.9000000059605}]","4903.29999999702","","","","","","","","","","","","","","","","","","","","","","","",""
"pit-comprehension","3","12416","0.0-2.0-1.0-0.0","battery-v0.2","","""event"",""trial"",""time""
""fullscreenenter"",""1"",""1457""
","
","
","""event"",""trial"",""time""
""fullscreenenter"",""1"",""1457""
","
","","","5059.29999999702","[""shark""]","0","12","20449","7509","","","","","","","","","","","","","","","","","","",""
"pit-instructions","4","14653","0.0-2.0-1.0-1.0","battery-v0.2","","""event"",""trial"",""time""
""fullscreenenter"",""1"",""1457""
","
","
","""event"",""trial"",""time""
""fullscreenenter"",""1"",""1457""
","
","","[{""page_index"":0,""viewing_time"":2230.7000000029802}]","2231","","","","","","","","","","","","","","","","","","","","","","","",""
"pit-comprehension","5","18678","0.0-2.0-2.0-0.0","battery-v0.2","","""event"",""trial"",""time""
""fullscreenenter"",""1"",""1457""
","
","
","""event"",""trial"",""time""
""fullscreenenter"",""1"",""1457""
","
","","","4021.7999999970198","[""tiger""]","0","12","20449","7509","","","","","","","","","","","","","","","","","","",""
"pit-instructions","6","21184","0.0-2.0-2.0-1.0","battery-v0.2","","""event"",""trial"",""time""
""fullscreenenter"",""1"",""1457""
","
","
","""event"",""trial"",""time""
""fullscreenenter"",""1"",""1457""
","
","","[{""page_index"":0,""viewing_time"":2502.3999999910593}]","2502.5999999940395","","","","","","","","","","","","","","","","","","","","","","","",""
"pit-instructions","7","116998","0.0-2.0-3.0","battery-v0.2","","""event"",""trial"",""time""
""fullscreenenter"",""1"",""1457""
","
","
","""event"",""trial"",""time""
""fullscreenenter"",""1"",""1457""
","
","","[{""page_index"":0,""viewing_time"":8081.100000008941},{""page_index"":1,""viewing_time"":5992.199999988079},{""page_index"":2,""viewing_time"":7276.20000000298},{""page_index"":3,""viewing_time"":5233.70000000298},{""page_index"":4,""viewing_time"":7872.9000000059605},{""page_index"":5,""viewing_time"":5607},{""page_index"":6,""viewing_time"":6948.199999988079},{""page_index"":7,""viewing_time"":6743.70000000298},{""page_index"":8,""viewing_time"":6796.4000000059605},{""page_index"":9,""viewing_time"":6483.20000000298},{""page_index"":10,""viewing_time"":7078.399999991059},{""page_index"":11,""viewing_time"":7997.70000000298},{""page_index"":12,""viewing_time"":7042},{""page_index"":13,""viewing_time"":6657.20000000298}]","95810.29999999702","","","","","","","","","","","","","","","","","","","","","","","",""
"pit-trial","8","120761","0.0-2.0-4.0-0.0","battery-v0.2","","""event"",""trial"",""time""
""fullscreenenter"",""1"",""1457""
","
","
","""event"",""trial"",""time""
""fullscreenenter"",""1"",""1457""
","
","","","902.7999999970198","","","12","20449","7509","&#9784;","elianto","#FFFFF080"," "," ","1","&#10004","[1757.7000000029802]","1","0","0","","","","","","","",""
"pit-trial","9","124468","0.0-2.0-4.1-0.1","battery-v0.2","","""event"",""trial"",""time""
""fullscreenenter"",""1"",""1457""
","
","
","""event"",""trial"",""time""
""fullscreenenter"",""1"",""1457""
","
","","","853","","","12","20449","7509","&#9784;","elianto","#FFFFF080"," "," ","1","&#10004","[1704.4000000059605]","1","0","0","","","","","","","",""
"pit-trial","10","128177","0.0-2.0-4.2-0.2","battery-v0.2","","""event"",""trial"",""time""
""fullscreenenter"",""1"",""1457""
","
","
","""event"",""trial"",""time""
""fullscreenenter"",""1"",""1457""
","
","","","851.6999999880791","","","12","20449","7509","&#9784;","elianto","#FFFFF080"," "," ","1","&#10004","[1704.0999999940395]","1","0","0","","","","","","","",""
"pit-trial","11","131742","0.0-2.0-4.3-0.3","battery-v0.2","","""event"",""trial"",""time""
""fullscreenenter"",""1"",""1457""
","
","
","""event"",""trial"",""time""
""fullscreenenter"",""1"",""1457""
","
","","","710.5","","","12","20449","7509","&#9784;","elianto","#FFFFF080"," "," ","1","&#10004","[1562.2000000029802]","1","0","0","","","","","","","",""
"pit-trial","12","135455","0.0-2.0-4.4-0.4","battery-v0.2","","""event"",""trial"",""time""
""fullscreenenter"",""1"",""1457""
","
","
","""event"",""trial"",""time""
""fullscreenenter"",""1"",""1457""
","
","","","858.2999999970198","","","12","20449","7509","&#9784;","elianto","#FFFFF080"," "," ","1","&#10004","[1711.0999999940395]","1","0","0","","","","","","","",""
"pit-instructions","13","156973","0.0-2.0-5.0","battery-v0.2","","""event"",""trial"",""time""
""fullscreenenter"",""1"",""1457""
","
","
","""event"",""trial"",""time""
""fullscreenenter"",""1"",""1457""
","
","","[{""page_index"":0,""viewing_time"":5745.0999999940395},{""page_index"":1,""viewing_time"":5659.9000000059605},{""page_index"":2,""viewing_time"":4524.199999988079},{""page_index"":3,""viewing_time"":5586.300000011921}]","21515.79999999702","","","","","","","","","","","","","","","","","","","","","","","",""
"pit-trial","14","161827","0.0-2.0-6.0-0.0","battery-v0.2","","""event"",""trial"",""time""
""fullscreenenter"",""1"",""1457""
","
","
","""event"",""trial"",""time""
""fullscreenenter"",""1"",""1457""
","
","","","-1","","","12","20449","7509","&#9854;","elianto","#FFFFF080","-1","-1","1","&#10004","[]","0","0","1","","","","","","","",""
"pit-trial","15","166681","0.0-2.0-6.1-0.1","battery-v0.2","","""event"",""trial"",""time""
""fullscreenenter"",""1"",""1457""
","
","
","""event"",""trial"",""time""
""fullscreenenter"",""1"",""1457""
","
","","","-1","","","12","20449","7509","&#9854;","elianto","#FFFFF080","-1","-1","1","&#10004","[]","0","0","1","","","","","","","",""
"pit-trial","16","171535","0.0-2.0-6.2-0.2","battery-v0.2","","""event"",""trial"",""time""
""fullscreenenter"",""1"",""1457""
","
","
","""event"",""trial"",""time""
""fullscreenenter"",""1"",""1457""
","
","","","-1","","","12","20449","7509","&#9854;","elianto","#FFFFF080","-1","-1","1","&#10004","[]","0","0","1","","","","","","","",""
"pit-trial","17","176389","0.0-2.0-6.3-0.3","battery-v0.2","","""event"",""trial"",""time""
""fullscreenenter"",""1"",""1457""
","
","
","""event"",""trial"",""time""
""fullscreenenter"",""1"",""1457""
","
","","","-1","","","12","20449","7509","&#9854;","elianto","#FFFFF080","-1","-1","1","&#10004","[]","0","0","1","","","","","","","",""
"pit-trial","18","181243","0.0-2.0-6.4-0.4","battery-v0.2","","""event"",""trial"",""time""
""fullscreenenter"",""1"",""1457""
","
","
","""event"",""trial"",""time""
""fullscreenenter"",""1"",""1457""
","
","","","-1","","","12","20449","7509","&#9854;","elianto","#FFFFF080","-1","-1","1","&#10004","[]","0","0","1","","","","","","","",""
"pit-instructions","19","296311","0.0-2.0-7.0","battery-v0.2","","""event"",""trial"",""time""
""fullscreenenter"",""1"",""1457""
","
","
","""event"",""trial"",""time""
""fullscreenenter"",""1"",""1457""
","
","","[{""page_index"":0,""viewing_time"":5583.9000000059605},{""page_index"":1,""viewing_time"":6735.79999999702},{""page_index"":2,""viewing_time"":7976},{""page_index"":3,""viewing_time"":5789},{""page_index"":4,""viewing_time"":5058.399999991059},{""page_index"":5,""viewing_time"":5657.9000000059605},{""page_index"":6,""viewing_time"":4043.7000000029802},{""page_index"":7,""viewing_time"":7568.20000000298},{""page_index"":8,""viewing_time"":6655.699999988079},{""page_index"":9,""viewing_time"":6158},{""page_index"":10,""viewing_time"":6406.300000011921},{""page_index"":11,""viewing_time"":4541.899999991059},{""page_index"":12,""viewing_time"":8277.79999999702},{""page_index"":13,""viewing_time"":8728.10000000894},{""page_index"":14,""viewing_time"":6476.20000000298},{""page_index"":15,""viewing_time"":6692},{""page_index"":16,""viewing_time"":6641.79999999702},{""page_index"":17,""viewing_time"":6072}]","115063","","","","","","","","","","","","","","","","","","","","","","","",""
"pit-trial","20","299928","0.0-2.0-8.0-0.0","battery-v0.2","","""event"",""trial"",""time""
""fullscreenenter"",""1"",""1457""
","
","
","""event"",""trial"",""time""
""fullscreenenter"",""1"",""1457""
","
","","","762.7000000029802","","","12","20449","7509","&#9776;","elianto","#3366ff99"," "," ","1","+10","[1613.6000000089407]","1","0","1","","","","","","","",""
"pit-trial","21","303378","0.0-2.0-8.0-1.0","battery-v0.2","","""event"",""trial"",""time""
""fullscreenenter"",""1"",""1457""
","
","
","""event"",""trial"",""time""
""fullscreenenter"",""1"",""1457""
","
","","","598.2000000029802","","","12","20449","7509","&#9776;","elianto","#3366ff99"," "," ","1","+10","[1448.7000000029802]","1","0","1","","","","","","","",""
"pit-trial","22","306792","0.0-2.0-8.0-2.0","battery-v0.2","","""event"",""trial"",""time""
""fullscreenenter"",""1"",""1457""
","
","
","""event"",""trial"",""time""
""fullscreenenter"",""1"",""1457""
","
","","","561.0999999940395","","","12","20449","7509","&#9776;","elianto","#3366ff99"," "," ","1","+10","[1411.800000011921]","1","0","1","","","","","","","",""
"pit-trial","23","310219","0.0-2.0-8.0-3.0","battery-v0.2","","""event"",""trial"",""time""
""fullscreenenter"",""1"",""1457""
","
","
","""event"",""trial"",""time""
""fullscreenenter"",""1"",""1457""
","
","","","572.8000000119209","","","12","20449","7509","&#9776;","elianto","#3366ff99"," "," ","1","0","[1423.5]","1","0","1","","","","","","","",""
"pit-trial","24","313593","0.0-2.0-8.0-4.0","battery-v0.2","","""event"",""trial"",""time""
""fullscreenenter"",""1"",""1457""
","
","
","""event"",""trial"",""time""
""fullscreenenter"",""1"",""1457""
","
","","","516.2999999970198","","","12","20449","7509","&#9776;","elianto","#3366ff99"," "," ","1","+10","[1371.1000000089407]","1","0","1","","","","","","","",""
"pit-trial","25","317027","0.0-2.0-8.1-0.1","battery-v0.2","","""event"",""trial"",""time""
""fullscreenenter"",""1"",""1457""
","
","
","""event"",""trial"",""time""
""fullscreenenter"",""1"",""1457""
","
","","","578.5","","","12","20449","7509","&#9776;","elianto","#3366ff99"," "," ","1","+10","[1430.5]","1","0","1","","","","","","","",""
"pit-trial","26","320118","0.0-2.0-8.1-1.1","battery-v0.2","","""event"",""trial"",""time""
""fullscreenenter"",""1"",""1457""
","
","
","""event"",""trial"",""time""
""fullscreenenter"",""1"",""1457""
","
","","","238.20000000298023","","","12","20449","7509","&#9776;","elianto","#3366ff99"," "," ","1","+10","[1088.7999999970198]","1","0","1","","","","","","","",""
"pit-trial","27","323514","0.0-2.0-8.1-2.1","battery-v0.2","","""event"",""trial"",""time""
""fullscreenenter"",""1"",""1457""
","
","
","""event"",""trial"",""time""
""fullscreenenter"",""1"",""1457""
","
","","","542.3999999910593","","","12","20449","7509","&#9776;","elianto","#3366ff99"," "," ","1","+10","[1394.199999988079]","1","0","1","","","","","","","",""
"pit-trial","28","326993","0.0-2.0-8.1-3.1","battery-v0.2","","""event"",""trial"",""time""
""fullscreenenter"",""1"",""1457""
","
","
","""event"",""trial"",""time""
""fullscreenenter"",""1"",""1457""
","
","","","624.9000000059605","","","12","20449","7509","&#9776;","elianto","#3366ff99"," "," ","1","0","[1476,1749.300000011921,2523.1000000089407]","3","0","1","","","","","","","",""
"pit-trial","29","330404","0.0-2.0-8.1-4.1","battery-v0.2","","""event"",""trial"",""time""
""fullscreenenter"",""1"",""1457""
","
","
","""event"",""trial"",""time""
""fullscreenenter"",""1"",""1457""
","
","","","557.0999999940395","","","12","20449","7509","&#9776;","elianto","#3366ff99"," "," ","1","+10","[1407.2999999970198]","1","0","1","","","","","","","",""
"pit-trial","30","333785","0.0-2.0-8.2-0.2","battery-v0.2","","""event"",""trial"",""time""
""fullscreenenter"",""1"",""1457""
","
","
","""event"",""trial"",""time""
""fullscreenenter"",""1"",""1457""
","
","","","527.5","","","12","20449","7509","&#9776;","elianto","#3366ff99"," "," ","1","+10","[1378.300000011921]","1","0","1","","","","","","","",""
"pit-trial","31","337276","0.0-2.0-8.2-1.2","battery-v0.2","","""event"",""trial"",""time""
""fullscreenenter"",""1"",""1457""
","
","
","""event"",""trial"",""time""
""fullscreenenter"",""1"",""1457""
","
","","","637.5","","","12","20449","7509","&#9776;","elianto","#3366ff99"," "," ","1","+10","[1487.9000000059605]","1","0","1","","","","","","","",""
"pit-trial","32","341102","0.0-2.0-8.2-2.2","battery-v0.2","","""event"",""trial"",""time""
""fullscreenenter"",""1"",""1457""
","
","
","""event"",""trial"",""time""
""fullscreenenter"",""1"",""1457""
","
","","","969.2999999970198","","","12","20449","7509","&#9776;","elianto","#3366ff99"," "," ","1","+10","[1822.5999999940395]","1","0","1","","","","","","","",""
"pit-trial","33","345136","0.0-2.0-8.2-3.2","battery-v0.2","","""event"",""trial"",""time""
""fullscreenenter"",""1"",""1457""
","
","
","""event"",""trial"",""time""
""fullscreenenter"",""1"",""1457""
","
","","","1179.7000000029802","","","12","20449","7509","&#9776;","elianto","#3366ff99"," "," ","1","0","[2030.7999999970198]","1","0","1","","","","","","","",""
"pit-trial","34","348877","0.0-2.0-8.2-4.2","battery-v0.2","","""event"",""trial"",""time""
""fullscreenenter"",""1"",""1457""
","
","
","""event"",""trial"",""time""
""fullscreenenter"",""1"",""1457""
","
","","","886.5","","","12","20449","7509","&#9776;","elianto","#3366ff99"," "," ","1","+10","[1739]","1","0","1","","","","","","","",""
"call-function","35","348879","0.0-2.0-9.0","battery-v0.2","","""event"",""trial"",""time""
""fullscreenenter"",""1"",""1457""
","
","
","""event"",""trial"",""time""
""fullscreenenter"",""1"",""1457""
","
","","","","","","","","","","","","","","","","","","","","","","","","","","",""
"pit-instructions","36","387187","0.0-2.0-10.0","battery-v0.2","","""event"",""trial"",""time""
""fullscreenenter"",""1"",""1457""
","
","
","""event"",""trial"",""time""
""fullscreenenter"",""1"",""1457""
","
","","[{""page_index"":0,""viewing_time"":5769.20000000298},{""page_index"":1,""viewing_time"":6513.5},{""page_index"":2,""viewing_time"":9456.09999999404},{""page_index"":3,""viewing_time"":8951.90000000596},{""page_index"":4,""viewing_time"":7616.0999999940395}]","38307.10000000894","","","","","","","","","","","","","","","","","","","","","","","",""
"pit-trial","37","392041","0.0-2.0-11.0-0.0","battery-v0.2","","""event"",""trial"",""time""
""fullscreenenter"",""1"",""1457""
","
","
","""event"",""trial"",""time""
""fullscreenenter"",""1"",""1457""
","
","","","-1","","","12","20449","7509","&#9761;","elianto","#3366ff99","-1","-1","1","+10","[]","0","0","2","","","","","","","",""
"pit-trial","38","396896","0.0-2.0-11.0-1.0","battery-v0.2","","""event"",""trial"",""time""
""fullscreenenter"",""1"",""1457""
","
","
","""event"",""trial"",""time""
""fullscreenenter"",""1"",""1457""
","
","","","-1","","","12","20449","7509","&#9761;","elianto","#3366ff99","-1","-1","1","+10","[]","0","0","2","","","","","","","",""
"pit-trial","39","401750","0.0-2.0-11.0-2.0","battery-v0.2","","""event"",""trial"",""time""
""fullscreenenter"",""1"",""1457""
","
","
","""event"",""trial"",""time""
""fullscreenenter"",""1"",""1457""
","
","","","-1","","","12","20449","7509","&#9761;","elianto","#3366ff99","-1","-1","1","+10","[]","0","0","2","","","","","","","",""
"pit-trial","40","406604","0.0-2.0-11.0-3.0","battery-v0.2","","""event"",""trial"",""time""
""fullscreenenter"",""1"",""1457""
","
","
","""event"",""trial"",""time""
""fullscreenenter"",""1"",""1457""
","
","","","-1","","","12","20449","7509","&#9761;","elianto","#3366ff99","-1","-1","1","0","[]","0","0","2","","","","","","","",""
"pit-trial","41","411457","0.0-2.0-11.0-4.0","battery-v0.2","","""event"",""trial"",""time""
""fullscreenenter"",""1"",""1457""
","
","
","""event"",""trial"",""time""
""fullscreenenter"",""1"",""1457""
","
","","","-1","","","12","20449","7509","&#9761;","elianto","#3366ff99","-1","-1","1","+10","[]","0","0","2","","","","","","","",""
"pit-trial","42","416312","0.0-2.0-11.1-0.1","battery-v0.2","","""event"",""trial"",""time""
""fullscreenenter"",""1"",""1457""
","
","
","""event"",""trial"",""time""
""fullscreenenter"",""1"",""1457""
","
","","","-1","","","12","20449","7509","&#9761;","elianto","#3366ff99","-1","-1","1","+10","[]","0","0","2","","","","","","","",""
"pit-trial","43","421166","0.0-2.0-11.1-1.1","battery-v0.2","","""event"",""trial"",""time""
""fullscreenenter"",""1"",""1457""
","
","
","""event"",""trial"",""time""
""fullscreenenter"",""1"",""1457""
","
","","","-1","","","12","20449","7509","&#9761;","elianto","#3366ff99","-1","-1","1","+10","[]","0","0","2","","","","","","","",""
"pit-trial","44","424661","0.0-2.0-11.1-2.1","battery-v0.2","","""event"",""trial"",""time""
""fullscreenenter"",""1"",""1457""
","
","
","""event"",""trial"",""time""
""fullscreenenter"",""1"",""1457""
","
","","","640.6999999880791","","","12","20449","7509","&#9761;","elianto","#3366ff99","-1"," ","0","0","[1492.5]","1","0","2","","","","","","","",""
"pit-trial","45","429517","0.0-2.0-11.1-3.1","battery-v0.2","","""event"",""trial"",""time""
""fullscreenenter"",""1"",""1457""
","
","
","""event"",""trial"",""time""
""fullscreenenter"",""1"",""1457""
","
","","","-1","","","12","20449","7509","&#9761;","elianto","#3366ff99","-1","-1","1","0","[]","0","0","2","","","","","","","",""
"pit-trial","46","434371","0.0-2.0-11.1-4.1","battery-v0.2","","""event"",""trial"",""time""
""fullscreenenter"",""1"",""1457""
","
","
","""event"",""trial"",""time""
""fullscreenenter"",""1"",""1457""
","
","","","-1","","","12","20449","7509","&#9761;","elianto","#3366ff99","-1","-1","1","+10","[]","0","0","2","","","","","","","",""
"pit-trial","47","439226","0.0-2.0-11.2-0.2","battery-v0.2","","""event"",""trial"",""time""
""fullscreenenter"",""1"",""1457""
","
","
","""event"",""trial"",""time""
""fullscreenenter"",""1"",""1457""
","
","","","-1","","","12","20449","7509","&#9761;","elianto","#3366ff99","-1","-1","1","+10","[]","0","0","2","","","","","","","",""
"pit-trial","48","444080","0.0-2.0-11.2-1.2","battery-v0.2","","""event"",""trial"",""time""
""fullscreenenter"",""1"",""1457""
","
","
","""event"",""trial"",""time""
""fullscreenenter"",""1"",""1457""
","
","","","-1","","","12","20449","7509","&#9761;","elianto","#3366ff99","-1","-1","1","+10","[]","0","0","2","","","","","","","",""
"pit-trial","49","447423","0.0-2.0-11.2-2.2","battery-v0.2","","""event"",""trial"",""time""
""fullscreenenter"",""1"",""1457""
","
","
","""event"",""trial"",""time""
""fullscreenenter"",""1"",""1457""
","
","","","488.5","","","12","20449","7509","&#9761;","elianto","#3366ff99","-1"," ","0","0","[1339.7999999970198]","1","0","2","","","","","","","",""
"pit-trial","50","452278","0.0-2.0-11.2-3.2","battery-v0.2","","""event"",""trial"",""time""
""fullscreenenter"",""1"",""1457""
","
","
","""event"",""trial"",""time""
""fullscreenenter"",""1"",""1457""
","
","","","-1","","","12","20449","7509","&#9761;","elianto","#3366ff99","-1","-1","1","0","[]","0","0","2","","","","","","","",""
"pit-trial","51","457133","0.0-2.0-11.2-4.2","battery-v0.2","","""event"",""trial"",""time""
""fullscreenenter"",""1"",""1457""
","
","
","""event"",""trial"",""time""
""fullscreenenter"",""1"",""1457""
","
","","","-1","","","12","20449","7509","&#9761;","elianto","#3366ff99","-1","-1","1","+10","[3561.4000000059605,3658.2000000029802,4535.600000008941]","3","0","2","","","","","","","",""
"pit-trial","52","461985","0.0-2.0-11.3-0.3","battery-v0.2","","""event"",""trial"",""time""
""fullscreenenter"",""1"",""1457""
","
","
","""event"",""trial"",""time""
""fullscreenenter"",""1"",""1457""
","
","","","-1","","","12","20449","7509","&#9761;","elianto","#3366ff99","-1","-1","1","+10","[88.59999999403954]","1","0","2","","","","","","","",""
"pit-trial","53","466839","0.0-2.0-11.3-1.3","battery-v0.2","","""event"",""trial"",""time""
""fullscreenenter"",""1"",""1457""
","
","
","""event"",""trial"",""time""
""fullscreenenter"",""1"",""1457""
","
","","","-1","","","12","20449","7509","&#9761;","elianto","#3366ff99","-1","-1","1","+10","[]","0","0","2","","","","","","","",""
"pit-trial","54","471693","0.0-2.0-11.3-2.3","battery-v0.2","","""event"",""trial"",""time""
""fullscreenenter"",""1"",""1457""
","
","
","""event"",""trial"",""time""
""fullscreenenter"",""1"",""1457""
","
","","","-1","","","12","20449","7509","&#9761;","elianto","#3366ff99","-1","-1","1","+10","[]","0","0","2","","","","","","","",""
"pit-trial","55","475017","0.0-2.0-11.3-3.3","battery-v0.2","","""event"",""trial"",""time""
""fullscreenenter"",""1"",""1457""
","
","
","""event"",""trial"",""time""
""fullscreenenter"",""1"",""1457""
","
","","","470.20000000298023","","","12","20449","7509","&#9761;","elianto","#3366ff99","-1"," ","0","+10","[1320.5]","1","0","2","","","","","","","",""
"pit-trial","56","479871","0.0-2.0-11.3-4.3","battery-v0.2","","""event"",""trial"",""time""
""fullscreenenter"",""1"",""1457""
","
","
","""event"",""trial"",""time""
""fullscreenenter"",""1"",""1457""
","
","","","-1","","","12","20449","7509","&#9761;","elianto","#3366ff99","-1","-1","1","+10","[]","0","0","2","","","","","","","",""
"call-function","57","479872","0.0-2.0-12.0","battery-v0.2","","""event"",""trial"",""time""
""fullscreenenter"",""1"",""1457""
","
","
","""event"",""trial"",""time""
""fullscreenenter"",""1"",""1457""
","
","","","","","","","","","","","","","","","","","","","","","","","","","","",""
"pit-instructions","58","509788","0.0-2.0-13.0","battery-v0.2","","""event"",""trial"",""time""
""fullscreenenter"",""1"",""1457""
","
","
","""event"",""trial"",""time""
""fullscreenenter"",""1"",""1457""
","
","","[{""page_index"":0,""viewing_time"":5256.29999999702},{""page_index"":1,""viewing_time"":6356},{""page_index"":2,""viewing_time"":4156},{""page_index"":3,""viewing_time"":10126.09999999404},{""page_index"":4,""viewing_time"":4020.1000000089407}]","29914.79999999702","","","","","","","","","","","","","","","","","","","","","","","",""
"pit-trial","59","514643","0.0-2.0-14.0-0.0","battery-v0.2","","""event"",""trial"",""time""
""fullscreenenter"",""1"",""1457""
","
","
","""event"",""trial"",""time""
""fullscreenenter"",""1"",""1457""
","
","","","-1","","","12","20449","7509","&#9826;","elianto","#f73b6a7A","-1","-1","1","0","[]","0","0","3","","","","","","","",""
"pit-trial","60","517919","0.0-2.0-14.0-1.0","battery-v0.2","","""event"",""trial"",""time""
""fullscreenenter"",""1"",""1457""
","
","
","""event"",""trial"",""time""
""fullscreenenter"",""1"",""1457""
","
","","","422.90000000596046","","","12","20449","7509","&#9826;","elianto","#f73b6a7A","-1"," ","0","-10","[1274.0999999940395]","1","0","3","","","","","","","",""
"pit-trial","61","522773","0.0-2.0-14.0-2.0","battery-v0.2","","""event"",""trial"",""time""
""fullscreenenter"",""1"",""1457""
","
","
","""event"",""trial"",""time""
""fullscreenenter"",""1"",""1457""
","
","","","-1","","","12","20449","7509","&#9826;","elianto","#f73b6a7A","-1","-1","1","0","[]","0","0","3","","","","","","","",""
"pit-trial","62","527625","0.0-2.0-14.0-3.0","battery-v0.2","","""event"",""trial"",""time""
""fullscreenenter"",""1"",""1457""
","
","
","""event"",""trial"",""time""
""fullscreenenter"",""1"",""1457""
","
","","","-1","","","12","20449","7509","&#9826;","elianto","#f73b6a7A","-1","-1","1","-10","[]","0","0","3","","","","","","","",""
"pit-trial","63","532479","0.0-2.0-14.0-4.0","battery-v0.2","","""event"",""trial"",""time""
""fullscreenenter"",""1"",""1457""
","
","
","""event"",""trial"",""time""
""fullscreenenter"",""1"",""1457""
","
","","","-1","","","12","20449","7509","&#9826;","elianto","#f73b6a7A","-1","-1","1","0","[]","0","0","3","","","","","","","",""
"pit-trial","64","537335","0.0-2.0-14.1-0.1","battery-v0.2","","""event"",""trial"",""time""
""fullscreenenter"",""1"",""1457""
","
","
","""event"",""trial"",""time""
""fullscreenenter"",""1"",""1457""
","
","","","-1","","","12","20449","7509","&#9826;","elianto","#f73b6a7A","-1","-1","1","0","[]","0","0","3","","","","","","","",""
"pit-trial","65","542188","0.0-2.0-14.1-1.1","battery-v0.2","","""event"",""trial"",""time""
""fullscreenenter"",""1"",""1457""
","
","
","""event"",""trial"",""time""
""fullscreenenter"",""1"",""1457""
","
","","","-1","","","12","20449","7509","&#9826;","elianto","#f73b6a7A","-1","-1","1","0","[]","0","0","3","","","","","","","",""
"pit-trial","66","547043","0.0-2.0-14.1-2.1","battery-v0.2","","""event"",""trial"",""time""
""fullscreenenter"",""1"",""1457""
","
","
","""event"",""trial"",""time""
""fullscreenenter"",""1"",""1457""
","
","","","-1","","","12","20449","7509","&#9826;","elianto","#f73b6a7A","-1","-1","1","0","[]","0","0","3","","","","","","","",""
"pit-trial","67","551897","0.0-2.0-14.1-3.1","battery-v0.2","","""event"",""trial"",""time""
""fullscreenenter"",""1"",""1457""
","
","
","""event"",""trial"",""time""
""fullscreenenter"",""1"",""1457""
","
","","","-1","","","12","20449","7509","&#9826;","elianto","#f73b6a7A","-1","-1","1","-10","[]","0","0","3","","","","","","","",""
"pit-trial","68","556752","0.0-2.0-14.1-4.1","battery-v0.2","","""event"",""trial"",""time""
""fullscreenenter"",""1"",""1457""
","
","
","""event"",""trial"",""time""
""fullscreenenter"",""1"",""1457""
","
","","","-1","","","12","20449","7509","&#9826;","elianto","#f73b6a7A","-1","-1","1","0","[]","0","0","3","","","","","","","",""
"pit-trial","69","561607","0.0-2.0-14.2-0.2","battery-v0.2","","""event"",""trial"",""time""
""fullscreenenter"",""1"",""1457""
","
","
","""event"",""trial"",""time""
""fullscreenenter"",""1"",""1457""
","
","","","-1","","","12","20449","7509","&#9826;","elianto","#f73b6a7A","-1","-1","1","0","[]","0","0","3","","","","","","","",""
"pit-trial","70","566461","0.0-2.0-14.2-1.2","battery-v0.2","","""event"",""trial"",""time""
""fullscreenenter"",""1"",""1457""
","
","
","""event"",""trial"",""time""
""fullscreenenter"",""1"",""1457""
","
","","","-1","","","12","20449","7509","&#9826;","elianto","#f73b6a7A","-1","-1","1","0","[]","0","0","3","","","","","","","",""
"pit-trial","71","569842","0.0-2.0-14.2-2.2","battery-v0.2","","""event"",""trial"",""time""
""fullscreenenter"",""1"",""1457""
","
","
","""event"",""trial"",""time""
""fullscreenenter"",""1"",""1457""
","
","","","526.7999999970198","","","12","20449","7509","&#9826;","elianto","#f73b6a7A","-1"," ","0","-10","[1378.9000000059605]","1","0","3","","","","","","","",""
"pit-trial","72","574697","0.0-2.0-14.2-3.2","battery-v0.2","","""event"",""trial"",""time""
""fullscreenenter"",""1"",""1457""
","
","
","""event"",""trial"",""time""
""fullscreenenter"",""1"",""1457""
","
","","","-1","","","12","20449","7509","&#9826;","elianto","#f73b6a7A","-1","-1","1","-10","[]","0","0","3","","","","","","","",""
"pit-trial","73","579551","0.0-2.0-14.2-4.2","battery-v0.2","","""event"",""trial"",""time""
""fullscreenenter"",""1"",""1457""
","
","
","""event"",""trial"",""time""
""fullscreenenter"",""1"",""1457""
","
","","","-1","","","12","20449","7509","&#9826;","elianto","#f73b6a7A","-1","-1","1","0","[]","0","0","3","","","","","","","",""
"pit-trial","74","584405","0.0-2.0-14.3-0.3","battery-v0.2","","""event"",""trial"",""time""
""fullscreenenter"",""1"",""1457""
","
","
","""event"",""trial"",""time""
""fullscreenenter"",""1"",""1457""
","
","","","-1","","","12","20449","7509","&#9826;","elianto","#f73b6a7A","-1","-1","1","0","[]","0","0","3","","","","","","","",""
"pit-trial","75","589260","0.0-2.0-14.3-1.3","battery-v0.2","","""event"",""trial"",""time""
""fullscreenenter"",""1"",""1457""
","
","
","""event"",""trial"",""time""
""fullscreenenter"",""1"",""1457""
","
","","","-1","","","12","20449","7509","&#9826;","elianto","#f73b6a7A","-1","-1","1","0","[]","0","0","3","","","","","","","",""
"pit-trial","76","594114","0.0-2.0-14.3-2.3","battery-v0.2","","""event"",""trial"",""time""
""fullscreenenter"",""1"",""1457""
","
","
","""event"",""trial"",""time""
""fullscreenenter"",""1"",""1457""
","
","","","-1","","","12","20449","7509","&#9826;","elianto","#f73b6a7A","-1","-1","1","0","[]","0","0","3","","","","","","","",""
"pit-trial","77","597533","0.0-2.0-14.3-3.3","battery-v0.2","","""event"",""trial"",""time""
""fullscreenenter"",""1"",""1457""
","
","
","""event"",""trial"",""time""
""fullscreenenter"",""1"",""1457""
","
","","","563.5","","","12","20449","7509","&#9826;","elianto","#f73b6a7A","-1"," ","0","0","[1415.5]","1","0","3","","","","","","","",""
"pit-trial","78","602387","0.0-2.0-14.3-4.3","battery-v0.2","","""event"",""trial"",""time""
""fullscreenenter"",""1"",""1457""
","
","
","""event"",""trial"",""time""
""fullscreenenter"",""1"",""1457""
","
","","","-1","","","12","20449","7509","&#9826;","elianto","#f73b6a7A","-1","-1","1","0","[]","0","0","3","","","","","","","",""
"call-function","79","602388","0.0-2.0-15.0","battery-v0.2","","""event"",""trial"",""time""
""fullscreenenter"",""1"",""1457""
","
","
","""event"",""trial"",""time""
""fullscreenenter"",""1"",""1457""
","
","","","","","","","","","","","","","","","","","","","","","","","","","","",""
"pit-instructions","80","638879","0.0-2.0-16.0","battery-v0.2","","""event"",""trial"",""time""
""fullscreenenter"",""1"",""1457""
","
","
","""event"",""trial"",""time""
""fullscreenenter"",""1"",""1457""
","
","","[{""page_index"":0,""viewing_time"":10444.20000000298},{""page_index"":1,""viewing_time"":14979.79999999702},{""page_index"":2,""viewing_time"":5435.5},{""page_index"":3,""viewing_time"":5629.9000000059605}]","36489.60000000894","","","","","","","","","","","","","","","","","","","","","","","",""
"pit-trial","81","642402","0.0-2.0-17.0-0.0","battery-v0.2","","""event"",""trial"",""time""
""fullscreenenter"",""1"",""1457""
","
","
","""event"",""trial"",""time""
""fullscreenenter"",""1"",""1457""
","
","","","668","","","12","20449","7509","&#9789;","elianto","#f73b6a7A"," "," ","1","0","[1519.6000000089407]","1","0","4","","","","","","","",""
"pit-trial","82","645844","0.0-2.0-17.0-1.0","battery-v0.2","","""event"",""trial"",""time""
""fullscreenenter"",""1"",""1457""
","
","
","""event"",""trial"",""time""
""fullscreenenter"",""1"",""1457""
","
","","","589.7000000029802","","","12","20449","7509","&#9789;","elianto","#f73b6a7A"," "," ","1","0","[1439.9000000059605]","1","0","4","","","","","","","",""
"pit-trial","83","650698","0.0-2.0-17.0-2.0","battery-v0.2","","""event"",""trial"",""time""
""fullscreenenter"",""1"",""1457""
","
","
","""event"",""trial"",""time""
""fullscreenenter"",""1"",""1457""
","
","","","-1","","","12","20449","7509","&#9789;","elianto","#f73b6a7A"," ","-1","0","-10","[3787.2999999970198]","1","0","4","","","","","","","",""
"pit-trial","84","653949","0.0-2.0-17.0-3.0","battery-v0.2","","""event"",""trial"",""time""
""fullscreenenter"",""1"",""1457""
","
","
","""event"",""trial"",""time""
""fullscreenenter"",""1"",""1457""
","
","","","397.59999999403954","","","12","20449","7509","&#9789;","elianto","#f73b6a7A"," "," ","1","-10","[1248.2999999970198]","1","0","4","","","","","","","",""
"pit-trial","85","657083","0.0-2.0-17.0-4.0","battery-v0.2","","""event"",""trial"",""time""
""fullscreenenter"",""1"",""1457""
","
","
","""event"",""trial"",""time""
""fullscreenenter"",""1"",""1457""
","
","","","280.30000001192093","","","12","20449","7509","&#9789;","elianto","#f73b6a7A"," "," ","1","0","[1132.2000000029802]","1","0","4","","","","","","","",""
"pit-trial","86","660315","0.0-2.0-17.1-0.1","battery-v0.2","","""event"",""trial"",""time""
""fullscreenenter"",""1"",""1457""
","
","
","""event"",""trial"",""time""
""fullscreenenter"",""1"",""1457""
","
","","","377.19999998807907","","","12","20449","7509","&#9789;","elianto","#f73b6a7A"," "," ","1","0","[762.5,1228.199999988079,1918,2196,2670.199999988079,3140.0999999940395]","6","0","4","","","","","","","",""
"pit-trial","87","663246","0.0-2.0-17.1-1.1","battery-v0.2","","""event"",""trial"",""time""
""fullscreenenter"",""1"",""1457""
","
","
","""event"",""trial"",""time""
""fullscreenenter"",""1"",""1457""
","
","","","78.09999999403954","","","12","20449","7509","&#9789;","elianto","#f73b6a7A"," "," ","1","0","[462,928.9000000059605,1384.0999999940395,1804.9000000059605,2704.0999999940395]","5","0","4","","","","","","","",""
"pit-trial","88","666637","0.0-2.0-17.1-2.1","battery-v0.2","","""event"",""trial"",""time""
""fullscreenenter"",""1"",""1457""
","
","
","""event"",""trial"",""time""
""fullscreenenter"",""1"",""1457""
","
","","","534.8999999910593","","","12","20449","7509","&#9789;","elianto","#f73b6a7A"," "," ","1","0","[378.20000000298023,1388.0999999940395]","2","0","4","","","","","","","",""
"pit-trial","89","669782","0.0-2.0-17.1-3.1","battery-v0.2","","""event"",""trial"",""time""
""fullscreenenter"",""1"",""1457""
","
","
","""event"",""trial"",""time""
""fullscreenenter"",""1"",""1457""
","
","","","291","","","12","20449","7509","&#9789;","elianto","#f73b6a7A"," "," ","1","-10","[1141.4000000059605]","1","0","4","","","","","","","",""
"pit-trial","90","673156","0.0-2.0-17.1-4.1","battery-v0.2","","""event"",""trial"",""time""
""fullscreenenter"",""1"",""1457""
","
","
","""event"",""trial"",""time""
""fullscreenenter"",""1"",""1457""
","
","","","520.5","","","12","20449","7509","&#9789;","elianto","#f73b6a7A"," "," ","1","0","[1371]","1","0","4","","","","","","","",""
"pit-trial","91","676362","0.0-2.0-17.2-0.2","battery-v0.2","","""event"",""trial"",""time""
""fullscreenenter"",""1"",""1457""
","
","
","""event"",""trial"",""time""
""fullscreenenter"",""1"",""1457""
","
","","","352.20000000298023","","","12","20449","7509","&#9789;","elianto","#f73b6a7A"," "," ","1","0","[145.5,1203.9000000059605]","2","0","4","","","","","","","",""
"pit-trial","92","679624","0.0-2.0-17.2-1.2","battery-v0.2","","""event"",""trial"",""time""
""fullscreenenter"",""1"",""1457""
","
","
","""event"",""trial"",""time""
""fullscreenenter"",""1"",""1457""
","
","","","407.3999999910593","","","12","20449","7509","&#9789;","elianto","#f73b6a7A"," "," ","1","0","[1260.2000000029802]","1","0","4","","","","","","","",""
"pit-trial","93","684479","0.0-2.0-17.2-2.2","battery-v0.2","","""event"",""trial"",""time""
""fullscreenenter"",""1"",""1457""
","
","
","""event"",""trial"",""time""
""fullscreenenter"",""1"",""1457""
","
","","","-1","","","12","20449","7509","&#9789;","elianto","#f73b6a7A"," ","-1","0","-10","[]","0","0","4","","","","","","","",""
"pit-trial","94","689333","0.0-2.0-17.2-3.2","battery-v0.2","","""event"",""trial"",""time""
""fullscreenenter"",""1"",""1457""
","
","
","""event"",""trial"",""time""
""fullscreenenter"",""1"",""1457""
","
","","","-1","","","12","20449","7509","&#9789;","elianto","#f73b6a7A"," ","-1","0","0","[]","0","0","4","","","","","","","",""
"pit-trial","95","692761","0.0-2.0-17.2-4.2","battery-v0.2","","""event"",""trial"",""time""
""fullscreenenter"",""1"",""1457""
","
","
","""event"",""trial"",""time""
""fullscreenenter"",""1"",""1457""
","
","","","573.2999999970198","","","12","20449","7509","&#9789;","elianto","#f73b6a7A"," "," ","1","0","[1425.1000000089407]","1","0","4","","","","","","","",""
"pit-trial","96","696158","0.0-2.0-17.3-0.3","battery-v0.2","","""event"",""trial"",""time""
""fullscreenenter"",""1"",""1457""
","
","
","""event"",""trial"",""time""
""fullscreenenter"",""1"",""1457""
","
","","","543.2000000029802","","","12","20449","7509","&#9789;","elianto","#f73b6a7A"," "," ","1","0","[1394.3999999910593]","1","0","4","","","","","","","",""
"pit-trial","97","699098","0.0-2.0-17.3-1.3","battery-v0.2","","""event"",""trial"",""time""
""fullscreenenter"",""1"",""1457""
","
","
","""event"",""trial"",""time""
""fullscreenenter"",""1"",""1457""
","
","","","86.79999999701977","","","12","20449","7509","&#9789;","elianto","#f73b6a7A"," "," ","1","0","[619,937.2000000029802]","2","0","4","","","","","","","",""
"pit-trial","98","702646","0.0-2.0-17.3-2.3","battery-v0.2","","""event"",""trial"",""time""
""fullscreenenter"",""1"",""1457""
","
","
","""event"",""trial"",""time""
""fullscreenenter"",""1"",""1457""
","
","","","695.8000000119209","","","12","20449","7509","&#9789;","elianto","#f73b6a7A"," "," ","1","0","[233,438.79999999701977,707.9000000059605,1545.7999999970198]","4","0","4","","","","","","","",""
"pit-trial","99","705888","0.0-2.0-17.3-3.3","battery-v0.2","","""event"",""trial"",""time""
""fullscreenenter"",""1"",""1457""
","
","
","""event"",""trial"",""time""
""fullscreenenter"",""1"",""1457""
","
","","","389","","","12","20449","7509","&#9789;","elianto","#f73b6a7A"," "," ","1","-10","[1240.0999999940395]","1","0","4","","","","","","","",""
"pit-trial","100","709225","0.0-2.0-17.3-4.3","battery-v0.2","","""event"",""trial"",""time""
""fullscreenenter"",""1"",""1457""
","
","
","""event"",""trial"",""time""
""fullscreenenter"",""1"",""1457""
","
","","","482.5","","","12","20449","7509","&#9789;","elianto","#f73b6a7A"," "," ","1","0","[130.20000000298023,1333.9000000059605,2347.9000000059605,2759.5]","4","0","4","","","","","","","",""
"call-function","101","709226","0.0-2.0-18.0","battery-v0.2","","""event"",""trial"",""time""
""fullscreenenter"",""1"",""1457""
","
","
","""event"",""trial"",""time""
""fullscreenenter"",""1"",""1457""
","
","","","","","","","","","","","","","","","","","","","","","","","","","","",""
"pit-instructions","102","769167","0.0-2.0-19.0","battery-v0.2","","""event"",""trial"",""time""
""fullscreenenter"",""1"",""1457""
","
","
","""event"",""trial"",""time""
""fullscreenenter"",""1"",""1457""
","
","","[{""page_index"":0,""viewing_time"":6683.100000008941},{""page_index"":1,""viewing_time"":4037.7999999970198},{""page_index"":2,""viewing_time"":10014},{""page_index"":3,""viewing_time"":6010.20000000298},{""page_index"":4,""viewing_time"":7982},{""page_index"":5,""viewing_time"":9144},{""page_index"":6,""viewing_time"":4691.899999991059},{""page_index"":7,""viewing_time"":6417.9000000059605},{""page_index"":8,""viewing_time"":4957.79999999702}]","59939","","","","","","","","","","","","","","","","","","","","","","","",""
"pit-comprehension","103","773753","0.0-2.0-20.0-0.0","battery-v0.2","","""event"",""trial"",""time""
""fullscreenenter"",""1"",""1457""
","
","
","""event"",""trial"",""time""
""fullscreenenter"",""1"",""1457""
","
","","","4583.70000000298","[""SPACE""]","0","12","20449","7509","","","","","","","","","","","","","","","","","","",""
"pit-instructions","104","779025","0.0-2.0-20.0-1.0","battery-v0.2","","""event"",""trial"",""time""
""fullscreenenter"",""1"",""1457""
","
","
","""event"",""trial"",""time""
""fullscreenenter"",""1"",""1457""
","
","","[{""page_index"":0,""viewing_time"":5243.600000008941}]","5243.9000000059605","","","","","","","","","","","","","","","","","","","","","","","",""
"pit-comprehension","105","785379","0.0-2.0-21.0-0.0","battery-v0.2","","""event"",""trial"",""time""
""fullscreenenter"",""1"",""1457""
","
","
","""event"",""trial"",""time""
""fullscreenenter"",""1"",""1457""
","
","","","6352.0999999940395","[""10""]","0","12","20449","7509","","","","","","","","","","","","","","","","","","",""
"pit-instructions","106","789893","0.0-2.0-21.0-1.0","battery-v0.2","","""event"",""trial"",""time""
""fullscreenenter"",""1"",""1457""
","
","
","""event"",""trial"",""time""
""fullscreenenter"",""1"",""1457""
","
","","[{""page_index"":0,""viewing_time"":4486.79999999702}]","4487.0999999940395","","","","","","","","","","","","","","","","","","","","","","","",""
"pit-comprehension","107","796471","0.0-2.0-22.0-0.0","battery-v0.2","","""event"",""trial"",""time""
""fullscreenenter"",""1"",""1457""
","
","
","""event"",""trial"",""time""
""fullscreenenter"",""1"",""1457""
","
","","","6575.600000008941","[""0""]","0","12","20449","7509","","","","","","","","","","","","","","","","","","",""
"pit-instructions","108","798276","0.0-2.0-22.0-1.0","battery-v0.2","","""event"",""trial"",""time""
""fullscreenenter"",""1"",""1457""
","
","
","""event"",""trial"",""time""
""fullscreenenter"",""1"",""1457""
","
","","[{""page_index"":0,""viewing_time"":1774.5999999940395}]","1774.7999999970198","","","","","","","","","","","","","","","","","","","","","","","",""
"pit-comprehension","109","806882","0.0-2.0-23.0-0.0","battery-v0.2","","""event"",""trial"",""time""
""fullscreenenter"",""1"",""1457""
","
","
","""event"",""trial"",""time""
""fullscreenenter"",""1"",""1457""
","
","","","8603","[""True""]","0","12","20449","7509","","","","","","","","","","","","","","","","","","",""
"pit-instructions","110","809067","0.0-2.0-23.0-1.0","battery-v0.2","","""event"",""trial"",""time""
""fullscreenenter"",""1"",""1457""
","
","
","""event"",""trial"",""time""
""fullscreenenter"",""1"",""1457""
","
","","[{""page_index"":0,""viewing_time"":2157.2000000029802}]","2157.3999999910593","","","","","","","","","","","","","","","","","","","","","","","",""
"pit-comprehension","111","817884","0.0-2.0-24.0-0.0","battery-v0.2","","""event"",""trial"",""time""
""fullscreenenter"",""1"",""1457""
","
","
","""event"",""trial"",""time""
""fullscreenenter"",""1"",""1457""
","
","","","8814.70000000298","[""True""]","0","12","20449","7509","","","","","","","","","","","","","","","","","","",""
"pit-instructions","112","819581","0.0-2.0-24.0-1.0","battery-v0.2","","""event"",""trial"",""time""
""fullscreenenter"",""1"",""1457""
","
","
","""event"",""trial"",""time""
""fullscreenenter"",""1"",""1457""
","
","","[{""page_index"":0,""viewing_time"":1664.7999999970198}]","1665.1000000089407","","","","","","","","","","","","","","","","","","","","","","","",""
"pit-comprehension","113","826250","0.0-2.0-25.0-0.0","battery-v0.2","","""event"",""trial"",""time""
""fullscreenenter"",""1"",""1457""
","
","
","""event"",""trial"",""time""
""fullscreenenter"",""1"",""1457""
","
","","","6666","[""True""]","0","12","20449","7509","","","","","","","","","","","","","","","","","","",""
"pit-instructions","114","828082","0.0-2.0-25.0-1.0","battery-v0.2","","""event"",""trial"",""time""
""fullscreenenter"",""1"",""1457""
","
","
","""event"",""trial"",""time""
""fullscreenenter"",""1"",""1457""
","
","","[{""page_index"":0,""viewing_time"":1803.5}]","1803.7999999970198","","","","","","","","","","","","","","","","","","","","","","","",""
"pit-comprehension","115","835061","0.0-2.0-26.0-0.0","battery-v0.2","","""event"",""trial"",""time""
""fullscreenenter"",""1"",""1457""
","
","
","""event"",""trial"",""time""
""fullscreenenter"",""1"",""1457""
","
","","","6976.29999999702","[""False""]","0","12","20449","7509","","","","","","","","","","","","","","","","","","",""
"pit-instructions","116","836736","0.0-2.0-26.0-1.0","battery-v0.2","","""event"",""trial"",""time""
""fullscreenenter"",""1"",""1457""
","
","
","""event"",""trial"",""time""
""fullscreenenter"",""1"",""1457""
","
","","[{""page_index"":0,""viewing_time"":1642.699999988079}]","1643","","","","","","","","","","","","","","","","","","","","","","","",""
"pit-instructions","117","856882","0.0-3.0","battery-v0.2","","""event"",""trial"",""time""
""fullscreenenter"",""1"",""1457""
","
","
","""event"",""trial"",""time""
""fullscreenenter"",""1"",""1457""
","
","","[{""page_index"":0,""viewing_time"":6830.899999991059},{""page_index"":1,""viewing_time"":5341},{""page_index"":2,""viewing_time"":7972.100000008941}]","20144.20000000298","","","","","","","","","","","","","","","","","","","","","","","",""
"pit-trial","118","860820","0.0-4.0","battery-v0.2","","""event"",""trial"",""time""
""fullscreenenter"",""1"",""1457""
","
","
","""event"",""trial"",""time""
""fullscreenenter"",""1"",""1457""
","
","","","1082","","","12","20449","7509","&#9730;","elianto","#3366ff99"," "," ","1","+10","[1932.2999999970198]","1","1","","","20449","1","1","1","win","go","0"
"pit-trial","119","865677","0.0-5.0","battery-v0.2","","""event"",""trial"",""time""
""fullscreenenter"",""1"",""1457""
","
","
","""event"",""trial"",""time""
""fullscreenenter"",""1"",""1457""
","
","","","-1","","","12","20449","7509","&#9733;","elianto","#3366ff99","-1","-1","1","0","[]","0","1","","","20449","2","2","2","win","no-go","1"
"pit-trial","120","870537","0.0-6.0","battery-v0.2","","""event"",""trial"",""time""
""fullscreenenter"",""1"",""1457""
","
","
","""event"",""trial"",""time""
""fullscreenenter"",""1"",""1457""
","
","","","-1","","","12","20449","7509","&#9728;","elianto","#f73b6a7A","-1","-1","1","-10","[]","0","1","","","20449","3","0","4","lose","no-go","1"
"pit-trial","121","874624","0.0-7.0","battery-v0.2","","""event"",""trial"",""time""
""fullscreenenter"",""1"",""1457""
","
","
","""event"",""trial"",""time""
""fullscreenenter"",""1"",""1457""
","
","","","1230.7000000029802","","","12","20449","7509","&#9752;","elianto","#f73b6a7A"," "," ","1","0","[2080.7000000029802]","1","1","","","20449","4","3","3","lose","go","0"
"pit-trial","122","879358","0.0-8.0","battery-v0.2","","""event"",""trial"",""time""
""fullscreenenter"",""1"",""1457""
","
","
","""event"",""trial"",""time""
""fullscreenenter"",""1"",""1457""
","
","","","1875","","","12","20449","7509","&#9728;","elianto","#f73b6a7A","-1"," ","0","-10","[2727.5999999940395]","1","1","","","20449","5","0","4","lose","no-go","0"
"pit-trial","123","883920","0.0-9.0","battery-v0.2","","""event"",""trial"",""time""
""fullscreenenter"",""1"",""1457""
","
","
","""event"",""trial"",""time""
""fullscreenenter"",""1"",""1457""
","
","","","1705.5","","","12","20449","7509","&#9730;","elianto","#3366ff99"," "," ","1","+10","[2556.5999999940395]","1","1","","","20449","6","1","1","win","go","0"
"pit-trial","124","888210","0.0-10.0","battery-v0.2","","""event"",""trial"",""time""
""fullscreenenter"",""1"",""1457""
","
","
","""event"",""trial"",""time""
""fullscreenenter"",""1"",""1457""
","
","","","1432.7000000029802","","","12","20449","7509","&#9752;","elianto","#f73b6a7A"," "," ","1","-10","[2285.2000000029802]","1","1","","","20449","7","3","3","lose","go","1"
"pit-trial","125","893066","0.0-11.0","battery-v0.2","","""event"",""trial"",""time""
""fullscreenenter"",""1"",""1457""
","
","
","""event"",""trial"",""time""
""fullscreenenter"",""1"",""1457""
","
","","","-1","","","12","20449","7509","&#9733;","elianto","#3366ff99","-1","-1","1","+10","[]","0","1","","","20449","8","2","2","win","no-go","0"
"pit-trial","126","897922","0.0-12.0","battery-v0.2","","""event"",""trial"",""time""
""fullscreenenter"",""1"",""1457""
","
","
","""event"",""trial"",""time""
""fullscreenenter"",""1"",""1457""
","
","","","-1","","","12","20449","7509","&#9733;","elianto","#3366ff99","-1","-1","1","+10","[]","0","1","","","20449","9","2","2","win","no-go","0"
"pit-trial","127","902775","0.0-13.0","battery-v0.2","","""event"",""trial"",""time""
""fullscreenenter"",""1"",""1457""
","
","
","""event"",""trial"",""time""
""fullscreenenter"",""1"",""1457""
","
","","","-1","","","12","20449","7509","&#9752;","elianto","#f73b6a7A"," ","-1","0","0","[]","0","1","","","20449","10","3","3","lose","go","1"
"pit-trial","128","906652","0.0-14.0","battery-v0.2","","""event"",""trial"",""time""
""fullscreenenter"",""1"",""1457""
","
","
","""event"",""trial"",""time""
""fullscreenenter"",""1"",""1457""
","
","","","1021.6000000089407","","","12","20449","7509","&#9728;","elianto","#f73b6a7A","-1"," ","0","0","[1872.5]","1","1","","","20449","11","0","4","lose","no-go","1"
"pit-trial","129","910545","0.0-15.0","battery-v0.2","","""event"",""trial"",""time""
""fullscreenenter"",""1"",""1457""
","
","
","""event"",""trial"",""time""
""fullscreenenter"",""1"",""1457""
","
","","","1039","","","12","20449","7509","&#9730;","elianto","#3366ff99"," "," ","1","0","[1890]","1","1","","","20449","12","1","1","win","go","1"
"pit-trial","130","915399","0.0-16.0","battery-v0.2","","""event"",""trial"",""time""
""fullscreenenter"",""1"",""1457""
","
","
","""event"",""trial"",""time""
""fullscreenenter"",""1"",""1457""
","
","","","-1","","","12","20449","7509","&#9728;","elianto","#f73b6a7A","-1","-1","1","0","[3065.4000000059605]","1","1","","","20449","13","0","4","lose","no-go","0"
"pit-trial","131","919476","0.0-17.0","battery-v0.2","","""event"",""trial"",""time""
""fullscreenenter"",""1"",""1457""
","
","
","""event"",""trial"",""time""
""fullscreenenter"",""1"",""1457""
","
","","","1221.300000011921","","","12","20449","7509","&#9730;","elianto","#3366ff99"," "," ","1","+10","[2073]","1","1","","","20449","14","1","1","win","go","0"
"pit-trial","132","924331","0.0-18.0","battery-v0.2","","""event"",""trial"",""time""
""fullscreenenter"",""1"",""1457""
","
","
","""event"",""trial"",""time""
""fullscreenenter"",""1"",""1457""
","
","","","-1","","","12","20449","7509","&#9733;","elianto","#3366ff99","-1","-1","1","+10","[]","0","1","","","20449","15","2","2","win","no-go","0"
"pit-trial","133","929185","0.0-19.0","battery-v0.2","","""event"",""trial"",""time""
""fullscreenenter"",""1"",""1457""
","
","
","""event"",""trial"",""time""
""fullscreenenter"",""1"",""1457""
","
","","","-1","","","12","20449","7509","&#9752;","elianto","#f73b6a7A"," ","-1","0","-10","[]","0","1","","","20449","16","3","3","lose","go","0"
"pit-trial","134","934039","0.0-20.0","battery-v0.2","","""event"",""trial"",""time""
""fullscreenenter"",""1"",""1457""
","
","
","""event"",""trial"",""time""
""fullscreenenter"",""1"",""1457""
","
","","","-1","","","12","20449","7509","&#9733;","elianto","#3366ff99","-1","-1","1","+10","[]","0","1","","","20449","17","2","2","win","no-go","0"
"pit-trial","135","938894","0.0-21.0","battery-v0.2","","""event"",""trial"",""time""
""fullscreenenter"",""1"",""1457""
","
","
","""event"",""trial"",""time""
""fullscreenenter"",""1"",""1457""
","
","","","-1","","","12","20449","7509","&#9752;","elianto","#f73b6a7A"," ","-1","0","-10","[]","0","1","","","20449","18","3","3","lose","go","0"
"pit-trial","136","942751","0.0-22.0","battery-v0.2","","""event"",""trial"",""time""
""fullscreenenter"",""1"",""1457""
","
","
","""event"",""trial"",""time""
""fullscreenenter"",""1"",""1457""
","
","","","1001.9000000059605","","","12","20449","7509","&#9730;","elianto","#3366ff99"," "," ","1","+10","[1852.7999999970198]","1","1","","","20449","19","1","1","win","go","0"
"pit-trial","137","946734","0.0-23.0","battery-v0.2","","""event"",""trial"",""time""
""fullscreenenter"",""1"",""1457""
","
","
","""event"",""trial"",""time""
""fullscreenenter"",""1"",""1457""
","
","","","1126.699999988079","","","12","20449","7509","&#9728;","elianto","#f73b6a7A","-1"," ","0","-10","[1979.5]","1","1","","","20449","20","0","4","lose","no-go","0"
"pit-instructions","138","959288","0.0-24.0","battery-v0.2","","""event"",""trial"",""time""
""fullscreenenter"",""1"",""1457""
","
","
","""event"",""trial"",""time""
""fullscreenenter"",""1"",""1457""
","
","","[{""page_index"":0,""viewing_time"":6020.79999999702},{""page_index"":1,""viewing_time"":6531.9000000059605}]","12553","","","","","","","","","","","","","","","","","","","","","","","",""
"pit-trial","139","963482","0.0-25.0","battery-v0.2","","""event"",""trial"",""time""
""fullscreenenter"",""1"",""1457""
","
","
","""event"",""trial"",""time""
""fullscreenenter"",""1"",""1457""
","
","","","1338.0999999940395","","","12","20449","7509","l","elianto","#3366ff99"," "," ","1","+10","[2190.2999999970198]","1","2","","","20449","21","1","1","win","go","0"
"pit-trial","140","968337","0.0-26.0","battery-v0.2","","""event"",""trial"",""time""
""fullscreenenter"",""1"",""1457""
","
","
","""event"",""trial"",""time""
""fullscreenenter"",""1"",""1457""
","
","","","-1","","","12","20449","7509","a","elianto","#f73b6a7A","-1","-1","1","-10","[]","0","2","","","20449","22","2","4","lose","no-go","1"
"pit-trial","141","972344","0.0-27.0","battery-v0.2","","""event"",""trial"",""time""
""fullscreenenter"",""1"",""1457""
","
","
","""event"",""trial"",""time""
""fullscreenenter"",""1"",""1457""
","
","","","1154.4000000059605","","","12","20449","7509","u","elianto","#f73b6a7A","-1"," ","0","0","[2005.2999999970198]","1","2","","","20449","23","0","4","lose","no-go","1"
"pit-trial","142","977198","0.0-28.0","battery-v0.2","","""event"",""trial"",""time""
""fullscreenenter"",""1"",""1457""
","
","
","""event"",""trial"",""time""
""fullscreenenter"",""1"",""1457""
","
","","","-1","","","12","20449","7509","g","elianto","#f73b6a7A"," ","-1","0","0","[]","0","2","","","20449","24","3","3","lose","go","1"
"pit-trial","143","981325","0.0-29.0","battery-v0.2","","""event"",""trial"",""time""
""fullscreenenter"",""1"",""1457""
","
","
","""event"",""trial"",""time""
""fullscreenenter"",""1"",""1457""
","
","","","1268.5","","","12","20449","7509","u","elianto","#f73b6a7A","-1"," ","0","-10","[2123]","1","2","","","20449","25","0","4","lose","no-go","0"
"pit-trial","144","986179","0.0-30.0","battery-v0.2","","""event"",""trial"",""time""
""fullscreenenter"",""1"",""1457""
","
","
","""event"",""trial"",""time""
""fullscreenenter"",""1"",""1457""
","
","","","-1","","","12","20449","7509","l","elianto","#3366ff99"," ","-1","0","0","[]","0","2","","","20449","26","1","1","win","go","0"
"pit-trial","145","991033","0.0-31.0","battery-v0.2","","""event"",""trial"",""time""
""fullscreenenter"",""1"",""1457""
","
","
","""event"",""trial"",""time""
""fullscreenenter"",""1"",""1457""
","
","","","-1","","","12","20449","7509","a","elianto","#f73b6a7A","-1","-1","1","0","[]","0","2","","","20449","27","2","4","lose","no-go","0"
"pit-trial","146","995739","0.0-32.0","battery-v0.2","","""event"",""trial"",""time""
""fullscreenenter"",""1"",""1457""
","
","
","""event"",""trial"",""time""
""fullscreenenter"",""1"",""1457""
","
","","","1852.0999999940395","","","12","20449","7509","g","elianto","#f73b6a7A"," "," ","1","0","[2703.199999988079]","1","2","","","20449","28","3","3","lose","go","0"
"pit-trial","147","1000593","0.0-33.0","battery-v0.2","","""event"",""trial"",""time""
""fullscreenenter"",""1"",""1457""
","
","
","""event"",""trial"",""time""
""fullscreenenter"",""1"",""1457""
","
","","","-1","","","12","20449","7509","a","elianto","#f73b6a7A","-1","-1","1","-10","[]","0","2","","","20449","29","2","4","lose","no-go","1"
"pit-trial","148","1005448","0.0-34.0","battery-v0.2","","""event"",""trial"",""time""
""fullscreenenter"",""1"",""1457""
","
","
","""event"",""trial"",""time""
""fullscreenenter"",""1"",""1457""
","
","","","-1","","","12","20449","7509","l","elianto","#3366ff99"," ","-1","0","0","[]","0","2","","","20449","30","1","1","win","go","0"
"pit-trial","149","1010301","0.0-35.0","battery-v0.2","","""event"",""trial"",""time""
""fullscreenenter"",""1"",""1457""
","
","
","""event"",""trial"",""time""
""fullscreenenter"",""1"",""1457""
","
","","","-1","","","12","20449","7509","u","elianto","#f73b6a7A","-1","-1","1","0","[]","0","2","","","20449","31","0","4","lose","no-go","0"
"pit-trial","150","1014254","0.0-36.0","battery-v0.2","","""event"",""trial"",""time""
""fullscreenenter"",""1"",""1457""
","
","
","""event"",""trial"",""time""
""fullscreenenter"",""1"",""1457""
","
","","","1098.7999999970198","","","12","20449","7509","g","elianto","#f73b6a7A"," "," ","1","0","[1949.9000000059605]","1","2","","","20449","32","3","3","lose","go","0"
"pit-trial","151","1019109","0.0-37.0","battery-v0.2","","""event"",""trial"",""time""
""fullscreenenter"",""1"",""1457""
","
","
","""event"",""trial"",""time""
""fullscreenenter"",""1"",""1457""
","
","","","-1","","","12","20449","7509","u","elianto","#f73b6a7A","-1","-1","1","0","[]","0","2","","","20449","33","0","4","lose","no-go","0"
"pit-trial","152","1023965","0.0-38.0","battery-v0.2","","""event"",""trial"",""time""
""fullscreenenter"",""1"",""1457""
","
","
","""event"",""trial"",""time""
""fullscreenenter"",""1"",""1457""
","
","","","-1","","","12","20449","7509","a","elianto","#f73b6a7A","-1","-1","1","0","[]","0","2","","","20449","34","2","4","lose","no-go","0"
"pit-trial","153","1027498","0.0-39.0","battery-v0.2","","""event"",""trial"",""time""
""fullscreenenter"",""1"",""1457""
","
","
","""event"",""trial"",""time""
""fullscreenenter"",""1"",""1457""
","
","","","679.2999999970198","","","12","20449","7509","l","elianto","#3366ff99"," "," ","1","+10","[1530.2999999970198]","1","2","","","20449","35","1","1","win","go","0"
"pit-trial","154","1031583","0.0-40.0","battery-v0.2","","""event"",""trial"",""time""
""fullscreenenter"",""1"",""1457""
","
","
","""event"",""trial"",""time""
""fullscreenenter"",""1"",""1457""
","
","","","1231","","","12","20449","7509","g","elianto","#f73b6a7A"," "," ","1","0","[2081.5999999940395]","1","2","","","20449","36","3","3","lose","go","0"
"pit-trial","155","1036438","0.0-41.0","battery-v0.2","","""event"",""trial"",""time""
""fullscreenenter"",""1"",""1457""
","
","
","""event"",""trial"",""time""
""fullscreenenter"",""1"",""1457""
","
","","","-1","","","12","20449","7509","a","elianto","#f73b6a7A","-1","-1","1","0","[]","0","2","","","20449","37","2","4","lose","no-go","0"
"pit-trial","156","1040610","0.0-42.0","battery-v0.2","","""event"",""trial"",""time""
""fullscreenenter"",""1"",""1457""
","
","
","""event"",""trial"",""time""
""fullscreenenter"",""1"",""1457""
","
","","","1318.0999999940395","","","12","20449","7509","l","elianto","#3366ff99"," "," ","1","0","[2169.2000000029802]","1","2","","","20449","38","1","1","win","go","1"
"pit-trial","157","1045465","0.0-43.0","battery-v0.2","","""event"",""trial"",""time""
""fullscreenenter"",""1"",""1457""
","
","
","""event"",""trial"",""time""
""fullscreenenter"",""1"",""1457""
","
","","","-1","","","12","20449","7509","g","elianto","#f73b6a7A"," ","-1","0","0","[4172.79999999702]","1","2","","","20449","39","3","3","lose","go","1"
"pit-trial","158","1050319","0.0-44.0","battery-v0.2","","""event"",""trial"",""time""
""fullscreenenter"",""1"",""1457""
","
","
","""event"",""trial"",""time""
""fullscreenenter"",""1"",""1457""
","
","","","-1","","","12","20449","7509","u","elianto","#f73b6a7A","-1","-1","1","0","[]","0","2","","","20449","40","0","4","lose","no-go","0"
"pit-trial","159","1055173","0.0-45.0","battery-v0.2","","""event"",""trial"",""time""
""fullscreenenter"",""1"",""1457""
","
","
","""event"",""trial"",""time""
""fullscreenenter"",""1"",""1457""
","
","","","-1","","","12","20449","7509","u","elianto","#f73b6a7A","-1","-1","1","-10","[]","0","2","","","20449","41","0","4","lose","no-go","1"
"pit-trial","160","1059028","0.0-46.0","battery-v0.2","","""event"",""trial"",""time""
""fullscreenenter"",""1"",""1457""
","
","
","""event"",""trial"",""time""
""fullscreenenter"",""1"",""1457""
","
","","","1002.2999999970198","","","12","20449","7509","g","elianto","#f73b6a7A"," "," ","1","0","[1853.2000000029802]","1","2","","","20449","42","3","3","lose","go","0"
"pit-trial","161","1063882","0.0-47.0","battery-v0.2","","""event"",""trial"",""time""
""fullscreenenter"",""1"",""1457""
","
","
","""event"",""trial"",""time""
""fullscreenenter"",""1"",""1457""
","
","","","-1","","","12","20449","7509","a","elianto","#f73b6a7A","-1","-1","1","0","[]","0","2","","","20449","43","2","4","lose","no-go","0"
"pit-trial","162","1067616","0.0-48.0","battery-v0.2","","""event"",""trial"",""time""
""fullscreenenter"",""1"",""1457""
","
","
","""event"",""trial"",""time""
""fullscreenenter"",""1"",""1457""
","
","","","878.8999999910593","","","12","20449","7509","l","elianto","#3366ff99"," "," ","1","+10","[1729.7999999970198]","1","2","","","20449","44","1","1","win","go","0"
"pit-trial","163","1071865","0.0-49.0","battery-v0.2","","""event"",""trial"",""time""
""fullscreenenter"",""1"",""1457""
","
","
","""event"",""trial"",""time""
""fullscreenenter"",""1"",""1457""
","
","","","1395","","","12","20449","7509","g","elianto","#f73b6a7A"," "," ","1","-10","[2246.2999999970198]","1","2","","","20449","45","3","3","lose","go","1"
"pit-trial","164","1076718","0.0-50.0","battery-v0.2","","""event"",""trial"",""time""
""fullscreenenter"",""1"",""1457""
","
","
","""event"",""trial"",""time""
""fullscreenenter"",""1"",""1457""
","
","","","-1","","","12","20449","7509","p","elianto","#3366ff99","-1","-1","1","+10","[]","0","2","","","20449","46","4","2","win","no-go","0"
"pit-trial","165","1081573","0.0-51.0","battery-v0.2","","""event"",""trial"",""time""
""fullscreenenter"",""1"",""1457""
","
","
","""event"",""trial"",""time""
""fullscreenenter"",""1"",""1457""
","
","","","-1","","","12","20449","7509","a","elianto","#f73b6a7A","-1","-1","1","0","[]","0","2","","","20449","47","2","4","lose","no-go","0"
"pit-trial","166","1086428","0.0-52.0","battery-v0.2","","""event"",""trial"",""time""
""fullscreenenter"",""1"",""1457""
","
","
","""event"",""trial"",""time""
""fullscreenenter"",""1"",""1457""
","
","","","-1","","","12","20449","7509","u","elianto","#f73b6a7A","-1","-1","1","0","[]","0","2","","","20449","48","0","4","lose","no-go","0"
"pit-trial","167","1090507","0.0-53.0","battery-v0.2","","""event"",""trial"",""time""
""fullscreenenter"",""1"",""1457""
","
","
","""event"",""trial"",""time""
""fullscreenenter"",""1"",""1457""
","
","","","1224.5999999940395","","","12","20449","7509","p","elianto","#3366ff99","-1"," ","0","0","[2075.5999999940395]","1","2","","","20449","49","4","2","win","no-go","0"
"pit-trial","168","1095362","0.0-54.0","battery-v0.2","","""event"",""trial"",""time""
""fullscreenenter"",""1"",""1457""
","
","
","""event"",""trial"",""time""
""fullscreenenter"",""1"",""1457""
","
","","","-1","","","12","20449","7509","u","elianto","#f73b6a7A","-1","-1","1","0","[]","0","2","","","20449","50","0","4","lose","no-go","0"
"pit-trial","169","1099553","0.0-55.0","battery-v0.2","","""event"",""trial"",""time""
""fullscreenenter"",""1"",""1457""
","
","
","""event"",""trial"",""time""
""fullscreenenter"",""1"",""1457""
","
","","","1337.9000000059605","","","12","20449","7509","g","elianto","#f73b6a7A"," "," ","1","0","[2188.9000000059605]","1","2","","","20449","51","3","3","lose","go","0"
"pit-trial","170","1103651","0.0-56.0","battery-v0.2","","""event"",""trial"",""time""
""fullscreenenter"",""1"",""1457""
","
","
","""event"",""trial"",""time""
""fullscreenenter"",""1"",""1457""
","
","","","1242.2999999970198","","","12","20449","7509","l","elianto","#3366ff99"," "," ","1","0","[2094.2999999970198]","1","2","","","20449","52","1","1","win","go","1"
"pit-trial","171","1108503","0.0-57.0","battery-v0.2","","""event"",""trial"",""time""
""fullscreenenter"",""1"",""1457""
","
","
","""event"",""trial"",""time""
""fullscreenenter"",""1"",""1457""
","
","","","-1","","","12","20449","7509","a","elianto","#f73b6a7A","-1","-1","1","0","[]","0","2","","","20449","53","2","4","lose","no-go","0"
"pit-trial","172","1112476","0.0-58.0","battery-v0.2","","""event"",""trial"",""time""
""fullscreenenter"",""1"",""1457""
","
","
","""event"",""trial"",""time""
""fullscreenenter"",""1"",""1457""
","
","","","1120","","","12","20449","7509","l","elianto","#3366ff99"," "," ","1","+10","[1970.2000000029802]","1","2","","","20449","54","1","1","win","go","0"
"pit-trial","173","1117331","0.0-59.0","battery-v0.2","","""event"",""trial"",""time""
""fullscreenenter"",""1"",""1457""
","
","
","""event"",""trial"",""time""
""fullscreenenter"",""1"",""1457""
","
","","","-1","","","12","20449","7509","p","elianto","#3366ff99","-1","-1","1","+10","[]","0","2","","","20449","55","4","2","win","no-go","0"
"pit-trial","174","1122186","0.0-60.0","battery-v0.2","","""event"",""trial"",""time""
""fullscreenenter"",""1"",""1457""
","
","
","""event"",""trial"",""time""
""fullscreenenter"",""1"",""1457""
","
","","","-1","","","12","20449","7509","u","elianto","#f73b6a7A","-1","-1","1","-10","[]","0","2","","","20449","56","0","4","lose","no-go","1"
"pit-trial","175","1127042","0.0-61.0","battery-v0.2","","""event"",""trial"",""time""
""fullscreenenter"",""1"",""1457""
","
","
","""event"",""trial"",""time""
""fullscreenenter"",""1"",""1457""
","
","","","-1","","","12","20449","7509","p","elianto","#3366ff99","-1","-1","1","+10","[]","0","2","","","20449","57","4","2","win","no-go","0"
"pit-trial","176","1131896","0.0-62.0","battery-v0.2","","""event"",""trial"",""time""
""fullscreenenter"",""1"",""1457""
","
","
","""event"",""trial"",""time""
""fullscreenenter"",""1"",""1457""
","
","","","-1","","","12","20449","7509","u","elianto","#f73b6a7A","-1","-1","1","0","[]","0","2","","","20449","58","0","4","lose","no-go","0"
"pit-trial","177","1136751","0.0-63.0","battery-v0.2","","""event"",""trial"",""time""
""fullscreenenter"",""1"",""1457""
","
","
","""event"",""trial"",""time""
""fullscreenenter"",""1"",""1457""
","
","","","-1","","","12","20449","7509","l","elianto","#3366ff99"," ","-1","0","0","[]","0","2","","","20449","59","1","1","win","go","0"
"pit-trial","178","1141605","0.0-64.0","battery-v0.2","","""event"",""trial"",""time""
""fullscreenenter"",""1"",""1457""
","
","
","""event"",""trial"",""time""
""fullscreenenter"",""1"",""1457""
","
","","","-1","","","12","20449","7509","g","elianto","#f73b6a7A"," ","-1","0","-10","[3223.5,3781.6000000089407,4143.70000000298]","3","2","","","20449","60","3","3","lose","go","0"
"pit-trial","179","1145898","0.0-65.0","battery-v0.2","","""event"",""trial"",""time""
""fullscreenenter"",""1"",""1457""
","
","
","""event"",""trial"",""time""
""fullscreenenter"",""1"",""1457""
","
","","","1440.3999999910593","","","12","20449","7509","g","elianto","#f73b6a7A"," "," ","1","0","[2290.7000000029802]","1","2","","","20449","61","3","3","lose","go","0"
"pit-trial","180","1150753","0.0-66.0","battery-v0.2","","""event"",""trial"",""time""
""fullscreenenter"",""1"",""1457""
","
","
","""event"",""trial"",""time""
""fullscreenenter"",""1"",""1457""
","
","","","-1","","","12","20449","7509","p","elianto","#3366ff99","-1","-1","1","+10","[]","0","2","","","20449","62","4","2","win","no-go","0"
"pit-trial","181","1154979","0.0-67.0","battery-v0.2","","""event"",""trial"",""time""
""fullscreenenter"",""1"",""1457""
","
","
","""event"",""trial"",""time""
""fullscreenenter"",""1"",""1457""
","
","","","1371.8999999910593","","","12","20449","7509","l","elianto","#3366ff99"," "," ","1","+10","[2222.7000000029802]","1","2","","","20449","63","1","1","win","go","0"
"pit-trial","182","1159834","0.0-68.0","battery-v0.2","","""event"",""trial"",""time""
""fullscreenenter"",""1"",""1457""
","
","
","""event"",""trial"",""time""
""fullscreenenter"",""1"",""1457""
","
","","","-1","","","12","20449","7509","a","elianto","#f73b6a7A","-1","-1","1","0","[]","0","2","","","20449","64","2","4","lose","no-go","0"
"pit-trial","183","1163790","0.0-69.0","battery-v0.2","","""event"",""trial"",""time""
""fullscreenenter"",""1"",""1457""
","
","
","""event"",""trial"",""time""
""fullscreenenter"",""1"",""1457""
","
","","","1103.2000000029802","","","12","20449","7509","l","elianto","#3366ff99"," "," ","1","+10","[1953.5]","1","2","","","20449","65","1","1","win","go","0"
"pit-trial","184","1168372","0.0-70.0","battery-v0.2","","""event"",""trial"",""time""
""fullscreenenter"",""1"",""1457""
","
","
","""event"",""trial"",""time""
""fullscreenenter"",""1"",""1457""
","
","","","1728.2000000029802","","","12","20449","7509","g","elianto","#f73b6a7A"," "," ","1","0","[2578.7000000029802]","1","2","","","20449","66","3","3","lose","go","0"
"pit-trial","185","1173228","0.0-71.0","battery-v0.2","","""event"",""trial"",""time""
""fullscreenenter"",""1"",""1457""
","
","
","""event"",""trial"",""time""
""fullscreenenter"",""1"",""1457""
","
","","","-1","","","12","20449","7509","a","elianto","#f73b6a7A","-1","-1","1","-10","[]","0","2","","","20449","67","2","4","lose","no-go","1"
"pit-trial","186","1178082","0.0-72.0","battery-v0.2","","""event"",""trial"",""time""
""fullscreenenter"",""1"",""1457""
","
","
","""event"",""trial"",""time""
""fullscreenenter"",""1"",""1457""
","
","","","-1","","","12","20449","7509","p","elianto","#3366ff99","-1","-1","1","+10","[]","0","2","","","20449","68","4","2","win","no-go","0"
"pit-trial","187","1182398","0.0-73.0","battery-v0.2","","""event"",""trial"",""time""
""fullscreenenter"",""1"",""1457""
","
","
","""event"",""trial"",""time""
""fullscreenenter"",""1"",""1457""
","
","","","1462.0999999940395","","","12","20449","7509","l","elianto","#3366ff99"," "," ","1","+10","[2313.7999999970198]","1","2","","","20449","69","1","1","win","go","0"
"pit-trial","188","1187252","0.0-74.0","battery-v0.2","","""event"",""trial"",""time""
""fullscreenenter"",""1"",""1457""
","
","
","""event"",""trial"",""time""
""fullscreenenter"",""1"",""1457""
","
","","","-1","","","12","20449","7509","s","elianto","#3366ff99"," ","-1","0","+10","[]","0","2","","","20449","70","5","1","win","go","1"
"pit-trial","189","1192107","0.0-75.0","battery-v0.2","","""event"",""trial"",""time""
""fullscreenenter"",""1"",""1457""
","
","
","""event"",""trial"",""time""
""fullscreenenter"",""1"",""1457""
","
","","","-1","","","12","20449","7509","p","elianto","#3366ff99","-1","-1","1","+10","[]","0","2","","","20449","71","4","2","win","no-go","0"
"pit-trial","190","1196231","0.0-76.0","battery-v0.2","","""event"",""trial"",""time""
""fullscreenenter"",""1"",""1457""
","
","
","""event"",""trial"",""time""
""fullscreenenter"",""1"",""1457""
","
","","","1271","","","12","20449","7509","g","elianto","#f73b6a7A"," "," ","1","0","[2121.3999999910593]","1","2","","","20449","72","3","3","lose","go","0"
"pit-trial","191","1200831","0.0-77.0","battery-v0.2","","""event"",""trial"",""time""
""fullscreenenter"",""1"",""1457""
","
","
","""event"",""trial"",""time""
""fullscreenenter"",""1"",""1457""
","
","","","1744.7999999970198","","","12","20449","7509","g","elianto","#f73b6a7A"," "," ","1","0","[2596.699999988079]","1","2","","","20449","73","3","3","lose","go","0"
"pit-trial","192","1204928","0.0-78.0","battery-v0.2","","""event"",""trial"",""time""
""fullscreenenter"",""1"",""1457""
","
","
","""event"",""trial"",""time""
""fullscreenenter"",""1"",""1457""
","
","","","1243.9000000059605","","","12","20449","7509","l","elianto","#3366ff99"," "," ","1","+10","[2094.4000000059605]","1","2","","","20449","74","1","1","win","go","0"
"pit-trial","193","1209782","0.0-79.0","battery-v0.2","","""event"",""trial"",""time""
""fullscreenenter"",""1"",""1457""
","
","
","""event"",""trial"",""time""
""fullscreenenter"",""1"",""1457""
","
","","","-1","","","12","20449","7509","p","elianto","#3366ff99","-1","-1","1","+10","[]","0","2","","","20449","75","4","2","win","no-go","0"
"pit-trial","194","1214637","0.0-80.0","battery-v0.2","","""event"",""trial"",""time""
""fullscreenenter"",""1"",""1457""
","
","
","""event"",""trial"",""time""
""fullscreenenter"",""1"",""1457""
","
","","","-1","","","12","20449","7509","s","elianto","#3366ff99"," ","-1","0","+10","[]","0","2","","","20449","76","5","1","win","go","1"
"pit-trial","195","1219492","0.0-81.0","battery-v0.2","","""event"",""trial"",""time""
""fullscreenenter"",""1"",""1457""
","
","
","""event"",""trial"",""time""
""fullscreenenter"",""1"",""1457""
","
","","","-1","","","12","20449","7509","p","elianto","#3366ff99","-1","-1","1","+10","[]","0","2","","","20449","77","4","2","win","no-go","0"
"pit-trial","196","1224346","0.0-82.0","battery-v0.2","","""event"",""trial"",""time""
""fullscreenenter"",""1"",""1457""
","
","
","""event"",""trial"",""time""
""fullscreenenter"",""1"",""1457""
","
","","","-1","","","12","20449","7509","s","elianto","#3366ff99"," ","-1","0","0","[]","0","2","","","20449","78","5","1","win","go","0"
"pit-trial","197","1228781","0.0-83.0","battery-v0.2","","""event"",""trial"",""time""
""fullscreenenter"",""1"",""1457""
","
","
","""event"",""trial"",""time""
""fullscreenenter"",""1"",""1457""
","
","","","1581.6000000089407","","","12","20449","7509","w","elianto","#f73b6a7A","-1"," ","0","0","[2432.800000011921]","1","2","","","20449","79","6","4","lose","no-go","1"
"pit-trial","198","1233171","0.0-84.0","battery-v0.2","","""event"",""trial"",""time""
""fullscreenenter"",""1"",""1457""
","
","
","""event"",""trial"",""time""
""fullscreenenter"",""1"",""1457""
","
","","","1536.0999999940395","","","12","20449","7509","g","elianto","#f73b6a7A"," "," ","1","-10","[2386.7000000029802]","1","2","","","20449","80","3","3","lose","go","1"
"pit-trial","199","1238026","0.0-85.0","battery-v0.2","","""event"",""trial"",""time""
""fullscreenenter"",""1"",""1457""
","
","
","""event"",""trial"",""time""
""fullscreenenter"",""1"",""1457""
","
","","","-1","","","12","20449","7509","p","elianto","#3366ff99","-1","-1","1","+10","[]","0","2","","","20449","81","4","2","win","no-go","0"
"pit-trial","200","1242880","0.0-86.0","battery-v0.2","","""event"",""trial"",""time""
""fullscreenenter"",""1"",""1457""
","
","
","""event"",""trial"",""time""
""fullscreenenter"",""1"",""1457""
","
","","","-1","","","12","20449","7509","s","elianto","#3366ff99"," ","-1","0","+10","[]","0","2","","","20449","82","5","1","win","go","1"
"pit-trial","201","1247288","0.0-87.0","battery-v0.2","","""event"",""trial"",""time""
""fullscreenenter"",""1"",""1457""
","
","
","""event"",""trial"",""time""
""fullscreenenter"",""1"",""1457""
","
","","","1555","","","12","20449","7509","e","elianto","#f73b6a7A"," "," ","1","0","[2405.9000000059605]","1","2","","","20449","83","7","3","lose","go","0"
"pit-trial","202","1251256","0.0-88.0","battery-v0.2","","""event"",""trial"",""time""
""fullscreenenter"",""1"",""1457""
","
","
","""event"",""trial"",""time""
""fullscreenenter"",""1"",""1457""
","
","","","1114.7000000029802","","","12","20449","7509","w","elianto","#f73b6a7A","-1"," ","0","0","[1965.2999999970198]","1","2","","","20449","84","6","4","lose","no-go","1"
"pit-trial","203","1255059","0.0-89.0","battery-v0.2","","""event"",""trial"",""time""
""fullscreenenter"",""1"",""1457""
","
","
","""event"",""trial"",""time""
""fullscreenenter"",""1"",""1457""
","
","","","948.7999999970198","","","12","20449","7509","w","elianto","#f73b6a7A","-1"," ","0","0","[1799.6000000089407,2505.2000000029802]","2","2","","","20449","85","6","4","lose","no-go","1"
"pit-trial","204","1259690","0.0-90.0","battery-v0.2","","""event"",""trial"",""time""
""fullscreenenter"",""1"",""1457""
","
","
","""event"",""trial"",""time""
""fullscreenenter"",""1"",""1457""
","
","","","1778.0999999940395","","","12","20449","7509","e","elianto","#f73b6a7A"," "," ","1","0","[2629.3999999910593,4079.2999999970198]","2","2","","","20449","86","7","3","lose","go","0"
"pit-trial","205","1264544","0.0-91.0","battery-v0.2","","""event"",""trial"",""time""
""fullscreenenter"",""1"",""1457""
","
","
","""event"",""trial"",""time""
""fullscreenenter"",""1"",""1457""
","
","","","-1","","","12","20449","7509","p","elianto","#3366ff99","-1","-1","1","+10","[3967.5]","1","2","","","20449","87","4","2","win","no-go","0"
"pit-trial","206","1268979","0.0-92.0","battery-v0.2","","""event"",""trial"",""time""
""fullscreenenter"",""1"",""1457""
","
","
","""event"",""trial"",""time""
""fullscreenenter"",""1"",""1457""
","
","","","1581.4000000059605","","","12","20449","7509","s","elianto","#3366ff99"," "," ","1","+10","[2432.9000000059605]","1","2","","","20449","88","5","1","win","go","0"
"pit-trial","207","1273449","0.0-93.0","battery-v0.2","","""event"",""trial"",""time""
""fullscreenenter"",""1"",""1457""
","
","
","""event"",""trial"",""time""
""fullscreenenter"",""1"",""1457""
","
","","","1615.0999999940395","","","12","20449","7509","w","elianto","#f73b6a7A","-1"," ","0","-10","[2466.9000000059605]","1","2","","","20449","89","6","4","lose","no-go","0"
"pit-trial","208","1277333","0.0-94.0","battery-v0.2","","""event"",""trial"",""time""
""fullscreenenter"",""1"",""1457""
","
","
","""event"",""trial"",""time""
""fullscreenenter"",""1"",""1457""
","
","","","1028.7000000029802","","","12","20449","7509","e","elianto","#f73b6a7A"," "," ","1","0","[1880.4000000059605]","1","2","","","20449","90","7","3","lose","go","0"
"pit-trial","209","1281945","0.0-95.0","battery-v0.2","","""event"",""trial"",""time""
""fullscreenenter"",""1"",""1457""
","
","
","""event"",""trial"",""time""
""fullscreenenter"",""1"",""1457""
","
","","","1758.5999999940395","","","12","20449","7509","s","elianto","#3366ff99"," "," ","1","+10","[2609.6000000089407]","1","2","","","20449","91","5","1","win","go","0"
"pit-trial","210","1286799","0.0-96.0","battery-v0.2","","""event"",""trial"",""time""
""fullscreenenter"",""1"",""1457""
","
","
","""event"",""trial"",""time""
""fullscreenenter"",""1"",""1457""
","
","","","-1","","","12","20449","7509","p","elianto","#3366ff99","-1","-1","1","+10","[]","0","2","","","20449","92","4","2","win","no-go","0"
"pit-trial","211","1290991","0.0-97.0","battery-v0.2","","""event"",""trial"",""time""
""fullscreenenter"",""1"",""1457""
","
","
","""event"",""trial"",""time""
""fullscreenenter"",""1"",""1457""
","
","","","1338","","","12","20449","7509","w","elianto","#f73b6a7A","-1"," ","0","-10","[2189.4000000059605]","1","2","","","20449","93","6","4","lose","no-go","0"
"pit-trial","212","1295845","0.0-98.0","battery-v0.2","","""event"",""trial"",""time""
""fullscreenenter"",""1"",""1457""
","
","
","""event"",""trial"",""time""
""fullscreenenter"",""1"",""1457""
","
","","","-1","","","12","20449","7509","e","elianto","#f73b6a7A"," ","-1","0","-10","[3143.5]","1","2","","","20449","94","7","3","lose","go","0"
"pit-trial","213","1300699","0.0-99.0","battery-v0.2","","""event"",""trial"",""time""
""fullscreenenter"",""1"",""1457""
","
","
","""event"",""trial"",""time""
""fullscreenenter"",""1"",""1457""
","
","","","-1","","","12","20449","7509","s","elianto","#3366ff99"," ","-1","0","0","[]","0","2","","","20449","95","5","1","win","go","0"
"pit-trial","214","1304844","0.0-100.0","battery-v0.2","","""event"",""trial"",""time""
""fullscreenenter"",""1"",""1457""
","
","
","""event"",""trial"",""time""
""fullscreenenter"",""1"",""1457""
","
","","","1291.8999999910593","","","12","20449","7509","d","elianto","#3366ff99","-1"," ","0","0","[2141.9000000059605]","1","2","","","20449","96","8","2","win","no-go","0"
"pit-trial","215","1308780","0.0-101.0","battery-v0.2","","""event"",""trial"",""time""
""fullscreenenter"",""1"",""1457""
","
","
","""event"",""trial"",""time""
""fullscreenenter"",""1"",""1457""
","
","","","1082.7999999970198","","","12","20449","7509","d","elianto","#3366ff99","-1"," ","0","0","[1934.0999999940395]","1","2","","","20449","97","8","2","win","no-go","0"
"pit-trial","216","1313634","0.0-102.0","battery-v0.2","","""event"",""trial"",""time""
""fullscreenenter"",""1"",""1457""
","
","
","""event"",""trial"",""time""
""fullscreenenter"",""1"",""1457""
","
","","","-1","","","12","20449","7509","s","elianto","#3366ff99"," ","-1","0","0","[3001.7000000029802]","1","2","","","20449","98","5","1","win","go","0"
"pit-trial","217","1318183","0.0-103.0","battery-v0.2","","""event"",""trial"",""time""
""fullscreenenter"",""1"",""1457""
","
","
","""event"",""trial"",""time""
""fullscreenenter"",""1"",""1457""
","
","","","1694.3999999910593","","","12","20449","7509","e","elianto","#f73b6a7A"," "," ","1","-10","[2545.3999999910593,3787.0999999940395]","2","2","","","20449","99","7","3","lose","go","1"
"pit-trial","218","1322282","0.0-104.0","battery-v0.2","","""event"",""trial"",""time""
""fullscreenenter"",""1"",""1457""
","
","
","""event"",""trial"",""time""
""fullscreenenter"",""1"",""1457""
","
","","","1244.2000000029802","","","12","20449","7509","w","elianto","#f73b6a7A","-1"," ","0","-10","[385.90000000596046,2095.1000000089407]","2","2","","","20449","100","6","4","lose","no-go","0"
"pit-trial","219","1327136","0.0-105.0","battery-v0.2","","""event"",""trial"",""time""
""fullscreenenter"",""1"",""1457""
","
","
","""event"",""trial"",""time""
""fullscreenenter"",""1"",""1457""
","
","","","-1","","","12","20449","7509","w","elianto","#f73b6a7A","-1","-1","1","0","[]","0","2","","","20449","101","6","4","lose","no-go","0"
"pit-trial","220","1331115","0.0-106.0","battery-v0.2","","""event"",""trial"",""time""
""fullscreenenter"",""1"",""1457""
","
","
","""event"",""trial"",""time""
""fullscreenenter"",""1"",""1457""
","
","","","1124","","","12","20449","7509","d","elianto","#3366ff99","-1"," ","0","0","[1975.699999988079]","1","2","","","20449","102","8","2","win","no-go","0"
"pit-trial","221","1335321","0.0-107.0","battery-v0.2","","""event"",""trial"",""time""
""fullscreenenter"",""1"",""1457""
","
","
","""event"",""trial"",""time""
""fullscreenenter"",""1"",""1457""
","
","","","1351.6000000089407","","","12","20449","7509","s","elianto","#3366ff99"," "," ","1","+10","[2203.2999999970198]","1","2","","","20449","103","5","1","win","go","0"
"pit-trial","222","1340176","0.0-108.0","battery-v0.2","","""event"",""trial"",""time""
""fullscreenenter"",""1"",""1457""
","
","
","""event"",""trial"",""time""
""fullscreenenter"",""1"",""1457""
","
","","","-1","","","12","20449","7509","j","elianto","#3366ff99","-1","-1","1","+10","[]","0","2","","","20449","104","9","2","win","no-go","0"
"pit-trial","223","1345032","0.0-109.0","battery-v0.2","","""event"",""trial"",""time""
""fullscreenenter"",""1"",""1457""
","
","
","""event"",""trial"",""time""
""fullscreenenter"",""1"",""1457""
","
","","","-1","","","12","20449","7509","d","elianto","#3366ff99","-1","-1","1","+10","[]","0","2","","","20449","105","8","2","win","no-go","0"
"pit-trial","224","1349885","0.0-110.0","battery-v0.2","","""event"",""trial"",""time""
""fullscreenenter"",""1"",""1457""
","
","
","""event"",""trial"",""time""
""fullscreenenter"",""1"",""1457""
","
","","","-1","","","12","20449","7509","j","elianto","#3366ff99","-1","-1","1","+10","[]","0","2","","","20449","106","9","2","win","no-go","0"
"pit-trial","225","1354739","0.0-111.0","battery-v0.2","","""event"",""trial"",""time""
""fullscreenenter"",""1"",""1457""
","
","
","""event"",""trial"",""time""
""fullscreenenter"",""1"",""1457""
","
","","","-1","","","12","20449","7509","w","elianto","#f73b6a7A","-1","-1","1","0","[]","0","2","","","20449","107","6","4","lose","no-go","0"
"pit-trial","226","1359249","0.0-112.0","battery-v0.2","","""event"",""trial"",""time""
""fullscreenenter"",""1"",""1457""
","
","
","""event"",""trial"",""time""
""fullscreenenter"",""1"",""1457""
","
","","","1655.7000000029802","","","12","20449","7509","s","elianto","#3366ff99"," "," ","1","+10","[2506.7000000029802]","1","2","","","20449","108","5","1","win","go","0"
"pit-trial","227","1364103","0.0-113.0","battery-v0.2","","""event"",""trial"",""time""
""fullscreenenter"",""1"",""1457""
","
","
","""event"",""trial"",""time""
""fullscreenenter"",""1"",""1457""
","
","","","-1","","","12","20449","7509","d","elianto","#3366ff99","-1","-1","1","+10","[]","0","2","","","20449","109","8","2","win","no-go","0"
"pit-trial","228","1368627","0.0-114.0","battery-v0.2","","""event"",""trial"",""time""
""fullscreenenter"",""1"",""1457""
","
","
","""event"",""trial"",""time""
""fullscreenenter"",""1"",""1457""
","
","","","1669.7999999970198","","","12","20449","7509","j","elianto","#3366ff99","-1"," ","0","0","[2520.7000000029802]","1","2","","","20449","110","9","2","win","no-go","0"
"pit-trial","229","1372352","0.0-115.0","battery-v0.2","","""event"",""trial"",""time""
""fullscreenenter"",""1"",""1457""
","
","
","""event"",""trial"",""time""
""fullscreenenter"",""1"",""1457""
","
","","","872.6999999880791","","","12","20449","7509","w","elianto","#f73b6a7A","-1"," ","0","-10","[1722.7999999970198]","1","2","","","20449","111","6","4","lose","no-go","0"
"pit-trial","230","1376227","0.0-116.0","battery-v0.2","","""event"",""trial"",""time""
""fullscreenenter"",""1"",""1457""
","
","
","""event"",""trial"",""time""
""fullscreenenter"",""1"",""1457""
","
","","","1020.4000000059605","","","12","20449","7509","s","elianto","#3366ff99"," "," ","1","+10","[1872.1000000089407]","1","2","","","20449","112","5","1","win","go","0"
"pit-trial","231","1381083","0.0-117.0","battery-v0.2","","""event"",""trial"",""time""
""fullscreenenter"",""1"",""1457""
","
","
","""event"",""trial"",""time""
""fullscreenenter"",""1"",""1457""
","
","","","-1","","","12","20449","7509","e","elianto","#f73b6a7A"," ","-1","0","-10","[54]","1","2","","","20449","113","7","3","lose","go","0"
"pit-trial","232","1385075","0.0-118.0","battery-v0.2","","""event"",""trial"",""time""
""fullscreenenter"",""1"",""1457""
","
","
","""event"",""trial"",""time""
""fullscreenenter"",""1"",""1457""
","
","","","1138.800000011921","","","12","20449","7509","s","elianto","#3366ff99"," "," ","1","+10","[1989.5]","1","2","","","20449","114","5","1","win","go","0"
"pit-trial","233","1389930","0.0-119.0","battery-v0.2","","""event"",""trial"",""time""
""fullscreenenter"",""1"",""1457""
","
","
","""event"",""trial"",""time""
""fullscreenenter"",""1"",""1457""
","
","","","-1","","","12","20449","7509","j","elianto","#3366ff99","-1","-1","1","0","[]","0","2","","","20449","115","9","2","win","no-go","1"
"pit-trial","234","1394785","0.0-120.0","battery-v0.2","","""event"",""trial"",""time""
""fullscreenenter"",""1"",""1457""
","
","
","""event"",""trial"",""time""
""fullscreenenter"",""1"",""1457""
","
","","","-1","","","12","20449","7509","d","elianto","#3366ff99","-1","-1","1","+10","[]","0","2","","","20449","116","8","2","win","no-go","0"
"pit-trial","235","1399638","0.0-121.0","battery-v0.2","","""event"",""trial"",""time""
""fullscreenenter"",""1"",""1457""
","
","
","""event"",""trial"",""time""
""fullscreenenter"",""1"",""1457""
","
","","","-1","","","12","20449","7509","j","elianto","#3366ff99","-1","-1","1","0","[4683.100000008941]","1","2","","","20449","117","9","2","win","no-go","1"
"pit-trial","236","1403721","0.0-122.0","battery-v0.2","","""event"",""trial"",""time""
""fullscreenenter"",""1"",""1457""
","
","
","""event"",""trial"",""time""
""fullscreenenter"",""1"",""1457""
","
","","","1228.0999999940395","","","12","20449","7509","w","elianto","#f73b6a7A","-1"," ","0","-10","[2079.699999988079]","1","2","","","20449","118","6","4","lose","no-go","0"
"pit-trial","237","1408229","0.0-123.0","battery-v0.2","","""event"",""trial"",""time""
""fullscreenenter"",""1"",""1457""
","
","
","""event"",""trial"",""time""
""fullscreenenter"",""1"",""1457""
","
","","","1655.699999988079","","","12","20449","7509","s","elianto","#3366ff99"," "," ","1","0","[2506,3147.2000000029802,3641.4000000059605]","3","2","","","20449","119","5","1","win","go","1"
"pit-trial","238","1413084","0.0-124.0","battery-v0.2","","""event"",""trial"",""time""
""fullscreenenter"",""1"",""1457""
","
","
","""event"",""trial"",""time""
""fullscreenenter"",""1"",""1457""
","
","","","-1","","","12","20449","7509","d","elianto","#3366ff99","-1","-1","1","0","[]","0","2","","","20449","120","8","2","win","no-go","1"
"pit-trial","239","1417938","0.0-125.0","battery-v0.2","","""event"",""trial"",""time""
""fullscreenenter"",""1"",""1457""
","
","
","""event"",""trial"",""time""
""fullscreenenter"",""1"",""1457""
","
","","","-1","","","12","20449","7509","d","elianto","#3366ff99","-1","-1","1","+10","[]","0","2","","","20449","121","8","2","win","no-go","0"
"pit-trial","240","1422754","0.0-126.0","battery-v0.2","","""event"",""trial"",""time""
""fullscreenenter"",""1"",""1457""
","
","
","""event"",""trial"",""time""
""fullscreenenter"",""1"",""1457""
","
","","","1961.0999999940395","","","12","20449","7509","s","elianto","#3366ff99"," "," ","1","+10","[2812.8999999910593]","1","2","","","20449","122","5","1","win","go","0"
"pit-trial","241","1427143","0.0-127.0","battery-v0.2","","""event"",""trial"",""time""
""fullscreenenter"",""1"",""1457""
","
","
","""event"",""trial"",""time""
""fullscreenenter"",""1"",""1457""
","
","","","1535.5999999940395","","","12","20449","7509","e","elianto","#f73b6a7A"," "," ","1","-10","[2386.0999999940395]","1","2","","","20449","123","7","3","lose","go","1"
"pit-trial","242","1431996","0.0-128.0","battery-v0.2","","""event"",""trial"",""time""
""fullscreenenter"",""1"",""1457""
","
","
","""event"",""trial"",""time""
""fullscreenenter"",""1"",""1457""
","
","","","-1","","","12","20449","7509","j","elianto","#3366ff99","-1","-1","1","+10","[]","0","2","","","20449","124","9","2","win","no-go","0"
"pit-trial","243","1436851","0.0-129.0","battery-v0.2","","""event"",""trial"",""time""
""fullscreenenter"",""1"",""1457""
","
","
","""event"",""trial"",""time""
""fullscreenenter"",""1"",""1457""
","
","","","-1","","","12","20449","7509","w","elianto","#f73b6a7A","-1","-1","1","-10","[2920.8999999910593]","1","2","","","20449","125","6","4","lose","no-go","1"
"pit-trial","244","1441706","0.0-130.0","battery-v0.2","","""event"",""trial"",""time""
""fullscreenenter"",""1"",""1457""
","
","
","""event"",""trial"",""time""
""fullscreenenter"",""1"",""1457""
","
","","","-1","","","12","20449","7509","d","elianto","#3366ff99","-1","-1","1","0","[]","0","2","","","20449","126","8","2","win","no-go","1"
"pit-trial","245","1446561","0.0-131.0","battery-v0.2","","""event"",""trial"",""time""
""fullscreenenter"",""1"",""1457""
","
","
","""event"",""trial"",""time""
""fullscreenenter"",""1"",""1457""
","
","","","-1","","","12","20449","7509","j","elianto","#3366ff99","-1","-1","1","+10","[]","0","2","","","20449","127","9","2","win","no-go","0"
"pit-trial","246","1451416","0.0-132.0","battery-v0.2","","""event"",""trial"",""time""
""fullscreenenter"",""1"",""1457""
","
","
","""event"",""trial"",""time""
""fullscreenenter"",""1"",""1457""
","
","","","-1","","","12","20449","7509","e","elianto","#f73b6a7A"," ","-1","0","0","[3254.5]","1","2","","","20449","128","7","3","lose","go","1"
"pit-trial","247","1456269","0.0-133.0","battery-v0.2","","""event"",""trial"",""time""
""fullscreenenter"",""1"",""1457""
","
","
","""event"",""trial"",""time""
""fullscreenenter"",""1"",""1457""
","
","","","-1","","","12","20449","7509","j","elianto","#3366ff99","-1","-1","1","0","[]","0","2","","","20449","129","9","2","win","no-go","1"
"pit-trial","248","1461124","0.0-134.0","battery-v0.2","","""event"",""trial"",""time""
""fullscreenenter"",""1"",""1457""
","
","
","""event"",""trial"",""time""
""fullscreenenter"",""1"",""1457""
","
","","","-1","","","12","20449","7509","e","elianto","#f73b6a7A"," ","-1","0","-10","[]","0","2","","","20449","130","7","3","lose","go","0"
"pit-trial","249","1465978","0.0-135.0","battery-v0.2","","""event"",""trial"",""time""
""fullscreenenter"",""1"",""1457""
","
","
","""event"",""trial"",""time""
""fullscreenenter"",""1"",""1457""
","
","","","-1","","","12","20449","7509","d","elianto","#3366ff99","-1","-1","1","+10","[]","0","2","","","20449","131","8","2","win","no-go","0"
"pit-trial","250","1470832","0.0-136.0","battery-v0.2","","""event"",""trial"",""time""
""fullscreenenter"",""1"",""1457""
","
","
","""event"",""trial"",""time""
""fullscreenenter"",""1"",""1457""
","
","","","-1","","","12","20449","7509","w","elianto","#f73b6a7A","-1","-1","1","-10","[]","0","2","","","20449","132","6","4","lose","no-go","1"
"pit-trial","251","1475687","0.0-137.0","battery-v0.2","","""event"",""trial"",""time""
""fullscreenenter"",""1"",""1457""
","
","
","""event"",""trial"",""time""
""fullscreenenter"",""1"",""1457""
","
","","","-1","","","12","20449","7509","j","elianto","#3366ff99","-1","-1","1","+10","[]","0","2","","","20449","133","9","2","win","no-go","0"
"pit-trial","252","1480542","0.0-138.0","battery-v0.2","","""event"",""trial"",""time""
""fullscreenenter"",""1"",""1457""
","
","
","""event"",""trial"",""time""
""fullscreenenter"",""1"",""1457""
","
","","","-1","","","12","20449","7509","w","elianto","#f73b6a7A","-1","-1","1","0","[]","0","2","","","20449","134","6","4","lose","no-go","0"
"pit-trial","253","1485212","0.0-139.0","battery-v0.2","","""event"",""trial"",""time""
""fullscreenenter"",""1"",""1457""
","
","
","""event"",""trial"",""time""
""fullscreenenter"",""1"",""1457""
","
","","","1815.3999999910593","","","12","20449","7509","e","elianto","#f73b6a7A"," "," ","1","0","[2666.8999999910593]","1","2","","","20449","135","7","3","lose","go","0"
"pit-trial","254","1490067","0.0-140.0","battery-v0.2","","""event"",""trial"",""time""
""fullscreenenter"",""1"",""1457""
","
","
","""event"",""trial"",""time""
""fullscreenenter"",""1"",""1457""
","
","","","-1","","","12","20449","7509","d","elianto","#3366ff99","-1","-1","1","+10","[]","0","2","","","20449","136","8","2","win","no-go","0"
"pit-trial","255","1494921","0.0-141.0","battery-v0.2","","""event"",""trial"",""time""
""fullscreenenter"",""1"",""1457""
","
","
","""event"",""trial"",""time""
""fullscreenenter"",""1"",""1457""
","
","","","-1","","","12","20449","7509","e","elianto","#f73b6a7A"," ","-1","0","0","[]","0","2","","","20449","137","7","3","lose","go","1"
"pit-trial","256","1499775","0.0-142.0","battery-v0.2","","""event"",""trial"",""time""
""fullscreenenter"",""1"",""1457""
","
","
","""event"",""trial"",""time""
""fullscreenenter"",""1"",""1457""
","
","","","-1","","","12","20449","7509","d","elianto","#3366ff99","-1","-1","1","+10","[]","0","2","","","20449","138","8","2","win","no-go","0"
"pit-trial","257","1504629","0.0-143.0","battery-v0.2","","""event"",""trial"",""time""
""fullscreenenter"",""1"",""1457""
","
","
","""event"",""trial"",""time""
""fullscreenenter"",""1"",""1457""
","
","","","-1","","","12","20449","7509","j","elianto","#3366ff99","-1","-1","1","+10","[]","0","2","","","20449","139","9","2","win","no-go","0"
"pit-trial","258","1509484","0.0-144.0","battery-v0.2","","""event"",""trial"",""time""
""fullscreenenter"",""1"",""1457""
","
","
","""event"",""trial"",""time""
""fullscreenenter"",""1"",""1457""
","
","","","-1","","","12","20449","7509","w","elianto","#f73b6a7A","-1","-1","1","0","[]","0","2","","","20449","140","6","4","lose","no-go","0"
"pit-instructions","259","1531151","0.0-145.0","battery-v0.2","","""event"",""trial"",""time""
""fullscreenenter"",""1"",""1457""
","
","
","""event"",""trial"",""time""
""fullscreenenter"",""1"",""1457""
","
","","[{""page_index"":0,""viewing_time"":13557.20000000298},{""page_index"":1,""viewing_time"":8108.20000000298}]","21665.59999999404","","","","","","","","","","","","","","","","","","","","","","","",""
"pit-trial","260","1536007","0.0-146.0","battery-v0.2","","""event"",""trial"",""time""
""fullscreenenter"",""1"",""1457""
","
","
","""event"",""trial"",""time""
""fullscreenenter"",""1"",""1457""
","
","","","-1","","","12","20449","7509","f","elianto","#3366ff99","-1","-1","1","+10","[]","0","3","","","20449","141","1","2","win","no-go","0"
"pit-trial","261","1540617","0.0-147.0","battery-v0.2","","""event"",""trial"",""time""
""fullscreenenter"",""1"",""1457""
","
","
","""event"",""trial"",""time""
""fullscreenenter"",""1"",""1457""
","
","","","1753","","","12","20449","7509","b","elianto","#f73b6a7A","-1"," ","0","0","[2607.7999999970198]","1","3","","","20449","142","3","4","lose","no-go","1"
"pit-trial","262","1545470","0.0-148.0","battery-v0.2","","""event"",""trial"",""time""
""fullscreenenter"",""1"",""1457""
","
","
","""event"",""trial"",""time""
""fullscreenenter"",""1"",""1457""
","
","","","-1","","","12","20449","7509","t","elianto","#f73b6a7A"," ","-1","0","-10","[]","0","3","","","20449","143","2","3","lose","go","0"
"pit-trial","263","1550324","0.0-149.0","battery-v0.2","","""event"",""trial"",""time""
""fullscreenenter"",""1"",""1457""
","
","
","""event"",""trial"",""time""
""fullscreenenter"",""1"",""1457""
","
","","","-1","","","12","20449","7509","n","elianto","#f73b6a7A"," ","-1","0","-10","[]","0","3","","","20449","144","0","3","lose","go","0"
"pit-trial","264","1555178","0.0-150.0","battery-v0.2","","""event"",""trial"",""time""
""fullscreenenter"",""1"",""1457""
","
","
","""event"",""trial"",""time""
""fullscreenenter"",""1"",""1457""
","
","","","-1","","","12","20449","7509","t","elianto","#f73b6a7A"," ","-1","0","-10","[]","0","3","","","20449","145","2","3","lose","go","0"
"pit-trial","265","1560031","0.0-151.0","battery-v0.2","","""event"",""trial"",""time""
""fullscreenenter"",""1"",""1457""
","
","
","""event"",""trial"",""time""
""fullscreenenter"",""1"",""1457""
","
","","","-1","","","12","20449","7509","b","elianto","#f73b6a7A","-1","-1","1","-10","[]","0","3","","","20449","146","3","4","lose","no-go","1"
"pit-trial","266","1564886","0.0-152.0","battery-v0.2","","""event"",""trial"",""time""
""fullscreenenter"",""1"",""1457""
","
","
","""event"",""trial"",""time""
""fullscreenenter"",""1"",""1457""
","
","","","-1","","","12","20449","7509","f","elianto","#3366ff99","-1","-1","1","+10","[]","0","3","","","20449","147","1","2","win","no-go","0"
