"trial_type","trial_index","time_elapsed","internal_node_id","task_version","subject_id","interactions","blur_events","focus_events","fullscreenenter_events","fullscreenexit_events","success","view_history","rt","responses","num_errors","age","subject","participantId","rune","rune_set","hex","correct","choice","accuracy","outcome","keys","total_keys","block","practice","value","sub","trial","stimulus","robot","valence","action","sham"
"pavlovia","0","12","0.0-0.0","battery-v0.2","","""event"",""trial"",""time""
""blur"",""1"",""264512""
""focus"",""1"",""535337""
""fullscreenenter"",""1"",""731210""
","""event"",""trial"",""time""
""blur"",""1"",""264512""
","""event"",""trial"",""time""
""focus"",""1"",""535337""
","""event"",""trial"",""time""
""fullscreenenter"",""1"",""731210""
","
","","","","","","","","","","","","","","","","","","","","","","","","","","",""
"fullscreen","1","732149","0.0-1.0","battery-v0.2","","""event"",""trial"",""time""
""blur"",""1"",""264512""
""focus"",""1"",""535337""
""fullscreenenter"",""1"",""731210""
","""event"",""trial"",""time""
""blur"",""1"",""264512""
","""event"",""trial"",""time""
""focus"",""1"",""535337""
","""event"",""trial"",""time""
""fullscreenenter"",""1"",""731210""
","
","true","","","","","","","","","","","","","","","","","","","","","","","","","",""
"pit-instructions","2","741897","0.0-2.0-0.0","battery-v0.2","","""event"",""trial"",""time""
""blur"",""1"",""264512""
""focus"",""1"",""535337""
""fullscreenenter"",""1"",""731210""
","""event"",""trial"",""time""
""blur"",""1"",""264512""
","""event"",""trial"",""time""
""focus"",""1"",""535337""
","""event"",""trial"",""time""
""fullscreenenter"",""1"",""731210""
","
","","[{""page_index"":0,""viewing_time"":9741}]","9742","","","","","","","","","","","","","","","","","","","","","","","",""
"pit-comprehension","3","749431","0.0-2.0-1.0-0.0","battery-v0.2","","""event"",""trial"",""time""
""blur"",""1"",""264512""
""focus"",""1"",""535337""
""fullscreenenter"",""1"",""731210""
","""event"",""trial"",""time""
""blur"",""1"",""264512""
","""event"",""trial"",""time""
""focus"",""1"",""535337""
","""event"",""trial"",""time""
""fullscreenenter"",""1"",""731210""
","
","","","7383.000000000116","[""shark""]","0","15","16592","6534","","","","","","","","","","","","","","","","","","",""
"pit-instructions","4","752318","0.0-2.0-1.0-1.0","battery-v0.2","","""event"",""trial"",""time""
""blur"",""1"",""264512""
""focus"",""1"",""535337""
""fullscreenenter"",""1"",""731210""
","""event"",""trial"",""time""
""blur"",""1"",""264512""
","""event"",""trial"",""time""
""focus"",""1"",""535337""
","""event"",""trial"",""time""
""fullscreenenter"",""1"",""731210""
","
","","[{""page_index"":0,""viewing_time"":2879}]","2880","","","","","","","","","","","","","","","","","","","","","","","",""
"pit-comprehension","5","758583","0.0-2.0-2.0-0.0","battery-v0.2","","""event"",""trial"",""time""
""blur"",""1"",""264512""
""focus"",""1"",""535337""
""fullscreenenter"",""1"",""731210""
","""event"",""trial"",""time""
""blur"",""1"",""264512""
","""event"",""trial"",""time""
""focus"",""1"",""535337""
","""event"",""trial"",""time""
""fullscreenenter"",""1"",""731210""
","
","","","6261","[""tiger""]","0","15","16592","6534","","","","","","","","","","","","","","","","","","",""
"pit-instructions","6","760816","0.0-2.0-2.0-1.0","battery-v0.2","","""event"",""trial"",""time""
""blur"",""1"",""264512""
""focus"",""1"",""535337""
""fullscreenenter"",""1"",""731210""
","""event"",""trial"",""time""
""blur"",""1"",""264512""
","""event"",""trial"",""time""
""focus"",""1"",""535337""
","""event"",""trial"",""time""
""fullscreenenter"",""1"",""731210""
","
","","[{""page_index"":0,""viewing_time"":2226.9999999998836}]","2226.9999999998836","","","","","","","","","","","","","","","","","","","","","","","",""
"pit-instructions","7","897047","0.0-2.0-3.0","battery-v0.2","","""event"",""trial"",""time""
""blur"",""1"",""264512""
""focus"",""1"",""535337""
""fullscreenenter"",""1"",""731210""
","""event"",""trial"",""time""
""blur"",""1"",""264512""
","""event"",""trial"",""time""
""focus"",""1"",""535337""
","""event"",""trial"",""time""
""fullscreenenter"",""1"",""731210""
","
","","[{""page_index"":0,""viewing_time"":11975},{""page_index"":1,""viewing_time"":7005},{""page_index"":2,""viewing_time"":9508},{""page_index"":3,""viewing_time"":7828.000000000116},{""page_index"":4,""viewing_time"":9506.999999999884},{""page_index"":5,""viewing_time"":9152},{""page_index"":6,""viewing_time"":10569},{""page_index"":7,""viewing_time"":9985},{""page_index"":8,""viewing_time"":7539},{""page_index"":9,""viewing_time"":17644},{""page_index"":10,""viewing_time"":8090},{""page_index"":11,""viewing_time"":9751},{""page_index"":12,""viewing_time"":10145},{""page_index"":13,""viewing_time"":7527}]","136226","","","","","","","","","","","","","","","","","","","","","","","",""
"pit-trial","8","901149","0.0-2.0-4.0-0.0","battery-v0.2","","""event"",""trial"",""time""
""blur"",""1"",""264512""
""focus"",""1"",""535337""
""fullscreenenter"",""1"",""731210""
","""event"",""trial"",""time""
""blur"",""1"",""264512""
","""event"",""trial"",""time""
""focus"",""1"",""535337""
","""event"",""trial"",""time""
""fullscreenenter"",""1"",""731210""
","
","","","1243","","","15","16592","6534","&#9784;","elianto","#FFFFF080"," "," ","1","&#10004","[2097]","1","0","0","","","","","","","",""
"pit-trial","9","905276","0.0-2.0-4.1-0.1","battery-v0.2","","""event"",""trial"",""time""
""blur"",""1"",""264512""
""focus"",""1"",""535337""
""fullscreenenter"",""1"",""731210""
","""event"",""trial"",""time""
""blur"",""1"",""264512""
","""event"",""trial"",""time""
""focus"",""1"",""535337""
","""event"",""trial"",""time""
""fullscreenenter"",""1"",""731210""
","
","","","1272.9999999998836","","","15","16592","6534","&#9784;","elianto","#FFFFF080"," "," ","1","&#10004","[2123]","1","0","0","","","","","","","",""
"pit-trial","10","909269","0.0-2.0-4.2-0.2","battery-v0.2","","""event"",""trial"",""time""
""blur"",""1"",""264512""
""focus"",""1"",""535337""
""fullscreenenter"",""1"",""731210""
","""event"",""trial"",""time""
""blur"",""1"",""264512""
","""event"",""trial"",""time""
""focus"",""1"",""535337""
","""event"",""trial"",""time""
""fullscreenenter"",""1"",""731210""
","
","","","1138","","","15","16592","6534","&#9784;","elianto","#FFFFF080"," "," ","1","&#10004","[1987.0000000001164]","1","0","0","","","","","","","",""
"pit-trial","11","914123","0.0-2.0-4.3-0.3","battery-v0.2","","""event"",""trial"",""time""
""blur"",""1"",""264512""
""focus"",""1"",""535337""
""fullscreenenter"",""1"",""731210""
","""event"",""trial"",""time""
""blur"",""1"",""264512""
","""event"",""trial"",""time""
""focus"",""1"",""535337""
","""event"",""trial"",""time""
""fullscreenenter"",""1"",""731210""
","
","","","-1","","","15","16592","6534","&#9784;","elianto","#FFFFF080"," ","-1","0","&#10060","[2980]","1","0","0","","","","","","","",""
"pit-trial","12","918745","0.0-2.0-4.4-0.4","battery-v0.2","","""event"",""trial"",""time""
""blur"",""1"",""264512""
""focus"",""1"",""535337""
""fullscreenenter"",""1"",""731210""
","""event"",""trial"",""time""
""blur"",""1"",""264512""
","""event"",""trial"",""time""
""focus"",""1"",""535337""
","""event"",""trial"",""time""
""fullscreenenter"",""1"",""731210""
","
","","","1768","","","15","16592","6534","&#9784;","elianto","#FFFFF080"," "," ","1","&#10004","[2618]","1","0","0","","","","","","","",""
"pit-trial","13","922723","0.0-2.0-4.5-0.5","battery-v0.2","","""event"",""trial"",""time""
""blur"",""1"",""264512""
""focus"",""1"",""535337""
""fullscreenenter"",""1"",""731210""
","""event"",""trial"",""time""
""blur"",""1"",""264512""
","""event"",""trial"",""time""
""focus"",""1"",""535337""
","""event"",""trial"",""time""
""fullscreenenter"",""1"",""731210""
","
","","","1124","","","15","16592","6534","&#9784;","elianto","#FFFFF080"," "," ","1","&#10004","[1974]","1","0","0","","","","","","","",""
"pit-trial","14","926542","0.0-2.0-4.6-0.6","battery-v0.2","","""event"",""trial"",""time""
""blur"",""1"",""264512""
""focus"",""1"",""535337""
""fullscreenenter"",""1"",""731210""
","""event"",""trial"",""time""
""blur"",""1"",""264512""
","""event"",""trial"",""time""
""focus"",""1"",""535337""
","""event"",""trial"",""time""
""fullscreenenter"",""1"",""731210""
","
","","","964","","","15","16592","6534","&#9784;","elianto","#FFFFF080"," "," ","1","&#10004","[1815]","1","0","0","","","","","","","",""
"pit-instructions","15","947326","0.0-2.0-4.6-1.6-0.6","battery-v0.2","","""event"",""trial"",""time""
""blur"",""1"",""264512""
""focus"",""1"",""535337""
""fullscreenenter"",""1"",""731210""
","""event"",""trial"",""time""
""blur"",""1"",""264512""
","""event"",""trial"",""time""
""focus"",""1"",""535337""
","""event"",""trial"",""time""
""fullscreenenter"",""1"",""731210""
","
","","[{""page_index"":0,""viewing_time"":10210},{""page_index"":1,""viewing_time"":10572}]","20782","","","","","","","","","","","","","","","","","","","","","","","",""
"pit-instructions","16","974288","0.0-2.0-5.0","battery-v0.2","","""event"",""trial"",""time""
""blur"",""1"",""264512""
""focus"",""1"",""535337""
""fullscreenenter"",""1"",""731210""
","""event"",""trial"",""time""
""blur"",""1"",""264512""
","""event"",""trial"",""time""
""focus"",""1"",""535337""
","""event"",""trial"",""time""
""fullscreenenter"",""1"",""731210""
","
","","[{""page_index"":0,""viewing_time"":7113},{""page_index"":1,""viewing_time"":6645},{""page_index"":2,""viewing_time"":6709},{""page_index"":3,""viewing_time"":6491}]","26958","","","","","","","","","","","","","","","","","","","","","","","",""
"pit-trial","17","979143","0.0-2.0-6.0-0.0","battery-v0.2","","""event"",""trial"",""time""
""blur"",""1"",""264512""
""focus"",""1"",""535337""
""fullscreenenter"",""1"",""731210""
","""event"",""trial"",""time""
""blur"",""1"",""264512""
","""event"",""trial"",""time""
""focus"",""1"",""535337""
","""event"",""trial"",""time""
""fullscreenenter"",""1"",""731210""
","
","","","-1","","","15","16592","6534","&#9854;","elianto","#FFFFF080","-1","-1","1","&#10004","[]","0","0","1","","","","","","","",""
"pit-trial","18","983998","0.0-2.0-6.1-0.1","battery-v0.2","","""event"",""trial"",""time""
""blur"",""1"",""264512""
""focus"",""1"",""535337""
""fullscreenenter"",""1"",""731210""
","""event"",""trial"",""time""
""blur"",""1"",""264512""
","""event"",""trial"",""time""
""focus"",""1"",""535337""
","""event"",""trial"",""time""
""fullscreenenter"",""1"",""731210""
","
","","","-1","","","15","16592","6534","&#9854;","elianto","#FFFFF080","-1","-1","1","&#10004","[]","0","0","1","","","","","","","",""
"pit-trial","19","988852","0.0-2.0-6.2-0.2","battery-v0.2","","""event"",""trial"",""time""
""blur"",""1"",""264512""
""focus"",""1"",""535337""
""fullscreenenter"",""1"",""731210""
","""event"",""trial"",""time""
""blur"",""1"",""264512""
","""event"",""trial"",""time""
""focus"",""1"",""535337""
","""event"",""trial"",""time""
""fullscreenenter"",""1"",""731210""
","
","","","-1","","","15","16592","6534","&#9854;","elianto","#FFFFF080","-1","-1","1","&#10004","[]","0","0","1","","","","","","","",""
"pit-trial","20","993707","0.0-2.0-6.3-0.3","battery-v0.2","","""event"",""trial"",""time""
""blur"",""1"",""264512""
""focus"",""1"",""535337""
""fullscreenenter"",""1"",""731210""
","""event"",""trial"",""time""
""blur"",""1"",""264512""
","""event"",""trial"",""time""
""focus"",""1"",""535337""
","""event"",""trial"",""time""
""fullscreenenter"",""1"",""731210""
","
","","","-1","","","15","16592","6534","&#9854;","elianto","#FFFFF080","-1","-1","1","&#10004","[]","0","0","1","","","","","","","",""
"pit-trial","21","998561","0.0-2.0-6.4-0.4","battery-v0.2","","""event"",""trial"",""time""
""blur"",""1"",""264512""
""focus"",""1"",""535337""
""fullscreenenter"",""1"",""731210""
","""event"",""trial"",""time""
""blur"",""1"",""264512""
","""event"",""trial"",""time""
""focus"",""1"",""535337""
","""event"",""trial"",""time""
""fullscreenenter"",""1"",""731210""
","
","","","-1","","","15","16592","6534","&#9854;","elianto","#FFFFF080","-1","-1","1","&#10004","[]","0","0","1","","","","","","","",""
"pit-instructions","22","1175959","0.0-2.0-7.0","battery-v0.2","","""event"",""trial"",""time""
""blur"",""1"",""264512""
""focus"",""1"",""535337""
""fullscreenenter"",""1"",""731210""
","""event"",""trial"",""time""
""blur"",""1"",""264512""
","""event"",""trial"",""time""
""focus"",""1"",""535337""
","""event"",""trial"",""time""
""fullscreenenter"",""1"",""731210""
","
","","[{""page_index"":0,""viewing_time"":8690.999999999884},{""page_index"":1,""viewing_time"":8447.000000000116},{""page_index"":2,""viewing_time"":11011.999999999884},{""page_index"":3,""viewing_time"":7918.999999999884},{""page_index"":4,""viewing_time"":6424.000000000116},{""page_index"":5,""viewing_time"":8202},{""page_index"":6,""viewing_time"":5812},{""page_index"":7,""viewing_time"":15079},{""page_index"":8,""viewing_time"":34673},{""page_index"":9,""viewing_time"":6988},{""page_index"":10,""viewing_time"":7816},{""page_index"":11,""viewing_time"":5557},{""page_index"":12,""viewing_time"":9282},{""page_index"":13,""viewing_time"":8263},{""page_index"":14,""viewing_time"":8385.000000000233},{""page_index"":15,""viewing_time"":6813.999999999767},{""page_index"":16,""viewing_time"":8456},{""page_index"":17,""viewing_time"":9572}]","177393.99999999988","","","","","","","","","","","","","","","","","","","","","","","",""
"pit-trial","23","1180002","0.0-2.0-8.0-0.0","battery-v0.2","","""event"",""trial"",""time""
""blur"",""1"",""264512""
""focus"",""1"",""535337""
""fullscreenenter"",""1"",""731210""
","""event"",""trial"",""time""
""blur"",""1"",""264512""
","""event"",""trial"",""time""
""focus"",""1"",""535337""
","""event"",""trial"",""time""
""fullscreenenter"",""1"",""731210""
","
","","","1189.0000000002328","","","15","16592","6534","&#9776;","elianto","#3366ff99"," "," ","1","+10","[2039]","1","0","1","","","","","","","",""
"pit-trial","24","1183521","0.0-2.0-8.0-1.0","battery-v0.2","","""event"",""trial"",""time""
""blur"",""1"",""264512""
""focus"",""1"",""535337""
""fullscreenenter"",""1"",""731210""
","""event"",""trial"",""time""
""blur"",""1"",""264512""
","""event"",""trial"",""time""
""focus"",""1"",""535337""
","""event"",""trial"",""time""
""fullscreenenter"",""1"",""731210""
","
","","","665","","","15","16592","6534","&#9776;","elianto","#3366ff99"," "," ","1","+10","[1516]","1","0","1","","","","","","","",""
"pit-trial","25","1186935","0.0-2.0-8.0-2.0","battery-v0.2","","""event"",""trial"",""time""
""blur"",""1"",""264512""
""focus"",""1"",""535337""
""fullscreenenter"",""1"",""731210""
","""event"",""trial"",""time""
""blur"",""1"",""264512""
","""event"",""trial"",""time""
""focus"",""1"",""535337""
","""event"",""trial"",""time""
""fullscreenenter"",""1"",""731210""
","
","","","558","","","15","16592","6534","&#9776;","elianto","#3366ff99"," "," ","1","+10","[1411]","1","0","1","","","","","","","",""
"pit-trial","26","1190271","0.0-2.0-8.0-3.0","battery-v0.2","","""event"",""trial"",""time""
""blur"",""1"",""264512""
""focus"",""1"",""535337""
""fullscreenenter"",""1"",""731210""
","""event"",""trial"",""time""
""blur"",""1"",""264512""
","""event"",""trial"",""time""
""focus"",""1"",""535337""
","""event"",""trial"",""time""
""fullscreenenter"",""1"",""731210""
","
","","","483","","","15","16592","6534","&#9776;","elianto","#3366ff99"," "," ","1","0","[1333]","1","0","1","","","","","","","",""
"pit-trial","27","1194202","0.0-2.0-8.0-4.0","battery-v0.2","","""event"",""trial"",""time""
""blur"",""1"",""264512""
""focus"",""1"",""535337""
""fullscreenenter"",""1"",""731210""
","""event"",""trial"",""time""
""blur"",""1"",""264512""
","""event"",""trial"",""time""
""focus"",""1"",""535337""
","""event"",""trial"",""time""
""fullscreenenter"",""1"",""731210""
","
","","","1076","","","15","16592","6534","&#9776;","elianto","#3366ff99"," "," ","1","+10","[1927]","1","0","1","","","","","","","",""
"pit-trial","28","1197841","0.0-2.0-8.1-0.1","battery-v0.2","","""event"",""trial"",""time""
""blur"",""1"",""264512""
""focus"",""1"",""535337""
""fullscreenenter"",""1"",""731210""
","""event"",""trial"",""time""
""blur"",""1"",""264512""
","""event"",""trial"",""time""
""focus"",""1"",""535337""
","""event"",""trial"",""time""
""fullscreenenter"",""1"",""731210""
","
","","","782","","","15","16592","6534","&#9776;","elianto","#3366ff99"," "," ","1","+10","[1636]","1","0","1","","","","","","","",""
"pit-trial","29","1201508","0.0-2.0-8.1-1.1","battery-v0.2","","""event"",""trial"",""time""
""blur"",""1"",""264512""
""focus"",""1"",""535337""
""fullscreenenter"",""1"",""731210""
","""event"",""trial"",""time""
""blur"",""1"",""264512""
","""event"",""trial"",""time""
""focus"",""1"",""535337""
","""event"",""trial"",""time""
""fullscreenenter"",""1"",""731210""
","
","","","813","","","15","16592","6534","&#9776;","elianto","#3366ff99"," "," ","1","+10","[1664]","1","0","1","","","","","","","",""
"pit-trial","30","1206153","0.0-2.0-8.1-2.1","battery-v0.2","","""event"",""trial"",""time""
""blur"",""1"",""264512""
""focus"",""1"",""535337""
""fullscreenenter"",""1"",""731210""
","""event"",""trial"",""time""
""blur"",""1"",""264512""
","""event"",""trial"",""time""
""focus"",""1"",""535337""
","""event"",""trial"",""time""
""fullscreenenter"",""1"",""731210""
","
","","","1791","","","15","16592","6534","&#9776;","elianto","#3366ff99"," "," ","1","+10","[2642]","1","0","1","","","","","","","",""
"pit-trial","31","1210148","0.0-2.0-8.1-3.1","battery-v0.2","","""event"",""trial"",""time""
""blur"",""1"",""264512""
""focus"",""1"",""535337""
""fullscreenenter"",""1"",""731210""
","""event"",""trial"",""time""
""blur"",""1"",""264512""
","""event"",""trial"",""time""
""focus"",""1"",""535337""
","""event"",""trial"",""time""
""fullscreenenter"",""1"",""731210""
","
","","","1139","","","15","16592","6534","&#9776;","elianto","#3366ff99"," "," ","1","0","[1990]","1","0","1","","","","","","","",""
"pit-trial","32","1215003","0.0-2.0-8.1-4.1","battery-v0.2","","""event"",""trial"",""time""
""blur"",""1"",""264512""
""focus"",""1"",""535337""
""fullscreenenter"",""1"",""731210""
","""event"",""trial"",""time""
""blur"",""1"",""264512""
","""event"",""trial"",""time""
""focus"",""1"",""535337""
","""event"",""trial"",""time""
""fullscreenenter"",""1"",""731210""
","
","","","-1","","","15","16592","6534","&#9776;","elianto","#3366ff99"," ","-1","0","0","[3254.000000000233]","1","0","1","","","","","","","",""
"pit-trial","33","1219859","0.0-2.0-8.2-0.2","battery-v0.2","","""event"",""trial"",""time""
""blur"",""1"",""264512""
""focus"",""1"",""535337""
""fullscreenenter"",""1"",""731210""
","""event"",""trial"",""time""
""blur"",""1"",""264512""
","""event"",""trial"",""time""
""focus"",""1"",""535337""
","""event"",""trial"",""time""
""fullscreenenter"",""1"",""731210""
","
","","","-1","","","15","16592","6534","&#9776;","elianto","#3366ff99"," ","-1","0","0","[2942]","1","0","1","","","","","","","",""
"pit-trial","34","1224075","0.0-2.0-8.2-1.2","battery-v0.2","","""event"",""trial"",""time""
""blur"",""1"",""264512""
""focus"",""1"",""535337""
""fullscreenenter"",""1"",""731210""
","""event"",""trial"",""time""
""blur"",""1"",""264512""
","""event"",""trial"",""time""
""focus"",""1"",""535337""
","""event"",""trial"",""time""
""fullscreenenter"",""1"",""731210""
","
","","","1360","","","15","16592","6534","&#9776;","elianto","#3366ff99"," "," ","1","+10","[2212]","1","0","1","","","","","","","",""
"pit-trial","35","1227496","0.0-2.0-8.2-2.2","battery-v0.2","","""event"",""trial"",""time""
""blur"",""1"",""264512""
""focus"",""1"",""535337""
""fullscreenenter"",""1"",""731210""
","""event"",""trial"",""time""
""blur"",""1"",""264512""
","""event"",""trial"",""time""
""focus"",""1"",""535337""
","""event"",""trial"",""time""
""fullscreenenter"",""1"",""731210""
","
","","","567","","","15","16592","6534","&#9776;","elianto","#3366ff99"," "," ","1","+10","[1417.9999999997672]","1","0","1","","","","","","","",""
"pit-trial","36","1230768","0.0-2.0-8.2-3.2","battery-v0.2","","""event"",""trial"",""time""
""blur"",""1"",""264512""
""focus"",""1"",""535337""
""fullscreenenter"",""1"",""731210""
","""event"",""trial"",""time""
""blur"",""1"",""264512""
","""event"",""trial"",""time""
""focus"",""1"",""535337""
","""event"",""trial"",""time""
""fullscreenenter"",""1"",""731210""
","
","","","418","","","15","16592","6534","&#9776;","elianto","#3366ff99"," "," ","1","0","[1270,3227]","2","0","1","","","","","","","",""
"pit-trial","37","1234274","0.0-2.0-8.2-4.2","battery-v0.2","","""event"",""trial"",""time""
""blur"",""1"",""264512""
""focus"",""1"",""535337""
""fullscreenenter"",""1"",""731210""
","""event"",""trial"",""time""
""blur"",""1"",""264512""
","""event"",""trial"",""time""
""focus"",""1"",""535337""
","""event"",""trial"",""time""
""fullscreenenter"",""1"",""731210""
","
","","","652","","","15","16592","6534","&#9776;","elianto","#3366ff99"," "," ","1","+10","[1503]","1","0","1","","","","","","","",""
"call-function","38","1234276","0.0-2.0-9.0","battery-v0.2","","""event"",""trial"",""time""
""blur"",""1"",""264512""
""focus"",""1"",""535337""
""fullscreenenter"",""1"",""731210""
","""event"",""trial"",""time""
""blur"",""1"",""264512""
","""event"",""trial"",""time""
""focus"",""1"",""535337""
","""event"",""trial"",""time""
""fullscreenenter"",""1"",""731210""
","
","","","","","","","","","","","","","","","","","","","","","","","","","","",""
"pit-instructions","39","1281051","0.0-2.0-10.0","battery-v0.2","","""event"",""trial"",""time""
""blur"",""1"",""264512""
""focus"",""1"",""535337""
""fullscreenenter"",""1"",""731210""
","""event"",""trial"",""time""
""blur"",""1"",""264512""
","""event"",""trial"",""time""
""focus"",""1"",""535337""
","""event"",""trial"",""time""
""fullscreenenter"",""1"",""731210""
","
","","[{""page_index"":0,""viewing_time"":9573},{""page_index"":1,""viewing_time"":7436},{""page_index"":2,""viewing_time"":10563},{""page_index"":3,""viewing_time"":10326},{""page_index"":4,""viewing_time"":8874}]","46774","","","","","","","","","","","","","","","","","","","","","","","",""
"pit-trial","40","1285294","0.0-2.0-11.0-0.0","battery-v0.2","","""event"",""trial"",""time""
""blur"",""1"",""264512""
""focus"",""1"",""535337""
""fullscreenenter"",""1"",""731210""
","""event"",""trial"",""time""
""blur"",""1"",""264512""
","""event"",""trial"",""time""
""focus"",""1"",""535337""
","""event"",""trial"",""time""
""fullscreenenter"",""1"",""731210""
","
","","","1387.9999999997672","","","15","16592","6534","&#9761;","elianto","#3366ff99","-1"," ","0","0","[2239]","1","0","2","","","","","","","",""
"pit-trial","41","1288446","0.0-2.0-11.0-1.0","battery-v0.2","","""event"",""trial"",""time""
""blur"",""1"",""264512""
""focus"",""1"",""535337""
""fullscreenenter"",""1"",""731210""
","""event"",""trial"",""time""
""blur"",""1"",""264512""
","""event"",""trial"",""time""
""focus"",""1"",""535337""
","""event"",""trial"",""time""
""fullscreenenter"",""1"",""731210""
","
","","","298","","","15","16592","6534","&#9761;","elianto","#3366ff99","-1"," ","0","0","[1148]","1","0","2","","","","","","","",""
"pit-trial","42","1292092","0.0-2.0-11.0-2.0","battery-v0.2","","""event"",""trial"",""time""
""blur"",""1"",""264512""
""focus"",""1"",""535337""
""fullscreenenter"",""1"",""731210""
","""event"",""trial"",""time""
""blur"",""1"",""264512""
","""event"",""trial"",""time""
""focus"",""1"",""535337""
","""event"",""trial"",""time""
""fullscreenenter"",""1"",""731210""
","
","","","791","","","15","16592","6534","&#9761;","elianto","#3366ff99","-1"," ","0","0","[606,1643]","2","0","2","","","","","","","",""
"pit-trial","43","1296946","0.0-2.0-11.0-3.0","battery-v0.2","","""event"",""trial"",""time""
""blur"",""1"",""264512""
""focus"",""1"",""535337""
""fullscreenenter"",""1"",""731210""
","""event"",""trial"",""time""
""blur"",""1"",""264512""
","""event"",""trial"",""time""
""focus"",""1"",""535337""
","""event"",""trial"",""time""
""fullscreenenter"",""1"",""731210""
","
","","","-1","","","15","16592","6534","&#9761;","elianto","#3366ff99","-1","-1","1","0","[]","0","0","2","","","","","","","",""
"pit-trial","44","1301801","0.0-2.0-11.0-4.0","battery-v0.2","","""event"",""trial"",""time""
""blur"",""1"",""264512""
""focus"",""1"",""535337""
""fullscreenenter"",""1"",""731210""
","""event"",""trial"",""time""
""blur"",""1"",""264512""
","""event"",""trial"",""time""
""focus"",""1"",""535337""
","""event"",""trial"",""time""
""fullscreenenter"",""1"",""731210""
","
","","","-1","","","15","16592","6534","&#9761;","elianto","#3366ff99","-1","-1","1","+10","[]","0","0","2","","","","","","","",""
"pit-trial","45","1306655","0.0-2.0-11.1-0.1","battery-v0.2","","""event"",""trial"",""time""
""blur"",""1"",""264512""
""focus"",""1"",""535337""
""fullscreenenter"",""1"",""731210""
","""event"",""trial"",""time""
""blur"",""1"",""264512""
","""event"",""trial"",""time""
""focus"",""1"",""535337""
","""event"",""trial"",""time""
""fullscreenenter"",""1"",""731210""
","
","","","-1","","","15","16592","6534","&#9761;","elianto","#3366ff99","-1","-1","1","+10","[]","0","0","2","","","","","","","",""
"pit-trial","46","1311510","0.0-2.0-11.1-1.1","battery-v0.2","","""event"",""trial"",""time""
""blur"",""1"",""264512""
""focus"",""1"",""535337""
""fullscreenenter"",""1"",""731210""
","""event"",""trial"",""time""
""blur"",""1"",""264512""
","""event"",""trial"",""time""
""focus"",""1"",""535337""
","""event"",""trial"",""time""
""fullscreenenter"",""1"",""731210""
","
","","","-1","","","15","16592","6534","&#9761;","elianto","#3366ff99","-1","-1","1","+10","[]","0","0","2","","","","","","","",""
"pit-trial","47","1316364","0.0-2.0-11.1-2.1","battery-v0.2","","""event"",""trial"",""time""
""blur"",""1"",""264512""
""focus"",""1"",""535337""
""fullscreenenter"",""1"",""731210""
","""event"",""trial"",""time""
""blur"",""1"",""264512""
","""event"",""trial"",""time""
""focus"",""1"",""535337""
","""event"",""trial"",""time""
""fullscreenenter"",""1"",""731210""
","
","","","-1","","","15","16592","6534","&#9761;","elianto","#3366ff99","-1","-1","1","+10","[]","0","0","2","","","","","","","",""
"pit-trial","48","1321218","0.0-2.0-11.1-3.1","battery-v0.2","","""event"",""trial"",""time""
""blur"",""1"",""264512""
""focus"",""1"",""535337""
""fullscreenenter"",""1"",""731210""
","""event"",""trial"",""time""
""blur"",""1"",""264512""
","""event"",""trial"",""time""
""focus"",""1"",""535337""
","""event"",""trial"",""time""
""fullscreenenter"",""1"",""731210""
","
","","","-1","","","15","16592","6534","&#9761;","elianto","#3366ff99","-1","-1","1","0","[]","0","0","2","","","","","","","",""
"pit-trial","49","1324465","0.0-2.0-11.1-4.1","battery-v0.2","","""event"",""trial"",""time""
""blur"",""1"",""264512""
""focus"",""1"",""535337""
""fullscreenenter"",""1"",""731210""
","""event"",""trial"",""time""
""blur"",""1"",""264512""
","""event"",""trial"",""time""
""focus"",""1"",""535337""
","""event"",""trial"",""time""
""fullscreenenter"",""1"",""731210""
","
","","","393","","","15","16592","6534","&#9761;","elianto","#3366ff99","-1"," ","0","0","[1244]","1","0","2","","","","","","","",""
"pit-trial","50","1329319","0.0-2.0-11.2-0.2","battery-v0.2","","""event"",""trial"",""time""
""blur"",""1"",""264512""
""focus"",""1"",""535337""
""fullscreenenter"",""1"",""731210""
","""event"",""trial"",""time""
""blur"",""1"",""264512""
","""event"",""trial"",""time""
""focus"",""1"",""535337""
","""event"",""trial"",""time""
""fullscreenenter"",""1"",""731210""
","
","","","-1","","","15","16592","6534","&#9761;","elianto","#3366ff99","-1","-1","1","+10","[]","0","0","2","","","","","","","",""
"pit-trial","51","1334174","0.0-2.0-11.2-1.2","battery-v0.2","","""event"",""trial"",""time""
""blur"",""1"",""264512""
""focus"",""1"",""535337""
""fullscreenenter"",""1"",""731210""
","""event"",""trial"",""time""
""blur"",""1"",""264512""
","""event"",""trial"",""time""
""focus"",""1"",""535337""
","""event"",""trial"",""time""
""fullscreenenter"",""1"",""731210""
","
","","","-1","","","15","16592","6534","&#9761;","elianto","#3366ff99","-1","-1","1","+10","[]","0","0","2","","","","","","","",""
"pit-trial","52","1339028","0.0-2.0-11.2-2.2","battery-v0.2","","""event"",""trial"",""time""
""blur"",""1"",""264512""
""focus"",""1"",""535337""
""fullscreenenter"",""1"",""731210""
","""event"",""trial"",""time""
""blur"",""1"",""264512""
","""event"",""trial"",""time""
""focus"",""1"",""535337""
","""event"",""trial"",""time""
""fullscreenenter"",""1"",""731210""
","
","","","-1","","","15","16592","6534","&#9761;","elianto","#3366ff99","-1","-1","1","+10","[]","0","0","2","","","","","","","",""
"pit-trial","53","1343883","0.0-2.0-11.2-3.2","battery-v0.2","","""event"",""trial"",""time""
""blur"",""1"",""264512""
""focus"",""1"",""535337""
""fullscreenenter"",""1"",""731210""
","""event"",""trial"",""time""
""blur"",""1"",""264512""
","""event"",""trial"",""time""
""focus"",""1"",""535337""
","""event"",""trial"",""time""
""fullscreenenter"",""1"",""731210""
","
","","","-1","","","15","16592","6534","&#9761;","elianto","#3366ff99","-1","-1","1","0","[]","0","0","2","","","","","","","",""
"pit-trial","54","1348737","0.0-2.0-11.2-4.2","battery-v0.2","","""event"",""trial"",""time""
""blur"",""1"",""264512""
""focus"",""1"",""535337""
""fullscreenenter"",""1"",""731210""
","""event"",""trial"",""time""
""blur"",""1"",""264512""
","""event"",""trial"",""time""
""focus"",""1"",""535337""
","""event"",""trial"",""time""
""fullscreenenter"",""1"",""731210""
","
","","","-1","","","15","16592","6534","&#9761;","elianto","#3366ff99","-1","-1","1","+10","[]","0","0","2","","","","","","","",""
"pit-trial","55","1353591","0.0-2.0-11.3-0.3","battery-v0.2","","""event"",""trial"",""time""
""blur"",""1"",""264512""
""focus"",""1"",""535337""
""fullscreenenter"",""1"",""731210""
","""event"",""trial"",""time""
""blur"",""1"",""264512""
","""event"",""trial"",""time""
""focus"",""1"",""535337""
","""event"",""trial"",""time""
""fullscreenenter"",""1"",""731210""
","
","","","-1","","","15","16592","6534","&#9761;","elianto","#3366ff99","-1","-1","1","+10","[]","0","0","2","","","","","","","",""
"pit-trial","56","1358446","0.0-2.0-11.3-1.3","battery-v0.2","","""event"",""trial"",""time""
""blur"",""1"",""264512""
""focus"",""1"",""535337""
""fullscreenenter"",""1"",""731210""
","""event"",""trial"",""time""
""blur"",""1"",""264512""
","""event"",""trial"",""time""
""focus"",""1"",""535337""
","""event"",""trial"",""time""
""fullscreenenter"",""1"",""731210""
","
","","","-1","","","15","16592","6534","&#9761;","elianto","#3366ff99","-1","-1","1","+10","[]","0","0","2","","","","","","","",""
"pit-trial","57","1363300","0.0-2.0-11.3-2.3","battery-v0.2","","""event"",""trial"",""time""
""blur"",""1"",""264512""
""focus"",""1"",""535337""
""fullscreenenter"",""1"",""731210""
","""event"",""trial"",""time""
""blur"",""1"",""264512""
","""event"",""trial"",""time""
""focus"",""1"",""535337""
","""event"",""trial"",""time""
""fullscreenenter"",""1"",""731210""
","
","","","-1","","","15","16592","6534","&#9761;","elianto","#3366ff99","-1","-1","1","+10","[]","0","0","2","","","","","","","",""
"pit-trial","58","1368155","0.0-2.0-11.3-3.3","battery-v0.2","","""event"",""trial"",""time""
""blur"",""1"",""264512""
""focus"",""1"",""535337""
""fullscreenenter"",""1"",""731210""
","""event"",""trial"",""time""
""blur"",""1"",""264512""
","""event"",""trial"",""time""
""focus"",""1"",""535337""
","""event"",""trial"",""time""
""fullscreenenter"",""1"",""731210""
","
","","","-1","","","15","16592","6534","&#9761;","elianto","#3366ff99","-1","-1","1","0","[]","0","0","2","","","","","","","",""
"pit-trial","59","1373009","0.0-2.0-11.3-4.3","battery-v0.2","","""event"",""trial"",""time""
""blur"",""1"",""264512""
""focus"",""1"",""535337""
""fullscreenenter"",""1"",""731210""
","""event"",""trial"",""time""
""blur"",""1"",""264512""
","""event"",""trial"",""time""
""focus"",""1"",""535337""
","""event"",""trial"",""time""
""fullscreenenter"",""1"",""731210""
","
","","","-1","","","15","16592","6534","&#9761;","elianto","#3366ff99","-1","-1","1","+10","[]","0","0","2","","","","","","","",""
"call-function","60","1373011","0.0-2.0-12.0","battery-v0.2","","""event"",""trial"",""time""
""blur"",""1"",""264512""
""focus"",""1"",""535337""
""fullscreenenter"",""1"",""731210""
","""event"",""trial"",""time""
""blur"",""1"",""264512""
","""event"",""trial"",""time""
""focus"",""1"",""535337""
","""event"",""trial"",""time""
""fullscreenenter"",""1"",""731210""
","
","","","","","","","","","","","","","","","","","","","","","","","","","","",""
"pit-instructions","61","1425037","0.0-2.0-13.0","battery-v0.2","","""event"",""trial"",""time""
""blur"",""1"",""264512""
""focus"",""1"",""535337""
""fullscreenenter"",""1"",""731210""
","""event"",""trial"",""time""
""blur"",""1"",""264512""
","""event"",""trial"",""time""
""focus"",""1"",""535337""
","""event"",""trial"",""time""
""fullscreenenter"",""1"",""731210""
","
","","[{""page_index"":0,""viewing_time"":19363.000000000233},{""page_index"":1,""viewing_time"":8073.999999999767},{""page_index"":2,""viewing_time"":5893},{""page_index"":3,""viewing_time"":12801},{""page_index"":4,""viewing_time"":5892}]","52025","","","","","","","","","","","","","","","","","","","","","","","",""
"pit-trial","62","1428817","0.0-2.0-14.0-0.0","battery-v0.2","","""event"",""trial"",""time""
""blur"",""1"",""264512""
""focus"",""1"",""535337""
""fullscreenenter"",""1"",""731210""
","""event"",""trial"",""time""
""blur"",""1"",""264512""
","""event"",""trial"",""time""
""focus"",""1"",""535337""
","""event"",""trial"",""time""
""fullscreenenter"",""1"",""731210""
","
","","","927","","","15","16592","6534","&#9826;","elianto","#f73b6a7A","-1"," ","0","-10","[1777]","1","0","3","","","","","","","",""
"pit-trial","63","1433670","0.0-2.0-14.0-1.0","battery-v0.2","","""event"",""trial"",""time""
""blur"",""1"",""264512""
""focus"",""1"",""535337""
""fullscreenenter"",""1"",""731210""
","""event"",""trial"",""time""
""blur"",""1"",""264512""
","""event"",""trial"",""time""
""focus"",""1"",""535337""
","""event"",""trial"",""time""
""fullscreenenter"",""1"",""731210""
","
","","","-1","","","15","16592","6534","&#9826;","elianto","#f73b6a7A","-1","-1","1","0","[]","0","0","3","","","","","","","",""
"pit-trial","64","1438524","0.0-2.0-14.0-2.0","battery-v0.2","","""event"",""trial"",""time""
""blur"",""1"",""264512""
""focus"",""1"",""535337""
""fullscreenenter"",""1"",""731210""
","""event"",""trial"",""time""
""blur"",""1"",""264512""
","""event"",""trial"",""time""
""focus"",""1"",""535337""
","""event"",""trial"",""time""
""fullscreenenter"",""1"",""731210""
","
","","","-1","","","15","16592","6534","&#9826;","elianto","#f73b6a7A","-1","-1","1","0","[2961]","1","0","3","","","","","","","",""
"pit-trial","65","1443379","0.0-2.0-14.0-3.0","battery-v0.2","","""event"",""trial"",""time""
""blur"",""1"",""264512""
""focus"",""1"",""535337""
""fullscreenenter"",""1"",""731210""
","""event"",""trial"",""time""
""blur"",""1"",""264512""
","""event"",""trial"",""time""
""focus"",""1"",""535337""
","""event"",""trial"",""time""
""fullscreenenter"",""1"",""731210""
","
","","","-1","","","15","16592","6534","&#9826;","elianto","#f73b6a7A","-1","-1","1","-10","[]","0","0","3","","","","","","","",""
"pit-trial","66","1448233","0.0-2.0-14.0-4.0","battery-v0.2","","""event"",""trial"",""time""
""blur"",""1"",""264512""
""focus"",""1"",""535337""
""fullscreenenter"",""1"",""731210""
","""event"",""trial"",""time""
""blur"",""1"",""264512""
","""event"",""trial"",""time""
""focus"",""1"",""535337""
","""event"",""trial"",""time""
""fullscreenenter"",""1"",""731210""
","
","","","-1","","","15","16592","6534","&#9826;","elianto","#f73b6a7A","-1","-1","1","0","[]","0","0","3","","","","","","","",""
"pit-trial","67","1453087","0.0-2.0-14.1-0.1","battery-v0.2","","""event"",""trial"",""time""
""blur"",""1"",""264512""
""focus"",""1"",""535337""
""fullscreenenter"",""1"",""731210""
","""event"",""trial"",""time""
""blur"",""1"",""264512""
","""event"",""trial"",""time""
""focus"",""1"",""535337""
","""event"",""trial"",""time""
""fullscreenenter"",""1"",""731210""
","
","","","-1","","","15","16592","6534","&#9826;","elianto","#f73b6a7A","-1","-1","1","0","[]","0","0","3","","","","","","","",""
"pit-trial","68","1457942","0.0-2.0-14.1-1.1","battery-v0.2","","""event"",""trial"",""time""
""blur"",""1"",""264512""
""focus"",""1"",""535337""
""fullscreenenter"",""1"",""731210""
","""event"",""trial"",""time""
""blur"",""1"",""264512""
","""event"",""trial"",""time""
""focus"",""1"",""535337""
","""event"",""trial"",""time""
""fullscreenenter"",""1"",""731210""
","
","","","-1","","","15","16592","6534","&#9826;","elianto","#f73b6a7A","-1","-1","1","0","[]","0","0","3","","","","","","","",""
"pit-trial","69","1462796","0.0-2.0-14.1-2.1","battery-v0.2","","""event"",""trial"",""time""
""blur"",""1"",""264512""
""focus"",""1"",""535337""
""fullscreenenter"",""1"",""731210""
","""event"",""trial"",""time""
""blur"",""1"",""264512""
","""event"",""trial"",""time""
""focus"",""1"",""535337""
","""event"",""trial"",""time""
""fullscreenenter"",""1"",""731210""
","
","","","-1","","","15","16592","6534","&#9826;","elianto","#f73b6a7A","-1","-1","1","0","[]","0","0","3","","","","","","","",""
"pit-trial","70","1467651","0.0-2.0-14.1-3.1","battery-v0.2","","""event"",""trial"",""time""
""blur"",""1"",""264512""
""focus"",""1"",""535337""
""fullscreenenter"",""1"",""731210""
","""event"",""trial"",""time""
""blur"",""1"",""264512""
","""event"",""trial"",""time""
""focus"",""1"",""535337""
","""event"",""trial"",""time""
""fullscreenenter"",""1"",""731210""
","
","","","-1","","","15","16592","6534","&#9826;","elianto","#f73b6a7A","-1","-1","1","-10","[]","0","0","3","","","","","","","",""
"pit-trial","71","1472505","0.0-2.0-14.1-4.1","battery-v0.2","","""event"",""trial"",""time""
""blur"",""1"",""264512""
""focus"",""1"",""535337""
""fullscreenenter"",""1"",""731210""
","""event"",""trial"",""time""
""blur"",""1"",""264512""
","""event"",""trial"",""time""
""focus"",""1"",""535337""
","""event"",""trial"",""time""
""fullscreenenter"",""1"",""731210""
","
","","","-1","","","15","16592","6534","&#9826;","elianto","#f73b6a7A","-1","-1","1","0","[]","0","0","3","","","","","","","",""
"pit-trial","72","1477359","0.0-2.0-14.2-0.2","battery-v0.2","","""event"",""trial"",""time""
""blur"",""1"",""264512""
""focus"",""1"",""535337""
""fullscreenenter"",""1"",""731210""
","""event"",""trial"",""time""
""blur"",""1"",""264512""
","""event"",""trial"",""time""
""focus"",""1"",""535337""
","""event"",""trial"",""time""
""fullscreenenter"",""1"",""731210""
","
","","","-1","","","15","16592","6534","&#9826;","elianto","#f73b6a7A","-1","-1","1","0","[]","0","0","3","","","","","","","",""
"pit-trial","73","1482214","0.0-2.0-14.2-1.2","battery-v0.2","","""event"",""trial"",""time""
""blur"",""1"",""264512""
""focus"",""1"",""535337""
""fullscreenenter"",""1"",""731210""
","""event"",""trial"",""time""
""blur"",""1"",""264512""
","""event"",""trial"",""time""
""focus"",""1"",""535337""
","""event"",""trial"",""time""
""fullscreenenter"",""1"",""731210""
","
","","","-1","","","15","16592","6534","&#9826;","elianto","#f73b6a7A","-1","-1","1","0","[]","0","0","3","","","","","","","",""
"pit-trial","74","1487068","0.0-2.0-14.2-2.2","battery-v0.2","","""event"",""trial"",""time""
""blur"",""1"",""264512""
""focus"",""1"",""535337""
""fullscreenenter"",""1"",""731210""
","""event"",""trial"",""time""
""blur"",""1"",""264512""
","""event"",""trial"",""time""
""focus"",""1"",""535337""
","""event"",""trial"",""time""
""fullscreenenter"",""1"",""731210""
","
","","","-1","","","15","16592","6534","&#9826;","elianto","#f73b6a7A","-1","-1","1","0","[]","0","0","3","","","","","","","",""
"pit-trial","75","1491923","0.0-2.0-14.2-3.2","battery-v0.2","","""event"",""trial"",""time""
""blur"",""1"",""264512""
""focus"",""1"",""535337""
""fullscreenenter"",""1"",""731210""
","""event"",""trial"",""time""
""blur"",""1"",""264512""
","""event"",""trial"",""time""
""focus"",""1"",""535337""
","""event"",""trial"",""time""
""fullscreenenter"",""1"",""731210""
","
","","","-1","","","15","16592","6534","&#9826;","elianto","#f73b6a7A","-1","-1","1","-10","[]","0","0","3","","","","","","","",""
"pit-trial","76","1496777","0.0-2.0-14.2-4.2","battery-v0.2","","""event"",""trial"",""time""
""blur"",""1"",""264512""
""focus"",""1"",""535337""
""fullscreenenter"",""1"",""731210""
","""event"",""trial"",""time""
""blur"",""1"",""264512""
","""event"",""trial"",""time""
""focus"",""1"",""535337""
","""event"",""trial"",""time""
""fullscreenenter"",""1"",""731210""
","
","","","-1","","","15","16592","6534","&#9826;","elianto","#f73b6a7A","-1","-1","1","0","[]","0","0","3","","","","","","","",""
"pit-trial","77","1501632","0.0-2.0-14.3-0.3","battery-v0.2","","""event"",""trial"",""time""
""blur"",""1"",""264512""
""focus"",""1"",""535337""
""fullscreenenter"",""1"",""731210""
","""event"",""trial"",""time""
""blur"",""1"",""264512""
","""event"",""trial"",""time""
""focus"",""1"",""535337""
","""event"",""trial"",""time""
""fullscreenenter"",""1"",""731210""
","
","","","-1","","","15","16592","6534","&#9826;","elianto","#f73b6a7A","-1","-1","1","0","[]","0","0","3","","","","","","","",""
"pit-trial","78","1506486","0.0-2.0-14.3-1.3","battery-v0.2","","""event"",""trial"",""time""
""blur"",""1"",""264512""
""focus"",""1"",""535337""
""fullscreenenter"",""1"",""731210""
","""event"",""trial"",""time""
""blur"",""1"",""264512""
","""event"",""trial"",""time""
""focus"",""1"",""535337""
","""event"",""trial"",""time""
""fullscreenenter"",""1"",""731210""
","
","","","-1","","","15","16592","6534","&#9826;","elianto","#f73b6a7A","-1","-1","1","0","[]","0","0","3","","","","","","","",""
"pit-trial","79","1509805","0.0-2.0-14.3-2.3","battery-v0.2","","""event"",""trial"",""time""
""blur"",""1"",""264512""
""focus"",""1"",""535337""
""fullscreenenter"",""1"",""731210""
","""event"",""trial"",""time""
""blur"",""1"",""264512""
","""event"",""trial"",""time""
""focus"",""1"",""535337""
","""event"",""trial"",""time""
""fullscreenenter"",""1"",""731210""
","
","","","465","","","15","16592","6534","&#9826;","elianto","#f73b6a7A","-1"," ","0","-10","[1316]","1","0","3","","","","","","","",""
"pit-trial","80","1513278","0.0-2.0-14.3-3.3","battery-v0.2","","""event"",""trial"",""time""
""blur"",""1"",""264512""
""focus"",""1"",""535337""
""fullscreenenter"",""1"",""731210""
","""event"",""trial"",""time""
""blur"",""1"",""264512""
","""event"",""trial"",""time""
""focus"",""1"",""535337""
","""event"",""trial"",""time""
""fullscreenenter"",""1"",""731210""
","
","","","619","","","15","16592","6534","&#9826;","elianto","#f73b6a7A","-1"," ","0","0","[1469.9999999997672]","1","0","3","","","","","","","",""
"pit-trial","81","1516725","0.0-2.0-14.3-4.3","battery-v0.2","","""event"",""trial"",""time""
""blur"",""1"",""264512""
""focus"",""1"",""535337""
""fullscreenenter"",""1"",""731210""
","""event"",""trial"",""time""
""blur"",""1"",""264512""
","""event"",""trial"",""time""
""focus"",""1"",""535337""
","""event"",""trial"",""time""
""fullscreenenter"",""1"",""731210""
","
","","","593","","","15","16592","6534","&#9826;","elianto","#f73b6a7A","-1"," ","0","-10","[1443]","1","0","3","","","","","","","",""
"call-function","82","1516727","0.0-2.0-15.0","battery-v0.2","","""event"",""trial"",""time""
""blur"",""1"",""264512""
""focus"",""1"",""535337""
""fullscreenenter"",""1"",""731210""
","""event"",""trial"",""time""
""blur"",""1"",""264512""
","""event"",""trial"",""time""
""focus"",""1"",""535337""
","""event"",""trial"",""time""
""fullscreenenter"",""1"",""731210""
","
","","","","","","","","","","","","","","","","","","","","","","","","","","",""
"pit-instructions","83","1548298","0.0-2.0-16.0","battery-v0.2","","""event"",""trial"",""time""
""blur"",""1"",""264512""
""focus"",""1"",""535337""
""fullscreenenter"",""1"",""731210""
","""event"",""trial"",""time""
""blur"",""1"",""264512""
","""event"",""trial"",""time""
""focus"",""1"",""535337""
","""event"",""trial"",""time""
""fullscreenenter"",""1"",""731210""
","
","","[{""page_index"":0,""viewing_time"":8449},{""page_index"":1,""viewing_time"":10083},{""page_index"":2,""viewing_time"":6159},{""page_index"":3,""viewing_time"":6879.000000000233}]","31570.000000000233","","","","","","","","","","","","","","","","","","","","","","","",""
"pit-trial","84","1553154","0.0-2.0-17.0-0.0","battery-v0.2","","""event"",""trial"",""time""
""blur"",""1"",""264512""
""focus"",""1"",""535337""
""fullscreenenter"",""1"",""731210""
","""event"",""trial"",""time""
""blur"",""1"",""264512""
","""event"",""trial"",""time""
""focus"",""1"",""535337""
","""event"",""trial"",""time""
""fullscreenenter"",""1"",""731210""
","
","","","-1","","","15","16592","6534","&#9789;","elianto","#f73b6a7A"," ","-1","0","-10","[]","0","0","4","","","","","","","",""
"pit-trial","85","1556625","0.0-2.0-17.0-1.0","battery-v0.2","","""event"",""trial"",""time""
""blur"",""1"",""264512""
""focus"",""1"",""535337""
""fullscreenenter"",""1"",""731210""
","""event"",""trial"",""time""
""blur"",""1"",""264512""
","""event"",""trial"",""time""
""focus"",""1"",""535337""
","""event"",""trial"",""time""
""fullscreenenter"",""1"",""731210""
","
","","","615","","","15","16592","6534","&#9789;","elianto","#f73b6a7A"," "," ","1","0","[1467]","1","0","4","","","","","","","",""
"pit-trial","86","1559542","0.0-2.0-17.0-2.0","battery-v0.2","","""event"",""trial"",""time""
""blur"",""1"",""264512""
""focus"",""1"",""535337""
""fullscreenenter"",""1"",""731210""
","""event"",""trial"",""time""
""blur"",""1"",""264512""
","""event"",""trial"",""time""
""focus"",""1"",""535337""
","""event"",""trial"",""time""
""fullscreenenter"",""1"",""731210""
","
","","","64","","","15","16592","6534","&#9789;","elianto","#f73b6a7A"," "," ","1","0","[914]","1","0","4","","","","","","","",""
"pit-trial","87","1564397","0.0-2.0-17.0-3.0","battery-v0.2","","""event"",""trial"",""time""
""blur"",""1"",""264512""
""focus"",""1"",""535337""
""fullscreenenter"",""1"",""731210""
","""event"",""trial"",""time""
""blur"",""1"",""264512""
","""event"",""trial"",""time""
""focus"",""1"",""535337""
","""event"",""trial"",""time""
""fullscreenenter"",""1"",""731210""
","
","","","-1","","","15","16592","6534","&#9789;","elianto","#f73b6a7A"," ","-1","0","0","[]","0","0","4","","","","","","","",""
"pit-trial","88","1569251","0.0-2.0-17.0-4.0","battery-v0.2","","""event"",""trial"",""time""
""blur"",""1"",""264512""
""focus"",""1"",""535337""
""fullscreenenter"",""1"",""731210""
","""event"",""trial"",""time""
""blur"",""1"",""264512""
","""event"",""trial"",""time""
""focus"",""1"",""535337""
","""event"",""trial"",""time""
""fullscreenenter"",""1"",""731210""
","
","","","-1","","","15","16592","6534","&#9789;","elianto","#f73b6a7A"," ","-1","0","-10","[]","0","0","4","","","","","","","",""
"pit-trial","89","1574106","0.0-2.0-17.1-0.1","battery-v0.2","","""event"",""trial"",""time""
""blur"",""1"",""264512""
""focus"",""1"",""535337""
""fullscreenenter"",""1"",""731210""
","""event"",""trial"",""time""
""blur"",""1"",""264512""
","""event"",""trial"",""time""
""focus"",""1"",""535337""
","""event"",""trial"",""time""
""fullscreenenter"",""1"",""731210""
","
","","","-1","","","15","16592","6534","&#9789;","elianto","#f73b6a7A"," ","-1","0","-10","[]","0","0","4","","","","","","","",""
"pit-trial","90","1578960","0.0-2.0-17.1-1.1","battery-v0.2","","""event"",""trial"",""time""
""blur"",""1"",""264512""
""focus"",""1"",""535337""
""fullscreenenter"",""1"",""731210""
","""event"",""trial"",""time""
""blur"",""1"",""264512""
","""event"",""trial"",""time""
""focus"",""1"",""535337""
","""event"",""trial"",""time""
""fullscreenenter"",""1"",""731210""
","
","","","-1","","","15","16592","6534","&#9789;","elianto","#f73b6a7A"," ","-1","0","-10","[]","0","0","4","","","","","","","",""
"pit-trial","91","1582754","0.0-2.0-17.1-2.1","battery-v0.2","","""event"",""trial"",""time""
""blur"",""1"",""264512""
""focus"",""1"",""535337""
""fullscreenenter"",""1"",""731210""
","""event"",""trial"",""time""
""blur"",""1"",""264512""
","""event"",""trial"",""time""
""focus"",""1"",""535337""
","""event"",""trial"",""time""
""fullscreenenter"",""1"",""731210""
","
","","","941","","","15","16592","6534","&#9789;","elianto","#f73b6a7A"," "," ","1","0","[1791]","1","0","4","","","","","","","",""
"pit-trial","92","1587609","0.0-2.0-17.1-3.1","battery-v0.2","","""event"",""trial"",""time""
""blur"",""1"",""264512""
""focus"",""1"",""535337""
""fullscreenenter"",""1"",""731210""
","""event"",""trial"",""time""
""blur"",""1"",""264512""
","""event"",""trial"",""time""
""focus"",""1"",""535337""
","""event"",""trial"",""time""
""fullscreenenter"",""1"",""731210""
","
","","","-1","","","15","16592","6534","&#9789;","elianto","#f73b6a7A"," ","-1","0","0","[]","0","0","4","","","","","","","",""
"pit-trial","93","1592209","0.0-2.0-17.1-4.1","battery-v0.2","","""event"",""trial"",""time""
""blur"",""1"",""264512""
""focus"",""1"",""535337""
""fullscreenenter"",""1"",""731210""
","""event"",""trial"",""time""
""blur"",""1"",""264512""
","""event"",""trial"",""time""
""focus"",""1"",""535337""
","""event"",""trial"",""time""
""fullscreenenter"",""1"",""731210""
","
","","","1746","","","15","16592","6534","&#9789;","elianto","#f73b6a7A"," "," ","1","0","[2597]","1","0","4","","","","","","","",""
"pit-trial","94","1597064","0.0-2.0-17.2-0.2","battery-v0.2","","""event"",""trial"",""time""
""blur"",""1"",""264512""
""focus"",""1"",""535337""
""fullscreenenter"",""1"",""731210""
","""event"",""trial"",""time""
""blur"",""1"",""264512""
","""event"",""trial"",""time""
""focus"",""1"",""535337""
","""event"",""trial"",""time""
""fullscreenenter"",""1"",""731210""
","
","","","-1","","","15","16592","6534","&#9789;","elianto","#f73b6a7A"," ","-1","0","-10","[]","0","0","4","","","","","","","",""
"pit-trial","95","1601919","0.0-2.0-17.2-1.2","battery-v0.2","","""event"",""trial"",""time""
""blur"",""1"",""264512""
""focus"",""1"",""535337""
""fullscreenenter"",""1"",""731210""
","""event"",""trial"",""time""
""blur"",""1"",""264512""
","""event"",""trial"",""time""
""focus"",""1"",""535337""
","""event"",""trial"",""time""
""fullscreenenter"",""1"",""731210""
","
","","","-1","","","15","16592","6534","&#9789;","elianto","#f73b6a7A"," ","-1","0","-10","[]","0","0","4","","","","","","","",""
"pit-trial","96","1606773","0.0-2.0-17.2-2.2","battery-v0.2","","""event"",""trial"",""time""
""blur"",""1"",""264512""
""focus"",""1"",""535337""
""fullscreenenter"",""1"",""731210""
","""event"",""trial"",""time""
""blur"",""1"",""264512""
","""event"",""trial"",""time""
""focus"",""1"",""535337""
","""event"",""trial"",""time""
""fullscreenenter"",""1"",""731210""
","
","","","-1","","","15","16592","6534","&#9789;","elianto","#f73b6a7A"," ","-1","0","-10","[3227]","1","0","4","","","","","","","",""
"pit-trial","97","1610648","0.0-2.0-17.2-3.2","battery-v0.2","","""event"",""trial"",""time""
""blur"",""1"",""264512""
""focus"",""1"",""535337""
""fullscreenenter"",""1"",""731210""
","""event"",""trial"",""time""
""blur"",""1"",""264512""
","""event"",""trial"",""time""
""focus"",""1"",""535337""
","""event"",""trial"",""time""
""fullscreenenter"",""1"",""731210""
","
","","","1021","","","15","16592","6534","&#9789;","elianto","#f73b6a7A"," "," ","1","-10","[1872]","1","0","4","","","","","","","",""
"pit-trial","98","1615504","0.0-2.0-17.2-4.2","battery-v0.2","","""event"",""trial"",""time""
""blur"",""1"",""264512""
""focus"",""1"",""535337""
""fullscreenenter"",""1"",""731210""
","""event"",""trial"",""time""
""blur"",""1"",""264512""
","""event"",""trial"",""time""
""focus"",""1"",""535337""
","""event"",""trial"",""time""
""fullscreenenter"",""1"",""731210""
","
","","","-1","","","15","16592","6534","&#9789;","elianto","#f73b6a7A"," ","-1","0","-10","[]","0","0","4","","","","","","","",""
"pit-trial","99","1620358","0.0-2.0-17.3-0.3","battery-v0.2","","""event"",""trial"",""time""
""blur"",""1"",""264512""
""focus"",""1"",""535337""
""fullscreenenter"",""1"",""731210""
","""event"",""trial"",""time""
""blur"",""1"",""264512""
","""event"",""trial"",""time""
""focus"",""1"",""535337""
","""event"",""trial"",""time""
""fullscreenenter"",""1"",""731210""
","
","","","-1","","","15","16592","6534","&#9789;","elianto","#f73b6a7A"," ","-1","0","-10","[]","0","0","4","","","","","","","",""
"pit-trial","100","1623913","0.0-2.0-17.3-1.3","battery-v0.2","","""event"",""trial"",""time""
""blur"",""1"",""264512""
""focus"",""1"",""535337""
""fullscreenenter"",""1"",""731210""
","""event"",""trial"",""time""
""blur"",""1"",""264512""
","""event"",""trial"",""time""
""focus"",""1"",""535337""
","""event"",""trial"",""time""
""fullscreenenter"",""1"",""731210""
","
","","","702","","","15","16592","6534","&#9789;","elianto","#f73b6a7A"," "," ","1","0","[1553.0000000002328]","1","0","4","","","","","","","",""
"pit-trial","101","1628768","0.0-2.0-17.3-2.3","battery-v0.2","","""event"",""trial"",""time""
""blur"",""1"",""264512""
""focus"",""1"",""535337""
""fullscreenenter"",""1"",""731210""
","""event"",""trial"",""time""
""blur"",""1"",""264512""
","""event"",""trial"",""time""
""focus"",""1"",""535337""
","""event"",""trial"",""time""
""fullscreenenter"",""1"",""731210""
","
","","","-1","","","15","16592","6534","&#9789;","elianto","#f73b6a7A"," ","-1","0","-10","[]","0","0","4","","","","","","","",""
"pit-trial","102","1633622","0.0-2.0-17.3-3.3","battery-v0.2","","""event"",""trial"",""time""
""blur"",""1"",""264512""
""focus"",""1"",""535337""
""fullscreenenter"",""1"",""731210""
","""event"",""trial"",""time""
""blur"",""1"",""264512""
","""event"",""trial"",""time""
""focus"",""1"",""535337""
","""event"",""trial"",""time""
""fullscreenenter"",""1"",""731210""
","
","","","-1","","","15","16592","6534","&#9789;","elianto","#f73b6a7A"," ","-1","0","0","[]","0","0","4","","","","","","","",""
"pit-trial","103","1638477","0.0-2.0-17.3-4.3","battery-v0.2","","""event"",""trial"",""time""
""blur"",""1"",""264512""
""focus"",""1"",""535337""
""fullscreenenter"",""1"",""731210""
","""event"",""trial"",""time""
""blur"",""1"",""264512""
","""event"",""trial"",""time""
""focus"",""1"",""535337""
","""event"",""trial"",""time""
""fullscreenenter"",""1"",""731210""
","
","","","-1","","","15","16592","6534","&#9789;","elianto","#f73b6a7A"," ","-1","0","-10","[]","0","0","4","","","","","","","",""
"call-function","104","1638479","0.0-2.0-18.0","battery-v0.2","","""event"",""trial"",""time""
""blur"",""1"",""264512""
""focus"",""1"",""535337""
""fullscreenenter"",""1"",""731210""
","""event"",""trial"",""time""
""blur"",""1"",""264512""
","""event"",""trial"",""time""
""focus"",""1"",""535337""
","""event"",""trial"",""time""
""fullscreenenter"",""1"",""731210""
","
","","","","","","","","","","","","","","","","","","","","","","","","","","",""
"pit-instructions","105","1724726","0.0-2.0-19.0","battery-v0.2","","""event"",""trial"",""time""
""blur"",""1"",""264512""
""focus"",""1"",""535337""
""fullscreenenter"",""1"",""731210""
","""event"",""trial"",""time""
""blur"",""1"",""264512""
","""event"",""trial"",""time""
""focus"",""1"",""535337""
","""event"",""trial"",""time""
""fullscreenenter"",""1"",""731210""
","
","","[{""page_index"":0,""viewing_time"":9375},{""page_index"":1,""viewing_time"":7597.999999999767},{""page_index"":2,""viewing_time"":15328},{""page_index"":3,""viewing_time"":9117},{""page_index"":4,""viewing_time"":10096},{""page_index"":5,""viewing_time"":10350},{""page_index"":6,""viewing_time"":9641},{""page_index"":7,""viewing_time"":7244},{""page_index"":8,""viewing_time"":7495}]","86244.99999999977","","","","","","","","","","","","","","","","","","","","","","","",""
"pit-comprehension","106","1736158","0.0-2.0-20.0-0.0","battery-v0.2","","""event"",""trial"",""time""
""blur"",""1"",""264512""
""focus"",""1"",""535337""
""fullscreenenter"",""1"",""731210""
","""event"",""trial"",""time""
""blur"",""1"",""264512""
","""event"",""trial"",""time""
""focus"",""1"",""535337""
","""event"",""trial"",""time""
""fullscreenenter"",""1"",""731210""
","
","","","11430","[""SPACE""]","0","15","16592","6534","","","","","","","","","","","","","","","","","","",""
"pit-instructions","107","1739892","0.0-2.0-20.0-1.0","battery-v0.2","","""event"",""trial"",""time""
""blur"",""1"",""264512""
""focus"",""1"",""535337""
""fullscreenenter"",""1"",""731210""
","""event"",""trial"",""time""
""blur"",""1"",""264512""
","""event"",""trial"",""time""
""focus"",""1"",""535337""
","""event"",""trial"",""time""
""fullscreenenter"",""1"",""731210""
","
","","[{""page_index"":0,""viewing_time"":3663}]","3665","","","","","","","","","","","","","","","","","","","","","","","",""
"pit-comprehension","108","1752334","0.0-2.0-21.0-0.0","battery-v0.2","","""event"",""trial"",""time""
""blur"",""1"",""264512""
""focus"",""1"",""535337""
""fullscreenenter"",""1"",""731210""
","""event"",""trial"",""time""
""blur"",""1"",""264512""
","""event"",""trial"",""time""
""focus"",""1"",""535337""
","""event"",""trial"",""time""
""fullscreenenter"",""1"",""731210""
","
","","","12437","[""10""]","0","15","16592","6534","","","","","","","","","","","","","","","","","","",""
"pit-instructions","109","1758907","0.0-2.0-21.0-1.0","battery-v0.2","","""event"",""trial"",""time""
""blur"",""1"",""264512""
""focus"",""1"",""535337""
""fullscreenenter"",""1"",""731210""
","""event"",""trial"",""time""
""blur"",""1"",""264512""
","""event"",""trial"",""time""
""focus"",""1"",""535337""
","""event"",""trial"",""time""
""fullscreenenter"",""1"",""731210""
","
","","[{""page_index"":0,""viewing_time"":6504}]","6504","","","","","","","","","","","","","","","","","","","","","","","",""
"pit-comprehension","110","1773633","0.0-2.0-22.0-0.0","battery-v0.2","","""event"",""trial"",""time""
""blur"",""1"",""264512""
""focus"",""1"",""535337""
""fullscreenenter"",""1"",""731210""
","""event"",""trial"",""time""
""blur"",""1"",""264512""
","""event"",""trial"",""time""
""focus"",""1"",""535337""
","""event"",""trial"",""time""
""fullscreenenter"",""1"",""731210""
","
","","","14722","[""-10""]","1","15","16592","6534","","","","","","","","","","","","","","","","","","",""
"pit-instructions","111","1782019","0.0-2.0-22.0-1.0","battery-v0.2","","""event"",""trial"",""time""
""blur"",""1"",""264512""
""focus"",""1"",""535337""
""fullscreenenter"",""1"",""731210""
","""event"",""trial"",""time""
""blur"",""1"",""264512""
","""event"",""trial"",""time""
""focus"",""1"",""535337""
","""event"",""trial"",""time""
""fullscreenenter"",""1"",""731210""
","
","","[{""page_index"":0,""viewing_time"":8316.000000000233}]","8316.000000000233","","","","","","","","","","","","","","","","","","","","","","","",""
"pit-instructions","112","1782375","0.0-2.0-22.0-2.0-0.0","battery-v0.2","","""event"",""trial"",""time""
""blur"",""1"",""264512""
""focus"",""1"",""535337""
""fullscreenenter"",""1"",""731210""
","""event"",""trial"",""time""
""blur"",""1"",""264512""
","""event"",""trial"",""time""
""focus"",""1"",""535337""
","""event"",""trial"",""time""
""fullscreenenter"",""1"",""731210""
","
","","[{""page_index"":0,""viewing_time"":352.00000000023283}]","353.00000000023283","","","","","","","","","","","","","","","","","","","","","","","",""
"pit-comprehension","113","1789573","0.0-2.0-22.1-0.1","battery-v0.2","","""event"",""trial"",""time""
""blur"",""1"",""264512""
""focus"",""1"",""535337""
""fullscreenenter"",""1"",""731210""
","""event"",""trial"",""time""
""blur"",""1"",""264512""
","""event"",""trial"",""time""
""focus"",""1"",""535337""
","""event"",""trial"",""time""
""fullscreenenter"",""1"",""731210""
","
","","","7195","[""0""]","0","15","16592","6534","","","","","","","","","","","","","","","","","","",""
"pit-instructions","114","1791899","0.0-2.0-22.1-1.1","battery-v0.2","","""event"",""trial"",""time""
""blur"",""1"",""264512""
""focus"",""1"",""535337""
""fullscreenenter"",""1"",""731210""
","""event"",""trial"",""time""
""blur"",""1"",""264512""
","""event"",""trial"",""time""
""focus"",""1"",""535337""
","""event"",""trial"",""time""
""fullscreenenter"",""1"",""731210""
","
","","[{""page_index"":0,""viewing_time"":2253.999999999767}]","2255.999999999767","","","","","","","","","","","","","","","","","","","","","","","",""
"pit-comprehension","115","1805361","0.0-2.0-23.0-0.0","battery-v0.2","","""event"",""trial"",""time""
""blur"",""1"",""264512""
""focus"",""1"",""535337""
""fullscreenenter"",""1"",""731210""
","""event"",""trial"",""time""
""blur"",""1"",""264512""
","""event"",""trial"",""time""
""focus"",""1"",""535337""
","""event"",""trial"",""time""
""fullscreenenter"",""1"",""731210""
","
","","","13459","[""True""]","0","15","16592","6534","","","","","","","","","","","","","","","","","","",""
"pit-instructions","116","1808041","0.0-2.0-23.0-1.0","battery-v0.2","","""event"",""trial"",""time""
""blur"",""1"",""264512""
""focus"",""1"",""535337""
""fullscreenenter"",""1"",""731210""
","""event"",""trial"",""time""
""blur"",""1"",""264512""
","""event"",""trial"",""time""
""focus"",""1"",""535337""
","""event"",""trial"",""time""
""fullscreenenter"",""1"",""731210""
","
","","[{""page_index"":0,""viewing_time"":2607}]","2607","","","","","","","","","","","","","","","","","","","","","","","",""
"pit-comprehension","117","1821295","0.0-2.0-24.0-0.0","battery-v0.2","","""event"",""trial"",""time""
""blur"",""1"",""264512""
""focus"",""1"",""535337""
""fullscreenenter"",""1"",""731210""
","""event"",""trial"",""time""
""blur"",""1"",""264512""
","""event"",""trial"",""time""
""focus"",""1"",""535337""
","""event"",""trial"",""time""
""fullscreenenter"",""1"",""731210""
","
","","","13248","[""True""]","0","15","16592","6534","","","","","","","","","","","","","","","","","","",""
"pit-instructions","118","1830228","0.0-2.0-24.0-1.0","battery-v0.2","","""event"",""trial"",""time""
""blur"",""1"",""264512""
""focus"",""1"",""535337""
""fullscreenenter"",""1"",""731210""
","""event"",""trial"",""time""
""blur"",""1"",""264512""
","""event"",""trial"",""time""
""focus"",""1"",""535337""
","""event"",""trial"",""time""
""fullscreenenter"",""1"",""731210""
","
","","[{""page_index"":0,""viewing_time"":8860}]","8860","","","","","","","","","","","","","","","","","","","","","","","",""
"pit-comprehension","119","1840135","0.0-2.0-25.0-0.0","battery-v0.2","","""event"",""trial"",""time""
""blur"",""1"",""264512""
""focus"",""1"",""535337""
""fullscreenenter"",""1"",""731210""
","""event"",""trial"",""time""
""blur"",""1"",""264512""
","""event"",""trial"",""time""
""focus"",""1"",""535337""
","""event"",""trial"",""time""
""fullscreenenter"",""1"",""731210""
","
","","","9902.000000000233","[""True""]","0","15","16592","6534","","","","","","","","","","","","","","","","","","",""
"pit-instructions","120","1842571","0.0-2.0-25.0-1.0","battery-v0.2","","""event"",""trial"",""time""
""blur"",""1"",""264512""
""focus"",""1"",""535337""
""fullscreenenter"",""1"",""731210""
","""event"",""trial"",""time""
""blur"",""1"",""264512""
","""event"",""trial"",""time""
""focus"",""1"",""535337""
","""event"",""trial"",""time""
""fullscreenenter"",""1"",""731210""
","
","","[{""page_index"":0,""viewing_time"":2364}]","2364","","","","","","","","","","","","","","","","","","","","","","","",""
"pit-comprehension","121","1853019","0.0-2.0-26.0-0.0","battery-v0.2","","""event"",""trial"",""time""
""blur"",""1"",""264512""
""focus"",""1"",""535337""
""fullscreenenter"",""1"",""731210""
","""event"",""trial"",""time""
""blur"",""1"",""264512""
","""event"",""trial"",""time""
""focus"",""1"",""535337""
","""event"",""trial"",""time""
""fullscreenenter"",""1"",""731210""
","
","","","10443.000000000233","[""True""]","1","15","16592","6534","","","","","","","","","","","","","","","","","","",""
"pit-instructions","122","1862826","0.0-2.0-26.0-1.0","battery-v0.2","","""event"",""trial"",""time""
""blur"",""1"",""264512""
""focus"",""1"",""535337""
""fullscreenenter"",""1"",""731210""
","""event"",""trial"",""time""
""blur"",""1"",""264512""
","""event"",""trial"",""time""
""focus"",""1"",""535337""
","""event"",""trial"",""time""
""fullscreenenter"",""1"",""731210""
","
","","[{""page_index"":0,""viewing_time"":9728.999999999767}]","9730","","","","","","","","","","","","","","","","","","","","","","","",""
"pit-instructions","123","1868107","0.0-2.0-26.0-2.0-0.0","battery-v0.2","","""event"",""trial"",""time""
""blur"",""1"",""264512""
""focus"",""1"",""535337""
""fullscreenenter"",""1"",""731210""
","""event"",""trial"",""time""
""blur"",""1"",""264512""
","""event"",""trial"",""time""
""focus"",""1"",""535337""
","""event"",""trial"",""time""
""fullscreenenter"",""1"",""731210""
","
","","[{""page_index"":0,""viewing_time"":5276.000000000233}]","5278","","","","","","","","","","","","","","","","","","","","","","","",""
"pit-comprehension","124","1876757","0.0-2.0-26.1-0.1","battery-v0.2","","""event"",""trial"",""time""
""blur"",""1"",""264512""
""focus"",""1"",""535337""
""fullscreenenter"",""1"",""731210""
","""event"",""trial"",""time""
""blur"",""1"",""264512""
","""event"",""trial"",""time""
""focus"",""1"",""535337""
","""event"",""trial"",""time""
""fullscreenenter"",""1"",""731210""
","
","","","8645","[""False""]","0","15","16592","6534","","","","","","","","","","","","","","","","","","",""
"pit-instructions","125","1879823","0.0-2.0-26.1-1.1","battery-v0.2","","""event"",""trial"",""time""
""blur"",""1"",""264512""
""focus"",""1"",""535337""
""fullscreenenter"",""1"",""731210""
","""event"",""trial"",""time""
""blur"",""1"",""264512""
","""event"",""trial"",""time""
""focus"",""1"",""535337""
","""event"",""trial"",""time""
""fullscreenenter"",""1"",""731210""
","
","","[{""page_index"":0,""viewing_time"":2990}]","2990","","","","","","","","","","","","","","","","","","","","","","","",""
"pit-instructions","126","1903373","0.0-3.0","battery-v0.2","","""event"",""trial"",""time""
""blur"",""1"",""264512""
""focus"",""1"",""535337""
""fullscreenenter"",""1"",""731210""
","""event"",""trial"",""time""
""blur"",""1"",""264512""
","""event"",""trial"",""time""
""focus"",""1"",""535337""
","""event"",""trial"",""time""
""fullscreenenter"",""1"",""731210""
","
","","[{""page_index"":0,""viewing_time"":6243.999999999767},{""page_index"":1,""viewing_time"":6327},{""page_index"":2,""viewing_time"":10975}]","23546.999999999767","","","","","","","","","","","","","","","","","","","","","","","",""
"pit-trial","127","1907551","0.0-4.0","battery-v0.2","","""event"",""trial"",""time""
""blur"",""1"",""264512""
""focus"",""1"",""535337""
""fullscreenenter"",""1"",""731210""
","""event"",""trial"",""time""
""blur"",""1"",""264512""
","""event"",""trial"",""time""
""focus"",""1"",""535337""
","""event"",""trial"",""time""
""fullscreenenter"",""1"",""731210""
","
","","","1322","","","15","16592","6534","&#9730;","elianto","#3366ff99"," "," ","1","+10","[2173]","1","1","","","16592","1","1","1","win","go","0"
"pit-trial","128","1911147","0.0-5.0","battery-v0.2","","""event"",""trial"",""time""
""blur"",""1"",""264512""
""focus"",""1"",""535337""
""fullscreenenter"",""1"",""731210""
","""event"",""trial"",""time""
""blur"",""1"",""264512""
","""event"",""trial"",""time""
""focus"",""1"",""535337""
","""event"",""trial"",""time""
""fullscreenenter"",""1"",""731210""
","
","","","738","","","15","16592","6534","&#9733;","elianto","#3366ff99","-1"," ","0","0","[1591]","1","1","","","16592","2","2","2","win","no-go","0"
"pit-trial","129","1914654","0.0-6.0","battery-v0.2","","""event"",""trial"",""time""
""blur"",""1"",""264512""
""focus"",""1"",""535337""
""fullscreenenter"",""1"",""731210""
","""event"",""trial"",""time""
""blur"",""1"",""264512""
","""event"",""trial"",""time""
""focus"",""1"",""535337""
","""event"",""trial"",""time""
""fullscreenenter"",""1"",""731210""
","
","","","652.0000000002328","","","15","16592","6534","&#9752;","elianto","#f73b6a7A"," "," ","1","0","[1502.0000000002328]","1","1","","","16592","3","3","3","lose","go","0"
"pit-trial","130","1919510","0.0-7.0","battery-v0.2","","""event"",""trial"",""time""
""blur"",""1"",""264512""
""focus"",""1"",""535337""
""fullscreenenter"",""1"",""731210""
","""event"",""trial"",""time""
""blur"",""1"",""264512""
","""event"",""trial"",""time""
""focus"",""1"",""535337""
","""event"",""trial"",""time""
""fullscreenenter"",""1"",""731210""
","
","","","-1","","","15","16592","6534","&#9728;","elianto","#f73b6a7A","-1","-1","1","0","[]","0","1","","","16592","4","0","4","lose","no-go","0"
"pit-trial","131","1923704","0.0-8.0","battery-v0.2","","""event"",""trial"",""time""
""blur"",""1"",""264512""
""focus"",""1"",""535337""
""fullscreenenter"",""1"",""731210""
","""event"",""trial"",""time""
""blur"",""1"",""264512""
","""event"",""trial"",""time""
""focus"",""1"",""535337""
","""event"",""trial"",""time""
""fullscreenenter"",""1"",""731210""
","
","","","1338.0000000002328","","","15","16592","6534","&#9733;","elianto","#3366ff99","-1"," ","0","0","[2189.000000000233]","1","1","","","16592","5","2","2","win","no-go","0"
"pit-trial","132","1928559","0.0-9.0","battery-v0.2","","""event"",""trial"",""time""
""blur"",""1"",""264512""
""focus"",""1"",""535337""
""fullscreenenter"",""1"",""731210""
","""event"",""trial"",""time""
""blur"",""1"",""264512""
","""event"",""trial"",""time""
""focus"",""1"",""535337""
","""event"",""trial"",""time""
""fullscreenenter"",""1"",""731210""
","
","","","-1","","","15","16592","6534","&#9728;","elianto","#f73b6a7A","-1","-1","1","0","[]","0","1","","","16592","6","0","4","lose","no-go","0"
"pit-trial","133","1932595","0.0-10.0","battery-v0.2","","""event"",""trial"",""time""
""blur"",""1"",""264512""
""focus"",""1"",""535337""
""fullscreenenter"",""1"",""731210""
","""event"",""trial"",""time""
""blur"",""1"",""264512""
","""event"",""trial"",""time""
""focus"",""1"",""535337""
","""event"",""trial"",""time""
""fullscreenenter"",""1"",""731210""
","
","","","1182","","","15","16592","6534","&#9752;","elianto","#f73b6a7A"," "," ","1","0","[2032.0000000002328]","1","1","","","16592","7","3","3","lose","go","0"
"pit-trial","134","1936337","0.0-11.0","battery-v0.2","","""event"",""trial"",""time""
""blur"",""1"",""264512""
""focus"",""1"",""535337""
""fullscreenenter"",""1"",""731210""
","""event"",""trial"",""time""
""blur"",""1"",""264512""
","""event"",""trial"",""time""
""focus"",""1"",""535337""
","""event"",""trial"",""time""
""fullscreenenter"",""1"",""731210""
","
","","","887.0000000002328","","","15","16592","6534","&#9730;","elianto","#3366ff99"," "," ","1","+10","[1738.0000000002328]","1","1","","","16592","8","1","1","win","go","0"
"pit-trial","135","1941193","0.0-12.0","battery-v0.2","","""event"",""trial"",""time""
""blur"",""1"",""264512""
""focus"",""1"",""535337""
""fullscreenenter"",""1"",""731210""
","""event"",""trial"",""time""
""blur"",""1"",""264512""
","""event"",""trial"",""time""
""focus"",""1"",""535337""
","""event"",""trial"",""time""
""fullscreenenter"",""1"",""731210""
","
","","","-1","","","15","16592","6534","&#9728;","elianto","#f73b6a7A","-1","-1","1","0","[]","0","1","","","16592","9","0","4","lose","no-go","0"
"pit-trial","136","1944837","0.0-13.0","battery-v0.2","","""event"",""trial"",""time""
""blur"",""1"",""264512""
""focus"",""1"",""535337""
""fullscreenenter"",""1"",""731210""
","""event"",""trial"",""time""
""blur"",""1"",""264512""
","""event"",""trial"",""time""
""focus"",""1"",""535337""
","""event"",""trial"",""time""
""fullscreenenter"",""1"",""731210""
","
","","","787.9999999997672","","","15","16592","6534","&#9733;","elianto","#3366ff99","-1"," ","0","+10","[1639]","1","1","","","16592","10","2","2","win","no-go","1"
"pit-trial","137","1949692","0.0-14.0","battery-v0.2","","""event"",""trial"",""time""
""blur"",""1"",""264512""
""focus"",""1"",""535337""
""fullscreenenter"",""1"",""731210""
","""event"",""trial"",""time""
""blur"",""1"",""264512""
","""event"",""trial"",""time""
""focus"",""1"",""535337""
","""event"",""trial"",""time""
""fullscreenenter"",""1"",""731210""
","
","","","-1","","","15","16592","6534","&#9752;","elianto","#f73b6a7A"," ","-1","0","-10","[]","0","1","","","16592","11","3","3","lose","go","0"
"pit-trial","138","1953257","0.0-15.0","battery-v0.2","","""event"",""trial"",""time""
""blur"",""1"",""264512""
""focus"",""1"",""535337""
""fullscreenenter"",""1"",""731210""
","""event"",""trial"",""time""
""blur"",""1"",""264512""
","""event"",""trial"",""time""
""focus"",""1"",""535337""
","""event"",""trial"",""time""
""fullscreenenter"",""1"",""731210""
","
","","","710","","","15","16592","6534","&#9730;","elianto","#3366ff99"," "," ","1","0","[1560]","1","1","","","16592","12","1","1","win","go","1"
"pit-trial","139","1957946","0.0-16.0","battery-v0.2","","""event"",""trial"",""time""
""blur"",""1"",""264512""
""focus"",""1"",""535337""
""fullscreenenter"",""1"",""731210""
","""event"",""trial"",""time""
""blur"",""1"",""264512""
","""event"",""trial"",""time""
""focus"",""1"",""535337""
","""event"",""trial"",""time""
""fullscreenenter"",""1"",""731210""
","
","","","1835","","","15","16592","6534","&#9752;","elianto","#f73b6a7A"," "," ","1","0","[2685]","1","1","","","16592","13","3","3","lose","go","0"
"pit-trial","140","1961874","0.0-17.0","battery-v0.2","","""event"",""trial"",""time""
""blur"",""1"",""264512""
""focus"",""1"",""535337""
""fullscreenenter"",""1"",""731210""
","""event"",""trial"",""time""
""blur"",""1"",""264512""
","""event"",""trial"",""time""
""focus"",""1"",""535337""
","""event"",""trial"",""time""
""fullscreenenter"",""1"",""731210""
","
","","","1073","","","15","16592","6534","&#9730;","elianto","#3366ff99"," "," ","1","+10","[1924]","1","1","","","16592","14","1","1","win","go","0"
"pit-trial","141","1965780","0.0-18.0","battery-v0.2","","""event"",""trial"",""time""
""blur"",""1"",""264512""
""focus"",""1"",""535337""
""fullscreenenter"",""1"",""731210""
","""event"",""trial"",""time""
""blur"",""1"",""264512""
","""event"",""trial"",""time""
""focus"",""1"",""535337""
","""event"",""trial"",""time""
""fullscreenenter"",""1"",""731210""
","
","","","1051.0000000002328","","","15","16592","6534","&#9733;","elianto","#3366ff99","-1"," ","0","+10","[1901.0000000002328]","1","1","","","16592","15","2","2","win","no-go","1"
"pit-trial","142","1969847","0.0-19.0","battery-v0.2","","""event"",""trial"",""time""
""blur"",""1"",""264512""
""focus"",""1"",""535337""
""fullscreenenter"",""1"",""731210""
","""event"",""trial"",""time""
""blur"",""1"",""264512""
","""event"",""trial"",""time""
""focus"",""1"",""535337""
","""event"",""trial"",""time""
""fullscreenenter"",""1"",""731210""
","
","","","1212","","","15","16592","6534","&#9728;","elianto","#f73b6a7A","-1"," ","0","-10","[2063.000000000233]","1","1","","","16592","16","0","4","lose","no-go","0"
"pit-trial","143","1974306","0.0-20.0","battery-v0.2","","""event"",""trial"",""time""
""blur"",""1"",""264512""
""focus"",""1"",""535337""
""fullscreenenter"",""1"",""731210""
","""event"",""trial"",""time""
""blur"",""1"",""264512""
","""event"",""trial"",""time""
""focus"",""1"",""535337""
","""event"",""trial"",""time""
""fullscreenenter"",""1"",""731210""
","
","","","1601.9999999997672","","","15","16592","6534","&#9752;","elianto","#f73b6a7A"," "," ","1","0","[2453]","1","1","","","16592","17","3","3","lose","go","0"
"pit-trial","144","1978061","0.0-21.0","battery-v0.2","","""event"",""trial"",""time""
""blur"",""1"",""264512""
""focus"",""1"",""535337""
""fullscreenenter"",""1"",""731210""
","""event"",""trial"",""time""
""blur"",""1"",""264512""
","""event"",""trial"",""time""
""focus"",""1"",""535337""
","""event"",""trial"",""time""
""fullscreenenter"",""1"",""731210""
","
","","","901","","","15","16592","6534","&#9733;","elianto","#3366ff99","-1"," ","0","0","[1752]","1","1","","","16592","18","2","2","win","no-go","0"
"pit-trial","145","1981980","0.0-22.0","battery-v0.2","","""event"",""trial"",""time""
""blur"",""1"",""264512""
""focus"",""1"",""535337""
""fullscreenenter"",""1"",""731210""
","""event"",""trial"",""time""
""blur"",""1"",""264512""
","""event"",""trial"",""time""
""focus"",""1"",""535337""
","""event"",""trial"",""time""
""fullscreenenter"",""1"",""731210""
","
","","","1063","","","15","16592","6534","&#9730;","elianto","#3366ff99"," "," ","1","+10","[1913]","1","1","","","16592","19","1","1","win","go","0"
"pit-trial","146","1985904","0.0-23.0","battery-v0.2","","""event"",""trial"",""time""
""blur"",""1"",""264512""
""focus"",""1"",""535337""
""fullscreenenter"",""1"",""731210""
","""event"",""trial"",""time""
""blur"",""1"",""264512""
","""event"",""trial"",""time""
""focus"",""1"",""535337""
","""event"",""trial"",""time""
""fullscreenenter"",""1"",""731210""
","
","","","1068","","","15","16592","6534","&#9728;","elianto","#f73b6a7A","-1"," ","0","-10","[1919]","1","1","","","16592","20","0","4","lose","no-go","0"
"pit-instructions","147","2003822","0.0-24.0","battery-v0.2","","""event"",""trial"",""time""
""blur"",""1"",""264512""
""focus"",""1"",""535337""
""fullscreenenter"",""1"",""731210""
","""event"",""trial"",""time""
""blur"",""1"",""264512""
","""event"",""trial"",""time""
""focus"",""1"",""535337""
","""event"",""trial"",""time""
""fullscreenenter"",""1"",""731210""
","
","","[{""page_index"":0,""viewing_time"":10366},{""page_index"":1,""viewing_time"":7548}]","17915","","","","","","","","","","","","","","","","","","","","","","","",""
"pit-trial","148","2007896","0.0-25.0","battery-v0.2","","""event"",""trial"",""time""
""blur"",""1"",""264512""
""focus"",""1"",""535337""
""fullscreenenter"",""1"",""731210""
","""event"",""trial"",""time""
""blur"",""1"",""264512""
","""event"",""trial"",""time""
""focus"",""1"",""535337""
","""event"",""trial"",""time""
""fullscreenenter"",""1"",""731210""
","
","","","1219","","","15","16592","6534","j","elianto","#f73b6a7A","-1"," ","0","-10","[2069.999999999767]","1","2","","","16592","21","0","4","lose","no-go","0"
"pit-trial","149","2011716","0.0-26.0","battery-v0.2","","""event"",""trial"",""time""
""blur"",""1"",""264512""
""focus"",""1"",""535337""
""fullscreenenter"",""1"",""731210""
","""event"",""trial"",""time""
""blur"",""1"",""264512""
","""event"",""trial"",""time""
""focus"",""1"",""535337""
","""event"",""trial"",""time""
""fullscreenenter"",""1"",""731210""
","
","","","965.9999999997672","","","15","16592","6534","d","elianto","#3366ff99"," "," ","1","+10","[1817]","1","2","","","16592","22","1","1","win","go","0"
"pit-trial","150","2015280","0.0-27.0","battery-v0.2","","""event"",""trial"",""time""
""blur"",""1"",""264512""
""focus"",""1"",""535337""
""fullscreenenter"",""1"",""731210""
","""event"",""trial"",""time""
""blur"",""1"",""264512""
","""event"",""trial"",""time""
""focus"",""1"",""535337""
","""event"",""trial"",""time""
""fullscreenenter"",""1"",""731210""
","
","","","709.0000000002328","","","15","16592","6534","w","elianto","#f73b6a7A"," "," ","1","0","[1560.0000000002328]","1","2","","","16592","23","3","3","lose","go","0"
"pit-trial","151","2018601","0.0-28.0","battery-v0.2","","""event"",""trial"",""time""
""blur"",""1"",""264512""
""focus"",""1"",""535337""
""fullscreenenter"",""1"",""731210""
","""event"",""trial"",""time""
""blur"",""1"",""264512""
","""event"",""trial"",""time""
""focus"",""1"",""535337""
","""event"",""trial"",""time""
""fullscreenenter"",""1"",""731210""
","
","","","464.99999999976717","","","15","16592","6534","e","elianto","#f73b6a7A","-1"," ","0","-10","[1315]","1","2","","","16592","24","2","4","lose","no-go","0"
"pit-trial","152","2022098","0.0-29.0","battery-v0.2","","""event"",""trial"",""time""
""blur"",""1"",""264512""
""focus"",""1"",""535337""
""fullscreenenter"",""1"",""731210""
","""event"",""trial"",""time""
""blur"",""1"",""264512""
","""event"",""trial"",""time""
""focus"",""1"",""535337""
","""event"",""trial"",""time""
""fullscreenenter"",""1"",""731210""
","
","","","641.0000000002328","","","15","16592","6534","d","elianto","#3366ff99"," "," ","1","+10","[1492.0000000002328]","1","2","","","16592","25","1","1","win","go","0"
"pit-trial","153","2025766","0.0-30.0","battery-v0.2","","""event"",""trial"",""time""
""blur"",""1"",""264512""
""focus"",""1"",""535337""
""fullscreenenter"",""1"",""731210""
","""event"",""trial"",""time""
""blur"",""1"",""264512""
","""event"",""trial"",""time""
""focus"",""1"",""535337""
","""event"",""trial"",""time""
""fullscreenenter"",""1"",""731210""
","
","","","813.9999999997672","","","15","16592","6534","w","elianto","#f73b6a7A"," "," ","1","-10","[1664]","1","2","","","16592","26","3","3","lose","go","1"
"pit-trial","154","2029309","0.0-31.0","battery-v0.2","","""event"",""trial"",""time""
""blur"",""1"",""264512""
""focus"",""1"",""535337""
""fullscreenenter"",""1"",""731210""
","""event"",""trial"",""time""
""blur"",""1"",""264512""
","""event"",""trial"",""time""
""focus"",""1"",""535337""
","""event"",""trial"",""time""
""fullscreenenter"",""1"",""731210""
","
","","","688","","","15","16592","6534","e","elianto","#f73b6a7A","-1"," ","0","-10","[1538]","1","2","","","16592","27","2","4","lose","no-go","0"
"pit-trial","155","2032779","0.0-32.0","battery-v0.2","","""event"",""trial"",""time""
""blur"",""1"",""264512""
""focus"",""1"",""535337""
""fullscreenenter"",""1"",""731210""
","""event"",""trial"",""time""
""blur"",""1"",""264512""
","""event"",""trial"",""time""
""focus"",""1"",""535337""
","""event"",""trial"",""time""
""fullscreenenter"",""1"",""731210""
","
","","","616","","","15","16592","6534","j","elianto","#f73b6a7A","-1"," ","0","-10","[1466.0000000002328]","1","2","","","16592","28","0","4","lose","no-go","0"
"pit-trial","156","2037635","0.0-33.0","battery-v0.2","","""event"",""trial"",""time""
""blur"",""1"",""264512""
""focus"",""1"",""535337""
""fullscreenenter"",""1"",""731210""
","""event"",""trial"",""time""
""blur"",""1"",""264512""
","""event"",""trial"",""time""
""focus"",""1"",""535337""
","""event"",""trial"",""time""
""fullscreenenter"",""1"",""731210""
","
","","","-1","","","15","16592","6534","w","elianto","#f73b6a7A"," ","-1","0","-10","[]","0","2","","","16592","29","3","3","lose","go","0"
"pit-trial","157","2042424","0.0-34.0","battery-v0.2","","""event"",""trial"",""time""
""blur"",""1"",""264512""
""focus"",""1"",""535337""
""fullscreenenter"",""1"",""731210""
","""event"",""trial"",""time""
""blur"",""1"",""264512""
","""event"",""trial"",""time""
""focus"",""1"",""535337""
","""event"",""trial"",""time""
""fullscreenenter"",""1"",""731210""
","
","","","1934","","","15","16592","6534","j","elianto","#f73b6a7A","-1"," ","0","-10","[2785.000000000233]","1","2","","","16592","30","0","4","lose","no-go","0"
"pit-trial","158","2046171","0.0-35.0","battery-v0.2","","""event"",""trial"",""time""
""blur"",""1"",""264512""
""focus"",""1"",""535337""
""fullscreenenter"",""1"",""731210""
","""event"",""trial"",""time""
""blur"",""1"",""264512""
","""event"",""trial"",""time""
""focus"",""1"",""535337""
","""event"",""trial"",""time""
""fullscreenenter"",""1"",""731210""
","
","","","891.9999999997672","","","15","16592","6534","e","elianto","#f73b6a7A","-1"," ","0","-10","[1741.9999999997672]","1","2","","","16592","31","2","4","lose","no-go","0"
"pit-trial","159","2049523","0.0-36.0","battery-v0.2","","""event"",""trial"",""time""
""blur"",""1"",""264512""
""focus"",""1"",""535337""
""fullscreenenter"",""1"",""731210""
","""event"",""trial"",""time""
""blur"",""1"",""264512""
","""event"",""trial"",""time""
""focus"",""1"",""535337""
","""event"",""trial"",""time""
""fullscreenenter"",""1"",""731210""
","
","","","493.99999999953434","","","15","16592","6534","d","elianto","#3366ff99"," "," ","1","0","[1346.9999999997672]","1","2","","","16592","32","1","1","win","go","1"
"pit-trial","160","2052716","0.0-37.0","battery-v0.2","","""event"",""trial"",""time""
""blur"",""1"",""264512""
""focus"",""1"",""535337""
""fullscreenenter"",""1"",""731210""
","""event"",""trial"",""time""
""blur"",""1"",""264512""
","""event"",""trial"",""time""
""focus"",""1"",""535337""
","""event"",""trial"",""time""
""fullscreenenter"",""1"",""731210""
","
","","","338.00000000023283","","","15","16592","6534","e","elianto","#f73b6a7A","-1"," ","0","0","[1189.0000000002328,1434.0000000002328]","2","2","","","16592","33","2","4","lose","no-go","1"
"pit-trial","161","2055578","0.0-38.0","battery-v0.2","","""event"",""trial"",""time""
""blur"",""1"",""264512""
""focus"",""1"",""535337""
""fullscreenenter"",""1"",""731210""
","""event"",""trial"",""time""
""blur"",""1"",""264512""
","""event"",""trial"",""time""
""focus"",""1"",""535337""
","""event"",""trial"",""time""
""fullscreenenter"",""1"",""731210""
","
","","","6","","","15","16592","6534","j","elianto","#f73b6a7A","-1"," ","0","-10","[855.9999999997672]","1","2","","","16592","34","0","4","lose","no-go","0"
"pit-trial","162","2058728","0.0-39.0","battery-v0.2","","""event"",""trial"",""time""
""blur"",""1"",""264512""
""focus"",""1"",""535337""
""fullscreenenter"",""1"",""731210""
","""event"",""trial"",""time""
""blur"",""1"",""264512""
","""event"",""trial"",""time""
""focus"",""1"",""535337""
","""event"",""trial"",""time""
""fullscreenenter"",""1"",""731210""
","
","","","293.99999999976717","","","15","16592","6534","d","elianto","#3366ff99"," "," ","1","+10","[1145]","1","2","","","16592","35","1","1","win","go","0"
"pit-trial","163","2062078","0.0-40.0","battery-v0.2","","""event"",""trial"",""time""
""blur"",""1"",""264512""
""focus"",""1"",""535337""
""fullscreenenter"",""1"",""731210""
","""event"",""trial"",""time""
""blur"",""1"",""264512""
","""event"",""trial"",""time""
""focus"",""1"",""535337""
","""event"",""trial"",""time""
""fullscreenenter"",""1"",""731210""
","
","","","496.00000000023283","","","15","16592","6534","w","elianto","#f73b6a7A"," "," ","1","0","[1346.0000000002328]","1","2","","","16592","36","3","3","lose","go","0"
"pit-trial","164","2065464","0.0-41.0","battery-v0.2","","""event"",""trial"",""time""
""blur"",""1"",""264512""
""focus"",""1"",""535337""
""fullscreenenter"",""1"",""731210""
","""event"",""trial"",""time""
""blur"",""1"",""264512""
","""event"",""trial"",""time""
""focus"",""1"",""535337""
","""event"",""trial"",""time""
""fullscreenenter"",""1"",""731210""
","
","","","528","","","15","16592","6534","j","elianto","#f73b6a7A","-1"," ","0","-10","[1381]","1","2","","","16592","37","0","4","lose","no-go","0"
"pit-trial","165","2068860","0.0-42.0","battery-v0.2","","""event"",""trial"",""time""
""blur"",""1"",""264512""
""focus"",""1"",""535337""
""fullscreenenter"",""1"",""731210""
","""event"",""trial"",""time""
""blur"",""1"",""264512""
","""event"",""trial"",""time""
""focus"",""1"",""535337""
","""event"",""trial"",""time""
""fullscreenenter"",""1"",""731210""
","
","","","541","","","15","16592","6534","e","elianto","#f73b6a7A","-1"," ","0","-10","[1391]","1","2","","","16592","38","2","4","lose","no-go","0"
"pit-trial","166","2073715","0.0-43.0","battery-v0.2","","""event"",""trial"",""time""
""blur"",""1"",""264512""
""focus"",""1"",""535337""
""fullscreenenter"",""1"",""731210""
","""event"",""trial"",""time""
""blur"",""1"",""264512""
","""event"",""trial"",""time""
""focus"",""1"",""535337""
","""event"",""trial"",""time""
""fullscreenenter"",""1"",""731210""
","
","","","-1","","","15","16592","6534","w","elianto","#f73b6a7A"," ","-1","0","0","[]","0","2","","","16592","39","3","3","lose","go","1"
"pit-trial","167","2077604","0.0-44.0","battery-v0.2","","""event"",""trial"",""time""
""blur"",""1"",""264512""
""focus"",""1"",""535337""
""fullscreenenter"",""1"",""731210""
","""event"",""trial"",""time""
""blur"",""1"",""264512""
","""event"",""trial"",""time""
""focus"",""1"",""535337""
","""event"",""trial"",""time""
""fullscreenenter"",""1"",""731210""
","
","","","1034.0000000002328","","","15","16592","6534","d","elianto","#3366ff99"," "," ","1","+10","[1886]","1","2","","","16592","40","1","1","win","go","0"
"pit-trial","168","2081324","0.0-45.0","battery-v0.2","","""event"",""trial"",""time""
""blur"",""1"",""264512""
""focus"",""1"",""535337""
""fullscreenenter"",""1"",""731210""
","""event"",""trial"",""time""
""blur"",""1"",""264512""
","""event"",""trial"",""time""
""focus"",""1"",""535337""
","""event"",""trial"",""time""
""fullscreenenter"",""1"",""731210""
","
","","","865.0000000002328","","","15","16592","6534","w","elianto","#f73b6a7A"," "," ","1","-10","[1716.0000000004657]","1","2","","","16592","41","3","3","lose","go","1"
"pit-trial","169","2085111","0.0-46.0","battery-v0.2","","""event"",""trial"",""time""
""blur"",""1"",""264512""
""focus"",""1"",""535337""
""fullscreenenter"",""1"",""731210""
","""event"",""trial"",""time""
""blur"",""1"",""264512""
","""event"",""trial"",""time""
""focus"",""1"",""535337""
","""event"",""trial"",""time""
""fullscreenenter"",""1"",""731210""
","
","","","931.9999999997672","","","15","16592","6534","j","elianto","#f73b6a7A","-1"," ","0","0","[1782.9999999997672]","1","2","","","16592","42","0","4","lose","no-go","1"
"pit-trial","170","2088599","0.0-47.0","battery-v0.2","","""event"",""trial"",""time""
""blur"",""1"",""264512""
""focus"",""1"",""535337""
""fullscreenenter"",""1"",""731210""
","""event"",""trial"",""time""
""blur"",""1"",""264512""
","""event"",""trial"",""time""
""focus"",""1"",""535337""
","""event"",""trial"",""time""
""fullscreenenter"",""1"",""731210""
","
","","","630.9999999997672","","","15","16592","6534","d","elianto","#3366ff99"," "," ","1","+10","[1481.9999999997672]","1","2","","","16592","43","1","1","win","go","0"
"pit-trial","171","2092562","0.0-48.0","battery-v0.2","","""event"",""trial"",""time""
""blur"",""1"",""264512""
""focus"",""1"",""535337""
""fullscreenenter"",""1"",""731210""
","""event"",""trial"",""time""
""blur"",""1"",""264512""
","""event"",""trial"",""time""
""focus"",""1"",""535337""
","""event"",""trial"",""time""
""fullscreenenter"",""1"",""731210""
","
","","","1108","","","15","16592","6534","e","elianto","#f73b6a7A","-1"," ","0","0","[1958]","1","2","","","16592","44","2","4","lose","no-go","1"
"pit-trial","172","2096671","0.0-49.0","battery-v0.2","","""event"",""trial"",""time""
""blur"",""1"",""264512""
""focus"",""1"",""535337""
""fullscreenenter"",""1"",""731210""
","""event"",""trial"",""time""
""blur"",""1"",""264512""
","""event"",""trial"",""time""
""focus"",""1"",""535337""
","""event"",""trial"",""time""
""fullscreenenter"",""1"",""731210""
","
","","","1254","","","15","16592","6534","j","elianto","#f73b6a7A","-1"," ","0","-10","[2104]","1","2","","","16592","45","0","4","lose","no-go","0"
"pit-trial","173","2100766","0.0-50.0","battery-v0.2","","""event"",""trial"",""time""
""blur"",""1"",""264512""
""focus"",""1"",""535337""
""fullscreenenter"",""1"",""731210""
","""event"",""trial"",""time""
""blur"",""1"",""264512""
","""event"",""trial"",""time""
""focus"",""1"",""535337""
","""event"",""trial"",""time""
""fullscreenenter"",""1"",""731210""
","
","","","1240","","","15","16592","6534","e","elianto","#f73b6a7A","-1"," ","0","-10","[2091]","1","2","","","16592","46","2","4","lose","no-go","0"
"pit-trial","174","2104227","0.0-51.0","battery-v0.2","","""event"",""trial"",""time""
""blur"",""1"",""264512""
""focus"",""1"",""535337""
""fullscreenenter"",""1"",""731210""
","""event"",""trial"",""time""
""blur"",""1"",""264512""
","""event"",""trial"",""time""
""focus"",""1"",""535337""
","""event"",""trial"",""time""
""fullscreenenter"",""1"",""731210""
","
","","","605.9999999995343","","","15","16592","6534","s","elianto","#3366ff99","-1"," ","0","+10","[1457]","1","2","","","16592","47","4","2","win","no-go","1"
"pit-trial","175","2107780","0.0-52.0","battery-v0.2","","""event"",""trial"",""time""
""blur"",""1"",""264512""
""focus"",""1"",""535337""
""fullscreenenter"",""1"",""731210""
","""event"",""trial"",""time""
""blur"",""1"",""264512""
","""event"",""trial"",""time""
""focus"",""1"",""535337""
","""event"",""trial"",""time""
""fullscreenenter"",""1"",""731210""
","
","","","697","","","15","16592","6534","w","elianto","#f73b6a7A"," "," ","1","-10","[1547]","1","2","","","16592","48","3","3","lose","go","1"
"pit-trial","176","2111425","0.0-53.0","battery-v0.2","","""event"",""trial"",""time""
""blur"",""1"",""264512""
""focus"",""1"",""535337""
""fullscreenenter"",""1"",""731210""
","""event"",""trial"",""time""
""blur"",""1"",""264512""
","""event"",""trial"",""time""
""focus"",""1"",""535337""
","""event"",""trial"",""time""
""fullscreenenter"",""1"",""731210""
","
","","","791","","","15","16592","6534","d","elianto","#3366ff99"," "," ","1","0","[1640.9999999995343]","1","2","","","16592","49","1","1","win","go","1"
"pit-trial","177","2115192","0.0-54.0","battery-v0.2","","""event"",""trial"",""time""
""blur"",""1"",""264512""
""focus"",""1"",""535337""
""fullscreenenter"",""1"",""731210""
","""event"",""trial"",""time""
""blur"",""1"",""264512""
","""event"",""trial"",""time""
""focus"",""1"",""535337""
","""event"",""trial"",""time""
""fullscreenenter"",""1"",""731210""
","
","","","912","","","15","16592","6534","j","elianto","#f73b6a7A","-1"," ","0","-10","[1762]","1","2","","","16592","50","0","4","lose","no-go","0"
"pit-trial","178","2119581","0.0-55.0","battery-v0.2","","""event"",""trial"",""time""
""blur"",""1"",""264512""
""focus"",""1"",""535337""
""fullscreenenter"",""1"",""731210""
","""event"",""trial"",""time""
""blur"",""1"",""264512""
","""event"",""trial"",""time""
""focus"",""1"",""535337""
","""event"",""trial"",""time""
""fullscreenenter"",""1"",""731210""
","
","","","1535","","","15","16592","6534","w","elianto","#f73b6a7A"," "," ","1","0","[2384.9999999995343]","1","2","","","16592","51","3","3","lose","go","0"
"pit-trial","179","2123697","0.0-56.0","battery-v0.2","","""event"",""trial"",""time""
""blur"",""1"",""264512""
""focus"",""1"",""535337""
""fullscreenenter"",""1"",""731210""
","""event"",""trial"",""time""
""blur"",""1"",""264512""
","""event"",""trial"",""time""
""focus"",""1"",""535337""
","""event"",""trial"",""time""
""fullscreenenter"",""1"",""731210""
","
","","","1260","","","15","16592","6534","s","elianto","#3366ff99","-1"," ","0","0","[2110]","1","2","","","16592","52","4","2","win","no-go","0"
"pit-trial","180","2127713","0.0-57.0","battery-v0.2","","""event"",""trial"",""time""
""blur"",""1"",""264512""
""focus"",""1"",""535337""
""fullscreenenter"",""1"",""731210""
","""event"",""trial"",""time""
""blur"",""1"",""264512""
","""event"",""trial"",""time""
""focus"",""1"",""535337""
","""event"",""trial"",""time""
""fullscreenenter"",""1"",""731210""
","
","","","1161","","","15","16592","6534","j","elianto","#f73b6a7A","-1"," ","0","0","[2012]","1","2","","","16592","53","0","4","lose","no-go","1"
"pit-trial","181","2132148","0.0-58.0","battery-v0.2","","""event"",""trial"",""time""
""blur"",""1"",""264512""
""focus"",""1"",""535337""
""fullscreenenter"",""1"",""731210""
","""event"",""trial"",""time""
""blur"",""1"",""264512""
","""event"",""trial"",""time""
""focus"",""1"",""535337""
","""event"",""trial"",""time""
""fullscreenenter"",""1"",""731210""
","
","","","1579","","","15","16592","6534","d","elianto","#3366ff99"," "," ","1","+10","[2429.9999999995343]","1","2","","","16592","54","1","1","win","go","0"
"pit-trial","182","2135948","0.0-59.0","battery-v0.2","","""event"",""trial"",""time""
""blur"",""1"",""264512""
""focus"",""1"",""535337""
""fullscreenenter"",""1"",""731210""
","""event"",""trial"",""time""
""blur"",""1"",""264512""
","""event"",""trial"",""time""
""focus"",""1"",""535337""
","""event"",""trial"",""time""
""fullscreenenter"",""1"",""731210""
","
","","","945","","","15","16592","6534","s","elianto","#3366ff99","-1"," ","0","0","[1796]","1","2","","","16592","55","4","2","win","no-go","0"
"pit-trial","183","2140804","0.0-60.0","battery-v0.2","","""event"",""trial"",""time""
""blur"",""1"",""264512""
""focus"",""1"",""535337""
""fullscreenenter"",""1"",""731210""
","""event"",""trial"",""time""
""blur"",""1"",""264512""
","""event"",""trial"",""time""
""focus"",""1"",""535337""
","""event"",""trial"",""time""
""fullscreenenter"",""1"",""731210""
","
","","","-1","","","15","16592","6534","e","elianto","#f73b6a7A","-1","-1","1","0","[]","0","2","","","16592","56","2","4","lose","no-go","0"
"pit-trial","184","2144911","0.0-61.0","battery-v0.2","","""event"",""trial"",""time""
""blur"",""1"",""264512""
""focus"",""1"",""535337""
""fullscreenenter"",""1"",""731210""
","""event"",""trial"",""time""
""blur"",""1"",""264512""
","""event"",""trial"",""time""
""focus"",""1"",""535337""
","""event"",""trial"",""time""
""fullscreenenter"",""1"",""731210""
","
","","","1251","","","15","16592","6534","s","elianto","#3366ff99","-1"," ","0","0","[2102]","1","2","","","16592","57","4","2","win","no-go","0"
"pit-trial","185","2149113","0.0-62.0","battery-v0.2","","""event"",""trial"",""time""
""blur"",""1"",""264512""
""focus"",""1"",""535337""
