"trial_type","trial_index","time_elapsed","internal_node_id","task_version","subject_id","interactions","blur_events","focus_events","fullscreenenter_events","fullscreenexit_events","success","view_history","rt","responses","num_errors","age","subject","participantId","rune","rune_set","hex","correct","choice","accuracy","outcome","keys","total_keys","block","practice","value","sub","trial","stimulus","robot","valence","action","sham"
"pavlovia","0","17","0.0-0.0","battery-v0.2","","""event"",""trial"",""time""
""fullscreenenter"",""1"",""3503""
","
","
","""event"",""trial"",""time""
""fullscreenenter"",""1"",""3503""
","
","","","","","","","","","","","","","","","","","","","","","","","","","","",""
"fullscreen","1","4461","0.0-1.0","battery-v0.2","","""event"",""trial"",""time""
""fullscreenenter"",""1"",""3503""
","
","
","""event"",""trial"",""time""
""fullscreenenter"",""1"",""3503""
","
","true","","","","","","","","","","","","","","","","","","","","","","","","","",""
"pit-instructions","2","11819","0.0-2.0-0.0","battery-v0.2","","""event"",""trial"",""time""
""fullscreenenter"",""1"",""3503""
","
","
","""event"",""trial"",""time""
""fullscreenenter"",""1"",""3503""
","
","","[{""page_index"":0,""viewing_time"":7353.20000000298}]","7353.70000000298","","","","","","","","","","","","","","","","","","","","","","","",""
"pit-comprehension","3","16599","0.0-2.0-1.0-0.0","battery-v0.2","","""event"",""trial"",""time""
""fullscreenenter"",""1"",""3503""
","
","
","""event"",""trial"",""time""
""fullscreenenter"",""1"",""3503""
","
","","","4775","[""shark""]","0","25","11040","5103","","","","","","","","","","","","","","","","","","",""
"pit-instructions","4","19472","0.0-2.0-1.0-1.0","battery-v0.2","","""event"",""trial"",""time""
""fullscreenenter"",""1"",""3503""
","
","
","""event"",""trial"",""time""
""fullscreenenter"",""1"",""3503""
","
","","[{""page_index"":0,""viewing_time"":2839.5}]","2839.9000000059605","","","","","","","","","","","","","","","","","","","","","","","",""
"pit-comprehension","5","23402","0.0-2.0-2.0-0.0","battery-v0.2","","""event"",""trial"",""time""
""fullscreenenter"",""1"",""3503""
","
","
","""event"",""trial"",""time""
""fullscreenenter"",""1"",""3503""
","
","","","3923.7999999970198","[""tiger""]","0","25","11040","5103","","","","","","","","","","","","","","","","","","",""
"pit-instructions","6","25588","0.0-2.0-2.0-1.0","battery-v0.2","","""event"",""trial"",""time""
""fullscreenenter"",""1"",""3503""
","
","
","""event"",""trial"",""time""
""fullscreenenter"",""1"",""3503""
","
","","[{""page_index"":0,""viewing_time"":2181}]","2181.2999999970198","","","","","","","","","","","","","","","","","","","","","","","",""
"pit-instructions","7","132455","0.0-2.0-3.0","battery-v0.2","","""event"",""trial"",""time""
""fullscreenenter"",""1"",""3503""
","
","
","""event"",""trial"",""time""
""fullscreenenter"",""1"",""3503""
","
","","[{""page_index"":0,""viewing_time"":8323.29999999702},{""page_index"":1,""viewing_time"":7690.5999999940395},{""page_index"":2,""viewing_time"":6582.800000011921},{""page_index"":3,""viewing_time"":6398.899999991059},{""page_index"":4,""viewing_time"":7102.5},{""page_index"":5,""viewing_time"":5975.600000008941},{""page_index"":6,""viewing_time"":8432.39999999106},{""page_index"":7,""viewing_time"":7272.4000000059605},{""page_index"":8,""viewing_time"":7520.20000000298},{""page_index"":9,""viewing_time"":9846.89999999106},{""page_index"":10,""viewing_time"":7715},{""page_index"":11,""viewing_time"":9730.40000000596},{""page_index"":12,""viewing_time"":6427.79999999702},{""page_index"":13,""viewing_time"":7846.70000000298}]","106866.20000000298","","","","","","","","","","","","","","","","","","","","","","","",""
"pit-trial","8","135954","0.0-2.0-4.0-0.0","battery-v0.2","","""event"",""trial"",""time""
""fullscreenenter"",""1"",""3503""
","
","
","""event"",""trial"",""time""
""fullscreenenter"",""1"",""3503""
","
","","","637.2000000029802","","","25","11040","5103","&#9784;","elianto","#FFFFF080"," "," ","1","&#10004","[1489.7000000029802]","1","0","0","","","","","","","",""
"pit-trial","9","139587","0.0-2.0-4.1-0.1","battery-v0.2","","""event"",""trial"",""time""
""fullscreenenter"",""1"",""3503""
","
","
","""event"",""trial"",""time""
""fullscreenenter"",""1"",""3503""
","
","","","772.3000000119209","","","25","11040","5103","&#9784;","elianto","#FFFFF080"," "," ","1","&#10004","[1624.5]","1","0","0","","","","","","","",""
"pit-trial","10","143220","0.0-2.0-4.2-0.2","battery-v0.2","","""event"",""trial"",""time""
""fullscreenenter"",""1"",""3503""
","
","
","""event"",""trial"",""time""
""fullscreenenter"",""1"",""3503""
","
","","","763.1000000089407","","","25","11040","5103","&#9784;","elianto","#FFFFF080"," "," ","1","&#10004","[1615.0999999940395]","1","0","0","","","","","","","",""
"pit-trial","11","146582","0.0-2.0-4.3-0.3","battery-v0.2","","""event"",""trial"",""time""
""fullscreenenter"",""1"",""3503""
","
","
","""event"",""trial"",""time""
""fullscreenenter"",""1"",""3503""
","
","","","500.5","","","25","11040","5103","&#9784;","elianto","#FFFFF080"," "," ","1","&#10004","[1353]","1","0","0","","","","","","","",""
"pit-trial","12","150160","0.0-2.0-4.4-0.4","battery-v0.2","","""event"",""trial"",""time""
""fullscreenenter"",""1"",""3503""
","
","
","""event"",""trial"",""time""
""fullscreenenter"",""1"",""3503""
","
","","","712","","","25","11040","5103","&#9784;","elianto","#FFFFF080"," "," ","1","&#10004","[1566.3999999910593]","1","0","0","","","","","","","",""
"pit-instructions","13","172665","0.0-2.0-5.0","battery-v0.2","","""event"",""trial"",""time""
""fullscreenenter"",""1"",""3503""
","
","
","""event"",""trial"",""time""
""fullscreenenter"",""1"",""3503""
","
","","[{""page_index"":0,""viewing_time"":4949.29999999702},{""page_index"":1,""viewing_time"":5847.9000000059605},{""page_index"":2,""viewing_time"":6046.79999999702},{""page_index"":3,""viewing_time"":5655.0999999940395}]","22499.5","","","","","","","","","","","","","","","","","","","","","","","",""
"pit-trial","14","177534","0.0-2.0-6.0-0.0","battery-v0.2","","""event"",""trial"",""time""
""fullscreenenter"",""1"",""3503""
","
","
","""event"",""trial"",""time""
""fullscreenenter"",""1"",""3503""
","
","","","-1","","","25","11040","5103","&#9854;","elianto","#FFFFF080","-1","-1","1","&#10004","[]","0","0","1","","","","","","","",""
"pit-trial","15","182403","0.0-2.0-6.1-0.1","battery-v0.2","","""event"",""trial"",""time""
""fullscreenenter"",""1"",""3503""
","
","
","""event"",""trial"",""time""
""fullscreenenter"",""1"",""3503""
","
","","","-1","","","25","11040","5103","&#9854;","elianto","#FFFFF080","-1","-1","1","&#10004","[]","0","0","1","","","","","","","",""
"pit-trial","16","187270","0.0-2.0-6.2-0.2","battery-v0.2","","""event"",""trial"",""time""
""fullscreenenter"",""1"",""3503""
","
","
","""event"",""trial"",""time""
""fullscreenenter"",""1"",""3503""
","
","","","-1","","","25","11040","5103","&#9854;","elianto","#FFFFF080","-1","-1","1","&#10004","[]","0","0","1","","","","","","","",""
"pit-trial","17","192133","0.0-2.0-6.3-0.3","battery-v0.2","","""event"",""trial"",""time""
""fullscreenenter"",""1"",""3503""
","
","
","""event"",""trial"",""time""
""fullscreenenter"",""1"",""3503""
","
","","","-1","","","25","11040","5103","&#9854;","elianto","#FFFFF080","-1","-1","1","&#10004","[]","0","0","1","","","","","","","",""
"pit-trial","18","197017","0.0-2.0-6.4-0.4","battery-v0.2","","""event"",""trial"",""time""
""fullscreenenter"",""1"",""3503""
","
","
","""event"",""trial"",""time""
""fullscreenenter"",""1"",""3503""
","
","","","-1","","","25","11040","5103","&#9854;","elianto","#FFFFF080","-1","-1","1","&#10004","[]","0","0","1","","","","","","","",""
"pit-instructions","19","331359","0.0-2.0-7.0","battery-v0.2","","""event"",""trial"",""time""
""fullscreenenter"",""1"",""3503""
","
","
","""event"",""trial"",""time""
""fullscreenenter"",""1"",""3503""
","
","","[{""page_index"":0,""viewing_time"":6429.5},{""page_index"":1,""viewing_time"":8848},{""page_index"":2,""viewing_time"":6866.29999999702},{""page_index"":3,""viewing_time"":7432.100000008941},{""page_index"":4,""viewing_time"":6144.0999999940395},{""page_index"":5,""viewing_time"":6404.9000000059605},{""page_index"":6,""viewing_time"":5780.5999999940395},{""page_index"":7,""viewing_time"":9352.90000000596},{""page_index"":8,""viewing_time"":7635.399999991059},{""page_index"":9,""viewing_time"":6877.9000000059605},{""page_index"":10,""viewing_time"":7384.5999999940395},{""page_index"":11,""viewing_time"":6128},{""page_index"":12,""viewing_time"":8251.60000000894},{""page_index"":13,""viewing_time"":7931.699999988079},{""page_index"":14,""viewing_time"":8188.800000011921},{""page_index"":15,""viewing_time"":6701.5},{""page_index"":16,""viewing_time"":8168.399999991059},{""page_index"":17,""viewing_time"":9810.29999999702}]","134336.90000000596","","","","","","","","","","","","","","","","","","","","","","","",""
"pit-trial","20","334727","0.0-2.0-8.0-0.0","battery-v0.2","","""event"",""trial"",""time""
""fullscreenenter"",""1"",""3503""
","
","
","""event"",""trial"",""time""
""fullscreenenter"",""1"",""3503""
","
","","","507.6000000089407","","","25","11040","5103","&#9776;","elianto","#3366ff99"," "," ","1","+10","[1361.5]","1","0","1","","","","","","","",""
"pit-trial","21","338097","0.0-2.0-8.0-1.0","battery-v0.2","","""event"",""trial"",""time""
""fullscreenenter"",""1"",""3503""
","
","
","""event"",""trial"",""time""
""fullscreenenter"",""1"",""3503""
","
","","","508.59999999403954","","","25","11040","5103","&#9776;","elianto","#3366ff99"," "," ","1","+10","[1364.5999999940395]","1","0","1","","","","","","","",""
"pit-trial","22","341730","0.0-2.0-8.0-2.0","battery-v0.2","","""event"",""trial"",""time""
""fullscreenenter"",""1"",""3503""
","
","
","""event"",""trial"",""time""
""fullscreenenter"",""1"",""3503""
","
","","","768.7999999970198","","","25","11040","5103","&#9776;","elianto","#3366ff99"," "," ","1","+10","[1622.7999999970198]","1","0","1","","","","","","","",""
"pit-trial","23","345044","0.0-2.0-8.0-3.0","battery-v0.2","","""event"",""trial"",""time""
""fullscreenenter"",""1"",""3503""
","
","
","""event"",""trial"",""time""
""fullscreenenter"",""1"",""3503""
","
","","","451.59999999403954","","","25","11040","5103","&#9776;","elianto","#3366ff99"," "," ","1","0","[1304.5999999940395]","1","0","1","","","","","","","",""
"pit-trial","24","348412","0.0-2.0-8.0-4.0","battery-v0.2","","""event"",""trial"",""time""
""fullscreenenter"",""1"",""3503""
","
","
","""event"",""trial"",""time""
""fullscreenenter"",""1"",""3503""
","
","","","507.29999999701977","","","25","11040","5103","&#9776;","elianto","#3366ff99"," "," ","1","+10","[1361.6000000089407]","1","0","1","","","","","","","",""
"pit-trial","25","351795","0.0-2.0-8.1-0.1","battery-v0.2","","""event"",""trial"",""time""
""fullscreenenter"",""1"",""3503""
","
","
","""event"",""trial"",""time""
""fullscreenenter"",""1"",""3503""
","
","","","510.09999999403954","","","25","11040","5103","&#9776;","elianto","#3366ff99"," "," ","1","+10","[1361.4000000059605]","1","0","1","","","","","","","",""
"pit-trial","26","355135","0.0-2.0-8.1-1.1","battery-v0.2","","""event"",""trial"",""time""
""fullscreenenter"",""1"",""3503""
","
","
","""event"",""trial"",""time""
""fullscreenenter"",""1"",""3503""
","
","","","470.1000000089407","","","25","11040","5103","&#9776;","elianto","#3366ff99"," "," ","1","+10","[1321.5]","1","0","1","","","","","","","",""
"pit-trial","27","358412","0.0-2.0-8.1-2.1","battery-v0.2","","""event"",""trial"",""time""
""fullscreenenter"",""1"",""3503""
","
","
","""event"",""trial"",""time""
""fullscreenenter"",""1"",""3503""
","
","","","416.1000000089407","","","25","11040","5103","&#9776;","elianto","#3366ff99"," "," ","1","+10","[1267.7000000029802]","1","0","1","","","","","","","",""
"pit-trial","28","361899","0.0-2.0-8.1-3.1","battery-v0.2","","""event"",""trial"",""time""
""fullscreenenter"",""1"",""3503""
","
","
","""event"",""trial"",""time""
""fullscreenenter"",""1"",""3503""
","
","","","632.1999999880791","","","25","11040","5103","&#9776;","elianto","#3366ff99"," "," ","1","0","[1482.7999999970198]","1","0","1","","","","","","","",""
"pit-trial","29","365212","0.0-2.0-8.1-4.1","battery-v0.2","","""event"",""trial"",""time""
""fullscreenenter"",""1"",""3503""
","
","
","""event"",""trial"",""time""
""fullscreenenter"",""1"",""3503""
","
","","","451.90000000596046","","","25","11040","5103","&#9776;","elianto","#3366ff99"," "," ","1","+10","[1302.800000011921]","1","0","1","","","","","","","",""
"pit-trial","30","368489","0.0-2.0-8.2-0.2","battery-v0.2","","""event"",""trial"",""time""
""fullscreenenter"",""1"",""3503""
","
","
","""event"",""trial"",""time""
""fullscreenenter"",""1"",""3503""
","
","","","418","","","25","11040","5103","&#9776;","elianto","#3366ff99"," "," ","1","+10","[1272.5]","1","0","1","","","","","","","",""
"pit-trial","31","371756","0.0-2.0-8.2-1.2","battery-v0.2","","""event"",""trial"",""time""
""fullscreenenter"",""1"",""3503""
","
","
","""event"",""trial"",""time""
""fullscreenenter"",""1"",""3503""
","
","","","401.09999999403954","","","25","11040","5103","&#9776;","elianto","#3366ff99"," "," ","1","+10","[1257.0999999940395]","1","0","1","","","","","","","",""
"pit-trial","32","375186","0.0-2.0-8.2-2.2","battery-v0.2","","""event"",""trial"",""time""
""fullscreenenter"",""1"",""3503""
","
","
","""event"",""trial"",""time""
""fullscreenenter"",""1"",""3503""
","
","","","560.5999999940395","","","25","11040","5103","&#9776;","elianto","#3366ff99"," "," ","1","+10","[1419.0999999940395]","1","0","1","","","","","","","",""
"pit-trial","33","378510","0.0-2.0-8.2-3.2","battery-v0.2","","""event"",""trial"",""time""
""fullscreenenter"",""1"",""3503""
","
","
","""event"",""trial"",""time""
""fullscreenenter"",""1"",""3503""
","
","","","458.20000000298023","","","25","11040","5103","&#9776;","elianto","#3366ff99"," "," ","1","0","[1316.7000000029802]","1","0","1","","","","","","","",""
"pit-trial","34","381844","0.0-2.0-8.2-4.2","battery-v0.2","","""event"",""trial"",""time""
""fullscreenenter"",""1"",""3503""
","
","
","""event"",""trial"",""time""
""fullscreenenter"",""1"",""3503""
","
","","","472.59999999403954","","","25","11040","5103","&#9776;","elianto","#3366ff99"," "," ","1","+10","[1326.2000000029802]","1","0","1","","","","","","","",""
"call-function","35","381847","0.0-2.0-9.0","battery-v0.2","","""event"",""trial"",""time""
""fullscreenenter"",""1"",""3503""
","
","
","""event"",""trial"",""time""
""fullscreenenter"",""1"",""3503""
","
","","","","","","","","","","","","","","","","","","","","","","","","","","",""
"pit-instructions","36","434249","0.0-2.0-10.0","battery-v0.2","","""event"",""trial"",""time""
""fullscreenenter"",""1"",""3503""
","
","
","""event"",""trial"",""time""
""fullscreenenter"",""1"",""3503""
","
","","[{""page_index"":0,""viewing_time"":13393.20000000298},{""page_index"":1,""viewing_time"":8651.699999988079},{""page_index"":2,""viewing_time"":10446.90000000596},{""page_index"":3,""viewing_time"":11503.20000000298},{""page_index"":4,""viewing_time"":8405}]","52400.5","","","","","","","","","","","","","","","","","","","","","","","",""
"pit-trial","37","437600","0.0-2.0-11.0-0.0","battery-v0.2","","""event"",""trial"",""time""
""fullscreenenter"",""1"",""3503""
","
","
","""event"",""trial"",""time""
""fullscreenenter"",""1"",""3503""
","
","","","490.09999999403954","","","25","11040","5103","&#9761;","elianto","#3366ff99","-1"," ","0","0","[1341.7000000029802]","1","0","2","","","","","","","",""
"pit-trial","38","440760","0.0-2.0-11.0-1.0","battery-v0.2","","""event"",""trial"",""time""
""fullscreenenter"",""1"",""3503""
","
","
","""event"",""trial"",""time""
""fullscreenenter"",""1"",""3503""
","
","","","292.70000000298023","","","25","11040","5103","&#9761;","elianto","#3366ff99","-1"," ","0","0","[1143.0999999940395]","1","0","2","","","","","","","",""
"pit-trial","39","445640","0.0-2.0-11.0-2.0","battery-v0.2","","""event"",""trial"",""time""
""fullscreenenter"",""1"",""3503""
","
","
","""event"",""trial"",""time""
""fullscreenenter"",""1"",""3503""
","
","","","-1","","","25","11040","5103","&#9761;","elianto","#3366ff99","-1","-1","1","+10","[]","0","0","2","","","","","","","",""
"pit-trial","40","450512","0.0-2.0-11.0-3.0","battery-v0.2","","""event"",""trial"",""time""
""fullscreenenter"",""1"",""3503""
","
","
","""event"",""trial"",""time""
""fullscreenenter"",""1"",""3503""
","
","","","-1","","","25","11040","5103","&#9761;","elianto","#3366ff99","-1","-1","1","0","[]","0","0","2","","","","","","","",""
"pit-trial","41","455383","0.0-2.0-11.0-4.0","battery-v0.2","","""event"",""trial"",""time""
""fullscreenenter"",""1"",""3503""
","
","
","""event"",""trial"",""time""
""fullscreenenter"",""1"",""3503""
","
","","","-1","","","25","11040","5103","&#9761;","elianto","#3366ff99","-1","-1","1","+10","[]","0","0","2","","","","","","","",""
"pit-trial","42","460262","0.0-2.0-11.1-0.1","battery-v0.2","","""event"",""trial"",""time""
""fullscreenenter"",""1"",""3503""
","
","
","""event"",""trial"",""time""
""fullscreenenter"",""1"",""3503""
","
","","","-1","","","25","11040","5103","&#9761;","elianto","#3366ff99","-1","-1","1","+10","[]","0","0","2","","","","","","","",""
"pit-trial","43","465129","0.0-2.0-11.1-1.1","battery-v0.2","","""event"",""trial"",""time""
""fullscreenenter"",""1"",""3503""
","
","
","""event"",""trial"",""time""
""fullscreenenter"",""1"",""3503""
","
","","","-1","","","25","11040","5103","&#9761;","elianto","#3366ff99","-1","-1","1","+10","[]","0","0","2","","","","","","","",""
"pit-trial","44","469995","0.0-2.0-11.1-2.1","battery-v0.2","","""event"",""trial"",""time""
""fullscreenenter"",""1"",""3503""
","
","
","""event"",""trial"",""time""
""fullscreenenter"",""1"",""3503""
","
","","","-1","","","25","11040","5103","&#9761;","elianto","#3366ff99","-1","-1","1","+10","[]","0","0","2","","","","","","","",""
"pit-trial","45","474863","0.0-2.0-11.1-3.1","battery-v0.2","","""event"",""trial"",""time""
""fullscreenenter"",""1"",""3503""
","
","
","""event"",""trial"",""time""
""fullscreenenter"",""1"",""3503""
","
","","","-1","","","25","11040","5103","&#9761;","elianto","#3366ff99","-1","-1","1","0","[]","0","0","2","","","","","","","",""
"pit-trial","46","479732","0.0-2.0-11.1-4.1","battery-v0.2","","""event"",""trial"",""time""
""fullscreenenter"",""1"",""3503""
","
","
","""event"",""trial"",""time""
""fullscreenenter"",""1"",""3503""
","
","","","-1","","","25","11040","5103","&#9761;","elianto","#3366ff99","-1","-1","1","+10","[]","0","0","2","","","","","","","",""
"pit-trial","47","484601","0.0-2.0-11.2-0.2","battery-v0.2","","""event"",""trial"",""time""
""fullscreenenter"",""1"",""3503""
","
","
","""event"",""trial"",""time""
""fullscreenenter"",""1"",""3503""
","
","","","-1","","","25","11040","5103","&#9761;","elianto","#3366ff99","-1","-1","1","+10","[]","0","0","2","","","","","","","",""
"pit-trial","48","489482","0.0-2.0-11.2-1.2","battery-v0.2","","""event"",""trial"",""time""
""fullscreenenter"",""1"",""3503""
","
","
","""event"",""trial"",""time""
""fullscreenenter"",""1"",""3503""
","
","","","-1","","","25","11040","5103","&#9761;","elianto","#3366ff99","-1","-1","1","+10","[]","0","0","2","","","","","","","",""
"pit-trial","49","494343","0.0-2.0-11.2-2.2","battery-v0.2","","""event"",""trial"",""time""
""fullscreenenter"",""1"",""3503""
","
","
","""event"",""trial"",""time""
""fullscreenenter"",""1"",""3503""
","
","","","-1","","","25","11040","5103","&#9761;","elianto","#3366ff99","-1","-1","1","+10","[]","0","0","2","","","","","","","",""
"pit-trial","50","499207","0.0-2.0-11.2-3.2","battery-v0.2","","""event"",""trial"",""time""
""fullscreenenter"",""1"",""3503""
","
","
","""event"",""trial"",""time""
""fullscreenenter"",""1"",""3503""
","
","","","-1","","","25","11040","5103","&#9761;","elianto","#3366ff99","-1","-1","1","0","[]","0","0","2","","","","","","","",""
"pit-trial","51","504082","0.0-2.0-11.2-4.2","battery-v0.2","","""event"",""trial"",""time""
""fullscreenenter"",""1"",""3503""
","
","
","""event"",""trial"",""time""
""fullscreenenter"",""1"",""3503""
","
","","","-1","","","25","11040","5103","&#9761;","elianto","#3366ff99","-1","-1","1","+10","[]","0","0","2","","","","","","","",""
"pit-trial","52","508943","0.0-2.0-11.3-0.3","battery-v0.2","","""event"",""trial"",""time""
""fullscreenenter"",""1"",""3503""
","
","
","""event"",""trial"",""time""
""fullscreenenter"",""1"",""3503""
","
","","","-1","","","25","11040","5103","&#9761;","elianto","#3366ff99","-1","-1","1","+10","[]","0","0","2","","","","","","","",""
"pit-trial","53","513808","0.0-2.0-11.3-1.3","battery-v0.2","","""event"",""trial"",""time""
""fullscreenenter"",""1"",""3503""
","
","
","""event"",""trial"",""time""
""fullscreenenter"",""1"",""3503""
","
","","","-1","","","25","11040","5103","&#9761;","elianto","#3366ff99","-1","-1","1","+10","[]","0","0","2","","","","","","","",""
"pit-trial","54","518677","0.0-2.0-11.3-2.3","battery-v0.2","","""event"",""trial"",""time""
""fullscreenenter"",""1"",""3503""
","
","
","""event"",""trial"",""time""
""fullscreenenter"",""1"",""3503""
","
","","","-1","","","25","11040","5103","&#9761;","elianto","#3366ff99","-1","-1","1","+10","[]","0","0","2","","","","","","","",""
"pit-trial","55","523540","0.0-2.0-11.3-3.3","battery-v0.2","","""event"",""trial"",""time""
""fullscreenenter"",""1"",""3503""
","
","
","""event"",""trial"",""time""
""fullscreenenter"",""1"",""3503""
","
","","","-1","","","25","11040","5103","&#9761;","elianto","#3366ff99","-1","-1","1","0","[]","0","0","2","","","","","","","",""
"pit-trial","56","528417","0.0-2.0-11.3-4.3","battery-v0.2","","""event"",""trial"",""time""
""fullscreenenter"",""1"",""3503""
","
","
","""event"",""trial"",""time""
""fullscreenenter"",""1"",""3503""
","
","","","-1","","","25","11040","5103","&#9761;","elianto","#3366ff99","-1","-1","1","+10","[]","0","0","2","","","","","","","",""
"call-function","57","528420","0.0-2.0-12.0","battery-v0.2","","""event"",""trial"",""time""
""fullscreenenter"",""1"",""3503""
","
","
","""event"",""trial"",""time""
""fullscreenenter"",""1"",""3503""
","
","","","","","","","","","","","","","","","","","","","","","","","","","","",""
"pit-instructions","58","564221","0.0-2.0-13.0","battery-v0.2","","""event"",""trial"",""time""
""fullscreenenter"",""1"",""3503""
","
","
","""event"",""trial"",""time""
""fullscreenenter"",""1"",""3503""
","
","","[{""page_index"":0,""viewing_time"":5097},{""page_index"":1,""viewing_time"":8311.09999999404},{""page_index"":2,""viewing_time"":5339.800000011921},{""page_index"":3,""viewing_time"":11784.29999999702},{""page_index"":4,""viewing_time"":5266.79999999702}]","35799.29999999702","","","","","","","","","","","","","","","","","","","","","","","",""
"pit-trial","59","567595","0.0-2.0-14.0-0.0","battery-v0.2","","""event"",""trial"",""time""
""fullscreenenter"",""1"",""3503""
","
","
","""event"",""trial"",""time""
""fullscreenenter"",""1"",""3503""
","
","","","499.6000000089407","","","25","11040","5103","&#9826;","elianto","#f73b6a7A","-1"," ","0","-10","[1356.4000000059605]","1","0","3","","","","","","","",""
"pit-trial","60","570757","0.0-2.0-14.0-1.0","battery-v0.2","","""event"",""trial"",""time""
""fullscreenenter"",""1"",""3503""
","
","
","""event"",""trial"",""time""
""fullscreenenter"",""1"",""3503""
","
","","","301.90000000596046","","","25","11040","5103","&#9826;","elianto","#f73b6a7A","-1"," ","0","-10","[1152.7999999970198]","1","0","3","","","","","","","",""
"pit-trial","61","575630","0.0-2.0-14.0-2.0","battery-v0.2","","""event"",""trial"",""time""
""fullscreenenter"",""1"",""3503""
","
","
","""event"",""trial"",""time""
""fullscreenenter"",""1"",""3503""
","
","","","-1","","","25","11040","5103","&#9826;","elianto","#f73b6a7A","-1","-1","1","0","[]","0","0","3","","","","","","","",""
"pit-trial","62","580505","0.0-2.0-14.0-3.0","battery-v0.2","","""event"",""trial"",""time""
""fullscreenenter"",""1"",""3503""
","
","
","""event"",""trial"",""time""
""fullscreenenter"",""1"",""3503""
","
","","","-1","","","25","11040","5103","&#9826;","elianto","#f73b6a7A","-1","-1","1","-10","[]","0","0","3","","","","","","","",""
"pit-trial","63","585389","0.0-2.0-14.0-4.0","battery-v0.2","","""event"",""trial"",""time""
""fullscreenenter"",""1"",""3503""
","
","
","""event"",""trial"",""time""
""fullscreenenter"",""1"",""3503""
","
","","","-1","","","25","11040","5103","&#9826;","elianto","#f73b6a7A","-1","-1","1","0","[]","0","0","3","","","","","","","",""
"pit-trial","64","590267","0.0-2.0-14.1-0.1","battery-v0.2","","""event"",""trial"",""time""
""fullscreenenter"",""1"",""3503""
","
","
","""event"",""trial"",""time""
""fullscreenenter"",""1"",""3503""
","
","","","-1","","","25","11040","5103","&#9826;","elianto","#f73b6a7A","-1","-1","1","0","[]","0","0","3","","","","","","","",""
"pit-trial","65","595130","0.0-2.0-14.1-1.1","battery-v0.2","","""event"",""trial"",""time""
""fullscreenenter"",""1"",""3503""
","
","
","""event"",""trial"",""time""
""fullscreenenter"",""1"",""3503""
","
","","","-1","","","25","11040","5103","&#9826;","elianto","#f73b6a7A","-1","-1","1","0","[]","0","0","3","","","","","","","",""
"pit-trial","66","599988","0.0-2.0-14.1-2.1","battery-v0.2","","""event"",""trial"",""time""
""fullscreenenter"",""1"",""3503""
","
","
","""event"",""trial"",""time""
""fullscreenenter"",""1"",""3503""
","
","","","-1","","","25","11040","5103","&#9826;","elianto","#f73b6a7A","-1","-1","1","0","[]","0","0","3","","","","","","","",""
"pit-trial","67","604854","0.0-2.0-14.1-3.1","battery-v0.2","","""event"",""trial"",""time""
""fullscreenenter"",""1"",""3503""
","
","
","""event"",""trial"",""time""
""fullscreenenter"",""1"",""3503""
","
","","","-1","","","25","11040","5103","&#9826;","elianto","#f73b6a7A","-1","-1","1","-10","[]","0","0","3","","","","","","","",""
"pit-trial","68","609723","0.0-2.0-14.1-4.1","battery-v0.2","","""event"",""trial"",""time""
""fullscreenenter"",""1"",""3503""
","
","
","""event"",""trial"",""time""
""fullscreenenter"",""1"",""3503""
","
","","","-1","","","25","11040","5103","&#9826;","elianto","#f73b6a7A","-1","-1","1","0","[]","0","0","3","","","","","","","",""
"pit-trial","69","614594","0.0-2.0-14.2-0.2","battery-v0.2","","""event"",""trial"",""time""
""fullscreenenter"",""1"",""3503""
","
","
","""event"",""trial"",""time""
""fullscreenenter"",""1"",""3503""
","
","","","-1","","","25","11040","5103","&#9826;","elianto","#f73b6a7A","-1","-1","1","0","[]","0","0","3","","","","","","","",""
"pit-trial","70","619471","0.0-2.0-14.2-1.2","battery-v0.2","","""event"",""trial"",""time""
""fullscreenenter"",""1"",""3503""
","
","
","""event"",""trial"",""time""
""fullscreenenter"",""1"",""3503""
","
","","","-1","","","25","11040","5103","&#9826;","elianto","#f73b6a7A","-1","-1","1","0","[]","0","0","3","","","","","","","",""
"pit-trial","71","624331","0.0-2.0-14.2-2.2","battery-v0.2","","""event"",""trial"",""time""
""fullscreenenter"",""1"",""3503""
","
","
","""event"",""trial"",""time""
""fullscreenenter"",""1"",""3503""
","
","","","-1","","","25","11040","5103","&#9826;","elianto","#f73b6a7A","-1","-1","1","0","[]","0","0","3","","","","","","","",""
"pit-trial","72","629204","0.0-2.0-14.2-3.2","battery-v0.2","","""event"",""trial"",""time""
""fullscreenenter"",""1"",""3503""
","
","
","""event"",""trial"",""time""
""fullscreenenter"",""1"",""3503""
","
","","","-1","","","25","11040","5103","&#9826;","elianto","#f73b6a7A","-1","-1","1","-10","[]","0","0","3","","","","","","","",""
"pit-trial","73","634079","0.0-2.0-14.2-4.2","battery-v0.2","","""event"",""trial"",""time""
""fullscreenenter"",""1"",""3503""
","
","
","""event"",""trial"",""time""
""fullscreenenter"",""1"",""3503""
","
","","","-1","","","25","11040","5103","&#9826;","elianto","#f73b6a7A","-1","-1","1","0","[]","0","0","3","","","","","","","",""
"pit-trial","74","638957","0.0-2.0-14.3-0.3","battery-v0.2","","""event"",""trial"",""time""
""fullscreenenter"",""1"",""3503""
","
","
","""event"",""trial"",""time""
""fullscreenenter"",""1"",""3503""
","
","","","-1","","","25","11040","5103","&#9826;","elianto","#f73b6a7A","-1","-1","1","0","[]","0","0","3","","","","","","","",""
"pit-trial","75","643818","0.0-2.0-14.3-1.3","battery-v0.2","","""event"",""trial"",""time""
""fullscreenenter"",""1"",""3503""
","
","
","""event"",""trial"",""time""
""fullscreenenter"",""1"",""3503""
","
","","","-1","","","25","11040","5103","&#9826;","elianto","#f73b6a7A","-1","-1","1","0","[]","0","0","3","","","","","","","",""
"pit-trial","76","648695","0.0-2.0-14.3-2.3","battery-v0.2","","""event"",""trial"",""time""
""fullscreenenter"",""1"",""3503""
","
","
","""event"",""trial"",""time""
""fullscreenenter"",""1"",""3503""
","
","","","-1","","","25","11040","5103","&#9826;","elianto","#f73b6a7A","-1","-1","1","0","[]","0","0","3","","","","","","","",""
"pit-trial","77","653560","0.0-2.0-14.3-3.3","battery-v0.2","","""event"",""trial"",""time""
""fullscreenenter"",""1"",""3503""
","
","
","""event"",""trial"",""time""
""fullscreenenter"",""1"",""3503""
","
","","","-1","","","25","11040","5103","&#9826;","elianto","#f73b6a7A","-1","-1","1","-10","[]","0","0","3","","","","","","","",""
"pit-trial","78","658415","0.0-2.0-14.3-4.3","battery-v0.2","","""event"",""trial"",""time""
""fullscreenenter"",""1"",""3503""
","
","
","""event"",""trial"",""time""
""fullscreenenter"",""1"",""3503""
","
","","","-1","","","25","11040","5103","&#9826;","elianto","#f73b6a7A","-1","-1","1","0","[]","0","0","3","","","","","","","",""
"call-function","79","658418","0.0-2.0-15.0","battery-v0.2","","""event"",""trial"",""time""
""fullscreenenter"",""1"",""3503""
","
","
","""event"",""trial"",""time""
""fullscreenenter"",""1"",""3503""
","
","","","","","","","","","","","","","","","","","","","","","","","","","","",""
"pit-instructions","80","687309","0.0-2.0-16.0","battery-v0.2","","""event"",""trial"",""time""
""fullscreenenter"",""1"",""3503""
","
","
","""event"",""trial"",""time""
""fullscreenenter"",""1"",""3503""
","
","","[{""page_index"":0,""viewing_time"":9887.59999999404},{""page_index"":1,""viewing_time"":9005.40000000596},{""page_index"":2,""viewing_time"":4829.199999988079},{""page_index"":3,""viewing_time"":5167.20000000298}]","28889.89999999106","","","","","","","","","","","","","","","","","","","","","","","",""
"pit-trial","81","690746","0.0-2.0-17.0-0.0","battery-v0.2","","""event"",""trial"",""time""
""fullscreenenter"",""1"",""3503""
","
","
","""event"",""trial"",""time""
""fullscreenenter"",""1"",""3503""
","
","","","569.5999999940395","","","25","11040","5103","&#9789;","elianto","#f73b6a7A"," "," ","1","0","[1420.699999988079]","1","0","4","","","","","","","",""
"pit-trial","82","693956","0.0-2.0-17.0-1.0","battery-v0.2","","""event"",""trial"",""time""
""fullscreenenter"",""1"",""3503""
","
","
","""event"",""trial"",""time""
""fullscreenenter"",""1"",""3503""
","
","","","343","","","25","11040","5103","&#9789;","elianto","#f73b6a7A"," "," ","1","0","[1203.9000000059605]","1","0","4","","","","","","","",""
"pit-trial","83","697006","0.0-2.0-17.0-2.0","battery-v0.2","","""event"",""trial"",""time""
""fullscreenenter"",""1"",""3503""
","
","
","""event"",""trial"",""time""
""fullscreenenter"",""1"",""3503""
","
","","","186.79999999701977","","","25","11040","5103","&#9789;","elianto","#f73b6a7A"," "," ","1","0","[1038.7000000029802]","1","0","4","","","","","","","",""
"pit-trial","84","699926","0.0-2.0-17.0-3.0","battery-v0.2","","""event"",""trial"",""time""
""fullscreenenter"",""1"",""3503""
","
","
","""event"",""trial"",""time""
""fullscreenenter"",""1"",""3503""
","
","","","52.900000005960464","","","25","11040","5103","&#9789;","elianto","#f73b6a7A"," "," ","1","-10","[903.7999999970198]","1","0","4","","","","","","","",""
"pit-trial","85","703159","0.0-2.0-17.0-4.0","battery-v0.2","","""event"",""trial"",""time""
""fullscreenenter"",""1"",""3503""
","
","
","""event"",""trial"",""time""
""fullscreenenter"",""1"",""3503""
","
","","","358.40000000596046","","","25","11040","5103","&#9789;","elianto","#f73b6a7A"," "," ","1","0","[1218.4000000059605]","1","0","4","","","","","","","",""
"pit-trial","86","706369","0.0-2.0-17.1-0.1","battery-v0.2","","""event"",""trial"",""time""
""fullscreenenter"",""1"",""3503""
","
","
","""event"",""trial"",""time""
""fullscreenenter"",""1"",""3503""
","
","","","344","","","25","11040","5103","&#9789;","elianto","#f73b6a7A"," "," ","1","0","[1202.199999988079]","1","0","4","","","","","","","",""
"pit-trial","87","709403","0.0-2.0-17.1-1.1","battery-v0.2","","""event"",""trial"",""time""
""fullscreenenter"",""1"",""3503""
","
","
","""event"",""trial"",""time""
""fullscreenenter"",""1"",""3503""
","
","","","173.5","","","25","11040","5103","&#9789;","elianto","#f73b6a7A"," "," ","1","0","[1025.9000000059605]","1","0","4","","","","","","","",""
"pit-trial","88","712648","0.0-2.0-17.1-2.1","battery-v0.2","","""event"",""trial"",""time""
""fullscreenenter"",""1"",""3503""
","
","
","""event"",""trial"",""time""
""fullscreenenter"",""1"",""3503""
","
","","","377.29999999701977","","","25","11040","5103","&#9789;","elianto","#f73b6a7A"," "," ","1","0","[1231.5]","1","0","4","","","","","","","",""
"pit-trial","89","715863","0.0-2.0-17.1-3.1","battery-v0.2","","""event"",""trial"",""time""
""fullscreenenter"",""1"",""3503""
","
","
","""event"",""trial"",""time""
""fullscreenenter"",""1"",""3503""
","
","","","354.70000000298023","","","25","11040","5103","&#9789;","elianto","#f73b6a7A"," "," ","1","-10","[1209.2000000029802]","1","0","4","","","","","","","",""
"pit-trial","90","719020","0.0-2.0-17.1-4.1","battery-v0.2","","""event"",""trial"",""time""
""fullscreenenter"",""1"",""3503""
","
","
","""event"",""trial"",""time""
""fullscreenenter"",""1"",""3503""
","
","","","285.79999999701977","","","25","11040","5103","&#9789;","elianto","#f73b6a7A"," "," ","1","0","[1145.7000000029802]","1","0","4","","","","","","","",""
"pit-trial","91","722323","0.0-2.0-17.2-0.2","battery-v0.2","","""event"",""trial"",""time""
""fullscreenenter"",""1"",""3503""
","
","
","""event"",""trial"",""time""
""fullscreenenter"",""1"",""3503""
","
","","","437.59999999403954","","","25","11040","5103","&#9789;","elianto","#f73b6a7A"," "," ","1","0","[1288.2999999970198]","1","0","4","","","","","","","",""
"pit-trial","92","725477","0.0-2.0-17.2-1.2","battery-v0.2","","""event"",""trial"",""time""
""fullscreenenter"",""1"",""3503""
","
","
","""event"",""trial"",""time""
""fullscreenenter"",""1"",""3503""
","
","","","289.20000000298023","","","25","11040","5103","&#9789;","elianto","#f73b6a7A"," "," ","1","0","[1141.7000000029802]","1","0","4","","","","","","","",""
"pit-trial","93","728785","0.0-2.0-17.2-2.2","battery-v0.2","","""event"",""trial"",""time""
""fullscreenenter"",""1"",""3503""
","
","
","""event"",""trial"",""time""
""fullscreenenter"",""1"",""3503""
","
","","","443.70000000298023","","","25","11040","5103","&#9789;","elianto","#f73b6a7A"," "," ","1","0","[1297.6000000089407]","1","0","4","","","","","","","",""
"pit-trial","94","732070","0.0-2.0-17.2-3.2","battery-v0.2","","""event"",""trial"",""time""
""fullscreenenter"",""1"",""3503""
","
","
","""event"",""trial"",""time""
""fullscreenenter"",""1"",""3503""
","
","","","417.6000000089407","","","25","11040","5103","&#9789;","elianto","#f73b6a7A"," "," ","1","-10","[1271.5999999940395]","1","0","4","","","","","","","",""
"pit-trial","95","735359","0.0-2.0-17.2-4.2","battery-v0.2","","""event"",""trial"",""time""
""fullscreenenter"",""1"",""3503""
","
","
","""event"",""trial"",""time""
""fullscreenenter"",""1"",""3503""
","
","","","428.40000000596046","","","25","11040","5103","&#9789;","elianto","#f73b6a7A"," "," ","1","0","[1279]","1","0","4","","","","","","","",""
"pit-trial","96","738576","0.0-2.0-17.3-0.3","battery-v0.2","","""event"",""trial"",""time""
""fullscreenenter"",""1"",""3503""
","
","
","""event"",""trial"",""time""
""fullscreenenter"",""1"",""3503""
","
","","","346.29999999701977","","","25","11040","5103","&#9789;","elianto","#f73b6a7A"," "," ","1","0","[1204.5999999940395]","1","0","4","","","","","","","",""
"pit-trial","97","741918","0.0-2.0-17.3-1.3","battery-v0.2","","""event"",""trial"",""time""
""fullscreenenter"",""1"",""3503""
","
","
","""event"",""trial"",""time""
""fullscreenenter"",""1"",""3503""
","
","","","478.70000000298023","","","25","11040","5103","&#9789;","elianto","#f73b6a7A"," "," ","1","0","[1331]","1","0","4","","","","","","","",""
"pit-trial","98","745459","0.0-2.0-17.3-2.3","battery-v0.2","","""event"",""trial"",""time""
""fullscreenenter"",""1"",""3503""
","
","
","""event"",""trial"",""time""
""fullscreenenter"",""1"",""3503""
","
","","","674.5999999940395","","","25","11040","5103","&#9789;","elianto","#f73b6a7A"," "," ","1","0","[1528]","1","0","4","","","","","","","",""
"pit-trial","99","748776","0.0-2.0-17.3-3.3","battery-v0.2","","""event"",""trial"",""time""
""fullscreenenter"",""1"",""3503""
","
","
","""event"",""trial"",""time""
""fullscreenenter"",""1"",""3503""
","
","","","455.09999999403954","","","25","11040","5103","&#9789;","elianto","#f73b6a7A"," "," ","1","-10","[1308.7999999970198]","1","0","4","","","","","","","",""
"pit-trial","100","752017","0.0-2.0-17.3-4.3","battery-v0.2","","""event"",""trial"",""time""
""fullscreenenter"",""1"",""3503""
","
","
","""event"",""trial"",""time""
""fullscreenenter"",""1"",""3503""
","
","","","380.79999999701977","","","25","11040","5103","&#9789;","elianto","#f73b6a7A"," "," ","1","0","[1231.2999999970198]","1","0","4","","","","","","","",""
"call-function","101","752020","0.0-2.0-18.0","battery-v0.2","","""event"",""trial"",""time""
""fullscreenenter"",""1"",""3503""
","
","
","""event"",""trial"",""time""
""fullscreenenter"",""1"",""3503""
","
","","","","","","","","","","","","","","","","","","","","","","","","","","",""
"pit-instructions","102","830010","0.0-2.0-19.0","battery-v0.2","","""event"",""trial"",""time""
""fullscreenenter"",""1"",""3503""
","
","
","""event"",""trial"",""time""
""fullscreenenter"",""1"",""3503""
","
","","[{""page_index"":0,""viewing_time"":8236.39999999106},{""page_index"":1,""viewing_time"":6569.70000000298},{""page_index"":2,""viewing_time"":14606.5},{""page_index"":3,""viewing_time"":9559.90000000596},{""page_index"":4,""viewing_time"":10771.39999999106},{""page_index"":5,""viewing_time"":8549.60000000894},{""page_index"":6,""viewing_time"":8507.39999999106},{""page_index"":7,""viewing_time"":7052.29999999702},{""page_index"":8,""viewing_time"":4135.5}]","77989.29999999702","","","","","","","","","","","","","","","","","","","","","","","",""
"pit-comprehension","103","834612","0.0-2.0-20.0-0.0","battery-v0.2","","""event"",""trial"",""time""
""fullscreenenter"",""1"",""3503""
","
","
","""event"",""trial"",""time""
""fullscreenenter"",""1"",""3503""
","
","","","4594.79999999702","[""SPACE""]","0","25","11040","5103","","","","","","","","","","","","","","","","","","",""
"pit-instructions","104","837521","0.0-2.0-20.0-1.0","battery-v0.2","","""event"",""trial"",""time""
""fullscreenenter"",""1"",""3503""
","
","
","""event"",""trial"",""time""
""fullscreenenter"",""1"",""3503""
","
","","[{""page_index"":0,""viewing_time"":2836}]","2836.300000011921","","","","","","","","","","","","","","","","","","","","","","","",""
"pit-comprehension","105","843564","0.0-2.0-21.0-0.0","battery-v0.2","","""event"",""trial"",""time""
""fullscreenenter"",""1"",""3503""
","
","
","""event"",""trial"",""time""
""fullscreenenter"",""1"",""3503""
","
","","","6037.9000000059605","[""10""]","0","25","11040","5103","","","","","","","","","","","","","","","","","","",""
"pit-instructions","106","845348","0.0-2.0-21.0-1.0","battery-v0.2","","""event"",""trial"",""time""
""fullscreenenter"",""1"",""3503""
","
","
","""event"",""trial"",""time""
""fullscreenenter"",""1"",""3503""
","
","","[{""page_index"":0,""viewing_time"":1740.7000000029802}]","1741.0999999940395","","","","","","","","","","","","","","","","","","","","","","","",""
"pit-comprehension","107","854451","0.0-2.0-22.0-0.0","battery-v0.2","","""event"",""trial"",""time""
""fullscreenenter"",""1"",""3503""
","
","
","""event"",""trial"",""time""
""fullscreenenter"",""1"",""3503""
","
","","","9098.29999999702","[""0""]","0","25","11040","5103","","","","","","","","","","","","","","","","","","",""
"pit-instructions","108","856480","0.0-2.0-22.0-1.0","battery-v0.2","","""event"",""trial"",""time""
""fullscreenenter"",""1"",""3503""
","
","
","""event"",""trial"",""time""
""fullscreenenter"",""1"",""3503""
","
","","[{""page_index"":0,""viewing_time"":1984.9000000059605}]","1985.4000000059605","","","","","","","","","","","","","","","","","","","","","","","",""
"pit-comprehension","109","868163","0.0-2.0-23.0-0.0","battery-v0.2","","""event"",""trial"",""time""
""fullscreenenter"",""1"",""3503""
","
","
","""event"",""trial"",""time""
""fullscreenenter"",""1"",""3503""
","
","","","11678.20000000298","[""True""]","0","25","11040","5103","","","","","","","","","","","","","","","","","","",""
"pit-instructions","110","869997","0.0-2.0-23.0-1.0","battery-v0.2","","""event"",""trial"",""time""
""fullscreenenter"",""1"",""3503""
","
","
","""event"",""trial"",""time""
""fullscreenenter"",""1"",""3503""
","
","","[{""page_index"":0,""viewing_time"":1790.2000000029802}]","1790.7999999970198","","","","","","","","","","","","","","","","","","","","","","","",""
"pit-comprehension","111","878634","0.0-2.0-24.0-0.0","battery-v0.2","","""event"",""trial"",""time""
""fullscreenenter"",""1"",""3503""
","
","
","""event"",""trial"",""time""
""fullscreenenter"",""1"",""3503""
","
","","","8630.90000000596","[""True""]","0","25","11040","5103","","","","","","","","","","","","","","","","","","",""
"pit-instructions","112","880707","0.0-2.0-24.0-1.0","battery-v0.2","","""event"",""trial"",""time""
""fullscreenenter"",""1"",""3503""
","
","
","""event"",""trial"",""time""
""fullscreenenter"",""1"",""3503""
","
","","[{""page_index"":0,""viewing_time"":2026.7000000029802}]","2027.0999999940395","","","","","","","","","","","","","","","","","","","","","","","",""
"pit-comprehension","113","888025","0.0-2.0-25.0-0.0","battery-v0.2","","""event"",""trial"",""time""
""fullscreenenter"",""1"",""3503""
","
","
","""event"",""trial"",""time""
""fullscreenenter"",""1"",""3503""
","
","","","7312.9000000059605","[""True""]","0","25","11040","5103","","","","","","","","","","","","","","","","","","",""
"pit-instructions","114","892677","0.0-2.0-25.0-1.0","battery-v0.2","","""event"",""trial"",""time""
""fullscreenenter"",""1"",""3503""
","
","
","""event"",""trial"",""time""
""fullscreenenter"",""1"",""3503""
","
","","[{""page_index"":0,""viewing_time"":4596.4000000059605}]","4596.79999999702","","","","","","","","","","","","","","","","","","","","","","","",""
"pit-comprehension","115","897444","0.0-2.0-26.0-0.0","battery-v0.2","","""event"",""trial"",""time""
""fullscreenenter"",""1"",""3503""
","
","
","""event"",""trial"",""time""
""fullscreenenter"",""1"",""3503""
","
","","","4761.0999999940395","[""False""]","0","25","11040","5103","","","","","","","","","","","","","","","","","","",""
"pit-instructions","116","899350","0.0-2.0-26.0-1.0","battery-v0.2","","""event"",""trial"",""time""
""fullscreenenter"",""1"",""3503""
","
","
","""event"",""trial"",""time""
""fullscreenenter"",""1"",""3503""
","
","","[{""page_index"":0,""viewing_time"":1858.7000000029802}]","1859","","","","","","","","","","","","","","","","","","","","","","","",""
"pit-instructions","117","931497","0.0-3.0","battery-v0.2","","""event"",""trial"",""time""
""fullscreenenter"",""1"",""3503""
","
","
","""event"",""trial"",""time""
""fullscreenenter"",""1"",""3503""
","
","","[{""page_index"":0,""viewing_time"":19193.39999999106},{""page_index"":1,""viewing_time"":5081.300000011921},{""page_index"":2,""viewing_time"":7868.899999991059}]","32143.89999999106","","","","","","","","","","","","","","","","","","","","","","","",""
"pit-trial","118","935129","0.0-4.0","battery-v0.2","","""event"",""trial"",""time""
""fullscreenenter"",""1"",""3503""
","
","
","""event"",""trial"",""time""
""fullscreenenter"",""1"",""3503""
","
","","","770.7999999970198","","","25","11040","5103","&#9752;","elianto","#f73b6a7A"," "," ","1","0","[1624.1000000089407]","1","1","","","11040","1","3","3","lose","go","0"
"pit-trial","119","938810","0.0-5.0","battery-v0.2","","""event"",""trial"",""time""
""fullscreenenter"",""1"",""3503""
","
","
","""event"",""trial"",""time""
""fullscreenenter"",""1"",""3503""
","
","","","815.5","","","25","11040","5103","&#9728;","elianto","#f73b6a7A","-1"," ","0","-10","[1670.5]","1","1","","","11040","2","0","4","lose","no-go","0"
"pit-trial","120","942944","0.0-6.0","battery-v0.2","","""event"",""trial"",""time""
""fullscreenenter"",""1"",""3503""
","
","
","""event"",""trial"",""time""
""fullscreenenter"",""1"",""3503""
","
","","","1267.5","","","25","11040","5103","&#9733;","elianto","#3366ff99","-1"," ","0","0","[2125.7000000029802]","1","1","","","11040","3","2","2","win","no-go","0"
"pit-trial","121","946834","0.0-7.0","battery-v0.2","","""event"",""trial"",""time""
""fullscreenenter"",""1"",""3503""
","
","
","""event"",""trial"",""time""
""fullscreenenter"",""1"",""3503""
","
","","","1014.7999999970198","","","25","11040","5103","&#9730;","elianto","#3366ff99"," "," ","1","+10","[1872.2999999970198]","1","1","","","11040","4","1","1","win","go","0"
"pit-trial","122","951711","0.0-8.0","battery-v0.2","","""event"",""trial"",""time""
""fullscreenenter"",""1"",""3503""
","
","
","""event"",""trial"",""time""
""fullscreenenter"",""1"",""3503""
","
","","","-1","","","25","11040","5103","&#9733;","elianto","#3366ff99","-1","-1","1","+10","[]","0","1","","","11040","5","2","2","win","no-go","0"
"pit-trial","123","956580","0.0-9.0","battery-v0.2","","""event"",""trial"",""time""
""fullscreenenter"",""1"",""3503""
","
","
","""event"",""trial"",""time""
""fullscreenenter"",""1"",""3503""
","
","","","-1","","","25","11040","5103","&#9728;","elianto","#f73b6a7A","-1","-1","1","0","[]","0","1","","","11040","6","0","4","lose","no-go","0"
"pit-trial","124","960461","0.0-10.0","battery-v0.2","","""event"",""trial"",""time""
""fullscreenenter"",""1"",""3503""
","
","
","""event"",""trial"",""time""
""fullscreenenter"",""1"",""3503""
","
","","","1010.7999999970198","","","25","11040","5103","&#9752;","elianto","#f73b6a7A"," "," ","1","0","[1865.2000000029802]","1","1","","","11040","7","3","3","lose","go","0"
"pit-trial","125","964305","0.0-11.0","battery-v0.2","","""event"",""trial"",""time""
""fullscreenenter"",""1"",""3503""
","
","
","""event"",""trial"",""time""
""fullscreenenter"",""1"",""3503""
","
","","","989.2000000029802","","","25","11040","5103","&#9730;","elianto","#3366ff99"," "," ","1","+10","[1839.6000000089407]","1","1","","","11040","8","1","1","win","go","0"
"pit-trial","126","968421","0.0-12.0","battery-v0.2","","""event"",""trial"",""time""
""fullscreenenter"",""1"",""3503""
","
","
","""event"",""trial"",""time""
""fullscreenenter"",""1"",""3503""
","
","","","1262.699999988079","","","25","11040","5103","&#9752;","elianto","#f73b6a7A"," "," ","1","0","[2113.7999999970198]","1","1","","","11040","9","3","3","lose","go","0"
"pit-trial","127","973275","0.0-13.0","battery-v0.2","","""event"",""trial"",""time""
""fullscreenenter"",""1"",""3503""
","
","
","""event"",""trial"",""time""
""fullscreenenter"",""1"",""3503""
","
","","","-1","","","25","11040","5103","&#9728;","elianto","#f73b6a7A","-1","-1","1","0","[]","0","1","","","11040","10","0","4","lose","no-go","0"
"pit-trial","128","977679","0.0-14.0","battery-v0.2","","""event"",""trial"",""time""
""fullscreenenter"",""1"",""3503""
","
","
","""event"",""trial"",""time""
""fullscreenenter"",""1"",""3503""
","
","","","1550.300000011921","","","25","11040","5103","&#9730;","elianto","#3366ff99"," "," ","1","+10","[2400.7000000029802]","1","1","","","11040","11","1","1","win","go","0"
"pit-trial","129","982533","0.0-15.0","battery-v0.2","","""event"",""trial"",""time""
""fullscreenenter"",""1"",""3503""
","
","
","""event"",""trial"",""time""
""fullscreenenter"",""1"",""3503""
","
","","","-1","","","25","11040","5103","&#9733;","elianto","#3366ff99","-1","-1","1","+10","[]","0","1","","","11040","12","2","2","win","no-go","0"
"pit-trial","130","987392","0.0-16.0","battery-v0.2","","""event"",""trial"",""time""
""fullscreenenter"",""1"",""3503""
","
","
","""event"",""trial"",""time""
""fullscreenenter"",""1"",""3503""
","
","","","-1","","","25","11040","5103","&#9728;","elianto","#f73b6a7A","-1","-1","1","0","[]","0","1","","","11040","13","0","4","lose","no-go","0"
"pit-trial","131","992245","0.0-17.0","battery-v0.2","","""event"",""trial"",""time""
""fullscreenenter"",""1"",""3503""
","
","
","""event"",""trial"",""time""
""fullscreenenter"",""1"",""3503""
","
","","","-1","","","25","11040","5103","&#9733;","elianto","#3366ff99","-1","-1","1","+10","[]","0","1","","","11040","14","2","2","win","no-go","0"
"pit-trial","132","995980","0.0-18.0","battery-v0.2","","""event"",""trial"",""time""
""fullscreenenter"",""1"",""3503""
","
","
","""event"",""trial"",""time""
""fullscreenenter"",""1"",""3503""
","
","","","880.0999999940395","","","25","11040","5103","&#9752;","elianto","#f73b6a7A"," "," ","1","0","[1731]","1","1","","","11040","15","3","3","lose","go","0"
"pit-trial","133","999372","0.0-19.0","battery-v0.2","","""event"",""trial"",""time""
""fullscreenenter"",""1"",""3503""
","
","
","""event"",""trial"",""time""
""fullscreenenter"",""1"",""3503""
","
","","","537.7999999970198","","","25","11040","5103","&#9730;","elianto","#3366ff99"," "," ","1","+10","[1388.7000000029802]","1","1","","","11040","16","1","1","win","go","0"
"pit-trial","134","1003070","0.0-20.0","battery-v0.2","","""event"",""trial"",""time""
""fullscreenenter"",""1"",""3503""
","
","
","""event"",""trial"",""time""
""fullscreenenter"",""1"",""3503""
","
","","","844.2999999970198","","","25","11040","5103","&#9752;","elianto","#f73b6a7A"," "," ","1","0","[1694.9000000059605]","1","1","","","11040","17","3","3","lose","go","0"
"pit-trial","135","1007924","0.0-21.0","battery-v0.2","","""event"",""trial"",""time""
""fullscreenenter"",""1"",""3503""
","
","
","""event"",""trial"",""time""
""fullscreenenter"",""1"",""3503""
","
","","","-1","","","25","11040","5103","&#9728;","elianto","#f73b6a7A","-1","-1","1","-10","[]","0","1","","","11040","18","0","4","lose","no-go","1"
"pit-trial","136","1012779","0.0-22.0","battery-v0.2","","""event"",""trial"",""time""
""fullscreenenter"",""1"",""3503""
","
","
","""event"",""trial"",""time""
""fullscreenenter"",""1"",""3503""
","
","","","-1","","","25","11040","5103","&#9733;","elianto","#3366ff99","-1","-1","1","+10","[]","0","1","","","11040","19","2","2","win","no-go","0"
"pit-trial","137","1016207","0.0-23.0","battery-v0.2","","""event"",""trial"",""time""
""fullscreenenter"",""1"",""3503""
","
","
","""event"",""trial"",""time""
""fullscreenenter"",""1"",""3503""
","
","","","573.5","","","25","11040","5103","&#9730;","elianto","#3366ff99"," "," ","1","+10","[1424.7000000029802]","1","1","","","11040","20","1","1","win","go","0"
"pit-instructions","138","1030242","0.0-24.0","battery-v0.2","","""event"",""trial"",""time""
""fullscreenenter"",""1"",""3503""
","
","
","""event"",""trial"",""time""
""fullscreenenter"",""1"",""3503""
","
","","[{""page_index"":0,""viewing_time"":6369},{""page_index"":1,""viewing_time"":7664.5}]","14033.800000011921","","","","","","","","","","","","","","","","","","","","","","","",""
"pit-trial","139","1034016","0.0-25.0","battery-v0.2","","""event"",""trial"",""time""
""fullscreenenter"",""1"",""3503""
","
","
","""event"",""trial"",""time""
""fullscreenenter"",""1"",""3503""
","
","","","904.3999999910593","","","25","11040","5103","u","elianto","#f73b6a7A"," "," ","1","0","[1760.4000000059605]","1","2","","","11040","21","0","3","lose","go","0"
"pit-trial","140","1037731","0.0-26.0","battery-v0.2","","""event"",""trial"",""time""
""fullscreenenter"",""1"",""3503""
","
","
","""event"",""trial"",""time""
""fullscreenenter"",""1"",""3503""
","
","","","852.2000000029802","","","25","11040","5103","g","elianto","#f73b6a7A","-1"," ","0","-10","[1703.6000000089407]","1","2","","","11040","22","3","4","lose","no-go","0"
"pit-trial","141","1041159","0.0-27.0","battery-v0.2","","""event"",""trial"",""time""
""fullscreenenter"",""1"",""3503""
","
","
","""event"",""trial"",""time""
""fullscreenenter"",""1"",""3503""
","
","","","562.0999999940395","","","25","11040","5103","l","elianto","#3366ff99","-1"," ","0","0","[1412.4000000059605]","1","2","","","11040","23","1","2","win","no-go","0"
"pit-trial","142","1044729","0.0-28.0","battery-v0.2","","""event"",""trial"",""time""
""fullscreenenter"",""1"",""3503""
","
","
","""event"",""trial"",""time""
""fullscreenenter"",""1"",""3503""
","
","","","701.3000000119209","","","25","11040","5103","a","elianto","#f73b6a7A"," "," ","1","0","[1555.8999999910593]","1","2","","","11040","24","2","3","lose","go","0"
"pit-trial","143","1048342","0.0-29.0","battery-v0.2","","""event"",""trial"",""time""
""fullscreenenter"",""1"",""3503""
","
","
","""event"",""trial"",""time""
""fullscreenenter"",""1"",""3503""
","
","","","754.6999999880791","","","25","11040","5103","g","elianto","#f73b6a7A","-1"," ","0","-10","[1605.2999999970198]","1","2","","","11040","25","3","4","lose","no-go","0"
"pit-trial","144","1052173","0.0-30.0","battery-v0.2","","""event"",""trial"",""time""
""fullscreenenter"",""1"",""3503""
","
","
","""event"",""trial"",""time""
""fullscreenenter"",""1"",""3503""
","
","","","959.2000000029802","","","25","11040","5103","u","elianto","#f73b6a7A"," "," ","1","0","[1813.9000000059605]","1","2","","","11040","26","0","3","lose","go","0"
"pit-trial","145","1055780","0.0-31.0","battery-v0.2","","""event"",""trial"",""time""
""fullscreenenter"",""1"",""3503""
","
","
","""event"",""trial"",""time""
""fullscreenenter"",""1"",""3503""
","
","","","736.2999999970198","","","25","11040","5103","a","elianto","#f73b6a7A"," "," ","1","0","[1593.7000000029802]","1","2","","","11040","27","2","3","lose","go","0"
"pit-trial","146","1060649","0.0-32.0","battery-v0.2","","""event"",""trial"",""time""
""fullscreenenter"",""1"",""3503""
","
","
","""event"",""trial"",""time""
""fullscreenenter"",""1"",""3503""
","
","","","-1","","","25","11040","5103","l","elianto","#3366ff99","-1","-1","1","+10","[]","0","2","","","11040","28","1","2","win","no-go","0"
"pit-trial","147","1064202","0.0-33.0","battery-v0.2","","""event"",""trial"",""time""
""fullscreenenter"",""1"",""3503""
","
","
","""event"",""trial"",""time""
""fullscreenenter"",""1"",""3503""
","
","","","699.3999999910593","","","25","11040","5103","u","elianto","#f73b6a7A"," "," ","1","0","[1550]","1","2","","","11040","29","0","3","lose","go","0"
"pit-trial","148","1069055","0.0-34.0","battery-v0.2","","""event"",""trial"",""time""
""fullscreenenter"",""1"",""3503""
","
","
","""event"",""trial"",""time""
""fullscreenenter"",""1"",""3503""
","
","","","-1","","","25","11040","5103","g","elianto","#f73b6a7A","-1","-1","1","-10","[]","0","2","","","11040","30","3","4","lose","no-go","1"
"pit-trial","149","1072582","0.0-35.0","battery-v0.2","","""event"",""trial"",""time""
""fullscreenenter"",""1"",""3503""
","
","
","""event"",""trial"",""time""
""fullscreenenter"",""1"",""3503""
","
","","","671.9000000059605","","","25","11040","5103","a","elianto","#f73b6a7A"," "," ","1","0","[1523.3999999910593]","1","2","","","11040","31","2","3","lose","go","0"
"pit-trial","150","1077437","0.0-36.0","battery-v0.2","","""event"",""trial"",""time""
""fullscreenenter"",""1"",""3503""
","
","
","""event"",""trial"",""time""
""fullscreenenter"",""1"",""3503""
","
","","","-1","","","25","11040","5103","l","elianto","#3366ff99","-1","-1","1","+10","[]","0","2","","","11040","32","1","2","win","no-go","0"
"pit-trial","151","1082291","0.0-37.0","battery-v0.2","","""event"",""trial"",""time""
""fullscreenenter"",""1"",""3503""
","
","
","""event"",""trial"",""time""
""fullscreenenter"",""1"",""3503""
","
","","","-1","","","25","11040","5103","g","elianto","#f73b6a7A","-1","-1","1","-10","[]","0","2","","","11040","33","3","4","lose","no-go","1"
"pit-trial","152","1085781","0.0-38.0","battery-v0.2","","""event"",""trial"",""time""
""fullscreenenter"",""1"",""3503""
","
","
","""event"",""trial"",""time""
""fullscreenenter"",""1"",""3503""
","
","","","637.1000000089407","","","25","11040","5103","a","elianto","#f73b6a7A"," "," ","1","-10","[1487.300000011921]","1","2","","","11040","34","2","3","lose","go","1"
"pit-trial","153","1089320","0.0-39.0","battery-v0.2","","""event"",""trial"",""time""
""fullscreenenter"",""1"",""3503""
","
","
","""event"",""trial"",""time""
""fullscreenenter"",""1"",""3503""
","
","","","685.9000000059605","","","25","11040","5103","u","elianto","#f73b6a7A"," "," ","1","0","[1536.2999999970198]","1","2","","","11040","35","0","3","lose","go","0"
"pit-trial","154","1094174","0.0-40.0","battery-v0.2","","""event"",""trial"",""time""
""fullscreenenter"",""1"",""3503""
","
","
","""event"",""trial"",""time""
""fullscreenenter"",""1"",""3503""
","
","","","-1","","","25","11040","5103","l","elianto","#3366ff99","-1","-1","1","+10","[]","0","2","","","11040","36","1","2","win","no-go","0"
"pit-trial","155","1099034","0.0-41.0","battery-v0.2","","""event"",""trial"",""time""
""fullscreenenter"",""1"",""3503""
","
","
","""event"",""trial"",""time""
""fullscreenenter"",""1"",""3503""
","
","","","-1","","","25","11040","5103","l","elianto","#3366ff99","-1","-1","1","+10","[]","0","2","","","11040","37","1","2","win","no-go","0"
"pit-trial","156","1103888","0.0-42.0","battery-v0.2","","""event"",""trial"",""time""
""fullscreenenter"",""1"",""3503""
","
","
","""event"",""trial"",""time""
""fullscreenenter"",""1"",""3503""
","
","","","-1","","","25","11040","5103","g","elianto","#f73b6a7A","-1","-1","1","0","[]","0","2","","","11040","38","3","4","lose","no-go","0"
"pit-trial","157","1107279","0.0-43.0","battery-v0.2","","""event"",""trial"",""time""
""fullscreenenter"",""1"",""3503""
","
","
","""event"",""trial"",""time""
""fullscreenenter"",""1"",""3503""
","
","","","538","","","25","11040","5103","u","elianto","#f73b6a7A"," "," ","1","0","[1388.5]","1","2","","","11040","39","0","3","lose","go","0"
"pit-trial","158","1110802","0.0-44.0","battery-v0.2","","""event"",""trial"",""time""
""fullscreenenter"",""1"",""3503""
","
","
","""event"",""trial"",""time""
""fullscreenenter"",""1"",""3503""
","
","","","668.0999999940395","","","25","11040","5103","a","elianto","#f73b6a7A"," "," ","1","0","[1519.2000000029802]","1","2","","","11040","40","2","3","lose","go","0"
"pit-trial","159","1114722","0.0-45.0","battery-v0.2","","""event"",""trial"",""time""
""fullscreenenter"",""1"",""3503""
","
","
","""event"",""trial"",""time""
""fullscreenenter"",""1"",""3503""
","
","","","1066.2999999970198","","","25","11040","5103","a","elianto","#f73b6a7A"," "," ","1","0","[1917.2000000029802]","1","2","","","11040","41","2","3","lose","go","0"
"pit-trial","160","1118253","0.0-46.0","battery-v0.2","","""event"",""trial"",""time""
""fullscreenenter"",""1"",""3503""
","
","
","""event"",""trial"",""time""
""fullscreenenter"",""1"",""3503""
","
","","","678.0999999940395","","","25","11040","5103","u","elianto","#f73b6a7A"," "," ","1","0","[1528.3999999910593]","1","2","","","11040","42","0","3","lose","go","0"
"pit-trial","161","1123108","0.0-47.0","battery-v0.2","","""event"",""trial"",""time""
""fullscreenenter"",""1"",""3503""
","
","
","""event"",""trial"",""time""
""fullscreenenter"",""1"",""3503""
","
","","","-1","","","25","11040","5103","l","elianto","#3366ff99","-1","-1","1","+10","[]","0","2","","","11040","43","1","2","win","no-go","0"
"pit-trial","162","1127962","0.0-48.0","battery-v0.2","","""event"",""trial"",""time""
""fullscreenenter"",""1"",""3503""
","
","
","""event"",""trial"",""time""
""fullscreenenter"",""1"",""3503""
","
","","","-1","","","25","11040","5103","g","elianto","#f73b6a7A","-1","-1","1","0","[]","0","2","","","11040","44","3","4","lose","no-go","0"
"pit-trial","163","1132816","0.0-49.0","battery-v0.2","","""event"",""trial"",""time""
""fullscreenenter"",""1"",""3503""
","
","
","""event"",""trial"",""time""
""fullscreenenter"",""1"",""3503""
","
","","","-1","","","25","11040","5103","g","elianto","#f73b6a7A","-1","-1","1","0","[]","0","2","","","11040","45","3","4","lose","no-go","0"
"pit-trial","164","1136338","0.0-50.0","battery-v0.2","","""event"",""trial"",""time""
""fullscreenenter"",""1"",""3503""
","
","
","""event"",""trial"",""time""
""fullscreenenter"",""1"",""3503""
","
","","","668.0999999940395","","","25","11040","5103","a","elianto","#f73b6a7A"," "," ","1","0","[1519.4000000059605]","1","2","","","11040","46","2","3","lose","go","0"
"pit-trial","165","1139739","0.0-51.0","battery-v0.2","","""event"",""trial"",""time""
""fullscreenenter"",""1"",""3503""
","
","
","""event"",""trial"",""time""
""fullscreenenter"",""1"",""3503""
","
","","","548.3000000119209","","","25","11040","5103","u","elianto","#f73b6a7A"," "," ","1","-10","[1398.7000000029802]","1","2","","","11040","47","0","3","lose","go","1"
"pit-trial","166","1144594","0.0-52.0","battery-v0.2","","""event"",""trial"",""time""
""fullscreenenter"",""1"",""3503""
","
","
","""event"",""trial"",""time""
""fullscreenenter"",""1"",""3503""
","
","","","-1","","","25","11040","5103","l","elianto","#3366ff99","-1","-1","1","+10","[]","0","2","","","11040","48","1","2","win","no-go","0"
"pit-trial","167","1149448","0.0-53.0","battery-v0.2","","""event"",""trial"",""time""
""fullscreenenter"",""1"",""3503""
","
","
","""event"",""trial"",""time""
""fullscreenenter"",""1"",""3503""
","
","","","-1","","","25","11040","5103","g","elianto","#f73b6a7A","-1","-1","1","-10","[]","0","2","","","11040","49","3","4","lose","no-go","1"
"pit-trial","168","1153131","0.0-54.0","battery-v0.2","","""event"",""trial"",""time""
""fullscreenenter"",""1"",""3503""
","
","
","""event"",""trial"",""time""
""fullscreenenter"",""1"",""3503""
","
","","","829.1999999880791","","","25","11040","5103","a","elianto","#f73b6a7A"," "," ","1","0","[1679.2999999970198]","1","2","","","11040","50","2","3","lose","go","0"
"pit-trial","169","1156668","0.0-55.0","battery-v0.2","","""event"",""trial"",""time""
""fullscreenenter"",""1"",""3503""
","
","
","""event"",""trial"",""time""
""fullscreenenter"",""1"",""3503""
","
","","","683.3999999910593","","","25","11040","5103","u","elianto","#f73b6a7A"," "," ","1","0","[1534.2999999970198]","1","2","","","11040","51","0","3","lose","go","0"
"pit-trial","170","1161521","0.0-56.0","battery-v0.2","","""event"",""trial"",""time""
""fullscreenenter"",""1"",""3503""
","
","
","""event"",""trial"",""time""
""fullscreenenter"",""1"",""3503""
","
","","","-1","","","25","11040","5103","l","elianto","#3366ff99","-1","-1","1","+10","[]","0","2","","","11040","52","1","2","win","no-go","0"
"pit-trial","171","1166375","0.0-57.0","battery-v0.2","","""event"",""trial"",""time""
""fullscreenenter"",""1"",""3503""
","
","
","""event"",""trial"",""time""
""fullscreenenter"",""1"",""3503""
","
","","","-1","","","25","11040","5103","g","elianto","#f73b6a7A","-1","-1","1","0","[]","0","2","","","11040","53","3","4","lose","no-go","0"
"pit-trial","172","1171229","0.0-58.0","battery-v0.2","","""event"",""trial"",""time""
""fullscreenenter"",""1"",""3503""
","
","
","""event"",""trial"",""time""
""fullscreenenter"",""1"",""3503""
","
","","","-1","","","25","11040","5103","l","elianto","#3366ff99","-1","-1","1","0","[]","0","2","","","11040","54","1","2","win","no-go","1"
"pit-trial","173","1174665","0.0-59.0","battery-v0.2","","""event"",""trial"",""time""
""fullscreenenter"",""1"",""3503""
","
","
","""event"",""trial"",""time""
""fullscreenenter"",""1"",""3503""
","
","","","583.8999999910593","","","25","11040","5103","u","elianto","#f73b6a7A"," "," ","1","0","[1434.4000000059605]","1","2","","","11040","55","0","3","lose","go","0"
"pit-trial","174","1178114","0.0-60.0","battery-v0.2","","""event"",""trial"",""time""
""fullscreenenter"",""1"",""3503""
","
","
","""event"",""trial"",""time""
""fullscreenenter"",""1"",""3503""
","
","","","595.3999999910593","","","25","11040","5103","a","elianto","#f73b6a7A"," "," ","1","0","[1445.7999999970198]","1","2","","","11040","56","2","3","lose","go","0"
"pit-trial","175","1181804","0.0-61.0","battery-v0.2","","""event"",""trial"",""time""
""fullscreenenter"",""1"",""3503""
","
","
","""event"",""trial"",""time""
""fullscreenenter"",""1"",""3503""
","
","","","837.0999999940395","","","25","11040","5103","a","elianto","#f73b6a7A"," "," ","1","-10","[1687.8999999910593]","1","2","","","11040","57","2","3","lose","go","1"
"pit-trial","176","1186368","0.0-62.0","battery-v0.2","","""event"",""trial"",""time""
""fullscreenenter"",""1"",""3503""
","
","
","""event"",""trial"",""time""
""fullscreenenter"",""1"",""3503""
","
","","","1710.4000000059605","","","25","11040","5103","p","elianto","#3366ff99"," "," ","1","+10","[2560.6000000089407]","1","2","","","11040","58","4","1","win","go","0"
"pit-trial","177","1190476","0.0-63.0","battery-v0.2","","""event"",""trial"",""time""
""fullscreenenter"",""1"",""3503""
","
","
","""event"",""trial"",""time""
""fullscreenenter"",""1"",""3503""
","
","","","1251.5","","","25","11040","5103","u","elianto","#f73b6a7A"," "," ","1","0","[2103.0999999940395]","1","2","","","11040","59","0","3","lose","go","0"
"pit-trial","178","1195330","0.0-64.0","battery-v0.2","","""event"",""trial"",""time""
""fullscreenenter"",""1"",""3503""
","
","
","""event"",""trial"",""time""
""fullscreenenter"",""1"",""3503""
","
","","","-1","","","25","11040","5103","g","elianto","#f73b6a7A","-1","-1","1","-10","[]","0","2","","","11040","60","3","4","lose","no-go","1"
"pit-trial","179","1199084","0.0-65.0","battery-v0.2","","""event"",""trial"",""time""
""fullscreenenter"",""1"",""3503""
","
","
","""event"",""trial"",""time""
""fullscreenenter"",""1"",""3503""
","
","","","900.1000000089407","","","25","11040","5103","a","elianto","#f73b6a7A"," "," ","1","0","[1750.7000000029802]","1","2","","","11040","61","2","3","lose","go","0"
"pit-trial","180","1202900","0.0-66.0","battery-v0.2","","""event"",""trial"",""time""
""fullscreenenter"",""1"",""3503""
","
","
","""event"",""trial"",""time""
""fullscreenenter"",""1"",""3503""
","
","","","960.3999999910593","","","25","11040","5103","p","elianto","#3366ff99"," "," ","1","0","[1811.5999999940395]","1","2","","","11040","62","4","1","win","go","1"
"pit-trial","181","1207043","0.0-67.0","battery-v0.2","","""event"",""trial"",""time""
""fullscreenenter"",""1"",""3503""
","
","
","""event"",""trial"",""time""
""fullscreenenter"",""1"",""3503""
","
","","","1288.9000000059605","","","25","11040","5103","g","elianto","#f73b6a7A","-1"," ","0","0","[2140.2000000029802]","1","2","","","11040","63","3","4","lose","no-go","1"
"pit-trial","182","1211898","0.0-68.0","battery-v0.2","","""event"",""trial"",""time""
""fullscreenenter"",""1"",""3503""
","
","
","""event"",""trial"",""time""
""fullscreenenter"",""1"",""3503""
","
","","","-1","","","25","11040","5103","l","elianto","#3366ff99","-1","-1","1","0","[]","0","2","","","11040","64","1","2","win","no-go","1"
"pit-trial","183","1215620","0.0-69.0","battery-v0.2","","""event"",""trial"",""time""
""fullscreenenter"",""1"",""3503""
","
","
","""event"",""trial"",""time""
""fullscreenenter"",""1"",""3503""
","
","","","867.2000000029802","","","25","11040","5103","p","elianto","#3366ff99"," "," ","1","+10","[1718.2000000029802]","1","2","","","11040","65","4","1","win","go","0"
"pit-trial","184","1219562","0.0-70.0","battery-v0.2","","""event"",""trial"",""time""
""fullscreenenter"",""1"",""3503""
","
","
","""event"",""trial"",""time""
""fullscreenenter"",""1"",""3503""
","
","","","1088.800000011921","","","25","11040","5103","g","elianto","#f73b6a7A","-1"," ","0","-10","[1939.300000011921]","1","2","","","11040","66","3","4","lose","no-go","0"
"pit-trial","185","1224417","0.0-71.0","battery-v0.2","","""event"",""trial"",""time""
""fullscreenenter"",""1"",""3503""
","
","
","""event"",""trial"",""time""
""fullscreenenter"",""1"",""3503""
","
","","","-1","","","25","11040","5103","l","elianto","#3366ff99","-1","-1","1","+10","[]","0","2","","","11040","67","1","2","win","no-go","0"
"pit-trial","186","1228673","0.0-72.0","battery-v0.2","","""event"",""trial"",""time""
""fullscreenenter"",""1"",""3503""
","
","
","""event"",""trial"",""time""
""fullscreenenter"",""1"",""3503""
","
","","","1400.8999999910593","","","25","11040","5103","s","elianto","#3366ff99","-1"," ","0","+10","[2251.7000000029802]","1","2","","","11040","68","5","2","win","no-go","1"
"pit-trial","187","1232425","0.0-73.0","battery-v0.2","","""event"",""trial"",""time""
""fullscreenenter"",""1"",""3503""
","
","
","""event"",""trial"",""time""
""fullscreenenter"",""1"",""3503""
","
","","","898.7000000029802","","","25","11040","5103","s","elianto","#3366ff99","-1"," ","0","+10","[1749.8999999910593]","1","2","","","11040","69","5","2","win","no-go","1"
"pit-trial","188","1236034","0.0-74.0","battery-v0.2","","""event"",""trial"",""time""
""fullscreenenter"",""1"",""3503""
","
","
","""event"",""trial"",""time""
""fullscreenenter"",""1"",""3503""
","
","","","755.1999999880791","","","25","11040","5103","p","elianto","#3366ff99"," "," ","1","+10","[1606.0999999940395]","1","2","","","11040","70","4","1","win","go","0"
"pit-trial","189","1240903","0.0-75.0","battery-v0.2","","""event"",""trial"",""time""
""fullscreenenter"",""1"",""3503""
","
","
","""event"",""trial"",""time""
""fullscreenenter"",""1"",""3503""
","
","","","-1","","","25","11040","5103","l","elianto","#3366ff99","-1","-1","1","+10","[]","0","2","","","11040","71","1","2","win","no-go","0"
"pit-trial","190","1244572","0.0-76.0","battery-v0.2","","""event"",""trial"",""time""
""fullscreenenter"",""1"",""3503""
","
","
","""event"",""trial"",""time""
""fullscreenenter"",""1"",""3503""
","
","","","814.4000000059605","","","25","11040","5103","a","elianto","#f73b6a7A"," "," ","1","0","[1666]","1","2","","","11040","72","2","3","lose","go","0"
"pit-trial","191","1249427","0.0-77.0","battery-v0.2","","""event"",""trial"",""time""
""fullscreenenter"",""1"",""3503""
","
","
","""event"",""trial"",""time""
""fullscreenenter"",""1"",""3503""
","
","","","-1","","","25","11040","5103","l","elianto","#3366ff99","-1","-1","1","+10","[]","0","2","","","11040","73","1","2","win","no-go","0"
"pit-trial","192","1252995","0.0-78.0","battery-v0.2","","""event"",""trial"",""time""
""fullscreenenter"",""1"",""3503""
","
","
","""event"",""trial"",""time""
""fullscreenenter"",""1"",""3503""
","
","","","713","","","25","11040","5103","p","elianto","#3366ff99"," "," ","1","+10","[1563.2999999970198]","1","2","","","11040","74","4","1","win","go","0"
"pit-trial","193","1256494","0.0-79.0","battery-v0.2","","""event"",""trial"",""time""
""fullscreenenter"",""1"",""3503""
","
","
","""event"",""trial"",""time""
""fullscreenenter"",""1"",""3503""
","
","","","644.5","","","25","11040","5103","s","elianto","#3366ff99","-1"," ","0","0","[1495.9000000059605]","1","2","","","11040","75","5","2","win","no-go","0"
"pit-trial","194","1261348","0.0-80.0","battery-v0.2","","""event"",""trial"",""time""
""fullscreenenter"",""1"",""3503""
","
","
","""event"",""trial"",""time""
""fullscreenenter"",""1"",""3503""
","
","","","-1","","","25","11040","5103","g","elianto","#f73b6a7A","-1","-1","1","0","[]","0","2","","","11040","76","3","4","lose","no-go","0"
"pit-trial","195","1264929","0.0-81.0","battery-v0.2","","""event"",""trial"",""time""
""fullscreenenter"",""1"",""3503""
","
","
","""event"",""trial"",""time""
""fullscreenenter"",""1"",""3503""
","
","","","728.4000000059605","","","25","11040","5103","p","elianto","#3366ff99"," "," ","1","+10","[1578.5]","1","2","","","11040","77","4","1","win","go","0"
"pit-trial","196","1269784","0.0-82.0","battery-v0.2","","""event"",""trial"",""time""
""fullscreenenter"",""1"",""3503""
","
","
","""event"",""trial"",""time""
""fullscreenenter"",""1"",""3503""
","
","","","-1","","","25","11040","5103","g","elianto","#f73b6a7A","-1","-1","1","0","[]","0","2","","","11040","78","3","4","lose","no-go","0"
"pit-trial","197","1273666","0.0-83.0","battery-v0.2","","""event"",""trial"",""time""
""fullscreenenter"",""1"",""3503""
","
","
","""event"",""trial"",""time""
""fullscreenenter"",""1"",""3503""
","
","","","1028.300000011921","","","25","11040","5103","s","elianto","#3366ff99","-1"," ","0","0","[1879.1000000089407]","1","2","","","11040","79","5","2","win","no-go","0"
"pit-trial","198","1277181","0.0-84.0","battery-v0.2","","""event"",""trial"",""time""
""fullscreenenter"",""1"",""3503""
","
","
","""event"",""trial"",""time""
""fullscreenenter"",""1"",""3503""
","
","","","653.7000000029802","","","25","11040","5103","p","elianto","#3366ff99"," "," ","1","+10","[1512.2999999970198]","1","2","","","11040","80","4","1","win","go","0"
"pit-trial","199","1282035","0.0-85.0","battery-v0.2","","""event"",""trial"",""time""
""fullscreenenter"",""1"",""3503""
","
","
","""event"",""trial"",""time""
""fullscreenenter"",""1"",""3503""
","
","","","-1","","","25","11040","5103","g","elianto","#f73b6a7A","-1","-1","1","0","[]","0","2","","","11040","81","3","4","lose","no-go","0"
"pit-trial","200","1285604","0.0-86.0","battery-v0.2","","""event"",""trial"",""time""
""fullscreenenter"",""1"",""3503""
","
","
","""event"",""trial"",""time""
""fullscreenenter"",""1"",""3503""
","
","","","714.1000000089407","","","25","11040","5103","p","elianto","#3366ff99"," "," ","1","+10","[1564.7000000029802]","1","2","","","11040","82","4","1","win","go","0"
"pit-trial","201","1289989","0.0-87.0","battery-v0.2","","""event"",""trial"",""time""
""fullscreenenter"",""1"",""3503""
","
","
","""event"",""trial"",""time""
""fullscreenenter"",""1"",""3503""
","
","","","1530.6000000089407","","","25","11040","5103","e","elianto","#f73b6a7A","-1"," ","0","-10","[2381.8999999910593]","1","2","","","11040","83","7","4","lose","no-go","0"
"pit-trial","202","1294022","0.0-88.0","battery-v0.2","","""event"",""trial"",""time""
""fullscreenenter"",""1"",""3503""
","
","
","""event"",""trial"",""time""
""fullscreenenter"",""1"",""3503""
","
","","","1178.7999999970198","","","25","11040","5103","s","elianto","#3366ff99","-1"," ","0","0","[2029.7999999970198]","1","2","","","11040","84","5","2","win","no-go","0"
"pit-trial","203","1298346","0.0-89.0","battery-v0.2","","""event"",""trial"",""time""
""fullscreenenter"",""1"",""3503""
","
","
","""event"",""trial"",""time""
""fullscreenenter"",""1"",""3503""
","
","","","1470.2000000029802","","","25","11040","5103","w","elianto","#f73b6a7A"," "," ","1","-10","[2320.9000000059605]","1","2","","","11040","85","6","3","lose","go","1"
"pit-trial","204","1303200","0.0-90.0","battery-v0.2","","""event"",""trial"",""time""
""fullscreenenter"",""1"",""3503""
","
","
","""event"",""trial"",""time""
""fullscreenenter"",""1"",""3503""
","
","","","-1","","","25","11040","5103","e","elianto","#f73b6a7A","-1","-1","1","0","[]","0","2","","","11040","86","7","4","lose","no-go","0"
"pit-trial","205","1308059","0.0-91.0","battery-v0.2","","""event"",""trial"",""time""
""fullscreenenter"",""1"",""3503""
","
","
","""event"",""trial"",""time""
""fullscreenenter"",""1"",""3503""
","
","","","-1","","","25","11040","5103","s","elianto","#3366ff99","-1","-1","1","+10","[]","0","2","","","11040","87","5","2","win","no-go","0"
"pit-trial","206","1311675","0.0-92.0","battery-v0.2","","""event"",""trial"",""time""
""fullscreenenter"",""1"",""3503""
","
","
","""event"",""trial"",""time""
""fullscreenenter"",""1"",""3503""
","
","","","761.7000000029802","","","25","11040","5103","p","elianto","#3366ff99"," "," ","1","+10","[1612.5]","1","2","","","11040","88","4","1","win","go","0"
"pit-trial","207","1316529","0.0-93.0","battery-v0.2","","""event"",""trial"",""time""
""fullscreenenter"",""1"",""3503""
","
","
","""event"",""trial"",""time""
""fullscreenenter"",""1"",""3503""
","
","","","-1","","","25","11040","5103","s","elianto","#3366ff99","-1","-1","1","+10","[]","0","2","","","11040","89","5","2","win","no-go","0"
"pit-trial","208","1320605","0.0-94.0","battery-v0.2","","""event"",""trial"",""time""
""fullscreenenter"",""1"",""3503""
","
","
","""event"",""trial"",""time""
""fullscreenenter"",""1"",""3503""
","
","","","1222.2000000029802","","","25","11040","5103","w","elianto","#f73b6a7A"," "," ","1","-10","[2072.2000000029802]","1","2","","","11040","90","6","3","lose","go","1"
"pit-trial","209","1325458","0.0-95.0","battery-v0.2","","""event"",""trial"",""time""
""fullscreenenter"",""1"",""3503""
","
","
","""event"",""trial"",""time""
""fullscreenenter"",""1"",""3503""
","
","","","-1","","","25","11040","5103","e","elianto","#f73b6a7A","-1","-1","1","0","[]","0","2","","","11040","91","7","4","lose","no-go","0"
"pit-trial","210","1329117","0.0-96.0","battery-v0.2","","""event"",""trial"",""time""
""fullscreenenter"",""1"",""3503""
","
","
","""event"",""trial"",""time""
""fullscreenenter"",""1"",""3503""
","
","","","805.5","","","25","11040","5103","p","elianto","#3366ff99"," "," ","1","+10","[1656.8999999910593]","1","2","","","11040","92","4","1","win","go","0"
"pit-trial","211","1333972","0.0-97.0","battery-v0.2","","""event"",""trial"",""time""
""fullscreenenter"",""1"",""3503""
","
","
","""event"",""trial"",""time""
""fullscreenenter"",""1"",""3503""
","
","","","-1","","","25","11040","5103","e","elianto","#f73b6a7A","-1","-1","1","0","[]","0","2","","","11040","93","7","4","lose","no-go","0"
"pit-trial","212","1338826","0.0-98.0","battery-v0.2","","""event"",""trial"",""time""
""fullscreenenter"",""1"",""3503""
","
","
","""event"",""trial"",""time""
""fullscreenenter"",""1"",""3503""
","
","","","-1","","","25","11040","5103","w","elianto","#f73b6a7A"," ","-1","0","-10","[]","0","2","","","11040","94","6","3","lose","go","0"
"pit-trial","213","1343680","0.0-99.0","battery-v0.2","","""event"",""trial"",""time""
""fullscreenenter"",""1"",""3503""
","
","
","""event"",""trial"",""time""
""fullscreenenter"",""1"",""3503""
","
","","","-1","","","25","11040","5103","s","elianto","#3366ff99","-1","-1","1","+10","[]","0","2","","","11040","95","5","2","win","no-go","0"
"pit-trial","214","1347794","0.0-100.0","battery-v0.2","","""event"",""trial"",""time""
""fullscreenenter"",""1"",""3503""
","
","
","""event"",""trial"",""time""
""fullscreenenter"",""1"",""3503""
","
","","","1260.300000011921","","","25","11040","5103","d","elianto","#3366ff99"," "," ","1","+10","[2111.2000000029802]","1","2","","","11040","96","8","1","win","go","0"
"pit-trial","215","1352648","0.0-101.0","battery-v0.2","","""event"",""trial"",""time""
""fullscreenenter"",""1"",""3503""
","
","
","""event"",""trial"",""time""
""fullscreenenter"",""1"",""3503""
","
","","","-1","","","25","11040","5103","s","elianto","#3366ff99","-1","-1","1","0","[]","0","2","","","11040","97","5","2","win","no-go","1"
"pit-trial","216","1356634","0.0-102.0","battery-v0.2","","""event"",""trial"",""time""
""fullscreenenter"",""1"",""3503""
","
","
","""event"",""trial"",""time""
""fullscreenenter"",""1"",""3503""
","
","","","1132.7999999970198","","","25","11040","5103","w","elianto","#f73b6a7A"," "," ","1","0","[1983.5]","1","2","","","11040","98","6","3","lose","go","0"
"pit-trial","217","1361488","0.0-103.0","battery-v0.2","","""event"",""trial"",""time""
""fullscreenenter"",""1"",""3503""
","
","
","""event"",""trial"",""time""
""fullscreenenter"",""1"",""3503""
","
","","","-1","","","25","11040","5103","e","elianto","#f73b6a7A","-1","-1","1","-10","[]","0","2","","","11040","99","7","4","lose","no-go","1"
"pit-trial","218","1365650","0.0-104.0","battery-v0.2","","""event"",""trial"",""time""
""fullscreenenter"",""1"",""3503""
","
","
","""event"",""trial"",""time""
""fullscreenenter"",""1"",""3503""
","
","","","1308.2000000029802","","","25","11040","5103","d","elianto","#3366ff99"," "," ","1","+10","[2158.8999999910593]","1","2","","","11040","100","8","1","win","go","0"
"pit-trial","219","1369193","0.0-105.0","battery-v0.2","","""event"",""trial"",""time""
""fullscreenenter"",""1"",""3503""
","
","
","""event"",""trial"",""time""
""fullscreenenter"",""1"",""3503""
","
","","","689.7000000029802","","","25","11040","5103","d","elianto","#3366ff99"," "," ","1","+10","[1539.8999999910593]","1","2","","","11040","101","8","1","win","go","0"
"pit-trial","220","1373443","0.0-106.0","battery-v0.2","","""event"",""trial"",""time""
""fullscreenenter"",""1"",""3503""
","
","
","""event"",""trial"",""time""
""fullscreenenter"",""1"",""3503""
","
","","","1395.7000000029802","","","25","11040","5103","j","elianto","#3366ff99"," "," ","1","+10","[2246.2999999970198]","1","2","","","11040","102","9","1","win","go","0"
"pit-trial","221","1378297","0.0-107.0","battery-v0.2","","""event"",""trial"",""time""
""fullscreenenter"",""1"",""3503""
","
","
","""event"",""trial"",""time""
""fullscreenenter"",""1"",""3503""
","
","","","-1","","","25","11040","5103","s","elianto","#3366ff99","-1","-1","1","+10","[]","0","2","","","11040","103","5","2","win","no-go","0"
"pit-trial","222","1383151","0.0-108.0","battery-v0.2","","""event"",""trial"",""time""
""fullscreenenter"",""1"",""3503""
","
","
","""event"",""trial"",""time""
""fullscreenenter"",""1"",""3503""
","
","","","-1","","","25","11040","5103","e","elianto","#f73b6a7A","-1","-1","1","0","[]","0","2","","","11040","104","7","4","lose","no-go","0"
"pit-trial","223","1386915","0.0-109.0","battery-v0.2","","""event"",""trial"",""time""
""fullscreenenter"",""1"",""3503""
","
","
","""event"",""trial"",""time""
""fullscreenenter"",""1"",""3503""
","
","","","910.2000000029802","","","25","11040","5103","j","elianto","#3366ff99"," "," ","1","0","[1761.4000000059605]","1","2","","","11040","105","9","1","win","go","1"
"pit-trial","224","1390928","0.0-110.0","battery-v0.2","","""event"",""trial"",""time""
""fullscreenenter"",""1"",""3503""
","
","
","""event"",""trial"",""time""
""fullscreenenter"",""1"",""3503""
","
","","","1159.2999999970198","","","25","11040","5103","w","elianto","#f73b6a7A"," "," ","1","0","[2010]","1","2","","","11040","106","6","3","lose","go","0"
"pit-trial","225","1394966","0.0-111.0","battery-v0.2","","""event"",""trial"",""time""
""fullscreenenter"",""1"",""3503""
","
","
","""event"",""trial"",""time""
""fullscreenenter"",""1"",""3503""
","
","","","1185.2999999970198","","","25","11040","5103","p","elianto","#3366ff99"," "," ","1","+10","[2035.7999999970198]","1","2","","","11040","107","4","1","win","go","0"
"pit-trial","226","1398573","0.0-112.0","battery-v0.2","","""event"",""trial"",""time""
""fullscreenenter"",""1"",""3503""
","
","
","""event"",""trial"",""time""
""fullscreenenter"",""1"",""3503""
","
","","","753.9000000059605","","","25","11040","5103","d","elianto","#3366ff99"," "," ","1","+10","[1603.9000000059605]","1","2","","","11040","108","8","1","win","go","0"
"pit-trial","227","1402361","0.0-113.0","battery-v0.2","","""event"",""trial"",""time""
""fullscreenenter"",""1"",""3503""
","
","
","""event"",""trial"",""time""
""fullscreenenter"",""1"",""3503""
","
","","","934.6999999880791","","","25","11040","5103","w","elianto","#f73b6a7A"," "," ","1","-10","[1785]","1","2","","","11040","109","6","3","lose","go","1"
"pit-trial","228","1407216","0.0-114.0","battery-v0.2","","""event"",""trial"",""time""
""fullscreenenter"",""1"",""3503""
","
","
","""event"",""trial"",""time""
""fullscreenenter"",""1"",""3503""
","
","","","-1","","","25","11040","5103","s","elianto","#3366ff99","-1","-1","1","+10","[]","0","2","","","11040","110","5","2","win","no-go","0"
"pit-trial","229","1410897","0.0-115.0","battery-v0.2","","""event"",""trial"",""time""
""fullscreenenter"",""1"",""3503""
","
","
","""event"",""trial"",""time""
""fullscreenenter"",""1"",""3503""
","
","","","828.0999999940395","","","25","11040","5103","d","elianto","#3366ff99"," "," ","1","+10","[1679.0999999940395]","1","2","","","11040","111","8","1","win","go","0"
"pit-trial","230","1415754","0.0-116.0","battery-v0.2","","""event"",""trial"",""time""
""fullscreenenter"",""1"",""3503""
","
","
","""event"",""trial"",""time""
""fullscreenenter"",""1"",""3503""
","
","","","-1","","","25","11040","5103","j","elianto","#3366ff99"," ","-1","0","0","[]","0","2","","","11040","112","9","1","win","go","0"
"pit-trial","231","1419377","0.0-117.0","battery-v0.2","","""event"",""trial"",""time""
""fullscreenenter"",""1"",""3503""
","
","
","""event"",""trial"",""time""
""fullscreenenter"",""1"",""3503""
","
","","","768.5","","","25","11040","5103","d","elianto","#3366ff99"," "," ","1","0","[1619.4000000059605]","1","2","","","11040","113","8","1","win","go","1"
"pit-trial","232","1424242","0.0-118.0","battery-v0.2","","""event"",""trial"",""time""
""fullscreenenter"",""1"",""3503""
","
","
","""event"",""trial"",""time""
""fullscreenenter"",""1"",""3503""
","
","","","-1","","","25","11040","5103","j","elianto","#3366ff99"," ","-1","0","0","[]","0","2","","","11040","114","9","1","win","go","0"
"pit-trial","233","1428025","0.0-119.0","battery-v0.2","","""event"",""trial"",""time""
""fullscreenenter"",""1"",""3503""
","
","
","""event"",""trial"",""time""
""fullscreenenter"",""1"",""3503""
","
","","","929.8999999910593","","","25","11040","5103","w","elianto","#f73b6a7A"," "," ","1","0","[1780.5]","1","2","","","11040","115","6","3","lose","go","0"
"pit-trial","234","1432879","0.0-120.0","battery-v0.2","","""event"",""trial"",""time""
""fullscreenenter"",""1"",""3503""
","
","
","""event"",""trial"",""time""
""fullscreenenter"",""1"",""3503""
","
","","","-1","","","25","11040","5103","s","elianto","#3366ff99","-1","-1","1","+10","[]","0","2","","","11040","116","5","2","win","no-go","0"
"pit-trial","235","1436574","0.0-121.0","battery-v0.2","","""event"",""trial"",""time""
""fullscreenenter"",""1"",""3503""
","
","
","""event"",""trial"",""time""
""fullscreenenter"",""1"",""3503""
","
","","","842","","","25","11040","5103","w","elianto","#f73b6a7A"," "," ","1","0","[1692.0999999940395]","1","2","","","11040","117","6","3","lose","go","0"
"pit-trial","236","1440100","0.0-122.0","battery-v0.2","","""event"",""trial"",""time""
""fullscreenenter"",""1"",""3503""
","
","
","""event"",""trial"",""time""
""fullscreenenter"",""1"",""3503""
","
","","","671.4000000059605","","","25","11040","5103","d","elianto","#3366ff99"," "," ","1","0","[1522.7000000029802]","1","2","","","11040","118","8","1","win","go","1"
"pit-trial","237","1444066","0.0-123.0","battery-v0.2","","""event"",""trial"",""time""
""fullscreenenter"",""1"",""3503""
","
","
","""event"",""trial"",""time""
""fullscreenenter"",""1"",""3503""
","
","","","1112.2999999970198","","","25","11040","5103","j","elianto","#3366ff99"," "," ","1","+10","[1962.8999999910593]","1","2","","","11040","119","9","1","win","go","0"
"pit-trial","238","1448919","0.0-124.0","battery-v0.2","","""event"",""trial"",""time""
""fullscreenenter"",""1"",""3503""
","
","
","""event"",""trial"",""time""
""fullscreenenter"",""1"",""3503""
","
","","","-1","","","25","11040","5103","s","elianto","#3366ff99","-1","-1","1","+10","[]","0","2","","","11040","120","5","2","win","no-go","0"
"pit-trial","239","1452377","0.0-125.0","battery-v0.2","","""event"",""trial"",""time""
""fullscreenenter"",""1"",""3503""
","
","
","""event"",""trial"",""time""
""fullscreenenter"",""1"",""3503""
","
","","","604.2000000029802","","","25","11040","5103","j","elianto","#3366ff99"," "," ","1","+10","[1455.0999999940395]","1","2","","","11040","121","9","1","win","go","0"
"pit-trial","240","1457231","0.0-126.0","battery-v0.2","","""event"",""trial"",""time""
""fullscreenenter"",""1"",""3503""
","
","
","""event"",""trial"",""time""
""fullscreenenter"",""1"",""3503""
","
","","","-1","","","25","11040","5103","e","elianto","#f73b6a7A","-1","-1","1","0","[]","0","2","","","11040","122","7","4","lose","no-go","0"
"pit-trial","241","1460800","0.0-127.0","battery-v0.2","","""event"",""trial"",""time""
""fullscreenenter"",""1"",""3503""
","
","
","""event"",""trial"",""time""
""fullscreenenter"",""1"",""3503""
","
","","","715.7000000029802","","","25","11040","5103","d","elianto","#3366ff99"," "," ","1","0","[1566.0999999940395]","1","2","","","11040","123","8","1","win","go","1"
"pit-trial","242","1464415","0.0-128.0","battery-v0.2","","""event"",""trial"",""time""
""fullscreenenter"",""1"",""3503""
","
","
","""event"",""trial"",""time""
""fullscreenenter"",""1"",""3503""
","
","","","762.4000000059605","","","25","11040","5103","w","elianto","#f73b6a7A"," "," ","1","0","[1612.5]","1","2","","","11040","124","6","3","lose","go","0"
"pit-trial","243","1469270","0.0-129.0","battery-v0.2","","""event"",""trial"",""time""
""fullscreenenter"",""1"",""3503""
","
","
","""event"",""trial"",""time""
""fullscreenenter"",""1"",""3503""
","
","","","-1","","","25","11040","5103","e","elianto","#f73b6a7A","-1","-1","1","0","[]","0","2","","","11040","125","7","4","lose","no-go","0"
"pit-trial","244","1473256","0.0-130.0","battery-v0.2","","""event"",""trial"",""time""
""fullscreenenter"",""1"",""3503""
","
","
","""event"",""trial"",""time""
""fullscreenenter"",""1"",""3503""
","
","","","1131.7999999970198","","","25","11040","5103","w","elianto","#f73b6a7A"," "," ","1","0","[1982.3999999910593]","1","2","","","11040","126","6","3","lose","go","0"
"pit-trial","245","1478111","0.0-131.0","battery-v0.2","","""event"",""trial"",""time""
""fullscreenenter"",""1"",""3503""
","
","
","""event"",""trial"",""time""
""fullscreenenter"",""1"",""3503""
","
","","","-1","","","25","11040","5103","d","elianto","#3366ff99"," ","-1","0","0","[]","0","2","","","11040","127","8","1","win","go","0"
"pit-trial","246","1481837","0.0-132.0","battery-v0.2","","""event"",""trial"",""time""
""fullscreenenter"",""1"",""3503""
","
","
","""event"",""trial"",""time""
""fullscreenenter"",""1"",""3503""
","
","","","872.1000000089407","","","25","11040","5103","j","elianto","#3366ff99"," "," ","1","+10","[1723.1000000089407]","1","2","","","11040","128","9","1","win","go","0"
"pit-trial","247","1485764","0.0-133.0","battery-v0.2","","""event"",""trial"",""time""
""fullscreenenter"",""1"",""3503""
","
","
","""event"",""trial"",""time""
""fullscreenenter"",""1"",""3503""
","
","","","1072.199999988079","","","25","11040","5103","j","elianto","#3366ff99"," "," ","1","+10","[1923.5]","1","2","","","11040","129","9","1","win","go","0"
"pit-trial","248","1490617","0.0-134.0","battery-v0.2","","""event"",""trial"",""time""
""fullscreenenter"",""1"",""3503""
","
","
","""event"",""trial"",""time""
""fullscreenenter"",""1"",""3503""
","
","","","-1","","","25","11040","5103","e","elianto","#f73b6a7A","-1","-1","1","0","[]","0","2","","","11040","130","7","4","lose","no-go","0"
"pit-trial","249","1494331","0.0-135.0","battery-v0.2","","""event"",""trial"",""time""
""fullscreenenter"",""1"",""3503""
","
","
","""event"",""trial"",""time""
""fullscreenenter"",""1"",""3503""
","
","","","859.1000000089407","","","25","11040","5103","w","elianto","#f73b6a7A"," "," ","1","0","[1709.6000000089407]","1","2","","","11040","131","6","3","lose","go","0"
"pit-trial","250","1498133","0.0-136.0","battery-v0.2","","""event"",""trial"",""time""
""fullscreenenter"",""1"",""3503""
","
","
","""event"",""trial"",""time""
""fullscreenenter"",""1"",""3503""
","
","","","948.3999999910593","","","25","11040","5103","d","elianto","#3366ff99"," "," ","1","+10","[1799]","1","2","","","11040","132","8","1","win","go","0"
"pit-trial","251","1501674","0.0-137.0","battery-v0.2","","""event"",""trial"",""time""
""fullscreenenter"",""1"",""3503""
","
","
","""event"",""trial"",""time""
""fullscreenenter"",""1"",""3503""
","
","","","686.1000000089407","","","25","11040","5103","j","elianto","#3366ff99"," "," ","1","+10","[1537.300000011921]","1","2","","","11040","133","9","1","win","go","0"
"pit-trial","252","1505214","0.0-138.0","battery-v0.2","","""event"",""trial"",""time""
""fullscreenenter"",""1"",""3503""
","
","
","""event"",""trial"",""time""
""fullscreenenter"",""1"",""3503""
","
","","","686.2999999970198","","","25","11040","5103","w","elianto","#f73b6a7A"," "," ","1","0","[1537.2000000029802]","1","2","","","11040","134","6","3","lose","go","0"
"pit-trial","253","1508982","0.0-139.0","battery-v0.2","","""event"",""trial"",""time""
""fullscreenenter"",""1"",""3503""
","
","
","""event"",""trial"",""time""
""fullscreenenter"",""1"",""3503""
","
","","","914.5","","","25","11040","5103","d","elianto","#3366ff99"," "," ","1","+10","[1764.9000000059605]","1","2","","","11040","135","8","1","win","go","0"
"pit-trial","254","1513835","0.0-140.0","battery-v0.2","","""event"",""trial"",""time""
""fullscreenenter"",""1"",""3503""
","
","
","""event"",""trial"",""time""
""fullscreenenter"",""1"",""3503""
","
","","","-1","","","25","11040","5103","e","elianto","#f73b6a7A","-1","-1","1","0","[]","0","2","","","11040","136","7","4","lose","no-go","0"
"pit-trial","255","1517306","0.0-141.0","battery-v0.2","","""event"",""trial"",""time""
""fullscreenenter"",""1"",""3503""
","
","
","""event"",""trial"",""time""
""fullscreenenter"",""1"",""3503""
","
","","","617.4000000059605","","","25","11040","5103","w","elianto","#f73b6a7A"," "," ","1","0","[1467.6000000089407]","1","2","","","11040","137","6","3","lose","go","0"
"pit-trial","256","1522160","0.0-142.0","battery-v0.2","","""event"",""trial"",""time""
""fullscreenenter"",""1"",""3503""
","
","
","""event"",""trial"",""time""
""fullscreenenter"",""1"",""3503""
","
","","","-1","","","25","11040","5103","e","elianto","#f73b6a7A","-1","-1","1","0","[]","0","2","","","11040","138","7","4","lose","no-go","0"
"pit-trial","257","1525766","0.0-143.0","battery-v0.2","","""event"",""trial"",""time""
""fullscreenenter"",""1"",""3503""
","
","
","""event"",""trial"",""time""
""fullscreenenter"",""1"",""3503""
","
","","","746.5","","","25","11040","5103","d","elianto","#3366ff99"," "," ","1","+10","[1602]","1","2","","","11040","139","8","1","win","go","0"
"pit-trial","258","1529420","0.0-144.0","battery-v0.2","","""event"",""trial"",""time""
""fullscreenenter"",""1"",""3503""
","
","
","""event"",""trial"",""time""
""fullscreenenter"",""1"",""3503""
","
","","","799.7999999970198","","","25","11040","5103","j","elianto","#3366ff99"," "," ","1","+10","[1651.6000000089407]","1","2","","","11040","140","9","1","win","go","0"
"pit-instructions","259","1555888","0.0-145.0","battery-v0.2","","""event"",""trial"",""time""
""fullscreenenter"",""1"",""3503""
","
","
","""event"",""trial"",""time""
""fullscreenenter"",""1"",""3503""
","
","","[{""page_index"":0,""viewing_time"":17414.59999999404},{""page_index"":1,""viewing_time"":9051.40000000596}]","26466.20000000298","","","","","","","","","","","","","","","","","","","","","","","",""
"pit-trial","260","1559704","0.0-146.0","battery-v0.2","","""event"",""trial"",""time""
""fullscreenenter"",""1"",""3503""
","
","
","""event"",""trial"",""time""
""fullscreenenter"",""1"",""3503""
","
","","","941.3999999910593","","","25","11040","5103","f","elianto","#3366ff99"," "," ","1","0","[1801.7000000029802]","1","3","","","11040","141","1","1","win","go","1"
"pit-trial","261","1563417","0.0-147.0","battery-v0.2","","""event"",""trial"",""time""
""fullscreenenter"",""1"",""3503""
","
","
","""event"",""trial"",""time""
""fullscreenenter"",""1"",""3503""
","
","","","837.9000000059605","","","25","11040","5103","n","elianto","#f73b6a7A","-1"," ","0","0","[1700.7000000029802]","1","3","","","11040","142","0","4","lose","no-go","1"
"pit-trial","262","1567065","0.0-148.0","battery-v0.2","","""event"",""trial"",""time""
""fullscreenenter"",""1"",""3503""
","
","
","""event"",""trial"",""time""
""fullscreenenter"",""1"",""3503""
","
","","","783.7999999970198","","","25","11040","5103","t","elianto","#f73b6a7A","-1"," ","0","-10","[1635]","1","3","","","11040","143","2","4","lose","no-go","0"
"pit-trial","263","1570662","0.0-149.0","battery-v0.2","","""event"",""trial"",""time""
""fullscreenenter"",""1"",""3503""
","
","
","""event"",""trial"",""time""
""fullscreenenter"",""1"",""3503""
","
","","","738.1000000089407","","","25","11040","5103","b","elianto","#f73b6a7A"," "," ","1","0","[1588.5]","1","3","","","11040","144","3","3","lose","go","0"
"pit-trial","264","1574235","0.0-150.0","battery-v0.2","","""event"",""trial"",""time""
""fullscreenenter"",""1"",""3503""
","
","
","""event"",""trial"",""time""
""fullscreenenter"",""1"",""3503""
","
","","","707.4000000059605","","","25","11040","5103","b","elianto","#f73b6a7A"," "," ","1","0","[1561.1000000089407]","1","3","","","11040","145","3","3","lose","go","0"
"pit-trial","265","1577849","0.0-151.0","battery-v0.2","","""event"",""trial"",""time""
""fullscreenenter"",""1"",""3503""
","
","
","""event"",""trial"",""time""
""fullscreenenter"",""1"",""3503""
","
