"trial_type","trial_index","time_elapsed","internal_node_id","task_version","subject_id","interactions","blur_events","focus_events","fullscreenenter_events","fullscreenexit_events","success","view_history","rt","responses","num_errors","age","subject","participantId","rune","rune_set","hex","correct","choice","accuracy","outcome","keys","total_keys","block","practice","value","sub","trial","stimulus","robot","valence","action","sham"
"pavlovia","0","7","0.0-0.0","battery-v0.2","","""event"",""trial"",""time""
""fullscreenenter"",""1"",""2327""
","
","
","""event"",""trial"",""time""
""fullscreenenter"",""1"",""2327""
","
","","","","","","","","","","","","","","","","","","","","","","","","","","",""
"fullscreen","1","3290","0.0-1.0","battery-v0.2","","""event"",""trial"",""time""
""fullscreenenter"",""1"",""2327""
","
","
","""event"",""trial"",""time""
""fullscreenenter"",""1"",""2327""
","
","true","","","","","","","","","","","","","","","","","","","","","","","","","",""
"pit-instructions","2","8358","0.0-2.0-0.0","battery-v0.2","","""event"",""trial"",""time""
""fullscreenenter"",""1"",""2327""
","
","
","""event"",""trial"",""time""
""fullscreenenter"",""1"",""2327""
","
","","[{""page_index"":0,""viewing_time"":5065.199999988079}]","5065.399999991059","","","","","","","","","","","","","","","","","","","","","","","",""
"pit-comprehension","3","12471","0.0-2.0-1.0-0.0","battery-v0.2","","""event"",""trial"",""time""
""fullscreenenter"",""1"",""2327""
","
","
","""event"",""trial"",""time""
""fullscreenenter"",""1"",""2327""
","
","","","4110.600000008941","[""shark""]","0","22","11447","2426","","","","","","","","","","","","","","","","","","",""
"pit-instructions","4","15100","0.0-2.0-1.0-1.0","battery-v0.2","","""event"",""trial"",""time""
""fullscreenenter"",""1"",""2327""
","
","
","""event"",""trial"",""time""
""fullscreenenter"",""1"",""2327""
","
","","[{""page_index"":0,""viewing_time"":2623.8999999910593}]","2624.5","","","","","","","","","","","","","","","","","","","","","","","",""
"pit-comprehension","5","17481","0.0-2.0-2.0-0.0","battery-v0.2","","""event"",""trial"",""time""
""fullscreenenter"",""1"",""2327""
","
","
","""event"",""trial"",""time""
""fullscreenenter"",""1"",""2327""
","
","","","2376.4000000059605","[""tiger""]","0","22","11447","2426","","","","","","","","","","","","","","","","","","",""
"pit-instructions","6","18450","0.0-2.0-2.0-1.0","battery-v0.2","","""event"",""trial"",""time""
""fullscreenenter"",""1"",""2327""
","
","
","""event"",""trial"",""time""
""fullscreenenter"",""1"",""2327""
","
","","[{""page_index"":0,""viewing_time"":964.3000000119209}]","964.7000000029802","","","","","","","","","","","","","","","","","","","","","","","",""
"pit-instructions","7","129048","0.0-2.0-3.0","battery-v0.2","","""event"",""trial"",""time""
""fullscreenenter"",""1"",""2327""
","
","
","""event"",""trial"",""time""
""fullscreenenter"",""1"",""2327""
","
","","[{""page_index"":0,""viewing_time"":11242.800000011921},{""page_index"":1,""viewing_time"":8665.79999999702},{""page_index"":2,""viewing_time"":8187.899999991059},{""page_index"":3,""viewing_time"":5475.70000000298},{""page_index"":4,""viewing_time"":6386.100000008941},{""page_index"":5,""viewing_time"":12140.79999999702},{""page_index"":6,""viewing_time"":5937.399999991059},{""page_index"":7,""viewing_time"":10512.60000000894},{""page_index"":8,""viewing_time"":6832.79999999702},{""page_index"":9,""viewing_time"":8940},{""page_index"":10,""viewing_time"":7321.5999999940395},{""page_index"":11,""viewing_time"":7648.800000011921},{""page_index"":12,""viewing_time"":6053.399999991059},{""page_index"":13,""viewing_time"":5248.70000000298}]","110594.70000000298","","","","","","","","","","","","","","","","","","","","","","","",""
"pit-trial","8","132388","0.0-2.0-4.0-0.0","battery-v0.2","","""event"",""trial"",""time""
""fullscreenenter"",""1"",""2327""
","
","
","""event"",""trial"",""time""
""fullscreenenter"",""1"",""2327""
","
","","","474.59999999403954","","","22","11447","2426","&#9784;","elianto","#FFFFF080"," "," ","1","&#10004","[1325]","1","0","0","","","","","","","",""
"pit-trial","9","135722","0.0-2.0-4.1-0.1","battery-v0.2","","""event"",""trial"",""time""
""fullscreenenter"",""1"",""2327""
","
","
","""event"",""trial"",""time""
""fullscreenenter"",""1"",""2327""
","
","","","461.70000000298023","","","22","11447","2426","&#9784;","elianto","#FFFFF080"," "," ","1","&#10004","[1316]","1","0","0","","","","","","","",""
"pit-trial","10","139076","0.0-2.0-4.2-0.2","battery-v0.2","","""event"",""trial"",""time""
""fullscreenenter"",""1"",""2327""
","
","
","""event"",""trial"",""time""
""fullscreenenter"",""1"",""2327""
","
","","","493.70000000298023","","","22","11447","2426","&#9784;","elianto","#FFFFF080"," "," ","1","&#10004","[1348]","1","0","0","","","","","","","",""
"pit-trial","11","142395","0.0-2.0-4.3-0.3","battery-v0.2","","""event"",""trial"",""time""
""fullscreenenter"",""1"",""2327""
","
","
","""event"",""trial"",""time""
""fullscreenenter"",""1"",""2327""
","
","","","460.69999998807907","","","22","11447","2426","&#9784;","elianto","#FFFFF080"," "," ","1","&#10004","[1312.699999988079]","1","0","0","","","","","","","",""
"pit-trial","12","145708","0.0-2.0-4.4-0.4","battery-v0.2","","""event"",""trial"",""time""
""fullscreenenter"",""1"",""2327""
","
","
","""event"",""trial"",""time""
""fullscreenenter"",""1"",""2327""
","
","","","445.1000000089407","","","22","11447","2426","&#9784;","elianto","#FFFFF080"," "," ","1","&#10004","[1296.6000000089407]","1","0","0","","","","","","","",""
"pit-instructions","13","167389","0.0-2.0-5.0","battery-v0.2","","""event"",""trial"",""time""
""fullscreenenter"",""1"",""2327""
","
","
","""event"",""trial"",""time""
""fullscreenenter"",""1"",""2327""
","
","","[{""page_index"":0,""viewing_time"":5609.600000008941},{""page_index"":1,""viewing_time"":5461.5},{""page_index"":2,""viewing_time"":4859.899999991059},{""page_index"":3,""viewing_time"":5746}]","21677.20000000298","","","","","","","","","","","","","","","","","","","","","","","",""
"pit-trial","14","172249","0.0-2.0-6.0-0.0","battery-v0.2","","""event"",""trial"",""time""
""fullscreenenter"",""1"",""2327""
","
","
","""event"",""trial"",""time""
""fullscreenenter"",""1"",""2327""
","
","","","-1","","","22","11447","2426","&#9854;","elianto","#FFFFF080","-1","-1","1","&#10004","[]","0","0","1","","","","","","","",""
"pit-trial","15","177118","0.0-2.0-6.1-0.1","battery-v0.2","","""event"",""trial"",""time""
""fullscreenenter"",""1"",""2327""
","
","
","""event"",""trial"",""time""
""fullscreenenter"",""1"",""2327""
","
","","","-1","","","22","11447","2426","&#9854;","elianto","#FFFFF080","-1","-1","1","&#10004","[]","0","0","1","","","","","","","",""
"pit-trial","16","181992","0.0-2.0-6.2-0.2","battery-v0.2","","""event"",""trial"",""time""
""fullscreenenter"",""1"",""2327""
","
","
","""event"",""trial"",""time""
""fullscreenenter"",""1"",""2327""
","
","","","-1","","","22","11447","2426","&#9854;","elianto","#FFFFF080","-1","-1","1","&#10004","[]","0","0","1","","","","","","","",""
"pit-trial","17","186864","0.0-2.0-6.3-0.3","battery-v0.2","","""event"",""trial"",""time""
""fullscreenenter"",""1"",""2327""
","
","
","""event"",""trial"",""time""
""fullscreenenter"",""1"",""2327""
","
","","","-1","","","22","11447","2426","&#9854;","elianto","#FFFFF080","-1","-1","1","&#10004","[]","0","0","1","","","","","","","",""
"pit-trial","18","191747","0.0-2.0-6.4-0.4","battery-v0.2","","""event"",""trial"",""time""
""fullscreenenter"",""1"",""2327""
","
","
","""event"",""trial"",""time""
""fullscreenenter"",""1"",""2327""
","
","","","-1","","","22","11447","2426","&#9854;","elianto","#FFFFF080","-1","-1","1","&#10004","[]","0","0","1","","","","","","","",""
"pit-instructions","19","309703","0.0-2.0-7.0","battery-v0.2","","""event"",""trial"",""time""
""fullscreenenter"",""1"",""2327""
","
","
","""event"",""trial"",""time""
""fullscreenenter"",""1"",""2327""
","
","","[{""page_index"":0,""viewing_time"":7037.600000008941},{""page_index"":1,""viewing_time"":6706.899999991059},{""page_index"":2,""viewing_time"":6045.100000008941},{""page_index"":3,""viewing_time"":6390.5999999940395},{""page_index"":4,""viewing_time"":5564.5},{""page_index"":5,""viewing_time"":5310.20000000298},{""page_index"":6,""viewing_time"":4858.79999999702},{""page_index"":7,""viewing_time"":7598.20000000298},{""page_index"":8,""viewing_time"":7013.79999999702},{""page_index"":9,""viewing_time"":5902},{""page_index"":10,""viewing_time"":6577.29999999702},{""page_index"":11,""viewing_time"":4822.20000000298},{""page_index"":12,""viewing_time"":7441.4000000059605},{""page_index"":13,""viewing_time"":7477.0999999940395},{""page_index"":14,""viewing_time"":7724.79999999702},{""page_index"":15,""viewing_time"":7666.70000000298},{""page_index"":16,""viewing_time"":6644.29999999702},{""page_index"":17,""viewing_time"":7169.79999999702}]","117951.60000000894","","","","","","","","","","","","","","","","","","","","","","","",""
"pit-trial","20","313284","0.0-2.0-8.0-0.0","battery-v0.2","","""event"",""trial"",""time""
""fullscreenenter"",""1"",""2327""
","
","
","""event"",""trial"",""time""
""fullscreenenter"",""1"",""2327""
","
","","","713.2999999970198","","","22","11447","2426","&#9776;","elianto","#3366ff99"," "," ","1","+10","[1567]","1","0","1","","","","","","","",""
"pit-trial","21","316693","0.0-2.0-8.0-1.0","battery-v0.2","","""event"",""trial"",""time""
""fullscreenenter"",""1"",""2327""
","
","
","""event"",""trial"",""time""
""fullscreenenter"",""1"",""2327""
","
","","","548","","","22","11447","2426","&#9776;","elianto","#3366ff99"," "," ","1","+10","[1404.5]","1","0","1","","","","","","","",""
"pit-trial","22","319993","0.0-2.0-8.0-2.0","battery-v0.2","","""event"",""trial"",""time""
""fullscreenenter"",""1"",""2327""
","
","
","""event"",""trial"",""time""
""fullscreenenter"",""1"",""2327""
","
","","","437.3999999910593","","","22","11447","2426","&#9776;","elianto","#3366ff99"," "," ","1","+10","[1295.2999999970198]","1","0","1","","","","","","","",""
"pit-trial","23","323282","0.0-2.0-8.0-3.0","battery-v0.2","","""event"",""trial"",""time""
""fullscreenenter"",""1"",""2327""
","
","
","""event"",""trial"",""time""
""fullscreenenter"",""1"",""2327""
","
","","","429.79999999701977","","","22","11447","2426","&#9776;","elianto","#3366ff99"," "," ","1","0","[1280]","1","0","1","","","","","","","",""
"pit-trial","24","326593","0.0-2.0-8.0-4.0","battery-v0.2","","""event"",""trial"",""time""
""fullscreenenter"",""1"",""2327""
","
","
","""event"",""trial"",""time""
""fullscreenenter"",""1"",""2327""
","
","","","447.29999999701977","","","22","11447","2426","&#9776;","elianto","#3366ff99"," "," ","1","+10","[1303.9000000059605]","1","0","1","","","","","","","",""
"pit-trial","25","329872","0.0-2.0-8.1-0.1","battery-v0.2","","""event"",""trial"",""time""
""fullscreenenter"",""1"",""2327""
","
","
","""event"",""trial"",""time""
""fullscreenenter"",""1"",""2327""
","
","","","407.40000000596046","","","22","11447","2426","&#9776;","elianto","#3366ff99"," "," ","1","+10","[1262.5]","1","0","1","","","","","","","",""
"pit-trial","26","333146","0.0-2.0-8.1-1.1","battery-v0.2","","""event"",""trial"",""time""
""fullscreenenter"",""1"",""2327""
","
","
","""event"",""trial"",""time""
""fullscreenenter"",""1"",""2327""
","
","","","410","","","22","11447","2426","&#9776;","elianto","#3366ff99"," "," ","1","+10","[1261.2999999970198]","1","0","1","","","","","","","",""
"pit-trial","27","336424","0.0-2.0-8.1-2.1","battery-v0.2","","""event"",""trial"",""time""
""fullscreenenter"",""1"",""2327""
","
","
","""event"",""trial"",""time""
""fullscreenenter"",""1"",""2327""
","
","","","404.8999999910593","","","22","11447","2426","&#9776;","elianto","#3366ff99"," "," ","1","+10","[1260.5]","1","0","1","","","","","","","",""
"pit-trial","28","339653","0.0-2.0-8.1-3.1","battery-v0.2","","""event"",""trial"",""time""
""fullscreenenter"",""1"",""2327""
","
","
","""event"",""trial"",""time""
""fullscreenenter"",""1"",""2327""
","
","","","373.5","","","22","11447","2426","&#9776;","elianto","#3366ff99"," "," ","1","0","[1225.5999999940395]","1","0","1","","","","","","","",""
"pit-trial","29","342866","0.0-2.0-8.1-4.1","battery-v0.2","","""event"",""trial"",""time""
""fullscreenenter"",""1"",""2327""
","
","
","""event"",""trial"",""time""
""fullscreenenter"",""1"",""2327""
","
","","","357.8999999910593","","","22","11447","2426","&#9776;","elianto","#3366ff99"," "," ","1","+10","[1208.7999999970198]","1","0","1","","","","","","","",""
"pit-trial","30","346099","0.0-2.0-8.2-0.2","battery-v0.2","","""event"",""trial"",""time""
""fullscreenenter"",""1"",""2327""
","
","
","""event"",""trial"",""time""
""fullscreenenter"",""1"",""2327""
","
","","","375.19999998807907","","","22","11447","2426","&#9776;","elianto","#3366ff99"," "," ","1","+10","[1226.9000000059605]","1","0","1","","","","","","","",""
"pit-trial","31","349328","0.0-2.0-8.2-1.2","battery-v0.2","","""event"",""trial"",""time""
""fullscreenenter"",""1"",""2327""
","
","
","""event"",""trial"",""time""
""fullscreenenter"",""1"",""2327""
","
","","","373.8999999910593","","","22","11447","2426","&#9776;","elianto","#3366ff99"," "," ","1","+10","[1225.1000000089407]","1","0","1","","","","","","","",""
"pit-trial","32","352557","0.0-2.0-8.2-2.2","battery-v0.2","","""event"",""trial"",""time""
""fullscreenenter"",""1"",""2327""
","
","
","""event"",""trial"",""time""
""fullscreenenter"",""1"",""2327""
","
","","","375.30000001192093","","","22","11447","2426","&#9776;","elianto","#3366ff99"," "," ","1","+10","[1225.6000000089407]","1","0","1","","","","","","","",""
"pit-trial","33","355638","0.0-2.0-8.2-3.2","battery-v0.2","","""event"",""trial"",""time""
""fullscreenenter"",""1"",""2327""
","
","
","""event"",""trial"",""time""
""fullscreenenter"",""1"",""2327""
","
","","","226.19999998807907","","","22","11447","2426","&#9776;","elianto","#3366ff99"," "," ","1","0","[1076.7999999970198]","1","0","1","","","","","","","",""
"pit-trial","34","358604","0.0-2.0-8.2-4.2","battery-v0.2","","""event"",""trial"",""time""
""fullscreenenter"",""1"",""2327""
","
","
","""event"",""trial"",""time""
""fullscreenenter"",""1"",""2327""
","
","","","112.90000000596046","","","22","11447","2426","&#9776;","elianto","#3366ff99"," "," ","1","+10","[963.7000000029802]","1","0","1","","","","","","","",""
"call-function","35","358607","0.0-2.0-9.0","battery-v0.2","","""event"",""trial"",""time""
""fullscreenenter"",""1"",""2327""
","
","
","""event"",""trial"",""time""
""fullscreenenter"",""1"",""2327""
","
","","","","","","","","","","","","","","","","","","","","","","","","","","",""
"pit-instructions","36","401840","0.0-2.0-10.0","battery-v0.2","","""event"",""trial"",""time""
""fullscreenenter"",""1"",""2327""
","
","
","""event"",""trial"",""time""
""fullscreenenter"",""1"",""2327""
","
","","[{""page_index"":0,""viewing_time"":6135},{""page_index"":1,""viewing_time"":8779.800000011921},{""page_index"":2,""viewing_time"":9631.59999999404},{""page_index"":3,""viewing_time"":10216.29999999702},{""page_index"":4,""viewing_time"":8467.90000000596}]","43231","","","","","","","","","","","","","","","","","","","","","","","",""
"pit-trial","37","406157","0.0-2.0-11.0-0.0","battery-v0.2","","""event"",""trial"",""time""
""fullscreenenter"",""1"",""2327""
","
","
","""event"",""trial"",""time""
""fullscreenenter"",""1"",""2327""
","
","","","1446.5","","","22","11447","2426","&#9761;","elianto","#3366ff99","-1"," ","0","0","[2299.1000000089407]","1","0","2","","","","","","","",""
"pit-trial","38","409447","0.0-2.0-11.0-1.0","battery-v0.2","","""event"",""trial"",""time""
""fullscreenenter"",""1"",""2327""
","
","
","""event"",""trial"",""time""
""fullscreenenter"",""1"",""2327""
","
","","","429.70000000298023","","","22","11447","2426","&#9761;","elianto","#3366ff99","-1"," ","0","0","[1284.800000011921]","1","0","2","","","","","","","",""
"pit-trial","39","414310","0.0-2.0-11.0-2.0","battery-v0.2","","""event"",""trial"",""time""
""fullscreenenter"",""1"",""2327""
","
","
","""event"",""trial"",""time""
""fullscreenenter"",""1"",""2327""
","
","","","-1","","","22","11447","2426","&#9761;","elianto","#3366ff99","-1","-1","1","+10","[]","0","0","2","","","","","","","",""
"pit-trial","40","419185","0.0-2.0-11.0-3.0","battery-v0.2","","""event"",""trial"",""time""
""fullscreenenter"",""1"",""2327""
","
","
","""event"",""trial"",""time""
""fullscreenenter"",""1"",""2327""
","
","","","-1","","","22","11447","2426","&#9761;","elianto","#3366ff99","-1","-1","1","0","[]","0","0","2","","","","","","","",""
"pit-trial","41","424053","0.0-2.0-11.0-4.0","battery-v0.2","","""event"",""trial"",""time""
""fullscreenenter"",""1"",""2327""
","
","
","""event"",""trial"",""time""
""fullscreenenter"",""1"",""2327""
","
","","","-1","","","22","11447","2426","&#9761;","elianto","#3366ff99","-1","-1","1","+10","[]","0","0","2","","","","","","","",""
"pit-trial","42","428921","0.0-2.0-11.1-0.1","battery-v0.2","","""event"",""trial"",""time""
""fullscreenenter"",""1"",""2327""
","
","
","""event"",""trial"",""time""
""fullscreenenter"",""1"",""2327""
","
","","","-1","","","22","11447","2426","&#9761;","elianto","#3366ff99","-1","-1","1","+10","[]","0","0","2","","","","","","","",""
"pit-trial","43","433775","0.0-2.0-11.1-1.1","battery-v0.2","","""event"",""trial"",""time""
""fullscreenenter"",""1"",""2327""
","
","
","""event"",""trial"",""time""
""fullscreenenter"",""1"",""2327""
","
","","","-1","","","22","11447","2426","&#9761;","elianto","#3366ff99","-1","-1","1","+10","[]","0","0","2","","","","","","","",""
"pit-trial","44","438630","0.0-2.0-11.1-2.1","battery-v0.2","","""event"",""trial"",""time""
""fullscreenenter"",""1"",""2327""
","
","
","""event"",""trial"",""time""
""fullscreenenter"",""1"",""2327""
","
","","","-1","","","22","11447","2426","&#9761;","elianto","#3366ff99","-1","-1","1","+10","[]","0","0","2","","","","","","","",""
"pit-trial","45","443485","0.0-2.0-11.1-3.1","battery-v0.2","","""event"",""trial"",""time""
""fullscreenenter"",""1"",""2327""
","
","
","""event"",""trial"",""time""
""fullscreenenter"",""1"",""2327""
","
","","","-1","","","22","11447","2426","&#9761;","elianto","#3366ff99","-1","-1","1","0","[]","0","0","2","","","","","","","",""
"pit-trial","46","448341","0.0-2.0-11.1-4.1","battery-v0.2","","""event"",""trial"",""time""
""fullscreenenter"",""1"",""2327""
","
","
","""event"",""trial"",""time""
""fullscreenenter"",""1"",""2327""
","
","","","-1","","","22","11447","2426","&#9761;","elianto","#3366ff99","-1","-1","1","+10","[]","0","0","2","","","","","","","",""
"pit-trial","47","453196","0.0-2.0-11.2-0.2","battery-v0.2","","""event"",""trial"",""time""
""fullscreenenter"",""1"",""2327""
","
","
","""event"",""trial"",""time""
""fullscreenenter"",""1"",""2327""
","
","","","-1","","","22","11447","2426","&#9761;","elianto","#3366ff99","-1","-1","1","+10","[]","0","0","2","","","","","","","",""
"pit-trial","48","458053","0.0-2.0-11.2-1.2","battery-v0.2","","""event"",""trial"",""time""
""fullscreenenter"",""1"",""2327""
","
","
","""event"",""trial"",""time""
""fullscreenenter"",""1"",""2327""
","
","","","-1","","","22","11447","2426","&#9761;","elianto","#3366ff99","-1","-1","1","+10","[]","0","0","2","","","","","","","",""
"pit-trial","49","462930","0.0-2.0-11.2-2.2","battery-v0.2","","""event"",""trial"",""time""
""fullscreenenter"",""1"",""2327""
","
","
","""event"",""trial"",""time""
""fullscreenenter"",""1"",""2327""
","
","","","-1","","","22","11447","2426","&#9761;","elianto","#3366ff99","-1","-1","1","+10","[]","0","0","2","","","","","","","",""
"pit-trial","50","467784","0.0-2.0-11.2-3.2","battery-v0.2","","""event"",""trial"",""time""
""fullscreenenter"",""1"",""2327""
","
","
","""event"",""trial"",""time""
""fullscreenenter"",""1"",""2327""
","
","","","-1","","","22","11447","2426","&#9761;","elianto","#3366ff99","-1","-1","1","0","[]","0","0","2","","","","","","","",""
"pit-trial","51","472638","0.0-2.0-11.2-4.2","battery-v0.2","","""event"",""trial"",""time""
""fullscreenenter"",""1"",""2327""
","
","
","""event"",""trial"",""time""
""fullscreenenter"",""1"",""2327""
","
","","","-1","","","22","11447","2426","&#9761;","elianto","#3366ff99","-1","-1","1","+10","[]","0","0","2","","","","","","","",""
"pit-trial","52","477493","0.0-2.0-11.3-0.3","battery-v0.2","","""event"",""trial"",""time""
""fullscreenenter"",""1"",""2327""
","
","
","""event"",""trial"",""time""
""fullscreenenter"",""1"",""2327""
","
","","","-1","","","22","11447","2426","&#9761;","elianto","#3366ff99","-1","-1","1","+10","[]","0","0","2","","","","","","","",""
"pit-trial","53","482348","0.0-2.0-11.3-1.3","battery-v0.2","","""event"",""trial"",""time""
""fullscreenenter"",""1"",""2327""
","
","
","""event"",""trial"",""time""
""fullscreenenter"",""1"",""2327""
","
","","","-1","","","22","11447","2426","&#9761;","elianto","#3366ff99","-1","-1","1","+10","[]","0","0","2","","","","","","","",""
"pit-trial","54","487202","0.0-2.0-11.3-2.3","battery-v0.2","","""event"",""trial"",""time""
""fullscreenenter"",""1"",""2327""
","
","
","""event"",""trial"",""time""
""fullscreenenter"",""1"",""2327""
","
","","","-1","","","22","11447","2426","&#9761;","elianto","#3366ff99","-1","-1","1","+10","[]","0","0","2","","","","","","","",""
"pit-trial","55","492057","0.0-2.0-11.3-3.3","battery-v0.2","","""event"",""trial"",""time""
""fullscreenenter"",""1"",""2327""
","
","
","""event"",""trial"",""time""
""fullscreenenter"",""1"",""2327""
","
","","","-1","","","22","11447","2426","&#9761;","elianto","#3366ff99","-1","-1","1","0","[]","0","0","2","","","","","","","",""
"pit-trial","56","496917","0.0-2.0-11.3-4.3","battery-v0.2","","""event"",""trial"",""time""
""fullscreenenter"",""1"",""2327""
","
","
","""event"",""trial"",""time""
""fullscreenenter"",""1"",""2327""
","
","","","-1","","","22","11447","2426","&#9761;","elianto","#3366ff99","-1","-1","1","+10","[]","0","0","2","","","","","","","",""
"call-function","57","496920","0.0-2.0-12.0","battery-v0.2","","""event"",""trial"",""time""
""fullscreenenter"",""1"",""2327""
","
","
","""event"",""trial"",""time""
""fullscreenenter"",""1"",""2327""
","
","","","","","","","","","","","","","","","","","","","","","","","","","","",""
"pit-instructions","58","535940","0.0-2.0-13.0","battery-v0.2","","""event"",""trial"",""time""
""fullscreenenter"",""1"",""2327""
","
","
","""event"",""trial"",""time""
""fullscreenenter"",""1"",""2327""
","
","","[{""page_index"":0,""viewing_time"":7585.4000000059605},{""page_index"":1,""viewing_time"":7943},{""page_index"":2,""viewing_time"":6374.5999999940395},{""page_index"":3,""viewing_time"":11272.70000000298},{""page_index"":4,""viewing_time"":5843.20000000298}]","39019.20000000298","","","","","","","","","","","","","","","","","","","","","","","",""
"pit-trial","59","540813","0.0-2.0-14.0-0.0","battery-v0.2","","""event"",""trial"",""time""
""fullscreenenter"",""1"",""2327""
","
","
","""event"",""trial"",""time""
""fullscreenenter"",""1"",""2327""
","
","","","-1","","","22","11447","2426","&#9826;","elianto","#f73b6a7A","-1","-1","1","0","[]","0","0","3","","","","","","","",""
"pit-trial","60","545682","0.0-2.0-14.0-1.0","battery-v0.2","","""event"",""trial"",""time""
""fullscreenenter"",""1"",""2327""
","
","
","""event"",""trial"",""time""
""fullscreenenter"",""1"",""2327""
","
","","","-1","","","22","11447","2426","&#9826;","elianto","#f73b6a7A","-1","-1","1","0","[]","0","0","3","","","","","","","",""
"pit-trial","61","550549","0.0-2.0-14.0-2.0","battery-v0.2","","""event"",""trial"",""time""
""fullscreenenter"",""1"",""2327""
","
","
","""event"",""trial"",""time""
""fullscreenenter"",""1"",""2327""
","
","","","-1","","","22","11447","2426","&#9826;","elianto","#f73b6a7A","-1","-1","1","0","[]","0","0","3","","","","","","","",""
"pit-trial","62","555418","0.0-2.0-14.0-3.0","battery-v0.2","","""event"",""trial"",""time""
""fullscreenenter"",""1"",""2327""
","
","
","""event"",""trial"",""time""
""fullscreenenter"",""1"",""2327""
","
","","","-1","","","22","11447","2426","&#9826;","elianto","#f73b6a7A","-1","-1","1","-10","[]","0","0","3","","","","","","","",""
"pit-trial","63","558768","0.0-2.0-14.0-4.0","battery-v0.2","","""event"",""trial"",""time""
""fullscreenenter"",""1"",""2327""
","
","
","""event"",""trial"",""time""
""fullscreenenter"",""1"",""2327""
","
","","","480.6000000089407","","","22","11447","2426","&#9826;","elianto","#f73b6a7A","-1"," ","0","-10","[1334.5]","1","0","3","","","","","","","",""
"pit-trial","64","563642","0.0-2.0-14.1-0.1","battery-v0.2","","""event"",""trial"",""time""
""fullscreenenter"",""1"",""2327""
","
","
","""event"",""trial"",""time""
""fullscreenenter"",""1"",""2327""
","
","","","-1","","","22","11447","2426","&#9826;","elianto","#f73b6a7A","-1","-1","1","0","[]","0","0","3","","","","","","","",""
"pit-trial","65","568498","0.0-2.0-14.1-1.1","battery-v0.2","","""event"",""trial"",""time""
""fullscreenenter"",""1"",""2327""
","
","
","""event"",""trial"",""time""
""fullscreenenter"",""1"",""2327""
","
","","","-1","","","22","11447","2426","&#9826;","elianto","#f73b6a7A","-1","-1","1","0","[]","0","0","3","","","","","","","",""
"pit-trial","66","573353","0.0-2.0-14.1-2.1","battery-v0.2","","""event"",""trial"",""time""
""fullscreenenter"",""1"",""2327""
","
","
","""event"",""trial"",""time""
""fullscreenenter"",""1"",""2327""
","
","","","-1","","","22","11447","2426","&#9826;","elianto","#f73b6a7A","-1","-1","1","0","[]","0","0","3","","","","","","","",""
"pit-trial","67","578207","0.0-2.0-14.1-3.1","battery-v0.2","","""event"",""trial"",""time""
""fullscreenenter"",""1"",""2327""
","
","
","""event"",""trial"",""time""
""fullscreenenter"",""1"",""2327""
","
","","","-1","","","22","11447","2426","&#9826;","elianto","#f73b6a7A","-1","-1","1","-10","[]","0","0","3","","","","","","","",""
"pit-trial","68","583062","0.0-2.0-14.1-4.1","battery-v0.2","","""event"",""trial"",""time""
""fullscreenenter"",""1"",""2327""
","
","
","""event"",""trial"",""time""
""fullscreenenter"",""1"",""2327""
","
","","","-1","","","22","11447","2426","&#9826;","elianto","#f73b6a7A","-1","-1","1","0","[]","0","0","3","","","","","","","",""
"pit-trial","69","587916","0.0-2.0-14.2-0.2","battery-v0.2","","""event"",""trial"",""time""
""fullscreenenter"",""1"",""2327""
","
","
","""event"",""trial"",""time""
""fullscreenenter"",""1"",""2327""
","
","","","-1","","","22","11447","2426","&#9826;","elianto","#f73b6a7A","-1","-1","1","0","[]","0","0","3","","","","","","","",""
"pit-trial","70","592771","0.0-2.0-14.2-1.2","battery-v0.2","","""event"",""trial"",""time""
""fullscreenenter"",""1"",""2327""
","
","
","""event"",""trial"",""time""
""fullscreenenter"",""1"",""2327""
","
","","","-1","","","22","11447","2426","&#9826;","elianto","#f73b6a7A","-1","-1","1","0","[]","0","0","3","","","","","","","",""
"pit-trial","71","597624","0.0-2.0-14.2-2.2","battery-v0.2","","""event"",""trial"",""time""
""fullscreenenter"",""1"",""2327""
","
","
","""event"",""trial"",""time""
""fullscreenenter"",""1"",""2327""
","
","","","-1","","","22","11447","2426","&#9826;","elianto","#f73b6a7A","-1","-1","1","0","[]","0","0","3","","","","","","","",""
"pit-trial","72","602488","0.0-2.0-14.2-3.2","battery-v0.2","","""event"",""trial"",""time""
""fullscreenenter"",""1"",""2327""
","
","
","""event"",""trial"",""time""
""fullscreenenter"",""1"",""2327""
","
","","","-1","","","22","11447","2426","&#9826;","elianto","#f73b6a7A","-1","-1","1","-10","[]","0","0","3","","","","","","","",""
"pit-trial","73","607343","0.0-2.0-14.2-4.2","battery-v0.2","","""event"",""trial"",""time""
""fullscreenenter"",""1"",""2327""
","
","
","""event"",""trial"",""time""
""fullscreenenter"",""1"",""2327""
","
","","","-1","","","22","11447","2426","&#9826;","elianto","#f73b6a7A","-1","-1","1","0","[]","0","0","3","","","","","","","",""
"pit-trial","74","612197","0.0-2.0-14.3-0.3","battery-v0.2","","""event"",""trial"",""time""
""fullscreenenter"",""1"",""2327""
","
","
","""event"",""trial"",""time""
""fullscreenenter"",""1"",""2327""
","
","","","-1","","","22","11447","2426","&#9826;","elianto","#f73b6a7A","-1","-1","1","0","[]","0","0","3","","","","","","","",""
"pit-trial","75","617055","0.0-2.0-14.3-1.3","battery-v0.2","","""event"",""trial"",""time""
""fullscreenenter"",""1"",""2327""
","
","
","""event"",""trial"",""time""
""fullscreenenter"",""1"",""2327""
","
","","","-1","","","22","11447","2426","&#9826;","elianto","#f73b6a7A","-1","-1","1","0","[]","0","0","3","","","","","","","",""
"pit-trial","76","621919","0.0-2.0-14.3-2.3","battery-v0.2","","""event"",""trial"",""time""
""fullscreenenter"",""1"",""2327""
","
","
","""event"",""trial"",""time""
""fullscreenenter"",""1"",""2327""
","
","","","-1","","","22","11447","2426","&#9826;","elianto","#f73b6a7A","-1","-1","1","0","[]","0","0","3","","","","","","","",""
"pit-trial","77","626774","0.0-2.0-14.3-3.3","battery-v0.2","","""event"",""trial"",""time""
""fullscreenenter"",""1"",""2327""
","
","
","""event"",""trial"",""time""
""fullscreenenter"",""1"",""2327""
","
","","","-1","","","22","11447","2426","&#9826;","elianto","#f73b6a7A","-1","-1","1","-10","[]","0","0","3","","","","","","","",""
"pit-trial","78","631629","0.0-2.0-14.3-4.3","battery-v0.2","","""event"",""trial"",""time""
""fullscreenenter"",""1"",""2327""
","
","
","""event"",""trial"",""time""
""fullscreenenter"",""1"",""2327""
","
","","","-1","","","22","11447","2426","&#9826;","elianto","#f73b6a7A","-1","-1","1","0","[]","0","0","3","","","","","","","",""
"call-function","79","631632","0.0-2.0-15.0","battery-v0.2","","""event"",""trial"",""time""
""fullscreenenter"",""1"",""2327""
","
","
","""event"",""trial"",""time""
""fullscreenenter"",""1"",""2327""
","
","","","","","","","","","","","","","","","","","","","","","","","","","","",""
"pit-instructions","80","663872","0.0-2.0-16.0","battery-v0.2","","""event"",""trial"",""time""
""fullscreenenter"",""1"",""2327""
","
","
","""event"",""trial"",""time""
""fullscreenenter"",""1"",""2327""
","
","","[{""page_index"":0,""viewing_time"":10960.59999999404},{""page_index"":1,""viewing_time"":10313},{""page_index"":2,""viewing_time"":5670.20000000298},{""page_index"":3,""viewing_time"":5295.20000000298}]","32239.20000000298","","","","","","","","","","","","","","","","","","","","","","","",""
"pit-trial","81","667275","0.0-2.0-17.0-0.0","battery-v0.2","","""event"",""trial"",""time""
""fullscreenenter"",""1"",""2327""
","
","
","""event"",""trial"",""time""
""fullscreenenter"",""1"",""2327""
","
","","","540.2000000029802","","","22","11447","2426","&#9789;","elianto","#f73b6a7A"," "," ","1","0","[1394.2999999970198]","1","0","4","","","","","","","",""
"pit-trial","82","670338","0.0-2.0-17.0-1.0","battery-v0.2","","""event"",""trial"",""time""
""fullscreenenter"",""1"",""2327""
","
","
","""event"",""trial"",""time""
""fullscreenenter"",""1"",""2327""
","
","","","191","","","22","11447","2426","&#9789;","elianto","#f73b6a7A"," "," ","1","0","[1044.9000000059605]","1","0","4","","","","","","","",""
"pit-trial","83","673431","0.0-2.0-17.0-2.0","battery-v0.2","","""event"",""trial"",""time""
""fullscreenenter"",""1"",""2327""
","
","
","""event"",""trial"",""time""
""fullscreenenter"",""1"",""2327""
","
","","","230.29999999701977","","","22","11447","2426","&#9789;","elianto","#f73b6a7A"," "," ","1","0","[1085.0999999940395]","1","0","4","","","","","","","",""
"pit-trial","84","676538","0.0-2.0-17.0-3.0","battery-v0.2","","""event"",""trial"",""time""
""fullscreenenter"",""1"",""2327""
","
","
","""event"",""trial"",""time""
""fullscreenenter"",""1"",""2327""
","
","","","242.59999999403954","","","22","11447","2426","&#9789;","elianto","#f73b6a7A"," "," ","1","-10","[1093.7999999970198]","1","0","4","","","","","","","",""
"pit-trial","85","679569","0.0-2.0-17.0-4.0","battery-v0.2","","""event"",""trial"",""time""
""fullscreenenter"",""1"",""2327""
","
","
","""event"",""trial"",""time""
""fullscreenenter"",""1"",""2327""
","
","","","173.5","","","22","11447","2426","&#9789;","elianto","#f73b6a7A"," "," ","1","0","[1025.2000000029802]","1","0","4","","","","","","","",""
"pit-trial","86","682763","0.0-2.0-17.1-0.1","battery-v0.2","","""event"",""trial"",""time""
""fullscreenenter"",""1"",""2327""
","
","
","""event"",""trial"",""time""
""fullscreenenter"",""1"",""2327""
","
","","","328.3999999910593","","","22","11447","2426","&#9789;","elianto","#f73b6a7A"," "," ","1","0","[1187.3999999910593]","1","0","4","","","","","","","",""
"pit-trial","87","685869","0.0-2.0-17.1-1.1","battery-v0.2","","""event"",""trial"",""time""
""fullscreenenter"",""1"",""2327""
","
","
","""event"",""trial"",""time""
""fullscreenenter"",""1"",""2327""
","
","","","249.79999999701977","","","22","11447","2426","&#9789;","elianto","#f73b6a7A"," "," ","1","0","[1101.2999999970198]","1","0","4","","","","","","","",""
"pit-trial","88","688955","0.0-2.0-17.1-2.1","battery-v0.2","","""event"",""trial"",""time""
""fullscreenenter"",""1"",""2327""
","
","
","""event"",""trial"",""time""
""fullscreenenter"",""1"",""2327""
","
","","","226","","","22","11447","2426","&#9789;","elianto","#f73b6a7A"," "," ","1","0","[1079]","1","0","4","","","","","","","",""
"pit-trial","89","692018","0.0-2.0-17.1-3.1","battery-v0.2","","""event"",""trial"",""time""
""fullscreenenter"",""1"",""2327""
","
","
","""event"",""trial"",""time""
""fullscreenenter"",""1"",""2327""
","
","","","199.3999999910593","","","22","11447","2426","&#9789;","elianto","#f73b6a7A"," "," ","1","-10","[1053.7999999970198]","1","0","4","","","","","","","",""
"pit-trial","90","695077","0.0-2.0-17.1-4.1","battery-v0.2","","""event"",""trial"",""time""
""fullscreenenter"",""1"",""2327""
","
","
","""event"",""trial"",""time""
""fullscreenenter"",""1"",""2327""
","
","","","202.5","","","22","11447","2426","&#9789;","elianto","#f73b6a7A"," "," ","1","0","[1056.7000000029802]","1","0","4","","","","","","","",""
"pit-trial","91","698016","0.0-2.0-17.2-0.2","battery-v0.2","","""event"",""trial"",""time""
""fullscreenenter"",""1"",""2327""
","
","
","""event"",""trial"",""time""
""fullscreenenter"",""1"",""2327""
","
","","","82.69999998807907","","","22","11447","2426","&#9789;","elianto","#f73b6a7A"," "," ","1","0","[934]","1","0","4","","","","","","","",""
"pit-trial","92","701150","0.0-2.0-17.2-1.2","battery-v0.2","","""event"",""trial"",""time""
""fullscreenenter"",""1"",""2327""
","
","
","""event"",""trial"",""time""
""fullscreenenter"",""1"",""2327""
","
","","","279.1000000089407","","","22","11447","2426","&#9789;","elianto","#f73b6a7A"," "," ","1","0","[1130.0999999940395]","1","0","4","","","","","","","",""
"pit-trial","93","704473","0.0-2.0-17.2-2.2","battery-v0.2","","""event"",""trial"",""time""
""fullscreenenter"",""1"",""2327""
","
","
","""event"",""trial"",""time""
""fullscreenenter"",""1"",""2327""
","
","","","469.09999999403954","","","22","11447","2426","&#9789;","elianto","#f73b6a7A"," "," ","1","0","[1319.5]","1","0","4","","","","","","","",""
"pit-trial","94","707674","0.0-2.0-17.2-3.2","battery-v0.2","","""event"",""trial"",""time""
""fullscreenenter"",""1"",""2327""
","
","
","""event"",""trial"",""time""
""fullscreenenter"",""1"",""2327""
","
","","","345.79999999701977","","","22","11447","2426","&#9789;","elianto","#f73b6a7A"," "," ","1","-10","[1196.3999999910593]","1","0","4","","","","","","","",""
"pit-trial","95","710810","0.0-2.0-17.2-4.2","battery-v0.2","","""event"",""trial"",""time""
""fullscreenenter"",""1"",""2327""
","
","
","""event"",""trial"",""time""
""fullscreenenter"",""1"",""2327""
","
","","","282.09999999403954","","","22","11447","2426","&#9789;","elianto","#f73b6a7A"," "," ","1","0","[1132.9000000059605]","1","0","4","","","","","","","",""
"pit-trial","96","713938","0.0-2.0-17.3-0.3","battery-v0.2","","""event"",""trial"",""time""
""fullscreenenter"",""1"",""2327""
","
","
","""event"",""trial"",""time""
""fullscreenenter"",""1"",""2327""
","
","","","273.30000001192093","","","22","11447","2426","&#9789;","elianto","#f73b6a7A"," "," ","1","0","[1123.800000011921]","1","0","4","","","","","","","",""
"pit-trial","97","717171","0.0-2.0-17.3-1.3","battery-v0.2","","""event"",""trial"",""time""
""fullscreenenter"",""1"",""2327""
","
","
","""event"",""trial"",""time""
""fullscreenenter"",""1"",""2327""
","
","","","378.90000000596046","","","22","11447","2426","&#9789;","elianto","#f73b6a7A"," "," ","1","0","[1229]","1","0","4","","","","","","","",""
"pit-trial","98","720430","0.0-2.0-17.3-2.3","battery-v0.2","","""event"",""trial"",""time""
""fullscreenenter"",""1"",""2327""
","
","
","""event"",""trial"",""time""
""fullscreenenter"",""1"",""2327""
","
","","","404.79999999701977","","","22","11447","2426","&#9789;","elianto","#f73b6a7A"," "," ","1","0","[1255.4000000059605]","1","0","4","","","","","","","",""
"pit-trial","99","723666","0.0-2.0-17.3-3.3","battery-v0.2","","""event"",""trial"",""time""
""fullscreenenter"",""1"",""2327""
","
","
","""event"",""trial"",""time""
""fullscreenenter"",""1"",""2327""
","
","","","382.1000000089407","","","22","11447","2426","&#9789;","elianto","#f73b6a7A"," "," ","1","-10","[1233.2000000029802]","1","0","4","","","","","","","",""
"pit-trial","100","726936","0.0-2.0-17.3-4.3","battery-v0.2","","""event"",""trial"",""time""
""fullscreenenter"",""1"",""2327""
","
","
","""event"",""trial"",""time""
""fullscreenenter"",""1"",""2327""
","
","","","414.70000000298023","","","22","11447","2426","&#9789;","elianto","#f73b6a7A"," "," ","1","0","[1265.1000000089407]","1","0","4","","","","","","","",""
"call-function","101","726940","0.0-2.0-18.0","battery-v0.2","","""event"",""trial"",""time""
""fullscreenenter"",""1"",""2327""
","
","
","""event"",""trial"",""time""
""fullscreenenter"",""1"",""2327""
","
","","","","","","","","","","","","","","","","","","","","","","","","","","",""
"pit-instructions","102","802082","0.0-2.0-19.0","battery-v0.2","","""event"",""trial"",""time""
""fullscreenenter"",""1"",""2327""
","
","
","""event"",""trial"",""time""
""fullscreenenter"",""1"",""2327""
","
","","[{""page_index"":0,""viewing_time"":8265.40000000596},{""page_index"":1,""viewing_time"":8331.70000000298},{""page_index"":2,""viewing_time"":14368.70000000298},{""page_index"":3,""viewing_time"":7627.29999999702},{""page_index"":4,""viewing_time"":8918.5},{""page_index"":5,""viewing_time"":8076.5999999940395},{""page_index"":6,""viewing_time"":8528.90000000596},{""page_index"":7,""viewing_time"":6449.79999999702},{""page_index"":8,""viewing_time"":4574.70000000298}]","75141.80000001192","","","","","","","","","","","","","","","","","","","","","","","",""
"pit-comprehension","103","806628","0.0-2.0-20.0-0.0","battery-v0.2","","""event"",""trial"",""time""
""fullscreenenter"",""1"",""2327""
","
","
","""event"",""trial"",""time""
""fullscreenenter"",""1"",""2327""
","
","","","4542.5999999940395","[""SPACE""]","0","22","11447","2426","","","","","","","","","","","","","","","","","","",""
"pit-instructions","104","809732","0.0-2.0-20.0-1.0","battery-v0.2","","""event"",""trial"",""time""
""fullscreenenter"",""1"",""2327""
","
","
","""event"",""trial"",""time""
""fullscreenenter"",""1"",""2327""
","
","","[{""page_index"":0,""viewing_time"":3069.5999999940395}]","3069.7999999970198","","","","","","","","","","","","","","","","","","","","","","","",""
"pit-comprehension","105","815598","0.0-2.0-21.0-0.0","battery-v0.2","","""event"",""trial"",""time""
""fullscreenenter"",""1"",""2327""
","
","
","""event"",""trial"",""time""
""fullscreenenter"",""1"",""2327""
","
","","","5863.29999999702","[""10""]","0","22","11447","2426","","","","","","","","","","","","","","","","","","",""
"pit-instructions","106","817076","0.0-2.0-21.0-1.0","battery-v0.2","","""event"",""trial"",""time""
""fullscreenenter"",""1"",""2327""
","
","
","""event"",""trial"",""time""
""fullscreenenter"",""1"",""2327""
","
","","[{""page_index"":0,""viewing_time"":1454}]","1454.2000000029802","","","","","","","","","","","","","","","","","","","","","","","",""
"pit-comprehension","107","823623","0.0-2.0-22.0-0.0","battery-v0.2","","""event"",""trial"",""time""
""fullscreenenter"",""1"",""2327""
","
","
","""event"",""trial"",""time""
""fullscreenenter"",""1"",""2327""
","
","","","6544.5","[""0""]","0","22","11447","2426","","","","","","","","","","","","","","","","","","",""
"pit-instructions","108","825461","0.0-2.0-22.0-1.0","battery-v0.2","","""event"",""trial"",""time""
""fullscreenenter"",""1"",""2327""
","
","
","""event"",""trial"",""time""
""fullscreenenter"",""1"",""2327""
","
","","[{""page_index"":0,""viewing_time"":1813.3999999910593}]","1813.5999999940395","","","","","","","","","","","","","","","","","","","","","","","",""
"pit-comprehension","109","835278","0.0-2.0-23.0-0.0","battery-v0.2","","""event"",""trial"",""time""
""fullscreenenter"",""1"",""2327""
","
","
","""event"",""trial"",""time""
""fullscreenenter"",""1"",""2327""
","
","","","9815.10000000894","[""True""]","0","22","11447","2426","","","","","","","","","","","","","","","","","","",""
"pit-instructions","110","836912","0.0-2.0-23.0-1.0","battery-v0.2","","""event"",""trial"",""time""
""fullscreenenter"",""1"",""2327""
","
","
","""event"",""trial"",""time""
""fullscreenenter"",""1"",""2327""
","
","","[{""page_index"":0,""viewing_time"":1610.4000000059605}]","1610.5","","","","","","","","","","","","","","","","","","","","","","","",""
"pit-comprehension","111","844367","0.0-2.0-24.0-0.0","battery-v0.2","","""event"",""trial"",""time""
""fullscreenenter"",""1"",""2327""
","
","
","""event"",""trial"",""time""
""fullscreenenter"",""1"",""2327""
","
","","","7452","[""True""]","0","22","11447","2426","","","","","","","","","","","","","","","","","","",""
"pit-instructions","112","845786","0.0-2.0-24.0-1.0","battery-v0.2","","""event"",""trial"",""time""
""fullscreenenter"",""1"",""2327""
","
","
","""event"",""trial"",""time""
""fullscreenenter"",""1"",""2327""
","
","","[{""page_index"":0,""viewing_time"":1391.2000000029802}]","1391.4000000059605","","","","","","","","","","","","","","","","","","","","","","","",""
"pit-comprehension","113","852191","0.0-2.0-25.0-0.0","battery-v0.2","","""event"",""trial"",""time""
""fullscreenenter"",""1"",""2327""
","
","
","""event"",""trial"",""time""
""fullscreenenter"",""1"",""2327""
","
","","","6402.20000000298","[""True""]","0","22","11447","2426","","","","","","","","","","","","","","","","","","",""
"pit-instructions","114","853780","0.0-2.0-25.0-1.0","battery-v0.2","","""event"",""trial"",""time""
""fullscreenenter"",""1"",""2327""
","
","
","""event"",""trial"",""time""
""fullscreenenter"",""1"",""2327""
","
","","[{""page_index"":0,""viewing_time"":1564.5}]","1564.7999999970198","","","","","","","","","","","","","","","","","","","","","","","",""
"pit-comprehension","115","858544","0.0-2.0-26.0-0.0","battery-v0.2","","""event"",""trial"",""time""
""fullscreenenter"",""1"",""2327""
","
","
","""event"",""trial"",""time""
""fullscreenenter"",""1"",""2327""
","
","","","4761.4000000059605","[""False""]","0","22","11447","2426","","","","","","","","","","","","","","","","","","",""
"pit-instructions","116","860126","0.0-2.0-26.0-1.0","battery-v0.2","","""event"",""trial"",""time""
""fullscreenenter"",""1"",""2327""
","
","
","""event"",""trial"",""time""
""fullscreenenter"",""1"",""2327""
","
","","[{""page_index"":0,""viewing_time"":1556.2000000029802}]","1556.4000000059605","","","","","","","","","","","","","","","","","","","","","","","",""
"pit-instructions","117","877728","0.0-3.0","battery-v0.2","","""event"",""trial"",""time""
""fullscreenenter"",""1"",""2327""
","
","
","""event"",""trial"",""time""
""fullscreenenter"",""1"",""2327""
","
","","[{""page_index"":0,""viewing_time"":3807.7999999970198},{""page_index"":1,""viewing_time"":6068},{""page_index"":2,""viewing_time"":7724.300000011921}]","17600.29999999702","","","","","","","","","","","","","","","","","","","","","","","",""
"pit-trial","118","881423","0.0-4.0","battery-v0.2","","""event"",""trial"",""time""
""fullscreenenter"",""1"",""2327""
","
","
","""event"",""trial"",""time""
""fullscreenenter"",""1"",""2327""
","
","","","824.4000000059605","","","22","11447","2426","&#9730;","elianto","#3366ff99"," "," ","1","+10","[1676.2000000029802]","1","1","","","11447","1","1","1","win","go","0"
"pit-trial","119","886302","0.0-5.0","battery-v0.2","","""event"",""trial"",""time""
""fullscreenenter"",""1"",""2327""
","
","
","""event"",""trial"",""time""
""fullscreenenter"",""1"",""2327""
","
","","","-1","","","22","11447","2426","&#9752;","elianto","#f73b6a7A"," ","-1","0","-10","[]","0","1","","","11447","2","3","3","lose","go","0"
"pit-trial","120","890841","0.0-6.0","battery-v0.2","","""event"",""trial"",""time""
""fullscreenenter"",""1"",""2327""
","
","
","""event"",""trial"",""time""
""fullscreenenter"",""1"",""2327""
","
","","","1668.5","","","22","11447","2426","&#9728;","elianto","#f73b6a7A","-1"," ","0","0","[2527.4000000059605]","1","1","","","11447","3","0","4","lose","no-go","1"
"pit-trial","121","895709","0.0-7.0","battery-v0.2","","""event"",""trial"",""time""
""fullscreenenter"",""1"",""2327""
","
","
","""event"",""trial"",""time""
""fullscreenenter"",""1"",""2327""
","
","","","-1","","","22","11447","2426","&#9733;","elianto","#3366ff99","-1","-1","1","+10","[]","0","1","","","11447","4","2","2","win","no-go","0"
"pit-trial","122","899311","0.0-8.0","battery-v0.2","","""event"",""trial"",""time""
""fullscreenenter"",""1"",""2327""
","
","
","""event"",""trial"",""time""
""fullscreenenter"",""1"",""2327""
","
","","","746.9000000059605","","","22","11447","2426","&#9730;","elianto","#3366ff99"," "," ","1","+10","[1597.2999999970198]","1","1","","","11447","5","1","1","win","go","0"
"pit-trial","123","902796","0.0-9.0","battery-v0.2","","""event"",""trial"",""time""
""fullscreenenter"",""1"",""2327""
","
","
","""event"",""trial"",""time""
""fullscreenenter"",""1"",""2327""
","
","","","628.1000000089407","","","22","11447","2426","&#9752;","elianto","#f73b6a7A"," "," ","1","-10","[1479.6000000089407]","1","1","","","11447","6","3","3","lose","go","1"
"pit-trial","124","906217","0.0-10.0","battery-v0.2","","""event"",""trial"",""time""
""fullscreenenter"",""1"",""2327""
","
","
","""event"",""trial"",""time""
""fullscreenenter"",""1"",""2327""
","
","","","558","","","22","11447","2426","&#9728;","elianto","#f73b6a7A","-1"," ","0","-10","[1408.7999999970198]","1","1","","","11447","7","0","4","lose","no-go","0"
"pit-trial","125","911072","0.0-11.0","battery-v0.2","","""event"",""trial"",""time""
""fullscreenenter"",""1"",""2327""
","
","
","""event"",""trial"",""time""
""fullscreenenter"",""1"",""2327""
","
","","","-1","","","22","11447","2426","&#9733;","elianto","#3366ff99","-1","-1","1","0","[]","0","1","","","11447","8","2","2","win","no-go","1"
"pit-trial","126","915527","0.0-12.0","battery-v0.2","","""event"",""trial"",""time""
""fullscreenenter"",""1"",""2327""
","
","
","""event"",""trial"",""time""
""fullscreenenter"",""1"",""2327""
","
","","","1599.7999999970198","","","22","11447","2426","&#9752;","elianto","#f73b6a7A"," "," ","1","0","[2450]","1","1","","","11447","9","3","3","lose","go","0"
"pit-trial","127","919161","0.0-13.0","battery-v0.2","","""event"",""trial"",""time""
""fullscreenenter"",""1"",""2327""
","
","
","""event"",""trial"",""time""
""fullscreenenter"",""1"",""2327""
","
","","","780.7000000029802","","","22","11447","2426","&#9728;","elianto","#f73b6a7A","-1"," ","0","-10","[1631.7999999970198]","1","1","","","11447","10","0","4","lose","no-go","0"
"pit-trial","128","924015","0.0-14.0","battery-v0.2","","""event"",""trial"",""time""
""fullscreenenter"",""1"",""2327""
","
","
","""event"",""trial"",""time""
""fullscreenenter"",""1"",""2327""
","
","","","-1","","","22","11447","2426","&#9733;","elianto","#3366ff99","-1","-1","1","0","[]","0","1","","","11447","11","2","2","win","no-go","1"
"pit-trial","129","927872","0.0-15.0","battery-v0.2","","""event"",""trial"",""time""
""fullscreenenter"",""1"",""2327""
","
","
","""event"",""trial"",""time""
""fullscreenenter"",""1"",""2327""
","
","","","1002.2999999970198","","","22","11447","2426","&#9730;","elianto","#3366ff99"," "," ","1","+10","[1852.5]","1","1","","","11447","12","1","1","win","go","0"
"pit-trial","130","931630","0.0-16.0","battery-v0.2","","""event"",""trial"",""time""
""fullscreenenter"",""1"",""2327""
","
","
","""event"",""trial"",""time""
""fullscreenenter"",""1"",""2327""
","
","","","904.2000000029802","","","22","11447","2426","&#9733;","elianto","#3366ff99","-1"," ","0","0","[1754.699999988079]","1","1","","","11447","13","2","2","win","no-go","0"
"pit-trial","131","936485","0.0-17.0","battery-v0.2","","""event"",""trial"",""time""
""fullscreenenter"",""1"",""2327""
","
","
","""event"",""trial"",""time""
""fullscreenenter"",""1"",""2327""
","
","","","-1","","","22","11447","2426","&#9728;","elianto","#f73b6a7A","-1","-1","1","0","[]","0","1","","","11447","14","0","4","lose","no-go","0"
"pit-trial","132","941339","0.0-18.0","battery-v0.2","","""event"",""trial"",""time""
""fullscreenenter"",""1"",""2327""
","
","
","""event"",""trial"",""time""
""fullscreenenter"",""1"",""2327""
","
","","","-1","","","22","11447","2426","&#9752;","elianto","#f73b6a7A"," ","-1","0","0","[]","0","1","","","11447","15","3","3","lose","go","1"
"pit-trial","133","944930","0.0-19.0","battery-v0.2","","""event"",""trial"",""time""
""fullscreenenter"",""1"",""2327""
","
","
","""event"",""trial"",""time""
""fullscreenenter"",""1"",""2327""
","
","","","736.8000000119209","","","22","11447","2426","&#9730;","elianto","#3366ff99"," "," ","1","+10","[1587.1000000089407]","1","1","","","11447","16","1","1","win","go","0"
"pit-trial","134","948824","0.0-20.0","battery-v0.2","","""event"",""trial"",""time""
""fullscreenenter"",""1"",""2327""
","
","
","""event"",""trial"",""time""
""fullscreenenter"",""1"",""2327""
","
","","","1039.2999999970198","","","22","11447","2426","&#9730;","elianto","#3366ff99"," "," ","1","+10","[1889.9000000059605]","1","1","","","11447","17","1","1","win","go","0"
"pit-trial","135","953491","0.0-21.0","battery-v0.2","","""event"",""trial"",""time""
""fullscreenenter"",""1"",""2327""
","
","
","""event"",""trial"",""time""
""fullscreenenter"",""1"",""2327""
","
","","","1811.6000000089407","","","22","11447","2426","&#9733;","elianto","#3366ff99","-1"," ","0","0","[2662]","1","1","","","11447","18","2","2","win","no-go","0"
"pit-trial","136","958346","0.0-22.0","battery-v0.2","","""event"",""trial"",""time""
""fullscreenenter"",""1"",""2327""
","
","
","""event"",""trial"",""time""
""fullscreenenter"",""1"",""2327""
","
","","","-1","","","22","11447","2426","&#9728;","elianto","#f73b6a7A","-1","-1","1","0","[]","0","1","","","11447","19","0","4","lose","no-go","0"
"pit-trial","137","963200","0.0-23.0","battery-v0.2","","""event"",""trial"",""time""
""fullscreenenter"",""1"",""2327""
","
","
","""event"",""trial"",""time""
""fullscreenenter"",""1"",""2327""
","
","","","-1","","","22","11447","2426","&#9752;","elianto","#f73b6a7A"," ","-1","0","-10","[]","0","1","","","11447","20","3","3","lose","go","0"
"pit-instructions","138","975036","0.0-24.0","battery-v0.2","","""event"",""trial"",""time""
""fullscreenenter"",""1"",""2327""
","
","
","""event"",""trial"",""time""
""fullscreenenter"",""1"",""2327""
","
","","[{""page_index"":0,""viewing_time"":5795.29999999702},{""page_index"":1,""viewing_time"":6036.600000008941}]","11832.10000000894","","","","","","","","","","","","","","","","","","","","","","","",""
"pit-trial","139","979906","0.0-25.0","battery-v0.2","","""event"",""trial"",""time""
""fullscreenenter"",""1"",""2327""
","
","
","""event"",""trial"",""time""
""fullscreenenter"",""1"",""2327""
","
","","","-1","","","22","11447","2426","m","elianto","#f73b6a7A","-1","-1","1","0","[]","0","2","","","11447","21","0","4","lose","no-go","0"
"pit-trial","140","984775","0.0-26.0","battery-v0.2","","""event"",""trial"",""time""
""fullscreenenter"",""1"",""2327""
","
","
","""event"",""trial"",""time""
""fullscreenenter"",""1"",""2327""
","
","","","-1","","","22","11447","2426","y","elianto","#f73b6a7A","-1","-1","1","-10","[3033.2000000029802]","1","2","","","11447","22","2","4","lose","no-go","1"
"pit-trial","141","989148","0.0-27.0","battery-v0.2","","""event"",""trial"",""time""
""fullscreenenter"",""1"",""2327""
","
","
","""event"",""trial"",""time""
""fullscreenenter"",""1"",""2327""
","
","","","1510.0999999940395","","","22","11447","2426","r","elianto","#3366ff99"," "," ","1","+10","[2363.3999999910593]","1","2","","","11447","23","1","1","win","go","0"
"pit-trial","142","993279","0.0-28.0","battery-v0.2","","""event"",""trial"",""time""
""fullscreenenter"",""1"",""2327""
","
","
","""event"",""trial"",""time""
""fullscreenenter"",""1"",""2327""
","
","","","1264.7000000029802","","","22","11447","2426","h","elianto","#f73b6a7A"," "," ","1","0","[2116.300000011921]","1","2","","","11447","24","3","3","lose","go","0"
"pit-trial","143","997897","0.0-29.0","battery-v0.2","","""event"",""trial"",""time""
""fullscreenenter"",""1"",""2327""
","
","
","""event"",""trial"",""time""
""fullscreenenter"",""1"",""2327""
","
","","","1748.7000000029802","","","22","11447","2426","y","elianto","#f73b6a7A","-1"," ","0","0","[2601.9000000059605]","1","2","","","11447","25","2","4","lose","no-go","1"
"pit-trial","144","1001696","0.0-30.0","battery-v0.2","","""event"",""trial"",""time""
""fullscreenenter"",""1"",""2327""
","
","
","""event"",""trial"",""time""
""fullscreenenter"",""1"",""2327""
","
","","","941.7999999970198","","","22","11447","2426","h","elianto","#f73b6a7A"," "," ","1","0","[1794.699999988079]","1","2","","","11447","26","3","3","lose","go","0"
"pit-trial","145","1005363","0.0-31.0","battery-v0.2","","""event"",""trial"",""time""
""fullscreenenter"",""1"",""2327""
","
","
","""event"",""trial"",""time""
""fullscreenenter"",""1"",""2327""
","
","","","793.7999999970198","","","22","11447","2426","r","elianto","#3366ff99"," "," ","1","+10","[1647.9000000059605]","1","2","","","11447","27","1","1","win","go","0"
"pit-trial","146","1010224","0.0-32.0","battery-v0.2","","""event"",""trial"",""time""
""fullscreenenter"",""1"",""2327""
","
","
","""event"",""trial"",""time""
""fullscreenenter"",""1"",""2327""
","
","","","-1","","","22","11447","2426","m","elianto","#f73b6a7A","-1","-1","1","-10","[]","0","2","","","11447","28","0","4","lose","no-go","1"
"pit-trial","147","1013915","0.0-33.0","battery-v0.2","","""event"",""trial"",""time""
""fullscreenenter"",""1"",""2327""
","
","
","""event"",""trial"",""time""
""fullscreenenter"",""1"",""2327""
","
","","","837.5","","","22","11447","2426","y","elianto","#f73b6a7A","-1"," ","0","-10","[1687.7999999970198]","1","2","","","11447","29","2","4","lose","no-go","0"
"pit-trial","148","1017555","0.0-34.0","battery-v0.2","","""event"",""trial"",""time""
""fullscreenenter"",""1"",""2327""
","
","
","""event"",""trial"",""time""
""fullscreenenter"",""1"",""2327""
","
","","","786","","","22","11447","2426","h","elianto","#f73b6a7A"," "," ","1","0","[1637.1000000089407]","1","2","","","11447","30","3","3","lose","go","0"
"pit-trial","149","1022410","0.0-35.0","battery-v0.2","","""event"",""trial"",""time""
""fullscreenenter"",""1"",""2327""
","
","
","""event"",""trial"",""time""
""fullscreenenter"",""1"",""2327""
","
","","","-1","","","22","11447","2426","m","elianto","#f73b6a7A","-1","-1","1","0","[]","0","2","","","11447","31","0","4","lose","no-go","0"
"pit-trial","150","1026027","0.0-36.0","battery-v0.2","","""event"",""trial"",""time""
""fullscreenenter"",""1"",""2327""
","
","
","""event"",""trial"",""time""
""fullscreenenter"",""1"",""2327""
","
","","","761.2999999970198","","","22","11447","2426","r","elianto","#3366ff99"," "," ","1","+10","[1612.5]","1","2","","","11447","32","1","1","win","go","0"
"pit-trial","151","1029663","0.0-37.0","battery-v0.2","","""event"",""trial"",""time""
""fullscreenenter"",""1"",""2327""
","
","
","""event"",""trial"",""time""
""fullscreenenter"",""1"",""2327""
","
","","","781.4000000059605","","","22","11447","2426","h","elianto","#f73b6a7A"," "," ","1","0","[1632.5]","1","2","","","11447","33","3","3","lose","go","0"
"pit-trial","152","1033244","0.0-38.0","battery-v0.2","","""event"",""trial"",""time""
""fullscreenenter"",""1"",""2327""
","
","
","""event"",""trial"",""time""
""fullscreenenter"",""1"",""2327""
","
","","","725.5","","","22","11447","2426","y","elianto","#f73b6a7A","-1"," ","0","-10","[1577.300000011921]","1","2","","","11447","34","2","4","lose","no-go","0"
"pit-trial","153","1036806","0.0-39.0","battery-v0.2","","""event"",""trial"",""time""
""fullscreenenter"",""1"",""2327""
","
","
","""event"",""trial"",""time""
""fullscreenenter"",""1"",""2327""
","
","","","706.1000000089407","","","22","11447","2426","r","elianto","#3366ff99"," "," ","1","+10","[1557]","1","2","","","11447","35","1","1","win","go","0"
"pit-trial","154","1041675","0.0-40.0","battery-v0.2","","""event"",""trial"",""time""
""fullscreenenter"",""1"",""2327""
","
","
","""event"",""trial"",""time""
""fullscreenenter"",""1"",""2327""
","
","","","-1","","","22","11447","2426","m","elianto","#f73b6a7A","-1","-1","1","0","[]","0","2","","","11447","36","0","4","lose","no-go","0"
"pit-trial","155","1046529","0.0-41.0","battery-v0.2","","""event"",""trial"",""time""
""fullscreenenter"",""1"",""2327""
","
","
","""event"",""trial"",""time""
""fullscreenenter"",""1"",""2327""
","
","","","-1","","","22","11447","2426","m","elianto","#f73b6a7A","-1","-1","1","0","[]","0","2","","","11447","37","0","4","lose","no-go","0"
"pit-trial","156","1050516","0.0-42.0","battery-v0.2","","""event"",""trial"",""time""
""fullscreenenter"",""1"",""2327""
","
","
","""event"",""trial"",""time""
""fullscreenenter"",""1"",""2327""
","
","","","1131.5999999940395","","","22","11447","2426","h","elianto","#f73b6a7A"," "," ","1","0","[1983.5]","1","2","","","11447","38","3","3","lose","go","0"
"pit-trial","157","1055383","0.0-43.0","battery-v0.2","","""event"",""trial"",""time""
""fullscreenenter"",""1"",""2327""
","
","
","""event"",""trial"",""time""
""fullscreenenter"",""1"",""2327""
","
","","","-1","","","22","11447","2426","y","elianto","#f73b6a7A","-1","-1","1","-10","[]","0","2","","","11447","39","2","4","lose","no-go","1"
"pit-trial","158","1058961","0.0-44.0","battery-v0.2","","""event"",""trial"",""time""
""fullscreenenter"",""1"",""2327""
","
","
","""event"",""trial"",""time""
""fullscreenenter"",""1"",""2327""
","
","","","723.9000000059605","","","22","11447","2426","r","elianto","#3366ff99"," "," ","1","+10","[1574.0999999940395]","1","2","","","11447","40","1","1","win","go","0"
"pit-trial","159","1063816","0.0-45.0","battery-v0.2","","""event"",""trial"",""time""
""fullscreenenter"",""1"",""2327""
","
","
","""event"",""trial"",""time""
""fullscreenenter"",""1"",""2327""
","
","","","-1","","","22","11447","2426","m","elianto","#f73b6a7A","-1","-1","1","0","[]","0","2","","","11447","41","0","4","lose","no-go","0"
"pit-trial","160","1068026","0.0-46.0","battery-v0.2","","""event"",""trial"",""time""
""fullscreenenter"",""1"",""2327""
","
","
","""event"",""trial"",""time""
""fullscreenenter"",""1"",""2327""
","
","","","1352.2999999970198","","","22","11447","2426","h","elianto","#f73b6a7A"," "," ","1","-10","[2203.0999999940395]","1","2","","","11447","42","3","3","lose","go","1"
"pit-trial","161","1071553","0.0-47.0","battery-v0.2","","""event"",""trial"",""time""
""fullscreenenter"",""1"",""2327""
","
","
","""event"",""trial"",""time""
""fullscreenenter"",""1"",""2327""
","
","","","673.3999999910593","","","22","11447","2426","r","elianto","#3366ff99"," "," ","1","+10","[1524.2999999970198]","1","2","","","11447","43","1","1","win","go","0"
"pit-trial","162","1075167","0.0-48.0","battery-v0.2","","""event"",""trial"",""time""
""fullscreenenter"",""1"",""2327""
","
","
","""event"",""trial"",""time""
""fullscreenenter"",""1"",""2327""
","
","","","759.5","","","22","11447","2426","y","elianto","#f73b6a7A","-1"," ","0","-10","[1610.300000011921]","1","2","","","11447","44","2","4","lose","no-go","0"
"pit-trial","163","1079430","0.0-49.0","battery-v0.2","","""event"",""trial"",""time""
""fullscreenenter"",""1"",""2327""
","
","
","""event"",""trial"",""time""
""fullscreenenter"",""1"",""2327""
","
","","","1407.9000000059605","","","22","11447","2426","z","elianto","#3366ff99","-1"," ","0","0","[2259]","1","2","","","11447","45","4","2","win","no-go","0"
"pit-trial","164","1083789","0.0-50.0","battery-v0.2","","""event"",""trial"",""time""
""fullscreenenter"",""1"",""2327""
","
","
","""event"",""trial"",""time""
""fullscreenenter"",""1"",""2327""
","
","","","1503.2999999970198","","","22","11447","2426","h","elianto","#f73b6a7A"," "," ","1","0","[2354.2999999970198]","1","2","","","11447","46","3","3","lose","go","0"
"pit-trial","165","1088644","0.0-51.0","battery-v0.2","","""event"",""trial"",""time""
""fullscreenenter"",""1"",""2327""
","
","
","""event"",""trial"",""time""
""fullscreenenter"",""1"",""2327""
","
","","","-1","","","22","11447","2426","y","elianto","#f73b6a7A","-1","-1","1","-10","[]","0","2","","","11447","47","2","4","lose","no-go","1"
"pit-trial","166","1093497","0.0-52.0","battery-v0.2","","""event"",""trial"",""time""
""fullscreenenter"",""1"",""2327""
","
","
","""event"",""trial"",""time""
""fullscreenenter"",""1"",""2327""
","
","","","-1","","","22","11447","2426","m","elianto","#f73b6a7A","-1","-1","1","-10","[]","0","2","","","11447","48","0","4","lose","no-go","1"
"pit-trial","167","1097190","0.0-53.0","battery-v0.2","","""event"",""trial"",""time""
""fullscreenenter"",""1"",""2327""
","
","
","""event"",""trial"",""time""
""fullscreenenter"",""1"",""2327""
","
","","","838.8999999910593","","","22","11447","2426","r","elianto","#3366ff99"," "," ","1","+10","[1689.199999988079]","1","2","","","11447","49","1","1","win","go","0"
"pit-trial","168","1101891","0.0-54.0","battery-v0.2","","""event"",""trial"",""time""
""fullscreenenter"",""1"",""2327""
","
","
","""event"",""trial"",""time""
""fullscreenenter"",""1"",""2327""
","
","","","1846.7000000029802","","","22","11447","2426","h","elianto","#f73b6a7A"," "," ","1","-10","[2697]","1","2","","","11447","50","3","3","lose","go","1"
"pit-trial","169","1106747","0.0-55.0","battery-v0.2","","""event"",""trial"",""time""
""fullscreenenter"",""1"",""2327""
","
","
","""event"",""trial"",""time""
""fullscreenenter"",""1"",""2327""
","
","","","-1","","","22","11447","2426","z","elianto","#3366ff99","-1","-1","1","+10","[2984.0999999940395]","1","2","","","11447","51","4","2","win","no-go","0"
"pit-trial","170","1111601","0.0-56.0","battery-v0.2","","""event"",""trial"",""time""
""fullscreenenter"",""1"",""2327""
","
","
","""event"",""trial"",""time""
""fullscreenenter"",""1"",""2327""
","
","","","-1","","","22","11447","2426","m","elianto","#f73b6a7A","-1","-1","1","0","[]","0","2","","","11447","52","0","4","lose","no-go","0"
"pit-trial","171","1115374","0.0-57.0","battery-v0.2","","""event"",""trial"",""time""
""fullscreenenter"",""1"",""2327""
","
","
","""event"",""trial"",""time""
""fullscreenenter"",""1"",""2327""
","
","","","918.2000000029802","","","22","11447","2426","r","elianto","#3366ff99"," "," ","1","+10","[1768.7000000029802]","1","2","","","11447","53","1","1","win","go","0"
"pit-trial","172","1120230","0.0-58.0","battery-v0.2","","""event"",""trial"",""time""
""fullscreenenter"",""1"",""2327""
","
","
","""event"",""trial"",""time""
""fullscreenenter"",""1"",""2327""
","
","","","-1","","","22","11447","2426","z","elianto","#3366ff99","-1","-1","1","+10","[]","0","2","","","11447","54","4","2","win","no-go","0"
"pit-trial","173","1124543","0.0-59.0","battery-v0.2","","""event"",""trial"",""time""
""fullscreenenter"",""1"",""2327""
","
","
","""event"",""trial"",""time""
""fullscreenenter"",""1"",""2327""
","
","","","1458.2000000029802","","","22","11447","2426","y","elianto","#f73b6a7A","-1"," ","0","-10","[2308.7000000029802]","1","2","","","11447","55","2","4","lose","no-go","0"
"pit-trial","174","1129398","0.0-60.0","battery-v0.2","","""event"",""trial"",""time""
""fullscreenenter"",""1"",""2327""
","
","
","""event"",""trial"",""time""
""fullscreenenter"",""1"",""2327""
","
","","","-1","","","22","11447","2426","m","elianto","#f73b6a7A","-1","-1","1","0","[]","0","2","","","11447","56","0","4","lose","no-go","0"
"pit-trial","175","1134256","0.0-61.0","battery-v0.2","","""event"",""trial"",""time""
""fullscreenenter"",""1"",""2327""
","
","
","""event"",""trial"",""time""
""fullscreenenter"",""1"",""2327""
","
","","","-1","","","22","11447","2426","m","elianto","#f73b6a7A","-1","-1","1","0","[]","0","2","","","11447","57","0","4","lose","no-go","0"
"pit-trial","176","1138007","0.0-62.0","battery-v0.2","","""event"",""trial"",""time""
""fullscreenenter"",""1"",""2327""
","
","
","""event"",""trial"",""time""
""fullscreenenter"",""1"",""2327""
","
","","","882.2999999970198","","","22","11447","2426","h","elianto","#f73b6a7A"," "," ","1","0","[1732.4000000059605]","1","2","","","11447","58","3","3","lose","go","0"
"pit-trial","177","1141600","0.0-63.0","battery-v0.2","","""event"",""trial"",""time""
""fullscreenenter"",""1"",""2327""
","
","
","""event"",""trial"",""time""
""fullscreenenter"",""1"",""2327""
","
","","","737.1999999880791","","","22","11447","2426","r","elianto","#3366ff99"," "," ","1","+10","[1587.3999999910593]","1","2","","","11447","59","1","1","win","go","0"
"pit-trial","178","1146455","0.0-64.0","battery-v0.2","","""event"",""trial"",""time""
""fullscreenenter"",""1"",""2327""
","
","
","""event"",""trial"",""time""
""fullscreenenter"",""1"",""2327""
","
","","","-1","","","22","11447","2426","z","elianto","#3366ff99","-1","-1","1","+10","[]","0","2","","","11447","60","4","2","win","no-go","0"
"pit-trial","179","1150872","0.0-65.0","battery-v0.2","","""event"",""trial"",""time""
""fullscreenenter"",""1"",""2327""
","
","
","""event"",""trial"",""time""
""fullscreenenter"",""1"",""2327""
","
","","","1563.5999999940395","","","22","11447","2426","h","elianto","#f73b6a7A"," "," ","1","0","[2413.6000000089407]","1","2","","","11447","61","3","3","lose","go","0"
"pit-trial","180","1155727","0.0-66.0","battery-v0.2","","""event"",""trial"",""time""
""fullscreenenter"",""1"",""2327""
","
","
","""event"",""trial"",""time""
""fullscreenenter"",""1"",""2327""
","
","","","-1","","","22","11447","2426","z","elianto","#3366ff99","-1","-1","1","+10","[]","0","2","","","11447","62","4","2","win","no-go","0"
"pit-trial","181","1160582","0.0-67.0","battery-v0.2","","""event"",""trial"",""time""
""fullscreenenter"",""1"",""2327""
","
","
","""event"",""trial"",""time""
""fullscreenenter"",""1"",""2327""
","
","","","-1","","","22","11447","2426","y","elianto","#f73b6a7A","-1","-1","1","0","[]","0","2","","","11447","63","2","4","lose","no-go","0"
"pit-trial","182","1164179","0.0-68.0","battery-v0.2","","""event"",""trial"",""time""
""fullscreenenter"",""1"",""2327""
","
","
","""event"",""trial"",""time""
""fullscreenenter"",""1"",""2327""
","
","","","741.7000000029802","","","22","11447","2426","r","elianto","#3366ff99"," "," ","1","+10","[1592.9000000059605]","1","2","","","11447","64","1","1","win","go","0"
"pit-trial","183","1169034","0.0-69.0","battery-v0.2","","""event"",""trial"",""time""
""fullscreenenter"",""1"",""2327""
","
","
","""event"",""trial"",""time""
""fullscreenenter"",""1"",""2327""
","
","","","-1","","","22","11447","2426","y","elianto","#f73b6a7A","-1","-1","1","0","[]","0","2","","","11447","65","2","4","lose","no-go","0"
"pit-trial","184","1173095","0.0-70.0","battery-v0.2","","""event"",""trial"",""time""
""fullscreenenter"",""1"",""2327""
","
","
","""event"",""trial"",""time""
""fullscreenenter"",""1"",""2327""
","
","","","1197.7999999970198","","","22","11447","2426","h","elianto","#f73b6a7A"," "," ","1","-10","[2049.199999988079]","1","2","","","11447","66","3","3","lose","go","1"
"pit-trial","185","1177950","0.0-71.0","battery-v0.2","","""event"",""trial"",""time""
""fullscreenenter"",""1"",""2327""
","
","
","""event"",""trial"",""time""
""fullscreenenter"",""1"",""2327""
","
","","","-1","","","22","11447","2426","z","elianto","#3366ff99","-1","-1","1","+10","[]","0","2","","","11447","67","4","2","win","no-go","0"
"pit-trial","186","1181627","0.0-72.0","battery-v0.2","","""event"",""trial"",""time""
""fullscreenenter"",""1"",""2327""
","
","
","""event"",""trial"",""time""
""fullscreenenter"",""1"",""2327""
","
","","","822.2999999970198","","","22","11447","2426","r","elianto","#3366ff99"," "," ","1","+10","[1672.9000000059605]","1","2","","","11447","68","1","1","win","go","0"
"pit-trial","187","1186482","0.0-73.0","battery-v0.2","","""event"",""trial"",""time""
""fullscreenenter"",""1"",""2327""
","
","
","""event"",""trial"",""time""
""fullscreenenter"",""1"",""2327""
","
","","","-1","","","22","11447","2426","z","elianto","#3366ff99","-1","-1","1","+10","[]","0","2","","","11447","69","4","2","win","no-go","0"
"pit-trial","188","1190310","0.0-74.0","battery-v0.2","","""event"",""trial"",""time""
""fullscreenenter"",""1"",""2327""
","
","
","""event"",""trial"",""time""
""fullscreenenter"",""1"",""2327""
","
","","","971.7999999970198","","","22","11447","2426","h","elianto","#f73b6a7A"," "," ","1","-10","[1822.5]","1","2","","","11447","70","3","3","lose","go","1"
"pit-trial","189","1194335","0.0-75.0","battery-v0.2","","""event"",""trial"",""time""
""fullscreenenter"",""1"",""2327""
","
","
","""event"",""trial"",""time""
""fullscreenenter"",""1"",""2327""
","
","","","1170","","","22","11447","2426","c","elianto","#3366ff99"," "," ","1","+10","[2020.7000000029802]","1","2","","","11447","71","5","1","win","go","0"
"pit-trial","190","1198202","0.0-76.0","battery-v0.2","","""event"",""trial"",""time""
""fullscreenenter"",""1"",""2327""
","
","
","""event"",""trial"",""time""
""fullscreenenter"",""1"",""2327""
","
","","","1011.7999999970198","","","22","11447","2426","r","elianto","#3366ff99"," "," ","1","+10","[1862.2999999970198]","1","2","","","11447","72","1","1","win","go","0"
"pit-trial","191","1201896","0.0-77.0","battery-v0.2","","""event"",""trial"",""time""
""fullscreenenter"",""1"",""2327""
","
","
","""event"",""trial"",""time""
""fullscreenenter"",""1"",""2327""
","
","","","838.6000000089407","","","22","11447","2426","r","elianto","#3366ff99"," "," ","1","+10","[1689.7000000029802]","1","2","","","11447","73","1","1","win","go","0"
"pit-trial","192","1206751","0.0-78.0","battery-v0.2","","""event"",""trial"",""time""
""fullscreenenter"",""1"",""2327""
","
","
","""event"",""trial"",""time""
""fullscreenenter"",""1"",""2327""
","
","","","-1","","","22","11447","2426","z","elianto","#3366ff99","-1","-1","1","0","[]","0","2","","","11447","74","4","2","win","no-go","1"
"pit-trial","193","1210553","0.0-79.0","battery-v0.2","","""event"",""trial"",""time""
""fullscreenenter"",""1"",""2327""
","
","
","""event"",""trial"",""time""
""fullscreenenter"",""1"",""2327""
","
","","","945.5999999940395","","","22","11447","2426","h","elianto","#f73b6a7A"," "," ","1","0","[1795.7999999970198]","1","2","","","11447","75","3","3","lose","go","0"
"pit-trial","194","1214126","0.0-80.0","battery-v0.2","","""event"",""trial"",""time""
""fullscreenenter"",""1"",""2327""
","
","
","""event"",""trial"",""time""
""fullscreenenter"",""1"",""2327""
","
","","","710.9000000059605","","","22","11447","2426","c","elianto","#3366ff99"," "," ","1","+10","[1561.4000000059605]","1","2","","","11447","76","5","1","win","go","0"
"pit-trial","195","1217530","0.0-81.0","battery-v0.2","","""event"",""trial"",""time""
""fullscreenenter"",""1"",""2327""
","
","
","""event"",""trial"",""time""
""fullscreenenter"",""1"",""2327""
","
","","","549.1000000089407","","","22","11447","2426","c","elianto","#3366ff99"," "," ","1","+10","[1400.0999999940395]","1","2","","","11447","77","5","1","win","go","0"
"pit-trial","196","1221312","0.0-82.0","battery-v0.2","","""event"",""trial"",""time""
""fullscreenenter"",""1"",""2327""
","
","
","""event"",""trial"",""time""
""fullscreenenter"",""1"",""2327""
","
","","","926.9000000059605","","","22","11447","2426","h","elianto","#f73b6a7A"," "," ","1","0","[1778]","1","2","","","11447","78","3","3","lose","go","0"
"pit-trial","197","1226178","0.0-83.0","battery-v0.2","","""event"",""trial"",""time""
""fullscreenenter"",""1"",""2327""
","
","
","""event"",""trial"",""time""
""fullscreenenter"",""1"",""2327""
","
","","","-1","","","22","11447","2426","z","elianto","#3366ff99","-1","-1","1","+10","[]","0","2","","","11447","79","4","2","win","no-go","0"
"pit-trial","198","1230283","0.0-84.0","battery-v0.2","","""event"",""trial"",""time""
""fullscreenenter"",""1"",""2327""
","
","
","""event"",""trial"",""time""
""fullscreenenter"",""1"",""2327""
","
","","","1250.2000000029802","","","22","11447","2426","b","elianto","#f73b6a7A","-1"," ","0","0","[2100.8999999910593]","1","2","","","11447","80","6","4","lose","no-go","1"
"pit-trial","199","1233957","0.0-85.0","battery-v0.2","","""event"",""trial"",""time""
""fullscreenenter"",""1"",""2327""
","
","
","""event"",""trial"",""time""
""fullscreenenter"",""1"",""2327""
","
","","","817.2999999970198","","","22","11447","2426","b","elianto","#f73b6a7A","-1"," ","0","0","[1668.4000000059605]","1","2","","","11447","81","6","4","lose","no-go","1"
"pit-trial","200","1237539","0.0-86.0","battery-v0.2","","""event"",""trial"",""time""
""fullscreenenter"",""1"",""2327""
","
","
","""event"",""trial"",""time""
""fullscreenenter"",""1"",""2327""
","
","","","727.5","","","22","11447","2426","c","elianto","#3366ff99"," "," ","1","0","[1578.5999999940395]","1","2","","","11447","82","5","1","win","go","1"
"pit-trial","201","1242394","0.0-87.0","battery-v0.2","","""event"",""trial"",""time""
""fullscreenenter"",""1"",""2327""
","
","
","""event"",""trial"",""time""
""fullscreenenter"",""1"",""2327""
","
","","","-1","","","22","11447","2426","z","elianto","#3366ff99","-1","-1","1","+10","[]","0","2","","","11447","83","4","2","win","no-go","0"
"pit-trial","202","1246286","0.0-88.0","battery-v0.2","","""event"",""trial"",""time""
""fullscreenenter"",""1"",""2327""
","
","
","""event"",""trial"",""time""
""fullscreenenter"",""1"",""2327""
","
","","","1036.2000000029802","","","22","11447","2426","t","elianto","#f73b6a7A"," "," ","1","-10","[1887.2000000029802]","1","2","","","11447","84","7","3","lose","go","1"
"pit-trial","203","1251142","0.0-89.0","battery-v0.2","","""event"",""trial"",""time""
""fullscreenenter"",""1"",""2327""
","
","
","""event"",""trial"",""time""
""fullscreenenter"",""1"",""2327""
","
","","","-1","","","22","11447","2426","z","elianto","#3366ff99","-1","-1","1","0","[]","0","2","","","11447","85","4","2","win","no-go","1"
"pit-trial","204","1254708","0.0-90.0","battery-v0.2","","""event"",""trial"",""time""
""fullscreenenter"",""1"",""2327""
","
","
","""event"",""trial"",""time""
""fullscreenenter"",""1"",""2327""
","
","","","710.9000000059605","","","22","11447","2426","b","elianto","#f73b6a7A","-1"," ","0","0","[1561.4000000059605]","1","2","","","11447","86","6","4","lose","no-go","1"
"pit-trial","205","1259565","0.0-91.0","battery-v0.2","","""event"",""trial"",""time""
""fullscreenenter"",""1"",""2327""
","
","
","""event"",""trial"",""time""
""fullscreenenter"",""1"",""2327""
","
","","","-1","","","22","11447","2426","t","elianto","#f73b6a7A"," ","-1","0","0","[]","0","2","","","11447","87","7","3","lose","go","1"
"pit-trial","206","1263069","0.0-92.0","battery-v0.2","","""event"",""trial"",""time""
""fullscreenenter"",""1"",""2327""
","
","
","""event"",""trial"",""time""
""fullscreenenter"",""1"",""2327""
","
","","","649.0999999940395","","","22","11447","2426","c","elianto","#3366ff99"," "," ","1","+10","[1499.2000000029802]","1","2","","","11447","88","5","1","win","go","0"
"pit-trial","207","1266436","0.0-93.0","battery-v0.2","","""event"",""trial"",""time""
""fullscreenenter"",""1"",""2327""
","
","
","""event"",""trial"",""time""
""fullscreenenter"",""1"",""2327""
","
","","","514.7999999970198","","","22","11447","2426","c","elianto","#3366ff99"," "," ","1","+10","[1365.2999999970198]","1","2","","","11447","89","5","1","win","go","0"
"pit-trial","208","1270172","0.0-94.0","battery-v0.2","","""event"",""trial"",""time""
""fullscreenenter"",""1"",""2327""
","
","
","""event"",""trial"",""time""
""fullscreenenter"",""1"",""2327""
","
","","","879.6000000089407","","","22","11447","2426","b","elianto","#f73b6a7A","-1"," ","0","-10","[1730]","1","2","","","11447","90","6","4","lose","no-go","0"
"pit-trial","209","1275027","0.0-95.0","battery-v0.2","","""event"",""trial"",""time""
""fullscreenenter"",""1"",""2327""
","
","
","""event"",""trial"",""time""
""fullscreenenter"",""1"",""2327""
","
","","","-1","","","22","11447","2426","z","elianto","#3366ff99","-1","-1","1","+10","[]","0","2","","","11447","91","4","2","win","no-go","0"
"pit-trial","210","1279885","0.0-96.0","battery-v0.2","","""event"",""trial"",""time""
""fullscreenenter"",""1"",""2327""
","
","
","""event"",""trial"",""time""
""fullscreenenter"",""1"",""2327""
","
","","","-1","","","22","11447","2426","t","elianto","#f73b6a7A"," ","-1","0","0","[]","0","2","","","11447","92","7","3","lose","go","1"
"pit-trial","211","1283480","0.0-97.0","battery-v0.2","","""event"",""trial"",""time""
""fullscreenenter"",""1"",""2327""
","
","
","""event"",""trial"",""time""
""fullscreenenter"",""1"",""2327""
","
","","","738","","","22","11447","2426","c","elianto","#3366ff99"," "," ","1","+10","[1589.699999988079]","1","2","","","11447","93","5","1","win","go","0"
"pit-trial","212","1288337","0.0-98.0","battery-v0.2","","""event"",""trial"",""time""
""fullscreenenter"",""1"",""2327""
","
","
","""event"",""trial"",""time""
""fullscreenenter"",""1"",""2327""
","
","","","-1","","","22","11447","2426","t","elianto","#f73b6a7A"," ","-1","0","0","[]","0","2","","","11447","94","7","3","lose","go","1"
"pit-trial","213","1292420","0.0-99.0","battery-v0.2","","""event"",""trial"",""time""
""fullscreenenter"",""1"",""2327""
","
","
","""event"",""trial"",""time""
""fullscreenenter"",""1"",""2327""
","
","","","1228.0999999940395","","","22","11447","2426","b","elianto","#f73b6a7A","-1"," ","0","-10","[2078.8999999910593]","1","2","","","11447","95","6","4","lose","no-go","0"
"pit-trial","214","1296241","0.0-100.0","battery-v0.2","","""event"",""trial"",""time""
""fullscreenenter"",""1"",""2327""
","
","
","""event"",""trial"",""time""
""fullscreenenter"",""1"",""2327""
","
","","","965.3999999910593","","","22","11447","2426","f","elianto","#3366ff99","-1"," ","0","0","[1815.5999999940395]","1","2","","","11447","96","8","2","win","no-go","0"
"pit-trial","215","1300191","0.0-101.0","battery-v0.2","","""event"",""trial"",""time""
""fullscreenenter"",""1"",""2327""
","
","
","""event"",""trial"",""time""
""fullscreenenter"",""1"",""2327""
","
","","","1095.5999999940395","","","22","11447","2426","b","elianto","#f73b6a7A","-1"," ","0","-10","[1946]","1","2","","","11447","97","6","4","lose","no-go","0"
"pit-trial","216","1305046","0.0-102.0","battery-v0.2","","""event"",""trial"",""time""
""fullscreenenter"",""1"",""2327""
","
","
","""event"",""trial"",""time""
""fullscreenenter"",""1"",""2327""
","
","","","-1","","","22","11447","2426","f","elianto","#3366ff99","-1","-1","1","+10","[]","0","2","","","11447","98","8","2","win","no-go","0"
"pit-trial","217","1309907","0.0-103.0","battery-v0.2","","""event"",""trial"",""time""
""fullscreenenter"",""1"",""2327""
","
","
","""event"",""trial"",""time""
""fullscreenenter"",""1"",""2327""
","
","","","-1","","","22","11447","2426","t","elianto","#f73b6a7A"," ","-1","0","-10","[]","0","2","","","11447","99","7","3","lose","go","0"
"pit-trial","218","1314100","0.0-104.0","battery-v0.2","","""event"",""trial"",""time""
""fullscreenenter"",""1"",""2327""
","
","
","""event"",""trial"",""time""
""fullscreenenter"",""1"",""2327""
","
","","","1340.2000000029802","","","22","11447","2426","c","elianto","#3366ff99"," "," ","1","+10","[2190.2999999970198]","1","2","","","11447","100","5","1","win","go","0"
"pit-trial","219","1318919","0.0-105.0","battery-v0.2","","""event"",""trial"",""time""
""fullscreenenter"",""1"",""2327""
","
","
","""event"",""trial"",""time""
""fullscreenenter"",""1"",""2327""
","
","","","1963.5","","","22","11447","2426","f","elianto","#3366ff99","-1"," ","0","0","[2814.2000000029802]","1","2","","","11447","101","8","2","win","no-go","0"
"pit-trial","220","1322619","0.0-106.0","battery-v0.2","","""event"",""trial"",""time""
""fullscreenenter"",""1"",""2327""
","
","
","""event"",""trial"",""time""
""fullscreenenter"",""1"",""2327""
","
","","","844.7999999970198","","","22","11447","2426","c","elianto","#3366ff99"," "," ","1","0","[1695.5999999940395]","1","2","","","11447","102","5","1","win","go","1"
"pit-trial","221","1326331","0.0-107.0","battery-v0.2","","""event"",""trial"",""time""
""fullscreenenter"",""1"",""2327""
","
","
","""event"",""trial"",""time""
""fullscreenenter"",""1"",""2327""
","
","","","856.8000000119209","","","22","11447","2426","n","elianto","#3366ff99","-1"," ","0","0","[1707.800000011921]","1","2","","","11447","103","9","2","win","no-go","0"
"pit-trial","222","1331185","0.0-108.0","battery-v0.2","","""event"",""trial"",""time""
""fullscreenenter"",""1"",""2327""
","
","
","""event"",""trial"",""time""
""fullscreenenter"",""1"",""2327""
","
","","","-1","","","22","11447","2426","b","elianto","#f73b6a7A","-1","-1","1","0","[]","0","2","","","11447","104","6","4","lose","no-go","0"
"pit-trial","223","1336053","0.0-109.0","battery-v0.2","","""event"",""trial"",""time""
""fullscreenenter"",""1"",""2327""
","
","
","""event"",""trial"",""time""
""fullscreenenter"",""1"",""2327""
","
","","","-1","","","22","11447","2426","b","elianto","#f73b6a7A","-1","-1","1","0","[]","0","2","","","11447","105","6","4","lose","no-go","0"
"pit-trial","224","1339810","0.0-110.0","battery-v0.2","","""event"",""trial"",""time""
""fullscreenenter"",""1"",""2327""
","
","
","""event"",""trial"",""time""
""fullscreenenter"",""1"",""2327""
","
","","","901.2999999970198","","","22","11447","2426","c","elianto","#3366ff99"," "," ","1","+10","[1752.199999988079]","1","2","","","11447","106","5","1","win","go","0"
"pit-trial","225","1344666","0.0-111.0","battery-v0.2","","""event"",""trial"",""time""
""fullscreenenter"",""1"",""2327""
","
","
","""event"",""trial"",""time""
""fullscreenenter"",""1"",""2327""
","
","","","-1","","","22","11447","2426","n","elianto","#3366ff99","-1","-1","1","+10","[]","0","2","","","11447","107","9","2","win","no-go","0"
"pit-trial","226","1349521","0.0-112.0","battery-v0.2","","""event"",""trial"",""time""
""fullscreenenter"",""1"",""2327""
","
","
","""event"",""trial"",""time""
""fullscreenenter"",""1"",""2327""
","
","","","-1","","","22","11447","2426","f","elianto","#3366ff99","-1","-1","1","0","[4081.0999999940395]","1","2","","","11447","108","8","2","win","no-go","1"
"pit-trial","227","1353229","0.0-113.0","battery-v0.2","","""event"",""trial"",""time""
""fullscreenenter"",""1"",""2327""
","
","
","""event"",""trial"",""time""
""fullscreenenter"",""1"",""2327""
","
","","","853.2000000029802","","","22","11447","2426","f","elianto","#3366ff99","-1"," ","0","0","[1703.6000000089407]","1","2","","","11447","109","8","2","win","no-go","0"
"pit-trial","228","1358083","0.0-114.0","battery-v0.2","","""event"",""trial"",""time""
""fullscreenenter"",""1"",""2327""
","
","
","""event"",""trial"",""time""
""fullscreenenter"",""1"",""2327""
","
","","","-1","","","22","11447","2426","n","elianto","#3366ff99","-1","-1","1","+10","[]","0","2","","","11447","110","9","2","win","no-go","0"
"pit-trial","229","1361542","0.0-115.0","battery-v0.2","","""event"",""trial"",""time""
""fullscreenenter"",""1"",""2327""
","
","
","""event"",""trial"",""time""
""fullscreenenter"",""1"",""2327""
","
","","","605.4000000059605","","","22","11447","2426","c","elianto","#3366ff99"," "," ","1","+10","[1455.7999999970198]","1","2","","","11447","111","5","1","win","go","0"
"pit-trial","230","1366402","0.0-116.0","battery-v0.2","","""event"",""trial"",""time""
""fullscreenenter"",""1"",""2327""
","
","
","""event"",""trial"",""time""
""fullscreenenter"",""1"",""2327""
","
","","","-1","","","22","11447","2426","b","elianto","#f73b6a7A","-1","-1","1","0","[]","0","2","","","11447","112","6","4","lose","no-go","0"
"pit-trial","231","1371258","0.0-117.0","battery-v0.2","","""event"",""trial"",""time""
""fullscreenenter"",""1"",""2327""
","
","
","""event"",""trial"",""time""
""fullscreenenter"",""1"",""2327""
","
","","","-1","","","22","11447","2426","n","elianto","#3366ff99","-1","-1","1","+10","[]","0","2","","","11447","113","9","2","win","no-go","0"
"pit-trial","232","1375283","0.0-118.0","battery-v0.2","","""event"",""trial"",""time""
""fullscreenenter"",""1"",""2327""
","
","
","""event"",""trial"",""time""
""fullscreenenter"",""1"",""2327""
","
","","","1169.2999999970198","","","22","11447","2426","c","elianto","#3366ff99"," "," ","1","+10","[2020.7999999970198]","1","2","","","11447","114","5","1","win","go","0"
"pit-trial","233","1380139","0.0-119.0","battery-v0.2","","""event"",""trial"",""time""
""fullscreenenter"",""1"",""2327""
","
","
","""event"",""trial"",""time""
""fullscreenenter"",""1"",""2327""
","
","","","-1","","","22","11447","2426","f","elianto","#3366ff99","-1","-1","1","+10","[]","0","2","","","11447","115","8","2","win","no-go","0"
"pit-trial","234","1384993","0.0-120.0","battery-v0.2","","""event"",""trial"",""time""
""fullscreenenter"",""1"",""2327""
","
","
","""event"",""trial"",""time""
""fullscreenenter"",""1"",""2327""
","
","","","-1","","","22","11447","2426","t","elianto","#f73b6a7A"," ","-1","0","-10","[]","0","2","","","11447","116","7","3","lose","go","0"
"pit-trial","235","1389849","0.0-121.0","battery-v0.2","","""event"",""trial"",""time""
""fullscreenenter"",""1"",""2327""
","
","
","""event"",""trial"",""time""
""fullscreenenter"",""1"",""2327""
","
","","","-1","","","22","11447","2426","f","elianto","#3366ff99","-1","-1","1","+10","[]","0","2","","","11447","117","8","2","win","no-go","0"
"pit-trial","236","1394705","0.0-122.0","battery-v0.2","","""event"",""trial"",""time""
""fullscreenenter"",""1"",""2327""
","
","
","""event"",""trial"",""time""
""fullscreenenter"",""1"",""2327""
","
","","","-1","","","22","11447","2426","b","elianto","#f73b6a7A","-1","-1","1","0","[]","0","2","","","11447","118","6","4","lose","no-go","0"
"pit-trial","237","1399561","0.0-123.0","battery-v0.2","","""event"",""trial"",""time""
""fullscreenenter"",""1"",""2327""
","
","
","""event"",""trial"",""time""
""fullscreenenter"",""1"",""2327""
","
","","","-1","","","22","11447","2426","n","elianto","#3366ff99","-1","-1","1","+10","[]","0","2","","","11447","119","9","2","win","no-go","0"
"pit-trial","238","1403367","0.0-124.0","battery-v0.2","","""event"",""trial"",""time""
""fullscreenenter"",""1"",""2327""
","
","
","""event"",""trial"",""time""
""fullscreenenter"",""1"",""2327""
","
","","","952.0999999940395","","","22","11447","2426","c","elianto","#3366ff99"," "," ","1","+10","[1802.1000000089407]","1","2","","","11447","120","5","1","win","go","0"
"pit-trial","239","1408222","0.0-125.0","battery-v0.2","","""event"",""trial"",""time""
""fullscreenenter"",""1"",""2327""
","
","
","""event"",""trial"",""time""
""fullscreenenter"",""1"",""2327""
","
","","","-1","","","22","11447","2426","t","elianto","#f73b6a7A"," ","-1","0","-10","[]","0","2","","","11447","121","7","3","lose","go","0"
"pit-trial","240","1413093","0.0-126.0","battery-v0.2","","""event"",""trial"",""time""
""fullscreenenter"",""1"",""2327""
","
","
","""event"",""trial"",""time""
""fullscreenenter"",""1"",""2327""
","
","","","-1","","","22","11447","2426","f","elianto","#3366ff99","-1","-1","1","+10","[]","0","2","","","11447","122","8","2","win","no-go","0"
"pit-trial","241","1417948","0.0-127.0","battery-v0.2","","""event"",""trial"",""time""
""fullscreenenter"",""1"",""2327""
","
","
","""event"",""trial"",""time""
""fullscreenenter"",""1"",""2327""
","
","","","-1","","","22","11447","2426","n","elianto","#3366ff99","-1","-1","1","+10","[]","0","2","","","11447","123","9","2","win","no-go","0"
"pit-trial","242","1421475","0.0-128.0","battery-v0.2","","""event"",""trial"",""time""
""fullscreenenter"",""1"",""2327""
","
","
","""event"",""trial"",""time""
""fullscreenenter"",""1"",""2327""
","
","","","671.5","","","22","11447","2426","c","elianto","#3366ff99"," "," ","1","+10","[1521.9000000059605]","1","2","","","11447","124","5","1","win","go","0"
"pit-trial","243","1426330","0.0-129.0","battery-v0.2","","""event"",""trial"",""time""
""fullscreenenter"",""1"",""2327""
","
","
","""event"",""trial"",""time""
""fullscreenenter"",""1"",""2327""
","
","","","-1","","","22","11447","2426","b","elianto","#f73b6a7A","-1","-1","1","-10","[]","0","2","","","11447","125","6","4","lose","no-go","1"
"pit-trial","244","1431189","0.0-130.0","battery-v0.2","","""event"",""trial"",""time""
""fullscreenenter"",""1"",""2327""
","
","
","""event"",""trial"",""time""
""fullscreenenter"",""1"",""2327""
","
","","","-1","","","22","11447","2426","t","elianto","#f73b6a7A"," ","-1","0","0","[]","0","2","","","11447","126","7","3","lose","go","1"
"pit-trial","245","1436050","0.0-131.0","battery-v0.2","","""event"",""trial"",""time""
""fullscreenenter"",""1"",""2327""
","
","
","""event"",""trial"",""time""
""fullscreenenter"",""1"",""2327""
","
","","","-1","","","22","11447","2426","n","elianto","#3366ff99","-1","-1","1","+10","[]","0","2","","","11447","127","9","2","win","no-go","0"
"pit-trial","246","1440906","0.0-132.0","battery-v0.2","","""event"",""trial"",""time""
""fullscreenenter"",""1"",""2327""
","
","
","""event"",""trial"",""time""
""fullscreenenter"",""1"",""2327""
","
","","","-1","","","22","11447","2426","f","elianto","#3366ff99","-1","-1","1","0","[]","0","2","","","11447","128","8","2","win","no-go","1"
"pit-trial","247","1445761","0.0-133.0","battery-v0.2","","""event"",""trial"",""time""
""fullscreenenter"",""1"",""2327""
","
","
","""event"",""trial"",""time""
""fullscreenenter"",""1"",""2327""
","
","","","-1","","","22","11447","2426","t","elianto","#f73b6a7A"," ","-1","0","-10","[]","0","2","","","11447","129","7","3","lose","go","0"
"pit-trial","248","1450626","0.0-134.0","battery-v0.2","","""event"",""trial"",""time""
""fullscreenenter"",""1"",""2327""
","
","
","""event"",""trial"",""time""
""fullscreenenter"",""1"",""2327""
","
","","","-1","","","22","11447","2426","b","elianto","#f73b6a7A","-1","-1","1","0","[]","0","2","","","11447","130","6","4","lose","no-go","0"
"pit-trial","249","1455482","0.0-135.0","battery-v0.2","","""event"",""trial"",""time""
""fullscreenenter"",""1"",""2327""
","
","
","""event"",""trial"",""time""
""fullscreenenter"",""1"",""2327""
","
","","","-1","","","22","11447","2426","f","elianto","#3366ff99","-1","-1","1","+10","[]","0","2","","","11447","131","8","2","win","no-go","0"
"pit-trial","250","1460336","0.0-136.0","battery-v0.2","","""event"",""trial"",""time""
""fullscreenenter"",""1"",""2327""
","
","
","""event"",""trial"",""time""
""fullscreenenter"",""1"",""2327""
","
","","","-1","","","22","11447","2426","n","elianto","#3366ff99","-1","-1","1","+10","[]","0","2","","","11447","132","9","2","win","no-go","0"
"pit-trial","251","1465192","0.0-137.0","battery-v0.2","","""event"",""trial"",""time""
""fullscreenenter"",""1"",""2327""
","
","
","""event"",""trial"",""time""
""fullscreenenter"",""1"",""2327""
","
","","","-1","","","22","11447","2426","n","elianto","#3366ff99","-1","-1","1","+10","[]","0","2","","","11447","133","9","2","win","no-go","0"
"pit-trial","252","1470047","0.0-138.0","battery-v0.2","","""event"",""trial"",""time""
""fullscreenenter"",""1"",""2327""
","
","
","""event"",""trial"",""time""
""fullscreenenter"",""1"",""2327""
","
","","","-1","","","22","11447","2426","t","elianto","#f73b6a7A"," ","-1","0","-10","[]","0","2","","","11447","134","7","3","lose","go","0"
"pit-trial","253","1474903","0.0-139.0","battery-v0.2","","""event"",""trial"",""time""
""fullscreenenter"",""1"",""2327""
","
","
","""event"",""trial"",""time""
""fullscreenenter"",""1"",""2327""
","
","","","-1","","","22","11447","2426","f","elianto","#3366ff99","-1","-1","1","+10","[]","0","2","","","11447","135","8","2","win","no-go","0"
"pit-trial","254","1479757","0.0-140.0","battery-v0.2","","""event"",""trial"",""time""
""fullscreenenter"",""1"",""2327""
","
","
","""event"",""trial"",""time""
""fullscreenenter"",""1"",""2327""
","
","","","-1","","","22","11447","2426","b","elianto","#f73b6a7A","-1","-1","1","0","[]","0","2","","","11447","136","6","4","lose","no-go","0"
"pit-trial","255","1484612","0.0-141.0","battery-v0.2","","""event"",""trial"",""time""
""fullscreenenter"",""1"",""2327""
","
","
","""event"",""trial"",""time""
""fullscreenenter"",""1"",""2327""
","
","","","-1","","","22","11447","2426","f","elianto","#3366ff99","-1","-1","1","+10","[]","0","2","","","11447","137","8","2","win","no-go","0"
"pit-trial","256","1489469","0.0-142.0","battery-v0.2","","""event"",""trial"",""time""
""fullscreenenter"",""1"",""2327""
","
","
","""event"",""trial"",""time""
""fullscreenenter"",""1"",""2327""
","
","","","-1","","","22","11447","2426","n","elianto","#3366ff99","-1","-1","1","+10","[]","0","2","","","11447","138","9","2","win","no-go","0"
"pit-trial","257","1494343","0.0-143.0","battery-v0.2","","""event"",""trial"",""time""
""fullscreenenter"",""1"",""2327""
","
","
","""event"",""trial"",""time""
""fullscreenenter"",""1"",""2327""
","
","","","-1","","","22","11447","2426","t","elianto","#f73b6a7A"," ","-1","0","-10","[]","0","2","","","11447","139","7","3","lose","go","0"
"pit-trial","258","1499204","0.0-144.0","battery-v0.2","","""event"",""trial"",""time""
""fullscreenenter"",""1"",""2327""
","
","
","""event"",""trial"",""time""
""fullscreenenter"",""1"",""2327""
","
","","","-1","","","22","11447","2426","b","elianto","#f73b6a7A","-1","-1","1","0","[]","0","2","","","11447","140","6","4","lose","no-go","0"
"pit-instructions","259","1574161","0.0-145.0","battery-v0.2","","""event"",""trial"",""time""
""fullscreenenter"",""1"",""2327""
","
","
","""event"",""trial"",""time""
""fullscreenenter"",""1"",""2327""
","
","","[{""page_index"":0,""viewing_time"":64547.20000000298},{""page_index"":1,""viewing_time"":10404.90000000596}]","74952.80000001192","","","","","","","","","","","","","","","","","","","","","","","",""
"pit-trial","260","1578107","0.0-146.0","battery-v0.2","","""event"",""trial"",""time""
""fullscreenenter"",""1"",""2327""
","
","
","""event"",""trial"",""time""
""fullscreenenter"",""1"",""2327""
","
","","","1074.2999999970198","","","22","11447","2426","a","elianto","#f73b6a7A"," "," ","1","0","[1928.8999999910593]","1","3","","","11447","141","2","3","lose","go","0"
"pit-trial","261","1581741","0.0-147.0","battery-v0.2","","""event"",""trial"",""time""
""fullscreenenter"",""1"",""2327""
","
","
","""event"",""trial"",""time""
""fullscreenenter"",""1"",""2327""
","
","","","771.4000000059605","","","22","11447","2426","g","elianto","#f73b6a7A","-1"," ","0","-10","[1625.5]","1","3","","","11447","142","3","4","lose","no-go","0"
"pit-trial","262","1585321","0.0-148.0","battery-v0.2","","""event"",""trial"",""time""
""fullscreenenter"",""1"",""2327""
","
","
","""event"",""trial"",""time""
""fullscreenenter"",""1"",""2327""
","
","","","720.5","","","22","11447","2426","l","elianto","#3366ff99","-1"," ","0","0","[1571.2000000029802]","1","3","","","11447","143","1","2","win","no-go","0"
"pit-trial","263","1589502","0.0-149.0","battery-v0.2","","""event"",""trial"",""time""
""fullscreenenter"",""1"",""2327""
","
","
","""event"",""trial"",""time""
""fullscreenenter"",""1"",""2327""
","
","","","1323.9000000059605","","","22","11447","2426","u","elianto","#f73b6a7A"," "," ","1","-10","[2174.6000000089407]","1","3","","","11447","144","0","3","lose","go","1"
"pit-trial","264","1594377","0.0-150.0","battery-v0.2","","""event"",""trial"",""time""
""fullscreenenter"",""1"",""2327""
","
","
","""event"",""trial"",""time""
""fullscreenenter"",""1"",""2327""
","
","","","-1","","","22","11447","2426","a","elianto","#f73b6a7A"," ","-1","0","-10","[3031]","1","3","","","11447","145","2","3","lose","go","0"
"pit-trial","265","1599249","0.0-151.0","battery-v0.2","","""event"",""trial"",""time""
""fullscreenenter"",""1"",""2327""
","
","
","""event"",""trial"",""time""
""fullscreenenter"",""1"",""2327""
","
","","","-1","","","22","11447","2426","u","elianto","#f73b6a7A"," ","-1","0","0","[]","0","3","","","11447","146","0","3","lose","go","1"
"pit-trial","266","1604111","0.0-152.0","battery-v0.2","","""event"",""trial"",""time""
""fullscreenenter"",""1"",""2327""
","
","
","""event"",""trial"",""time""
""fullscreenenter"",""1"",""2327""
","
","","","-1","","","22","11447","2426","l","elianto","#3366ff99","-1","-1","1","+10","[]","0","3","","","11447","147","1","2","win","no-go","0"
"pit-trial","267","1608966","0.0-153.0","battery-v0.2","","""event"",""trial"",""time""
""fullscreenenter"",""1"",""2327""
","
","
