"trial_type","trial_index","time_elapsed","internal_node_id","task_version","subject_id","interactions","blur_events","focus_events","fullscreenenter_events","fullscreenexit_events","success","view_history","rt","responses","num_errors","age","subject","participantId","rune","rune_set","hex","correct","choice","accuracy","outcome","keys","total_keys","block","practice","value","sub","trial","stimulus","robot","valence","action","sham"
"pavlovia","0","10","0.0-0.0","battery-v0.2","","""event"",""trial"",""time""
""fullscreenenter"",""1"",""2066""
","
","
","""event"",""trial"",""time""
""fullscreenenter"",""1"",""2066""
","
","","","","","","","","","","","","","","","","","","","","","","","","","","",""
"fullscreen","1","3065","0.0-1.0","battery-v0.2","","""event"",""trial"",""time""
""fullscreenenter"",""1"",""2066""
","
","
","""event"",""trial"",""time""
""fullscreenenter"",""1"",""2066""
","
","true","","","","","","","","","","","","","","","","","","","","","","","","","",""
"pit-instructions","2","6106","0.0-2.0-0.0","battery-v0.2","","""event"",""trial"",""time""
""fullscreenenter"",""1"",""2066""
","
","
","""event"",""trial"",""time""
""fullscreenenter"",""1"",""2066""
","
","","[{""page_index"":0,""viewing_time"":3035.699999988079}]","3035.9000000059605","","","","","","","","","","","","","","","","","","","","","","","",""
"pit-comprehension","3","10276","0.0-2.0-1.0-0.0","battery-v0.2","","""event"",""trial"",""time""
""fullscreenenter"",""1"",""2066""
","
","
","""event"",""trial"",""time""
""fullscreenenter"",""1"",""2066""
","
","","","4166.800000011921","[""shark""]","0","20","7260","3789","","","","","","","","","","","","","","","","","","",""
"pit-instructions","4","12524","0.0-2.0-1.0-1.0","battery-v0.2","","""event"",""trial"",""time""
""fullscreenenter"",""1"",""2066""
","
","
","""event"",""trial"",""time""
""fullscreenenter"",""1"",""2066""
","
","","[{""page_index"":0,""viewing_time"":2236.300000011921}]","2236.600000023842","","","","","","","","","","","","","","","","","","","","","","","",""
"pit-comprehension","5","16575","0.0-2.0-2.0-0.0","battery-v0.2","","""event"",""trial"",""time""
""fullscreenenter"",""1"",""2066""
","
","
","""event"",""trial"",""time""
""fullscreenenter"",""1"",""2066""
","
","","","4046.4000000059605","[""tiger""]","0","20","7260","3789","","","","","","","","","","","","","","","","","","",""
"pit-instructions","6","17374","0.0-2.0-2.0-1.0","battery-v0.2","","""event"",""trial"",""time""
""fullscreenenter"",""1"",""2066""
","
","
","""event"",""trial"",""time""
""fullscreenenter"",""1"",""2066""
","
","","[{""page_index"":0,""viewing_time"":793.5999999940395}]","794.0999999940395","","","","","","","","","","","","","","","","","","","","","","","",""
"pit-instructions","7","115177","0.0-2.0-3.0","battery-v0.2","","""event"",""trial"",""time""
""fullscreenenter"",""1"",""2066""
","
","
","""event"",""trial"",""time""
""fullscreenenter"",""1"",""2066""
","
","","[{""page_index"":0,""viewing_time"":8829.40000000596},{""page_index"":1,""viewing_time"":6349},{""page_index"":2,""viewing_time"":6099.299999982119},{""page_index"":3,""viewing_time"":6635},{""page_index"":4,""viewing_time"":6350.200000017881},{""page_index"":5,""viewing_time"":6150},{""page_index"":6,""viewing_time"":7435.399999976158},{""page_index"":7,""viewing_time"":7048},{""page_index"":8,""viewing_time"":6666.300000011921},{""page_index"":9,""viewing_time"":8636.40000000596},{""page_index"":10,""viewing_time"":7717},{""page_index"":11,""viewing_time"":7664.799999982119},{""page_index"":12,""viewing_time"":6383.700000017881},{""page_index"":13,""viewing_time"":5834.799999982119}]","97800","","","","","","","","","","","","","","","","","","","","","","","",""
"pit-trial","8","118535","0.0-2.0-4.0-0.0","battery-v0.2","","""event"",""trial"",""time""
""fullscreenenter"",""1"",""2066""
","
","
","""event"",""trial"",""time""
""fullscreenenter"",""1"",""2066""
","
","","","491.69999998807907","","","20","7260","3789","&#9784;","elianto","#FFFFF080"," "," ","1","&#10004","[1345.9000000059605]","1","0","0","","","","","","","",""
"pit-trial","9","121874","0.0-2.0-4.1-0.1","battery-v0.2","","""event"",""trial"",""time""
""fullscreenenter"",""1"",""2066""
","
","
","""event"",""trial"",""time""
""fullscreenenter"",""1"",""2066""
","
","","","471.59999999403954","","","20","7260","3789","&#9784;","elianto","#FFFFF080"," "," ","1","&#10004","[1325.9000000059605]","1","0","0","","","","","","","",""
"pit-trial","10","125138","0.0-2.0-4.2-0.2","battery-v0.2","","""event"",""trial"",""time""
""fullscreenenter"",""1"",""2066""
","
","
","""event"",""trial"",""time""
""fullscreenenter"",""1"",""2066""
","
","","","396.80000001192093","","","20","7260","3789","&#9784;","elianto","#FFFFF080"," "," ","1","&#10004","[1251.8999999761581]","1","0","0","","","","","","","",""
"pit-trial","11","128423","0.0-2.0-4.3-0.3","battery-v0.2","","""event"",""trial"",""time""
""fullscreenenter"",""1"",""2066""
","
","
","""event"",""trial"",""time""
""fullscreenenter"",""1"",""2066""
","
","","","416.39999997615814","","","20","7260","3789","&#9784;","elianto","#FFFFF080"," "," ","1","&#10004","[1276.199999988079]","1","0","0","","","","","","","",""
"pit-trial","12","131735","0.0-2.0-4.4-0.4","battery-v0.2","","""event"",""trial"",""time""
""fullscreenenter"",""1"",""2066""
","
","
","""event"",""trial"",""time""
""fullscreenenter"",""1"",""2066""
","
","","","446.5","","","20","7260","3789","&#9784;","elianto","#FFFFF080"," "," ","1","&#10004","[1300.5999999940395]","1","0","0","","","","","","","",""
"pit-instructions","13","153642","0.0-2.0-5.0","battery-v0.2","","""event"",""trial"",""time""
""fullscreenenter"",""1"",""2066""
","
","
","""event"",""trial"",""time""
""fullscreenenter"",""1"",""2066""
","
","","[{""page_index"":0,""viewing_time"":5420.5},{""page_index"":1,""viewing_time"":5614.9000000059605},{""page_index"":2,""viewing_time"":5317.700000017881},{""page_index"":3,""viewing_time"":5549}]","21902.70000001788","","","","","","","","","","","","","","","","","","","","","","","",""
"pit-trial","14","158514","0.0-2.0-6.0-0.0","battery-v0.2","","""event"",""trial"",""time""
""fullscreenenter"",""1"",""2066""
","
","
","""event"",""trial"",""time""
""fullscreenenter"",""1"",""2066""
","
","","","-1","","","20","7260","3789","&#9854;","elianto","#FFFFF080","-1","-1","1","&#10004","[]","0","0","1","","","","","","","",""
"pit-trial","15","163383","0.0-2.0-6.1-0.1","battery-v0.2","","""event"",""trial"",""time""
""fullscreenenter"",""1"",""2066""
","
","
","""event"",""trial"",""time""
""fullscreenenter"",""1"",""2066""
","
","","","-1","","","20","7260","3789","&#9854;","elianto","#FFFFF080","-1","-1","1","&#10004","[]","0","0","1","","","","","","","",""
"pit-trial","16","168257","0.0-2.0-6.2-0.2","battery-v0.2","","""event"",""trial"",""time""
""fullscreenenter"",""1"",""2066""
","
","
","""event"",""trial"",""time""
""fullscreenenter"",""1"",""2066""
","
","","","-1","","","20","7260","3789","&#9854;","elianto","#FFFFF080","-1","-1","1","&#10004","[]","0","0","1","","","","","","","",""
"pit-trial","17","173121","0.0-2.0-6.3-0.3","battery-v0.2","","""event"",""trial"",""time""
""fullscreenenter"",""1"",""2066""
","
","
","""event"",""trial"",""time""
""fullscreenenter"",""1"",""2066""
","
","","","-1","","","20","7260","3789","&#9854;","elianto","#FFFFF080","-1","-1","1","&#10004","[]","0","0","1","","","","","","","",""
"pit-trial","18","177991","0.0-2.0-6.4-0.4","battery-v0.2","","""event"",""trial"",""time""
""fullscreenenter"",""1"",""2066""
","
","
","""event"",""trial"",""time""
""fullscreenenter"",""1"",""2066""
","
","","","-1","","","20","7260","3789","&#9854;","elianto","#FFFFF080","-1","-1","1","&#10004","[]","0","0","1","","","","","","","",""
"pit-instructions","19","304829","0.0-2.0-7.0","battery-v0.2","","""event"",""trial"",""time""
""fullscreenenter"",""1"",""2066""
","
","
","""event"",""trial"",""time""
""fullscreenenter"",""1"",""2066""
","
","","[{""page_index"":0,""viewing_time"":6127},{""page_index"":1,""viewing_time"":7084.5},{""page_index"":2,""viewing_time"":6353.199999988079},{""page_index"":3,""viewing_time"":6313.300000011921},{""page_index"":4,""viewing_time"":6220.0999999940395},{""page_index"":5,""viewing_time"":8250},{""page_index"":6,""viewing_time"":5348.800000011921},{""page_index"":7,""viewing_time"":11014.699999988079},{""page_index"":8,""viewing_time"":7052.700000017881},{""page_index"":9,""viewing_time"":7066.799999982119},{""page_index"":10,""viewing_time"":6932.0999999940395},{""page_index"":11,""viewing_time"":5051},{""page_index"":12,""viewing_time"":7650.600000023842},{""page_index"":13,""viewing_time"":7568},{""page_index"":14,""viewing_time"":7382.299999982119},{""page_index"":15,""viewing_time"":6766.800000011921},{""page_index"":16,""viewing_time"":6916.9000000059605},{""page_index"":17,""viewing_time"":7734.699999988079}]","126834.40000000596","","","","","","","","","","","","","","","","","","","","","","","",""
"pit-trial","20","308432","0.0-2.0-8.0-0.0","battery-v0.2","","""event"",""trial"",""time""
""fullscreenenter"",""1"",""2066""
","
","
","""event"",""trial"",""time""
""fullscreenenter"",""1"",""2066""
","
","","","735.9000000059605","","","20","7260","3789","&#9776;","elianto","#3366ff99"," "," ","1","+10","[1589.5]","1","0","1","","","","","","","",""
"pit-trial","21","311833","0.0-2.0-8.0-1.0","battery-v0.2","","""event"",""trial"",""time""
""fullscreenenter"",""1"",""2066""
","
","
","""event"",""trial"",""time""
""fullscreenenter"",""1"",""2066""
","
","","","533","","","20","7260","3789","&#9776;","elianto","#3366ff99"," "," ","1","+10","[1384.300000011921]","1","0","1","","","","","","","",""
"pit-trial","22","315231","0.0-2.0-8.0-2.0","battery-v0.2","","""event"",""trial"",""time""
""fullscreenenter"",""1"",""2066""
","
","
","""event"",""trial"",""time""
""fullscreenenter"",""1"",""2066""
","
","","","537.8000000119209","","","20","7260","3789","&#9776;","elianto","#3366ff99"," "," ","1","+10","[1389.300000011921]","1","0","1","","","","","","","",""
"pit-trial","23","318645","0.0-2.0-8.0-3.0","battery-v0.2","","""event"",""trial"",""time""
""fullscreenenter"",""1"",""2066""
","
","
","""event"",""trial"",""time""
""fullscreenenter"",""1"",""2066""
","
","","","548.8000000119209","","","20","7260","3789","&#9776;","elianto","#3366ff99"," "," ","1","0","[1400.800000011921]","1","0","1","","","","","","","",""
"pit-trial","24","322052","0.0-2.0-8.0-4.0","battery-v0.2","","""event"",""trial"",""time""
""fullscreenenter"",""1"",""2066""
","
","
","""event"",""trial"",""time""
""fullscreenenter"",""1"",""2066""
","
","","","542.5","","","20","7260","3789","&#9776;","elianto","#3366ff99"," "," ","1","+10","[1397]","1","0","1","","","","","","","",""
"pit-trial","25","325620","0.0-2.0-8.1-0.1","battery-v0.2","","""event"",""trial"",""time""
""fullscreenenter"",""1"",""2066""
","
","
","""event"",""trial"",""time""
""fullscreenenter"",""1"",""2066""
","
","","","706.9000000059605","","","20","7260","3789","&#9776;","elianto","#3366ff99"," "," ","1","+10","[1560.5]","1","0","1","","","","","","","",""
"pit-trial","26","329028","0.0-2.0-8.1-1.1","battery-v0.2","","""event"",""trial"",""time""
""fullscreenenter"",""1"",""2066""
","
","
","""event"",""trial"",""time""
""fullscreenenter"",""1"",""2066""
","
","","","541.3000000119209","","","20","7260","3789","&#9776;","elianto","#3366ff99"," "," ","1","+10","[1396.2000000178814]","1","0","1","","","","","","","",""
"pit-trial","27","332452","0.0-2.0-8.1-2.1","battery-v0.2","","""event"",""trial"",""time""
""fullscreenenter"",""1"",""2066""
","
","
","""event"",""trial"",""time""
""fullscreenenter"",""1"",""2066""
","
","","","560.5","","","20","7260","3789","&#9776;","elianto","#3366ff99"," "," ","1","+10","[1414.699999988079]","1","0","1","","","","","","","",""
"pit-trial","28","335814","0.0-2.0-8.1-3.1","battery-v0.2","","""event"",""trial"",""time""
""fullscreenenter"",""1"",""2066""
","
","
","""event"",""trial"",""time""
""fullscreenenter"",""1"",""2066""
","
","","","492.5","","","20","7260","3789","&#9776;","elianto","#3366ff99"," "," ","1","0","[1347]","1","0","1","","","","","","","",""
"pit-trial","29","339167","0.0-2.0-8.1-4.1","battery-v0.2","","""event"",""trial"",""time""
""fullscreenenter"",""1"",""2066""
","
","
","""event"",""trial"",""time""
""fullscreenenter"",""1"",""2066""
","
","","","489.2000000178814","","","20","7260","3789","&#9776;","elianto","#3366ff99"," "," ","1","+10","[1341.1000000238419]","1","0","1","","","","","","","",""
"pit-trial","30","342543","0.0-2.0-8.2-0.2","battery-v0.2","","""event"",""trial"",""time""
""fullscreenenter"",""1"",""2066""
","
","
","""event"",""trial"",""time""
""fullscreenenter"",""1"",""2066""
","
","","","502","","","20","7260","3789","&#9776;","elianto","#3366ff99"," "," ","1","+10","[1360.2000000178814]","1","0","1","","","","","","","",""
"pit-trial","31","345887","0.0-2.0-8.2-1.2","battery-v0.2","","""event"",""trial"",""time""
""fullscreenenter"",""1"",""2066""
","
","
","""event"",""trial"",""time""
""fullscreenenter"",""1"",""2066""
","
","","","472.69999998807907","","","20","7260","3789","&#9776;","elianto","#3366ff99"," "," ","1","+10","[1328.3999999761581]","1","0","1","","","","","","","",""
"pit-trial","32","349206","0.0-2.0-8.2-2.2","battery-v0.2","","""event"",""trial"",""time""
""fullscreenenter"",""1"",""2066""
","
","
","""event"",""trial"",""time""
""fullscreenenter"",""1"",""2066""
","
","","","447.2000000178814","","","20","7260","3789","&#9776;","elianto","#3366ff99"," "," ","1","+10","[1307.3999999761581]","1","0","1","","","","","","","",""
"pit-trial","33","352550","0.0-2.0-8.2-3.2","battery-v0.2","","""event"",""trial"",""time""
""fullscreenenter"",""1"",""2066""
","
","
","""event"",""trial"",""time""
""fullscreenenter"",""1"",""2066""
","
","","","474.69999998807907","","","20","7260","3789","&#9776;","elianto","#3366ff99"," "," ","1","0","[1334.699999988079]","1","0","1","","","","","","","",""
"pit-trial","34","355894","0.0-2.0-8.2-4.2","battery-v0.2","","""event"",""trial"",""time""
""fullscreenenter"",""1"",""2066""
","
","
","""event"",""trial"",""time""
""fullscreenenter"",""1"",""2066""
","
","","","483.59999999403954","","","20","7260","3789","&#9776;","elianto","#3366ff99"," "," ","1","+10","[1334.4000000059605]","1","0","1","","","","","","","",""
"call-function","35","355899","0.0-2.0-9.0","battery-v0.2","","""event"",""trial"",""time""
""fullscreenenter"",""1"",""2066""
","
","
","""event"",""trial"",""time""
""fullscreenenter"",""1"",""2066""
","
","","","","","","","","","","","","","","","","","","","","","","","","","","",""
"pit-instructions","36","398362","0.0-2.0-10.0","battery-v0.2","","""event"",""trial"",""time""
""fullscreenenter"",""1"",""2066""
","
","
","""event"",""trial"",""time""
""fullscreenenter"",""1"",""2066""
","
","","[{""page_index"":0,""viewing_time"":6696.199999988079},{""page_index"":1,""viewing_time"":7415.300000011921},{""page_index"":2,""viewing_time"":9982.5},{""page_index"":3,""viewing_time"":10286},{""page_index"":4,""viewing_time"":8082.4000000059605}]","42463","","","","","","","","","","","","","","","","","","","","","","","",""
"pit-trial","37","401694","0.0-2.0-11.0-0.0","battery-v0.2","","""event"",""trial"",""time""
""fullscreenenter"",""1"",""2066""
","
","
","""event"",""trial"",""time""
""fullscreenenter"",""1"",""2066""
","
","","","465.80000001192093","","","20","7260","3789","&#9761;","elianto","#3366ff99","-1"," ","0","0","[1320.6000000238419]","1","0","2","","","","","","","",""
"pit-trial","38","404963","0.0-2.0-11.0-1.0","battery-v0.2","","""event"",""trial"",""time""
""fullscreenenter"",""1"",""2066""
","
","
","""event"",""trial"",""time""
""fullscreenenter"",""1"",""2066""
","
","","","401.80000001192093","","","20","7260","3789","&#9761;","elianto","#3366ff99","-1"," ","0","0","[1258.9000000059605]","1","0","2","","","","","","","",""
"pit-trial","39","409830","0.0-2.0-11.0-2.0","battery-v0.2","","""event"",""trial"",""time""
""fullscreenenter"",""1"",""2066""
","
","
","""event"",""trial"",""time""
""fullscreenenter"",""1"",""2066""
","
","","","-1","","","20","7260","3789","&#9761;","elianto","#3366ff99","-1","-1","1","+10","[]","0","0","2","","","","","","","",""
"pit-trial","40","414702","0.0-2.0-11.0-3.0","battery-v0.2","","""event"",""trial"",""time""
""fullscreenenter"",""1"",""2066""
","
","
","""event"",""trial"",""time""
""fullscreenenter"",""1"",""2066""
","
","","","-1","","","20","7260","3789","&#9761;","elianto","#3366ff99","-1","-1","1","0","[]","0","0","2","","","","","","","",""
"pit-trial","41","419571","0.0-2.0-11.0-4.0","battery-v0.2","","""event"",""trial"",""time""
""fullscreenenter"",""1"",""2066""
","
","
","""event"",""trial"",""time""
""fullscreenenter"",""1"",""2066""
","
","","","-1","","","20","7260","3789","&#9761;","elianto","#3366ff99","-1","-1","1","+10","[]","0","0","2","","","","","","","",""
"pit-trial","42","424446","0.0-2.0-11.1-0.1","battery-v0.2","","""event"",""trial"",""time""
""fullscreenenter"",""1"",""2066""
","
","
","""event"",""trial"",""time""
""fullscreenenter"",""1"",""2066""
","
","","","-1","","","20","7260","3789","&#9761;","elianto","#3366ff99","-1","-1","1","+10","[]","0","0","2","","","","","","","",""
"pit-trial","43","429316","0.0-2.0-11.1-1.1","battery-v0.2","","""event"",""trial"",""time""
""fullscreenenter"",""1"",""2066""
","
","
","""event"",""trial"",""time""
""fullscreenenter"",""1"",""2066""
","
","","","-1","","","20","7260","3789","&#9761;","elianto","#3366ff99","-1","-1","1","+10","[]","0","0","2","","","","","","","",""
"pit-trial","44","434180","0.0-2.0-11.1-2.1","battery-v0.2","","""event"",""trial"",""time""
""fullscreenenter"",""1"",""2066""
","
","
","""event"",""trial"",""time""
""fullscreenenter"",""1"",""2066""
","
","","","-1","","","20","7260","3789","&#9761;","elianto","#3366ff99","-1","-1","1","+10","[]","0","0","2","","","","","","","",""
"pit-trial","45","439054","0.0-2.0-11.1-3.1","battery-v0.2","","""event"",""trial"",""time""
""fullscreenenter"",""1"",""2066""
","
","
","""event"",""trial"",""time""
""fullscreenenter"",""1"",""2066""
","
","","","-1","","","20","7260","3789","&#9761;","elianto","#3366ff99","-1","-1","1","0","[]","0","0","2","","","","","","","",""
"pit-trial","46","443924","0.0-2.0-11.1-4.1","battery-v0.2","","""event"",""trial"",""time""
""fullscreenenter"",""1"",""2066""
","
","
","""event"",""trial"",""time""
""fullscreenenter"",""1"",""2066""
","
","","","-1","","","20","7260","3789","&#9761;","elianto","#3366ff99","-1","-1","1","+10","[]","0","0","2","","","","","","","",""
"pit-trial","47","448797","0.0-2.0-11.2-0.2","battery-v0.2","","""event"",""trial"",""time""
""fullscreenenter"",""1"",""2066""
","
","
","""event"",""trial"",""time""
""fullscreenenter"",""1"",""2066""
","
","","","-1","","","20","7260","3789","&#9761;","elianto","#3366ff99","-1","-1","1","+10","[]","0","0","2","","","","","","","",""
"pit-trial","48","453662","0.0-2.0-11.2-1.2","battery-v0.2","","""event"",""trial"",""time""
""fullscreenenter"",""1"",""2066""
","
","
","""event"",""trial"",""time""
""fullscreenenter"",""1"",""2066""
","
","","","-1","","","20","7260","3789","&#9761;","elianto","#3366ff99","-1","-1","1","+10","[]","0","0","2","","","","","","","",""
"pit-trial","49","458532","0.0-2.0-11.2-2.2","battery-v0.2","","""event"",""trial"",""time""
""fullscreenenter"",""1"",""2066""
","
","
","""event"",""trial"",""time""
""fullscreenenter"",""1"",""2066""
","
","","","-1","","","20","7260","3789","&#9761;","elianto","#3366ff99","-1","-1","1","+10","[]","0","0","2","","","","","","","",""
"pit-trial","50","463405","0.0-2.0-11.2-3.2","battery-v0.2","","""event"",""trial"",""time""
""fullscreenenter"",""1"",""2066""
","
","
","""event"",""trial"",""time""
""fullscreenenter"",""1"",""2066""
","
","","","-1","","","20","7260","3789","&#9761;","elianto","#3366ff99","-1","-1","1","0","[]","0","0","2","","","","","","","",""
"pit-trial","51","468276","0.0-2.0-11.2-4.2","battery-v0.2","","""event"",""trial"",""time""
""fullscreenenter"",""1"",""2066""
","
","
","""event"",""trial"",""time""
""fullscreenenter"",""1"",""2066""
","
","","","-1","","","20","7260","3789","&#9761;","elianto","#3366ff99","-1","-1","1","+10","[]","0","0","2","","","","","","","",""
"pit-trial","52","473149","0.0-2.0-11.3-0.3","battery-v0.2","","""event"",""trial"",""time""
""fullscreenenter"",""1"",""2066""
","
","
","""event"",""trial"",""time""
""fullscreenenter"",""1"",""2066""
","
","","","-1","","","20","7260","3789","&#9761;","elianto","#3366ff99","-1","-1","1","+10","[]","0","0","2","","","","","","","",""
"pit-trial","53","478020","0.0-2.0-11.3-1.3","battery-v0.2","","""event"",""trial"",""time""
""fullscreenenter"",""1"",""2066""
","
","
","""event"",""trial"",""time""
""fullscreenenter"",""1"",""2066""
","
","","","-1","","","20","7260","3789","&#9761;","elianto","#3366ff99","-1","-1","1","+10","[]","0","0","2","","","","","","","",""
"pit-trial","54","482893","0.0-2.0-11.3-2.3","battery-v0.2","","""event"",""trial"",""time""
""fullscreenenter"",""1"",""2066""
","
","
","""event"",""trial"",""time""
""fullscreenenter"",""1"",""2066""
","
","","","-1","","","20","7260","3789","&#9761;","elianto","#3366ff99","-1","-1","1","+10","[]","0","0","2","","","","","","","",""
"pit-trial","55","487764","0.0-2.0-11.3-3.3","battery-v0.2","","""event"",""trial"",""time""
""fullscreenenter"",""1"",""2066""
","
","
","""event"",""trial"",""time""
""fullscreenenter"",""1"",""2066""
","
","","","-1","","","20","7260","3789","&#9761;","elianto","#3366ff99","-1","-1","1","0","[]","0","0","2","","","","","","","",""
"pit-trial","56","492637","0.0-2.0-11.3-4.3","battery-v0.2","","""event"",""trial"",""time""
""fullscreenenter"",""1"",""2066""
","
","
","""event"",""trial"",""time""
""fullscreenenter"",""1"",""2066""
","
","","","-1","","","20","7260","3789","&#9761;","elianto","#3366ff99","-1","-1","1","+10","[]","0","0","2","","","","","","","",""
"call-function","57","492641","0.0-2.0-12.0","battery-v0.2","","""event"",""trial"",""time""
""fullscreenenter"",""1"",""2066""
","
","
","""event"",""trial"",""time""
""fullscreenenter"",""1"",""2066""
","
","","","","","","","","","","","","","","","","","","","","","","","","","","",""
"pit-instructions","58","528480","0.0-2.0-13.0","battery-v0.2","","""event"",""trial"",""time""
""fullscreenenter"",""1"",""2066""
","
","
","""event"",""trial"",""time""
""fullscreenenter"",""1"",""2066""
","
","","[{""page_index"":0,""viewing_time"":6590.200000017881},{""page_index"":1,""viewing_time"":7863.5},{""page_index"":2,""viewing_time"":3782},{""page_index"":3,""viewing_time"":11468.5},{""page_index"":4,""viewing_time"":6133.199999988079}]","35838.09999999404","","","","","","","","","","","","","","","","","","","","","","","",""
"pit-trial","59","531676","0.0-2.0-14.0-0.0","battery-v0.2","","""event"",""trial"",""time""
""fullscreenenter"",""1"",""2066""
","
","
","""event"",""trial"",""time""
""fullscreenenter"",""1"",""2066""
","
","","","331.40000000596046","","","20","7260","3789","&#9826;","elianto","#f73b6a7A","-1"," ","0","-10","[1186.1000000238419]","1","0","3","","","","","","","",""
"pit-trial","60","536545","0.0-2.0-14.0-1.0","battery-v0.2","","""event"",""trial"",""time""
""fullscreenenter"",""1"",""2066""
","
","
","""event"",""trial"",""time""
""fullscreenenter"",""1"",""2066""
","
","","","-1","","","20","7260","3789","&#9826;","elianto","#f73b6a7A","-1","-1","1","0","[]","0","0","3","","","","","","","",""
"pit-trial","61","541412","0.0-2.0-14.0-2.0","battery-v0.2","","""event"",""trial"",""time""
""fullscreenenter"",""1"",""2066""
","
","
","""event"",""trial"",""time""
""fullscreenenter"",""1"",""2066""
","
","","","-1","","","20","7260","3789","&#9826;","elianto","#f73b6a7A","-1","-1","1","0","[]","0","0","3","","","","","","","",""
"pit-trial","62","546284","0.0-2.0-14.0-3.0","battery-v0.2","","""event"",""trial"",""time""
""fullscreenenter"",""1"",""2066""
","
","
","""event"",""trial"",""time""
""fullscreenenter"",""1"",""2066""
","
","","","-1","","","20","7260","3789","&#9826;","elianto","#f73b6a7A","-1","-1","1","-10","[]","0","0","3","","","","","","","",""
"pit-trial","63","551153","0.0-2.0-14.0-4.0","battery-v0.2","","""event"",""trial"",""time""
""fullscreenenter"",""1"",""2066""
","
","
","""event"",""trial"",""time""
""fullscreenenter"",""1"",""2066""
","
","","","-1","","","20","7260","3789","&#9826;","elianto","#f73b6a7A","-1","-1","1","0","[]","0","0","3","","","","","","","",""
"pit-trial","64","556017","0.0-2.0-14.1-0.1","battery-v0.2","","""event"",""trial"",""time""
""fullscreenenter"",""1"",""2066""
","
","
","""event"",""trial"",""time""
""fullscreenenter"",""1"",""2066""
","
","","","-1","","","20","7260","3789","&#9826;","elianto","#f73b6a7A","-1","-1","1","0","[]","0","0","3","","","","","","","",""
"pit-trial","65","560882","0.0-2.0-14.1-1.1","battery-v0.2","","""event"",""trial"",""time""
""fullscreenenter"",""1"",""2066""
","
","
","""event"",""trial"",""time""
""fullscreenenter"",""1"",""2066""
","
","","","-1","","","20","7260","3789","&#9826;","elianto","#f73b6a7A","-1","-1","1","0","[]","0","0","3","","","","","","","",""
"pit-trial","66","565756","0.0-2.0-14.1-2.1","battery-v0.2","","""event"",""trial"",""time""
""fullscreenenter"",""1"",""2066""
","
","
","""event"",""trial"",""time""
""fullscreenenter"",""1"",""2066""
","
","","","-1","","","20","7260","3789","&#9826;","elianto","#f73b6a7A","-1","-1","1","0","[]","0","0","3","","","","","","","",""
"pit-trial","67","570626","0.0-2.0-14.1-3.1","battery-v0.2","","""event"",""trial"",""time""
""fullscreenenter"",""1"",""2066""
","
","
","""event"",""trial"",""time""
""fullscreenenter"",""1"",""2066""
","
","","","-1","","","20","7260","3789","&#9826;","elianto","#f73b6a7A","-1","-1","1","-10","[]","0","0","3","","","","","","","",""
"pit-trial","68","575499","0.0-2.0-14.1-4.1","battery-v0.2","","""event"",""trial"",""time""
""fullscreenenter"",""1"",""2066""
","
","
","""event"",""trial"",""time""
""fullscreenenter"",""1"",""2066""
","
","","","-1","","","20","7260","3789","&#9826;","elianto","#f73b6a7A","-1","-1","1","0","[]","0","0","3","","","","","","","",""
"pit-trial","69","580370","0.0-2.0-14.2-0.2","battery-v0.2","","""event"",""trial"",""time""
""fullscreenenter"",""1"",""2066""
","
","
","""event"",""trial"",""time""
""fullscreenenter"",""1"",""2066""
","
","","","-1","","","20","7260","3789","&#9826;","elianto","#f73b6a7A","-1","-1","1","0","[]","0","0","3","","","","","","","",""
"pit-trial","70","585243","0.0-2.0-14.2-1.2","battery-v0.2","","""event"",""trial"",""time""
""fullscreenenter"",""1"",""2066""
","
","
","""event"",""trial"",""time""
""fullscreenenter"",""1"",""2066""
","
","","","-1","","","20","7260","3789","&#9826;","elianto","#f73b6a7A","-1","-1","1","0","[]","0","0","3","","","","","","","",""
"pit-trial","71","590114","0.0-2.0-14.2-2.2","battery-v0.2","","""event"",""trial"",""time""
""fullscreenenter"",""1"",""2066""
","
","
","""event"",""trial"",""time""
""fullscreenenter"",""1"",""2066""
","
","","","-1","","","20","7260","3789","&#9826;","elianto","#f73b6a7A","-1","-1","1","0","[]","0","0","3","","","","","","","",""
"pit-trial","72","594987","0.0-2.0-14.2-3.2","battery-v0.2","","""event"",""trial"",""time""
""fullscreenenter"",""1"",""2066""
","
","
","""event"",""trial"",""time""
""fullscreenenter"",""1"",""2066""
","
","","","-1","","","20","7260","3789","&#9826;","elianto","#f73b6a7A","-1","-1","1","-10","[]","0","0","3","","","","","","","",""
"pit-trial","73","599851","0.0-2.0-14.2-4.2","battery-v0.2","","""event"",""trial"",""time""
""fullscreenenter"",""1"",""2066""
","
","
","""event"",""trial"",""time""
""fullscreenenter"",""1"",""2066""
","
","","","-1","","","20","7260","3789","&#9826;","elianto","#f73b6a7A","-1","-1","1","0","[]","0","0","3","","","","","","","",""
"pit-trial","74","604722","0.0-2.0-14.3-0.3","battery-v0.2","","""event"",""trial"",""time""
""fullscreenenter"",""1"",""2066""
","
","
","""event"",""trial"",""time""
""fullscreenenter"",""1"",""2066""
","
","","","-1","","","20","7260","3789","&#9826;","elianto","#f73b6a7A","-1","-1","1","0","[]","0","0","3","","","","","","","",""
"pit-trial","75","609586","0.0-2.0-14.3-1.3","battery-v0.2","","""event"",""trial"",""time""
""fullscreenenter"",""1"",""2066""
","
","
","""event"",""trial"",""time""
""fullscreenenter"",""1"",""2066""
","
","","","-1","","","20","7260","3789","&#9826;","elianto","#f73b6a7A","-1","-1","1","0","[]","0","0","3","","","","","","","",""
"pit-trial","76","614459","0.0-2.0-14.3-2.3","battery-v0.2","","""event"",""trial"",""time""
""fullscreenenter"",""1"",""2066""
","
","
","""event"",""trial"",""time""
""fullscreenenter"",""1"",""2066""
","
","","","-1","","","20","7260","3789","&#9826;","elianto","#f73b6a7A","-1","-1","1","0","[]","0","0","3","","","","","","","",""
"pit-trial","77","619331","0.0-2.0-14.3-3.3","battery-v0.2","","""event"",""trial"",""time""
""fullscreenenter"",""1"",""2066""
","
","
","""event"",""trial"",""time""
""fullscreenenter"",""1"",""2066""
","
","","","-1","","","20","7260","3789","&#9826;","elianto","#f73b6a7A","-1","-1","1","-10","[]","0","0","3","","","","","","","",""
"pit-trial","78","624203","0.0-2.0-14.3-4.3","battery-v0.2","","""event"",""trial"",""time""
""fullscreenenter"",""1"",""2066""
","
","
","""event"",""trial"",""time""
""fullscreenenter"",""1"",""2066""
","
","","","-1","","","20","7260","3789","&#9826;","elianto","#f73b6a7A","-1","-1","1","0","[]","0","0","3","","","","","","","",""
"call-function","79","624207","0.0-2.0-15.0","battery-v0.2","","""event"",""trial"",""time""
""fullscreenenter"",""1"",""2066""
","
","
","""event"",""trial"",""time""
""fullscreenenter"",""1"",""2066""
","
","","","","","","","","","","","","","","","","","","","","","","","","","","",""
"pit-instructions","80","652516","0.0-2.0-16.0","battery-v0.2","","""event"",""trial"",""time""
""fullscreenenter"",""1"",""2066""
","
","
","""event"",""trial"",""time""
""fullscreenenter"",""1"",""2066""
","
","","[{""page_index"":0,""viewing_time"":8774},{""page_index"":1,""viewing_time"":9282.199999988079},{""page_index"":2,""viewing_time"":4900.300000011921},{""page_index"":3,""viewing_time"":5351}]","28308.19999998808","","","","","","","","","","","","","","","","","","","","","","","",""
"pit-trial","81","655803","0.0-2.0-17.0-0.0","battery-v0.2","","""event"",""trial"",""time""
""fullscreenenter"",""1"",""2066""
","
","
","""event"",""trial"",""time""
""fullscreenenter"",""1"",""2066""
","
","","","417.30000001192093","","","20","7260","3789","&#9789;","elianto","#f73b6a7A"," "," ","1","0","[1272.5999999940395]","1","0","4","","","","","","","",""
"pit-trial","82","659024","0.0-2.0-17.0-1.0","battery-v0.2","","""event"",""trial"",""time""
""fullscreenenter"",""1"",""2066""
","
","
","""event"",""trial"",""time""
""fullscreenenter"",""1"",""2066""
","
","","","362.90000000596046","","","20","7260","3789","&#9789;","elianto","#f73b6a7A"," "," ","1","0","[1213.9000000059605]","1","0","4","","","","","","","",""
"pit-trial","83","662096","0.0-2.0-17.0-2.0","battery-v0.2","","""event"",""trial"",""time""
""fullscreenenter"",""1"",""2066""
","
","
","""event"",""trial"",""time""
""fullscreenenter"",""1"",""2066""
","
","","","205","","","20","7260","3789","&#9789;","elianto","#f73b6a7A"," "," ","1","0","[1059.5]","1","0","4","","","","","","","",""
"pit-trial","84","665215","0.0-2.0-17.0-3.0","battery-v0.2","","""event"",""trial"",""time""
""fullscreenenter"",""1"",""2066""
","
","
","""event"",""trial"",""time""
""fullscreenenter"",""1"",""2066""
","
","","","259.2000000178814","","","20","7260","3789","&#9789;","elianto","#f73b6a7A"," "," ","1","-10","[1113.699999988079]","1","0","4","","","","","","","",""
"pit-trial","85","668320","0.0-2.0-17.0-4.0","battery-v0.2","","""event"",""trial"",""time""
""fullscreenenter"",""1"",""2066""
","
","
","""event"",""trial"",""time""
""fullscreenenter"",""1"",""2066""
","
","","","241.7999999821186","","","20","7260","3789","&#9789;","elianto","#f73b6a7A"," "," ","1","0","[1095.2999999821186]","1","0","4","","","","","","","",""
"pit-trial","86","671520","0.0-2.0-17.1-0.1","battery-v0.2","","""event"",""trial"",""time""
""fullscreenenter"",""1"",""2066""
","
","
","""event"",""trial"",""time""
""fullscreenenter"",""1"",""2066""
","
","","","332.59999999403954","","","20","7260","3789","&#9789;","elianto","#f73b6a7A"," "," ","1","0","[1190.4000000059605]","1","0","4","","","","","","","",""
"pit-trial","87","674608","0.0-2.0-17.1-1.1","battery-v0.2","","""event"",""trial"",""time""
""fullscreenenter"",""1"",""2066""
","
","
","""event"",""trial"",""time""
""fullscreenenter"",""1"",""2066""
","
","","","225","","","20","7260","3789","&#9789;","elianto","#f73b6a7A"," "," ","1","0","[1076.0999999940395]","1","0","4","","","","","","","",""
"pit-trial","88","677827","0.0-2.0-17.1-2.1","battery-v0.2","","""event"",""trial"",""time""
""fullscreenenter"",""1"",""2066""
","
","
","""event"",""trial"",""time""
""fullscreenenter"",""1"",""2066""
","
","","","354.40000000596046","","","20","7260","3789","&#9789;","elianto","#f73b6a7A"," "," ","1","0","[1208.5999999940395]","1","0","4","","","","","","","",""
"pit-trial","89","681017","0.0-2.0-17.1-3.1","battery-v0.2","","""event"",""trial"",""time""
""fullscreenenter"",""1"",""2066""
","
","
","""event"",""trial"",""time""
""fullscreenenter"",""1"",""2066""
","
","","","319","","","20","7260","3789","&#9789;","elianto","#f73b6a7A"," "," ","1","-10","[1177.7999999821186]","1","0","4","","","","","","","",""
"pit-trial","90","684191","0.0-2.0-17.1-4.1","battery-v0.2","","""event"",""trial"",""time""
""fullscreenenter"",""1"",""2066""
","
","
","""event"",""trial"",""time""
""fullscreenenter"",""1"",""2066""
","
","","","312.90000000596046","","","20","7260","3789","&#9789;","elianto","#f73b6a7A"," "," ","1","0","[1165.0999999940395]","1","0","4","","","","","","","",""
"pit-trial","91","687466","0.0-2.0-17.2-0.2","battery-v0.2","","""event"",""trial"",""time""
""fullscreenenter"",""1"",""2066""
","
","
","""event"",""trial"",""time""
""fullscreenenter"",""1"",""2066""
","
","","","397.10000002384186","","","20","7260","3789","&#9789;","elianto","#f73b6a7A"," "," ","1","0","[1257]","1","0","4","","","","","","","",""
"pit-trial","92","690634","0.0-2.0-17.2-1.2","battery-v0.2","","""event"",""trial"",""time""
""fullscreenenter"",""1"",""2066""
","
","
","""event"",""trial"",""time""
""fullscreenenter"",""1"",""2066""
","
","","","301.59999999403954","","","20","7260","3789","&#9789;","elianto","#f73b6a7A"," "," ","1","0","[1154.7000000178814]","1","0","4","","","","","","","",""
"pit-trial","93","693919","0.0-2.0-17.2-2.2","battery-v0.2","","""event"",""trial"",""time""
""fullscreenenter"",""1"",""2066""
","
","
","""event"",""trial"",""time""
""fullscreenenter"",""1"",""2066""
","
","","","422.5","","","20","7260","3789","&#9789;","elianto","#f73b6a7A"," "," ","1","0","[1274.0999999940395]","1","0","4","","","","","","","",""
"pit-trial","94","697135","0.0-2.0-17.2-3.2","battery-v0.2","","""event"",""trial"",""time""
""fullscreenenter"",""1"",""2066""
","
","
","""event"",""trial"",""time""
""fullscreenenter"",""1"",""2066""
","
","","","357","","","20","7260","3789","&#9789;","elianto","#f73b6a7A"," "," ","1","-10","[1208.6000000238419]","1","0","4","","","","","","","",""
"pit-trial","95","700367","0.0-2.0-17.2-4.2","battery-v0.2","","""event"",""trial"",""time""
""fullscreenenter"",""1"",""2066""
","
","
","""event"",""trial"",""time""
""fullscreenenter"",""1"",""2066""
","
","","","374.59999999403954","","","20","7260","3789","&#9789;","elianto","#f73b6a7A"," "," ","1","0","[1226.2999999821186]","1","0","4","","","","","","","",""
"pit-trial","96","703642","0.0-2.0-17.3-0.3","battery-v0.2","","""event"",""trial"",""time""
""fullscreenenter"",""1"",""2066""
","
","
","""event"",""trial"",""time""
""fullscreenenter"",""1"",""2066""
","
","","","411.2000000178814","","","20","7260","3789","&#9789;","elianto","#f73b6a7A"," "," ","1","0","[1263]","1","0","4","","","","","","","",""
"pit-trial","97","707066","0.0-2.0-17.3-1.3","battery-v0.2","","""event"",""trial"",""time""
""fullscreenenter"",""1"",""2066""
","
","
","""event"",""trial"",""time""
""fullscreenenter"",""1"",""2066""
","
","","","553.4000000059605","","","20","7260","3789","&#9789;","elianto","#f73b6a7A"," "," ","1","0","[1412]","1","0","4","","","","","","","",""
"pit-trial","98","710154","0.0-2.0-17.3-2.3","battery-v0.2","","""event"",""trial"",""time""
""fullscreenenter"",""1"",""2066""
","
","
","""event"",""trial"",""time""
""fullscreenenter"",""1"",""2066""
","
","","","223.2000000178814","","","20","7260","3789","&#9789;","elianto","#f73b6a7A"," "," ","1","0","[1076.5]","1","0","4","","","","","","","",""
"pit-trial","99","713290","0.0-2.0-17.3-3.3","battery-v0.2","","""event"",""trial"",""time""
""fullscreenenter"",""1"",""2066""
","
","
","""event"",""trial"",""time""
""fullscreenenter"",""1"",""2066""
","
","","","274.89999997615814","","","20","7260","3789","&#9789;","elianto","#f73b6a7A"," "," ","1","-10","[1125.5999999940395]","1","0","4","","","","","","","",""
"pit-trial","100","716446","0.0-2.0-17.3-4.3","battery-v0.2","","""event"",""trial"",""time""
""fullscreenenter"",""1"",""2066""
","
","
","""event"",""trial"",""time""
""fullscreenenter"",""1"",""2066""
","
","","","286.30000001192093","","","20","7260","3789","&#9789;","elianto","#f73b6a7A"," "," ","1","0","[1146.2000000178814]","1","0","4","","","","","","","",""
"call-function","101","716450","0.0-2.0-18.0","battery-v0.2","","""event"",""trial"",""time""
""fullscreenenter"",""1"",""2066""
","
","
","""event"",""trial"",""time""
""fullscreenenter"",""1"",""2066""
","
","","","","","","","","","","","","","","","","","","","","","","","","","","",""
"pit-instructions","102","790600","0.0-2.0-19.0","battery-v0.2","","""event"",""trial"",""time""
""fullscreenenter"",""1"",""2066""
","
","
","""event"",""trial"",""time""
""fullscreenenter"",""1"",""2066""
","
","","[{""page_index"":0,""viewing_time"":6748.5999999940395},{""page_index"":1,""viewing_time"":6363.5},{""page_index"":2,""viewing_time"":14116.699999988079},{""page_index"":3,""viewing_time"":8451},{""page_index"":4,""viewing_time"":9251.800000011921},{""page_index"":5,""viewing_time"":8363.59999999404},{""page_index"":6,""viewing_time"":9688.09999999404},{""page_index"":7,""viewing_time"":6963.9000000059605},{""page_index"":8,""viewing_time"":4202.0999999940395}]","74150","","","","","","","","","","","","","","","","","","","","","","","",""
"pit-comprehension","103","796884","0.0-2.0-20.0-0.0","battery-v0.2","","""event"",""trial"",""time""
""fullscreenenter"",""1"",""2066""
","
","
","""event"",""trial"",""time""
""fullscreenenter"",""1"",""2066""
","
","","","6278.299999982119","[""SPACE""]","0","20","7260","3789","","","","","","","","","","","","","","","","","","",""
"pit-instructions","104","800766","0.0-2.0-20.0-1.0","battery-v0.2","","""event"",""trial"",""time""
""fullscreenenter"",""1"",""2066""
","
","
","""event"",""trial"",""time""
""fullscreenenter"",""1"",""2066""
","
","","[{""page_index"":0,""viewing_time"":3849.399999976158}]","3849.899999976158","","","","","","","","","","","","","","","","","","","","","","","",""
"pit-comprehension","105","807384","0.0-2.0-21.0-0.0","battery-v0.2","","""event"",""trial"",""time""
""fullscreenenter"",""1"",""2066""
","
","
","""event"",""trial"",""time""
""fullscreenenter"",""1"",""2066""
","
","","","6614.300000011921","[""10""]","0","20","7260","3789","","","","","","","","","","","","","","","","","","",""
"pit-instructions","106","809415","0.0-2.0-21.0-1.0","battery-v0.2","","""event"",""trial"",""time""
""fullscreenenter"",""1"",""2066""
","
","
","""event"",""trial"",""time""
""fullscreenenter"",""1"",""2066""
","
","","[{""page_index"":0,""viewing_time"":2004.8999999761581}]","2005.2999999821186","","","","","","","","","","","","","","","","","","","","","","","",""
"pit-comprehension","107","815768","0.0-2.0-22.0-0.0","battery-v0.2","","""event"",""trial"",""time""
""fullscreenenter"",""1"",""2066""
","
","
","""event"",""trial"",""time""
""fullscreenenter"",""1"",""2066""
","
","","","6348","[""0""]","0","20","7260","3789","","","","","","","","","","","","","","","","","","",""
"pit-instructions","108","817632","0.0-2.0-22.0-1.0","battery-v0.2","","""event"",""trial"",""time""
""fullscreenenter"",""1"",""2066""
","
","
","""event"",""trial"",""time""
""fullscreenenter"",""1"",""2066""
","
","","[{""page_index"":0,""viewing_time"":1835.300000011921}]","1835.699999988079","","","","","","","","","","","","","","","","","","","","","","","",""
"pit-comprehension","109","832367","0.0-2.0-23.0-0.0","battery-v0.2","","""event"",""trial"",""time""
""fullscreenenter"",""1"",""2066""
","
","
","""event"",""trial"",""time""
""fullscreenenter"",""1"",""2066""
","
","","","14730.699999988079","[""True""]","0","20","7260","3789","","","","","","","","","","","","","","","","","","",""
"pit-instructions","110","834084","0.0-2.0-23.0-1.0","battery-v0.2","","""event"",""trial"",""time""
""fullscreenenter"",""1"",""2066""
","
","
","""event"",""trial"",""time""
""fullscreenenter"",""1"",""2066""
","
","","[{""page_index"":0,""viewing_time"":1685.6000000238419}]","1686.1000000238419","","","","","","","","","","","","","","","","","","","","","","","",""
"pit-comprehension","111","842503","0.0-2.0-24.0-0.0","battery-v0.2","","""event"",""trial"",""time""
""fullscreenenter"",""1"",""2066""
","
","
","""event"",""trial"",""time""
""fullscreenenter"",""1"",""2066""
","
","","","8414.300000011921","[""True""]","0","20","7260","3789","","","","","","","","","","","","","","","","","","",""
"pit-instructions","112","844782","0.0-2.0-24.0-1.0","battery-v0.2","","""event"",""trial"",""time""
""fullscreenenter"",""1"",""2066""
","
","
","""event"",""trial"",""time""
""fullscreenenter"",""1"",""2066""
","
","","[{""page_index"":0,""viewing_time"":2253}]","2253.399999976158","","","","","","","","","","","","","","","","","","","","","","","",""
"pit-comprehension","113","851617","0.0-2.0-25.0-0.0","battery-v0.2","","""event"",""trial"",""time""
""fullscreenenter"",""1"",""2066""
","
","
","""event"",""trial"",""time""
""fullscreenenter"",""1"",""2066""
","
","","","6831.300000011921","[""True""]","0","20","7260","3789","","","","","","","","","","","","","","","","","","",""
"pit-instructions","114","854182","0.0-2.0-25.0-1.0","battery-v0.2","","""event"",""trial"",""time""
""fullscreenenter"",""1"",""2066""
","
","
","""event"",""trial"",""time""
""fullscreenenter"",""1"",""2066""
","
","","[{""page_index"":0,""viewing_time"":2532.2000000178814}]","2532.600000023842","","","","","","","","","","","","","","","","","","","","","","","",""
"pit-comprehension","115","860334","0.0-2.0-26.0-0.0","battery-v0.2","","""event"",""trial"",""time""
""fullscreenenter"",""1"",""2066""
","
","
","""event"",""trial"",""time""
""fullscreenenter"",""1"",""2066""
","
","","","6147.5999999940395","[""False""]","0","20","7260","3789","","","","","","","","","","","","","","","","","","",""
"pit-instructions","116","862617","0.0-2.0-26.0-1.0","battery-v0.2","","""event"",""trial"",""time""
""fullscreenenter"",""1"",""2066""
","
","
","""event"",""trial"",""time""
""fullscreenenter"",""1"",""2066""
","
","","[{""page_index"":0,""viewing_time"":2249.4000000059605}]","2249.800000011921","","","","","","","","","","","","","","","","","","","","","","","",""
"pit-instructions","117","881233","0.0-3.0","battery-v0.2","","""event"",""trial"",""time""
""fullscreenenter"",""1"",""2066""
","
","
","""event"",""trial"",""time""
""fullscreenenter"",""1"",""2066""
","
","","[{""page_index"":0,""viewing_time"":4547.699999988079},{""page_index"":1,""viewing_time"":5697.5},{""page_index"":2,""viewing_time"":8367.59999999404}]","18613.19999998808","","","","","","","","","","","","","","","","","","","","","","","",""
"pit-trial","118","884535","0.0-4.0","battery-v0.2","","""event"",""trial"",""time""
""fullscreenenter"",""1"",""2066""
","
","
","""event"",""trial"",""time""
""fullscreenenter"",""1"",""2066""
","
","","","430.80000001192093","","","20","7260","3789","&#9733;","elianto","#3366ff99","-1"," ","0","0","[1283.300000011921]","1","1","","","7260","1","2","2","win","no-go","0"
"pit-trial","119","887751","0.0-5.0","battery-v0.2","","""event"",""trial"",""time""
""fullscreenenter"",""1"",""2066""
","
","
","""event"",""trial"",""time""
""fullscreenenter"",""1"",""2066""
","
","","","349.89999997615814","","","20","7260","3789","&#9752;","elianto","#f73b6a7A"," "," ","1","0","[1203]","1","1","","","7260","2","3","3","lose","go","0"
"pit-trial","120","890919","0.0-6.0","battery-v0.2","","""event"",""trial"",""time""
""fullscreenenter"",""1"",""2066""
","
","
","""event"",""trial"",""time""
""fullscreenenter"",""1"",""2066""
","
","","","298.19999998807907","","","20","7260","3789","&#9728;","elianto","#f73b6a7A","-1"," ","0","-10","[1152.5999999940395]","1","1","","","7260","3","0","4","lose","no-go","0"
"pit-trial","121","894236","0.0-7.0","battery-v0.2","","""event"",""trial"",""time""
""fullscreenenter"",""1"",""2066""
","
","
","""event"",""trial"",""time""
""fullscreenenter"",""1"",""2066""
","
","","","451.09999999403954","","","20","7260","3789","&#9730;","elianto","#3366ff99"," "," ","1","+10","[1304.300000011921]","1","1","","","7260","4","1","1","win","go","0"
"pit-trial","122","899100","0.0-8.0","battery-v0.2","","""event"",""trial"",""time""
""fullscreenenter"",""1"",""2066""
","
","
","""event"",""trial"",""time""
""fullscreenenter"",""1"",""2066""
","
","","","-1","","","20","7260","3789","&#9752;","elianto","#f73b6a7A"," ","-1","0","-10","[]","0","1","","","7260","5","3","3","lose","go","0"
"pit-trial","123","902492","0.0-9.0","battery-v0.2","","""event"",""trial"",""time""
""fullscreenenter"",""1"",""2066""
","
","
","""event"",""trial"",""time""
""fullscreenenter"",""1"",""2066""
","
","","","527","","","20","7260","3789","&#9728;","elianto","#f73b6a7A","-1"," ","0","-10","[1382]","1","1","","","7260","6","0","4","lose","no-go","0"
"pit-trial","124","905895","0.0-10.0","battery-v0.2","","""event"",""trial"",""time""
""fullscreenenter"",""1"",""2066""
","
","
","""event"",""trial"",""time""
""fullscreenenter"",""1"",""2066""
","
","","","538.0999999940395","","","20","7260","3789","&#9733;","elianto","#3366ff99","-1"," ","0","0","[1392.5999999940395]","1","1","","","7260","7","2","2","win","no-go","0"
"pit-trial","125","909366","0.0-11.0","battery-v0.2","","""event"",""trial"",""time""
""fullscreenenter"",""1"",""2066""
","
","
","""event"",""trial"",""time""
""fullscreenenter"",""1"",""2066""
","
","","","601.0999999940395","","","20","7260","3789","&#9730;","elianto","#3366ff99"," "," ","1","+10","[1461.4000000059605]","1","1","","","7260","8","1","1","win","go","0"
"pit-trial","126","912973","0.0-12.0","battery-v0.2","","""event"",""trial"",""time""
""fullscreenenter"",""1"",""2066""
","
","
","""event"",""trial"",""time""
""fullscreenenter"",""1"",""2066""
","
","","","745.9000000059605","","","20","7260","3789","&#9733;","elianto","#3366ff99","-1"," ","0","0","[1597.8999999761581]","1","1","","","7260","9","2","2","win","no-go","0"
"pit-trial","127","916871","0.0-13.0","battery-v0.2","","""event"",""trial"",""time""
""fullscreenenter"",""1"",""2066""
","
","
","""event"",""trial"",""time""
""fullscreenenter"",""1"",""2066""
","
","","","1031.699999988079","","","20","7260","3789","&#9730;","elianto","#3366ff99"," "," ","1","+10","[1881.7000000178814]","1","1","","","7260","10","1","1","win","go","0"
"pit-trial","128","921741","0.0-14.0","battery-v0.2","","""event"",""trial"",""time""
""fullscreenenter"",""1"",""2066""
","
","
","""event"",""trial"",""time""
""fullscreenenter"",""1"",""2066""
","
","","","-1","","","20","7260","3789","&#9728;","elianto","#f73b6a7A","-1","-1","1","0","[]","0","1","","","7260","11","0","4","lose","no-go","0"
"pit-trial","129","925629","0.0-15.0","battery-v0.2","","""event"",""trial"",""time""
""fullscreenenter"",""1"",""2066""
","
","
","""event"",""trial"",""time""
""fullscreenenter"",""1"",""2066""
","
","","","1019.5","","","20","7260","3789","&#9752;","elianto","#f73b6a7A"," "," ","1","0","[1879.5999999940395]","1","1","","","7260","12","3","3","lose","go","0"
"pit-trial","130","929005","0.0-16.0","battery-v0.2","","""event"",""trial"",""time""
""fullscreenenter"",""1"",""2066""
","
","
","""event"",""trial"",""time""
""fullscreenenter"",""1"",""2066""
","
","","","507.60000002384186","","","20","7260","3789","&#9730;","elianto","#3366ff99"," "," ","1","+10","[1367.3999999761581]","1","1","","","7260","13","1","1","win","go","0"
"pit-trial","131","932988","0.0-17.0","battery-v0.2","","""event"",""trial"",""time""
""fullscreenenter"",""1"",""2066""
","
","
","""event"",""trial"",""time""
""fullscreenenter"",""1"",""2066""
","
","","","1122.699999988079","","","20","7260","3789","&#9752;","elianto","#f73b6a7A"," "," ","1","-10","[1973.7999999821186]","1","1","","","7260","14","3","3","lose","go","1"
"pit-trial","132","936519","0.0-18.0","battery-v0.2","","""event"",""trial"",""time""
""fullscreenenter"",""1"",""2066""
","
","
","""event"",""trial"",""time""
""fullscreenenter"",""1"",""2066""
","
","","","669.8999999761581","","","20","7260","3789","&#9733;","elianto","#3366ff99","-1"," ","0","+10","[1520.3999999761581]","1","1","","","7260","15","2","2","win","no-go","1"
"pit-trial","133","941388","0.0-19.0","battery-v0.2","","""event"",""trial"",""time""
""fullscreenenter"",""1"",""2066""
","
","
","""event"",""trial"",""time""
""fullscreenenter"",""1"",""2066""
","
","","","-1","","","20","7260","3789","&#9728;","elianto","#f73b6a7A","-1","-1","1","0","[]","0","1","","","7260","16","0","4","lose","no-go","0"
"pit-trial","134","946263","0.0-20.0","battery-v0.2","","""event"",""trial"",""time""
""fullscreenenter"",""1"",""2066""
","
","
","""event"",""trial"",""time""
""fullscreenenter"",""1"",""2066""
","
","","","-1","","","20","7260","3789","&#9752;","elianto","#f73b6a7A"," ","-1","0","-10","[]","0","1","","","7260","17","3","3","lose","go","0"
"pit-trial","135","949750","0.0-21.0","battery-v0.2","","""event"",""trial"",""time""
""fullscreenenter"",""1"",""2066""
","
","
","""event"",""trial"",""time""
""fullscreenenter"",""1"",""2066""
","
","","","615","","","20","7260","3789","&#9733;","elianto","#3366ff99","-1"," ","0","0","[1474.5999999940395]","1","1","","","7260","18","2","2","win","no-go","0"
"pit-trial","136","953143","0.0-22.0","battery-v0.2","","""event"",""trial"",""time""
""fullscreenenter"",""1"",""2066""
","
","
","""event"",""trial"",""time""
""fullscreenenter"",""1"",""2066""
","
","","","521.9000000059605","","","20","7260","3789","&#9730;","elianto","#3366ff99"," "," ","1","+10","[1379.699999988079]","1","1","","","7260","19","1","1","win","go","0"
"pit-trial","137","958012","0.0-23.0","battery-v0.2","","""event"",""trial"",""time""
""fullscreenenter"",""1"",""2066""
","
","
","""event"",""trial"",""time""
""fullscreenenter"",""1"",""2066""
","
","","","-1","","","20","7260","3789","&#9728;","elianto","#f73b6a7A","-1","-1","1","0","[]","0","1","","","7260","20","0","4","lose","no-go","0"
"pit-instructions","138","972617","0.0-24.0","battery-v0.2","","""event"",""trial"",""time""
""fullscreenenter"",""1"",""2066""
","
","
","""event"",""trial"",""time""
""fullscreenenter"",""1"",""2066""
","
","","[{""page_index"":0,""viewing_time"":6788},{""page_index"":1,""viewing_time"":7813}]","14601.5","","","","","","","","","","","","","","","","","","","","","","","",""
"pit-trial","139","976134","0.0-25.0","battery-v0.2","","""event"",""trial"",""time""
""fullscreenenter"",""1"",""2066""
","
","
","""event"",""trial"",""time""
""fullscreenenter"",""1"",""2066""
","
","","","645.5","","","20","7260","3789","u","elianto","#f73b6a7A"," "," ","1","-10","[1499.699999988079]","1","2","","","7260","21","0","3","lose","go","1"
"pit-trial","140","979525","0.0-26.0","battery-v0.2","","""event"",""trial"",""time""
""fullscreenenter"",""1"",""2066""
","
","
","""event"",""trial"",""time""
""fullscreenenter"",""1"",""2066""
","
","","","523.1999999880791","","","20","7260","3789","a","elianto","#f73b6a7A"," "," ","1","0","[1379.5999999940395]","1","2","","","7260","22","2","3","lose","go","0"
"pit-trial","141","982885","0.0-27.0","battery-v0.2","","""event"",""trial"",""time""
""fullscreenenter"",""1"",""2066""
","
","
","""event"",""trial"",""time""
""fullscreenenter"",""1"",""2066""
","
","","","490.90000000596046","","","20","7260","3789","l","elianto","#3366ff99","-1"," ","0","0","[1351.300000011921]","1","2","","","7260","23","1","2","win","no-go","0"
"pit-trial","142","986198","0.0-28.0","battery-v0.2","","""event"",""trial"",""time""
""fullscreenenter"",""1"",""2066""
","
","
","""event"",""trial"",""time""
""fullscreenenter"",""1"",""2066""
","
","","","445.80000001192093","","","20","7260","3789","g","elianto","#f73b6a7A","-1"," ","0","0","[1299.5]","1","2","","","7260","24","3","4","lose","no-go","1"
"pit-trial","143","989514","0.0-29.0","battery-v0.2","","""event"",""trial"",""time""
""fullscreenenter"",""1"",""2066""
","
","
","""event"",""trial"",""time""
""fullscreenenter"",""1"",""2066""
","
","","","449.90000000596046","","","20","7260","3789","g","elianto","#f73b6a7A","-1"," ","0","0","[1310.4000000059605]","1","2","","","7260","25","3","4","lose","no-go","1"
"pit-trial","144","994382","0.0-30.0","battery-v0.2","","""event"",""trial"",""time""
""fullscreenenter"",""1"",""2066""
","
","
","""event"",""trial"",""time""
""fullscreenenter"",""1"",""2066""
","
","","","-1","","","20","7260","3789","l","elianto","#3366ff99","-1","-1","1","+10","[]","0","2","","","7260","26","1","2","win","no-go","0"
"pit-trial","145","997834","0.0-31.0","battery-v0.2","","""event"",""trial"",""time""
""fullscreenenter"",""1"",""2066""
","
","
","""event"",""trial"",""time""
""fullscreenenter"",""1"",""2066""
","
","","","585.4000000059605","","","20","7260","3789","a","elianto","#f73b6a7A"," "," ","1","-10","[1442.5999999940395]","1","2","","","7260","27","2","3","lose","go","1"
"pit-trial","146","1002699","0.0-32.0","battery-v0.2","","""event"",""trial"",""time""
""fullscreenenter"",""1"",""2066""
","
","
","""event"",""trial"",""time""
""fullscreenenter"",""1"",""2066""
","
","","","-1","","","20","7260","3789","u","elianto","#f73b6a7A"," ","-1","0","0","[]","0","2","","","7260","28","0","3","lose","go","1"
"pit-trial","147","1007563","0.0-33.0","battery-v0.2","","""event"",""trial"",""time""
""fullscreenenter"",""1"",""2066""
","
","
","""event"",""trial"",""time""
""fullscreenenter"",""1"",""2066""
","
","","","-1","","","20","7260","3789","u","elianto","#f73b6a7A"," ","-1","0","0","[]","0","2","","","7260","29","0","3","lose","go","1"
"pit-trial","148","1010933","0.0-34.0","battery-v0.2","","""event"",""trial"",""time""
""fullscreenenter"",""1"",""2066""
","
","
","""event"",""trial"",""time""
""fullscreenenter"",""1"",""2066""
","
","","","500.59999999403954","","","20","7260","3789","a","elianto","#f73b6a7A"," "," ","1","0","[1355.199999988079]","1","2","","","7260","30","2","3","lose","go","0"
"pit-trial","149","1014506","0.0-35.0","battery-v0.2","","""event"",""trial"",""time""
""fullscreenenter"",""1"",""2066""
","
","
","""event"",""trial"",""time""
""fullscreenenter"",""1"",""2066""
","
","","","708.6999999880791","","","20","7260","3789","g","elianto","#f73b6a7A","-1"," ","0","-10","[1565.800000011921]","1","2","","","7260","31","3","4","lose","no-go","0"
"pit-trial","150","1019370","0.0-36.0","battery-v0.2","","""event"",""trial"",""time""
""fullscreenenter"",""1"",""2066""
","
","
","""event"",""trial"",""time""
""fullscreenenter"",""1"",""2066""
","
","","","-1","","","20","7260","3789","l","elianto","#3366ff99","-1","-1","1","+10","[]","0","2","","","7260","32","1","2","win","no-go","0"
"pit-trial","151","1024234","0.0-37.0","battery-v0.2","","""event"",""trial"",""time""
""fullscreenenter"",""1"",""2066""
","
","
","""event"",""trial"",""time""
""fullscreenenter"",""1"",""2066""
","
","","","-1","","","20","7260","3789","u","elianto","#f73b6a7A"," ","-1","0","-10","[]","0","2","","","7260","33","0","3","lose","go","0"
"pit-trial","152","1027749","0.0-38.0","battery-v0.2","","""event"",""trial"",""time""
""fullscreenenter"",""1"",""2066""
","
","
","""event"",""trial"",""time""
""fullscreenenter"",""1"",""2066""
","
","","","649.6000000238419","","","20","7260","3789","g","elianto","#f73b6a7A","-1"," ","0","-10","[1504.7999999821186]","1","2","","","7260","34","3","4","lose","no-go","0"
"pit-trial","153","1031242","0.0-39.0","battery-v0.2","","""event"",""trial"",""time""
""fullscreenenter"",""1"",""2066""
","
","
","""event"",""trial"",""time""
""fullscreenenter"",""1"",""2066""
","
","","","623.5999999940395","","","20","7260","3789","a","elianto","#f73b6a7A"," "," ","1","0","[1482]","1","2","","","7260","35","2","3","lose","go","0"
"pit-trial","154","1036106","0.0-40.0","battery-v0.2","","""event"",""trial"",""time""
""fullscreenenter"",""1"",""2066""
","
","
","""event"",""trial"",""time""
""fullscreenenter"",""1"",""2066""
","
","","","-1","","","20","7260","3789","l","elianto","#3366ff99","-1","-1","1","+10","[]","0","2","","","7260","36","1","2","win","no-go","0"
"pit-trial","155","1040969","0.0-41.0","battery-v0.2","","""event"",""trial"",""time""
""fullscreenenter"",""1"",""2066""
","
","
","""event"",""trial"",""time""
""fullscreenenter"",""1"",""2066""
","
","","","-1","","","20","7260","3789","u","elianto","#f73b6a7A"," ","-1","0","-10","[]","0","2","","","7260","37","0","3","lose","go","0"
"pit-trial","156","1044619","0.0-42.0","battery-v0.2","","""event"",""trial"",""time""
""fullscreenenter"",""1"",""2066""
","
","
","""event"",""trial"",""time""
""fullscreenenter"",""1"",""2066""
","
","","","780.9000000059605","","","20","7260","3789","g","elianto","#f73b6a7A","-1"," ","0","-10","[1637.0999999940395]","1","2","","","7260","38","3","4","lose","no-go","0"
"pit-trial","157","1049493","0.0-43.0","battery-v0.2","","""event"",""trial"",""time""
""fullscreenenter"",""1"",""2066""
","
","
","""event"",""trial"",""time""
""fullscreenenter"",""1"",""2066""
","
","","","-1","","","20","7260","3789","l","elianto","#3366ff99","-1","-1","1","+10","[]","0","2","","","7260","39","1","2","win","no-go","0"
"pit-trial","158","1052954","0.0-44.0","battery-v0.2","","""event"",""trial"",""time""
""fullscreenenter"",""1"",""2066""
","
","
","""event"",""trial"",""time""
""fullscreenenter"",""1"",""2066""
","
","","","595.5","","","20","7260","3789","a","elianto","#f73b6a7A"," "," ","1","0","[1455.300000011921]","1","2","","","7260","40","2","3","lose","go","0"
"pit-trial","159","1056537","0.0-45.0","battery-v0.2","","""event"",""trial"",""time""
""fullscreenenter"",""1"",""2066""
","
","
","""event"",""trial"",""time""
""fullscreenenter"",""1"",""2066""
","
","","","722","","","20","7260","3789","a","elianto","#f73b6a7A"," "," ","1","-10","[1575]","1","2","","","7260","41","2","3","lose","go","1"
"pit-trial","160","1061402","0.0-46.0","battery-v0.2","","""event"",""trial"",""time""
""fullscreenenter"",""1"",""2066""
","
","
","""event"",""trial"",""time""
""fullscreenenter"",""1"",""2066""
","
","","","-1","","","20","7260","3789","g","elianto","#f73b6a7A","-1","-1","1","-10","[]","0","2","","","7260","42","3","4","lose","no-go","1"
"pit-trial","161","1064788","0.0-47.0","battery-v0.2","","""event"",""trial"",""time""
""fullscreenenter"",""1"",""2066""
","
","
","""event"",""trial"",""time""
""fullscreenenter"",""1"",""2066""
","
","","","518.6999999880791","","","20","7260","3789","u","elianto","#f73b6a7A"," "," ","1","0","[1373.5999999940395]","1","2","","","7260","43","0","3","lose","go","0"
"pit-trial","162","1069657","0.0-48.0","battery-v0.2","","""event"",""trial"",""time""
""fullscreenenter"",""1"",""2066""
","
","
","""event"",""trial"",""time""
""fullscreenenter"",""1"",""2066""
","
","","","-1","","","20","7260","3789","l","elianto","#3366ff99","-1","-1","1","+10","[]","0","2","","","7260","44","1","2","win","no-go","0"
"pit-trial","163","1073108","0.0-49.0","battery-v0.2","","""event"",""trial"",""time""
""fullscreenenter"",""1"",""2066""
","
","
","""event"",""trial"",""time""
""fullscreenenter"",""1"",""2066""
","
","","","587.7999999821186","","","20","7260","3789","a","elianto","#f73b6a7A"," "," ","1","0","[1438.199999988079]","1","2","","","7260","45","2","3","lose","go","0"
"pit-trial","164","1077977","0.0-50.0","battery-v0.2","","""event"",""trial"",""time""
""fullscreenenter"",""1"",""2066""
","
","
","""event"",""trial"",""time""
""fullscreenenter"",""1"",""2066""
","
","","","-1","","","20","7260","3789","l","elianto","#3366ff99","-1","-1","1","0","[]","0","2","","","7260","46","1","2","win","no-go","1"
"pit-trial","165","1081380","0.0-51.0","battery-v0.2","","""event"",""trial"",""time""
""fullscreenenter"",""1"",""2066""
","
","
","""event"",""trial"",""time""
""fullscreenenter"",""1"",""2066""
","
","","","540.1999999880791","","","20","7260","3789","u","elianto","#f73b6a7A"," "," ","1","-10","[1390.5999999940395]","1","2","","","7260","47","0","3","lose","go","1"
"pit-trial","166","1086249","0.0-52.0","battery-v0.2","","""event"",""trial"",""time""
""fullscreenenter"",""1"",""2066""
","
","
","""event"",""trial"",""time""
""fullscreenenter"",""1"",""2066""
","
","","","-1","","","20","7260","3789","g","elianto","#f73b6a7A","-1","-1","1","0","[]","0","2","","","7260","48","3","4","lose","no-go","0"
"pit-trial","167","1091113","0.0-53.0","battery-v0.2","","""event"",""trial"",""time""
""fullscreenenter"",""1"",""2066""
","
","
","""event"",""trial"",""time""
""fullscreenenter"",""1"",""2066""
","
","","","-1","","","20","7260","3789","g","elianto","#f73b6a7A","-1","-1","1","0","[]","0","2","","","7260","49","3","4","lose","no-go","0"
"pit-trial","168","1094708","0.0-54.0","battery-v0.2","","""event"",""trial"",""time""
""fullscreenenter"",""1"",""2066""
","
","
","""event"",""trial"",""time""
""fullscreenenter"",""1"",""2066""
","
","","","726.0999999940395","","","20","7260","3789","a","elianto","#f73b6a7A"," "," ","1","0","[1580.5999999940395]","1","2","","","7260","50","2","3","lose","go","0"
"pit-trial","169","1099577","0.0-55.0","battery-v0.2","","""event"",""trial"",""time""
""fullscreenenter"",""1"",""2066""
","
","
","""event"",""trial"",""time""
""fullscreenenter"",""1"",""2066""
","
","","","-1","","","20","7260","3789","l","elianto","#3366ff99","-1","-1","1","+10","[]","0","2","","","7260","51","1","2","win","no-go","0"
"pit-trial","170","1103012","0.0-56.0","battery-v0.2","","""event"",""trial"",""time""
""fullscreenenter"",""1"",""2066""
","
","
","""event"",""trial"",""time""
""fullscreenenter"",""1"",""2066""
","
","","","571.9000000059605","","","20","7260","3789","u","elianto","#f73b6a7A"," "," ","1","0","[1426]","1","2","","","7260","52","0","3","lose","go","0"
"pit-trial","171","1106484","0.0-57.0","battery-v0.2","","""event"",""trial"",""time""
""fullscreenenter"",""1"",""2066""
","
","
","""event"",""trial"",""time""
""fullscreenenter"",""1"",""2066""
","
","","","602.2000000178814","","","20","7260","3789","a","elianto","#f73b6a7A"," "," ","1","-10","[1462.2000000178814]","1","2","","","7260","53","2","3","lose","go","1"
"pit-trial","172","1111353","0.0-58.0","battery-v0.2","","""event"",""trial"",""time""
""fullscreenenter"",""1"",""2066""
","
","
","""event"",""trial"",""time""
""fullscreenenter"",""1"",""2066""
","
","","","-1","","","20","7260","3789","g","elianto","#f73b6a7A","-1","-1","1","0","[]","0","2","","","7260","54","3","4","lose","no-go","0"
"pit-trial","173","1114820","0.0-59.0","battery-v0.2","","""event"",""trial"",""time""
""fullscreenenter"",""1"",""2066""
","
","
","""event"",""trial"",""time""
""fullscreenenter"",""1"",""2066""
","
","","","604.3000000119209","","","20","7260","3789","u","elianto","#f73b6a7A"," "," ","1","-10","[1457.9000000059605]","1","2","","","7260","55","0","3","lose","go","1"
"pit-trial","174","1119691","0.0-60.0","battery-v0.2","","""event"",""trial"",""time""
""fullscreenenter"",""1"",""2066""
","
","
","""event"",""trial"",""time""
""fullscreenenter"",""1"",""2066""
","
","","","-1","","","20","7260","3789","l","elianto","#3366ff99","-1","-1","1","+10","[]","0","2","","","7260","56","1","2","win","no-go","0"
"pit-trial","175","1124564","0.0-61.0","battery-v0.2","","""event"",""trial"",""time""
""fullscreenenter"",""1"",""2066""
","
","
","""event"",""trial"",""time""
""fullscreenenter"",""1"",""2066""
","
","","","-1","","","20","7260","3789","g","elianto","#f73b6a7A","-1","-1","1","0","[]","0","2","","","7260","57","3","4","lose","no-go","0"
"pit-trial","176","1127923","0.0-62.0","battery-v0.2","","""event"",""trial"",""time""
""fullscreenenter"",""1"",""2066""
","
","
","""event"",""trial"",""time""
""fullscreenenter"",""1"",""2066""
","
","","","490.40000000596046","","","20","7260","3789","a","elianto","#f73b6a7A"," "," ","1","0","[1350.4000000059605]","1","2","","","7260","58","2","3","lose","go","0"
"pit-trial","177","1131337","0.0-63.0","battery-v0.2","","""event"",""trial"",""time""
""fullscreenenter"",""1"",""2066""
","
","
","""event"",""trial"",""time""
""fullscreenenter"",""1"",""2066""
","
","","","554","","","20","7260","3789","u","elianto","#f73b6a7A"," "," ","1","0","[1405.699999988079]","1","2","","","7260","59","0","3","lose","go","0"
"pit-trial","178","1135737","0.0-64.0","battery-v0.2","","""event"",""trial"",""time""
""fullscreenenter"",""1"",""2066""
","
","
","""event"",""trial"",""time""
""fullscreenenter"",""1"",""2066""
","
","","","1533.5","","","20","7260","3789","p","elianto","#3366ff99"," "," ","1","+10","[2388.100000023842]","1","2","","","7260","60","4","1","win","go","0"
"pit-trial","179","1139075","0.0-65.0","battery-v0.2","","""event"",""trial"",""time""
""fullscreenenter"",""1"",""2066""
","
","
","""event"",""trial"",""time""
""fullscreenenter"",""1"",""2066""
","
","","","470.90000000596046","","","20","7260","3789","p","elianto","#3366ff99"," "," ","1","0","[1325.5999999940395]","1","2","","","7260","61","4","1","win","go","1"
"pit-trial","180","1142419","0.0-66.0","battery-v0.2","","""event"",""trial"",""time""
""fullscreenenter"",""1"",""2066""
","
","
","""event"",""trial"",""time""
""fullscreenenter"",""1"",""2066""
","
","","","485","","","20","7260","3789","a","elianto","#f73b6a7A"," "," ","1","0","[1335.300000011921]","1","2","","","7260","62","2","3","lose","go","0"
"pit-trial","181","1147288","0.0-67.0","battery-v0.2","","""event"",""trial"",""time""
""fullscreenenter"",""1"",""2066""
","
","
","""event"",""trial"",""time""
""fullscreenenter"",""1"",""2066""
","
","","","-1","","","20","7260","3789","l","elianto","#3366ff99","-1","-1","1","+10","[]","0","2","","","7260","63","1","2","win","no-go","0"
"pit-trial","182","1152152","0.0-68.0","battery-v0.2","","""event"",""trial"",""time""
""fullscreenenter"",""1"",""2066""
","
","
","""event"",""trial"",""time""
""fullscreenenter"",""1"",""2066""
","
","","","-1","","","20","7260","3789","g","elianto","#f73b6a7A","-1","-1","1","0","[]","0","2","","","7260","64","3","4","lose","no-go","0"
"pit-trial","183","1157016","0.0-69.0","battery-v0.2","","""event"",""trial"",""time""
""fullscreenenter"",""1"",""2066""
","
","
","""event"",""trial"",""time""
""fullscreenenter"",""1"",""2066""
","
","","","-1","","","20","7260","3789","l","elianto","#3366ff99","-1","-1","1","+10","[]","0","2","","","7260","65","1","2","win","no-go","0"
"pit-trial","184","1160520","0.0-70.0","battery-v0.2","","""event"",""trial"",""time""
""fullscreenenter"",""1"",""2066""
","
","
","""event"",""trial"",""time""
""fullscreenenter"",""1"",""2066""
","
","","","640","","","20","7260","3789","p","elianto","#3366ff99"," "," ","1","+10","[1491.5999999940395]","1","2","","","7260","66","4","1","win","go","0"
"pit-trial","185","1164328","0.0-71.0","battery-v0.2","","""event"",""trial"",""time""
""fullscreenenter"",""1"",""2066""
","
","
","""event"",""trial"",""time""
""fullscreenenter"",""1"",""2066""
","
","","","950.0999999940395","","","20","7260","3789","s","elianto","#3366ff99","-1"," ","0","0","[1804.5999999940395]","1","2","","","7260","67","5","2","win","no-go","0"
"pit-trial","186","1169192","0.0-72.0","battery-v0.2","","""event"",""trial"",""time""
""fullscreenenter"",""1"",""2066""
","
","
","""event"",""trial"",""time""
""fullscreenenter"",""1"",""2066""
","
","","","-1","","","20","7260","3789","g","elianto","#f73b6a7A","-1","-1","1","0","[]","0","2","","","7260","68","3","4","lose","no-go","0"
"pit-trial","187","1172803","0.0-73.0","battery-v0.2","","""event"",""trial"",""time""
""fullscreenenter"",""1"",""2066""
","
","
","""event"",""trial"",""time""
""fullscreenenter"",""1"",""2066""
","
","","","747.2000000178814","","","20","7260","3789","a","elianto","#f73b6a7A"," "," ","1","0","[1597.3999999761581]","1","2","","","7260","69","2","3","lose","go","0"
"pit-trial","188","1176312","0.0-74.0","battery-v0.2","","""event"",""trial"",""time""
""fullscreenenter"",""1"",""2066""
","
","
","""event"",""trial"",""time""
""fullscreenenter"",""1"",""2066""
","
","","","642","","","20","7260","3789","p","elianto","#3366ff99"," "," ","1","+10","[1497.4000000059605]","1","2","","","7260","70","4","1","win","go","0"
"pit-trial","189","1181178","0.0-75.0","battery-v0.2","","""event"",""trial"",""time""
""fullscreenenter"",""1"",""2066""
","
","
","""event"",""trial"",""time""
""fullscreenenter"",""1"",""2066""
","
","","","-1","","","20","7260","3789","s","elianto","#3366ff99","-1","-1","1","+10","[]","0","2","","","7260","71","5","2","win","no-go","0"
"pit-trial","190","1186040","0.0-76.0","battery-v0.2","","""event"",""trial"",""time""
""fullscreenenter"",""1"",""2066""
","
","
","""event"",""trial"",""time""
""fullscreenenter"",""1"",""2066""
","
","","","-1","","","20","7260","3789","l","elianto","#3366ff99","-1","-1","1","0","[]","0","2","","","7260","72","1","2","win","no-go","1"
"pit-trial","191","1190904","0.0-77.0","battery-v0.2","","""event"",""trial"",""time""
""fullscreenenter"",""1"",""2066""
","
","
","""event"",""trial"",""time""
""fullscreenenter"",""1"",""2066""
","
","","","-1","","","20","7260","3789","s","elianto","#3366ff99","-1","-1","1","+10","[]","0","2","","","7260","73","5","2","win","no-go","0"
"pit-trial","192","1194427","0.0-78.0","battery-v0.2","","""event"",""trial"",""time""
""fullscreenenter"",""1"",""2066""
","
","
","""event"",""trial"",""time""
""fullscreenenter"",""1"",""2066""
","
","","","654.1999999880791","","","20","7260","3789","p","elianto","#3366ff99"," "," ","1","+10","[1508]","1","2","","","7260","74","4","1","win","go","0"
"pit-trial","193","1199298","0.0-79.0","battery-v0.2","","""event"",""trial"",""time""
""fullscreenenter"",""1"",""2066""
","
","
","""event"",""trial"",""time""
""fullscreenenter"",""1"",""2066""
","
","","","-1","","","20","7260","3789","g","elianto","#f73b6a7A","-1","-1","1","0","[]","0","2","","","7260","75","3","4","lose","no-go","0"
"pit-trial","194","1204168","0.0-80.0","battery-v0.2","","""event"",""trial"",""time""
""fullscreenenter"",""1"",""2066""
","
","
","""event"",""trial"",""time""
""fullscreenenter"",""1"",""2066""
","
","","","-1","","","20","7260","3789","l","elianto","#3366ff99","-1","-1","1","+10","[]","0","2","","","7260","76","1","2","win","no-go","0"
"pit-trial","195","1209032","0.0-81.0","battery-v0.2","","""event"",""trial"",""time""
""fullscreenenter"",""1"",""2066""
","
","
","""event"",""trial"",""time""
""fullscreenenter"",""1"",""2066""
","
","","","-1","","","20","7260","3789","s","elianto","#3366ff99","-1","-1","1","+10","[]","0","2","","","7260","77","5","2","win","no-go","0"
"pit-trial","196","1213896","0.0-82.0","battery-v0.2","","""event"",""trial"",""time""
""fullscreenenter"",""1"",""2066""
","
","
","""event"",""trial"",""time""
""fullscreenenter"",""1"",""2066""
","
","","","-1","","","20","7260","3789","g","elianto","#f73b6a7A","-1","-1","1","-10","[]","0","2","","","7260","78","3","4","lose","no-go","1"
"pit-trial","197","1217378","0.0-83.0","battery-v0.2","","""event"",""trial"",""time""
""fullscreenenter"",""1"",""2066""
","
","
","""event"",""trial"",""time""
""fullscreenenter"",""1"",""2066""
","
","","","617.7000000178814","","","20","7260","3789","p","elianto","#3366ff99"," "," ","1","+10","[1472]","1","2","","","7260","79","4","1","win","go","0"
"pit-trial","198","1221026","0.0-84.0","battery-v0.2","","""event"",""trial"",""time""
""fullscreenenter"",""1"",""2066""
","
","
","""event"",""trial"",""time""
""fullscreenenter"",""1"",""2066""
","
","","","778.1999999880791","","","20","7260","3789","p","elianto","#3366ff99"," "," ","1","+10","[1637.800000011921]","1","2","","","7260","80","4","1","win","go","0"
"pit-trial","199","1225895","0.0-85.0","battery-v0.2","","""event"",""trial"",""time""
""fullscreenenter"",""1"",""2066""
","
","
","""event"",""trial"",""time""
""fullscreenenter"",""1"",""2066""
","
","","","-1","","","20","7260","3789","g","elianto","#f73b6a7A","-1","-1","1","0","[]","0","2","","","7260","81","3","4","lose","no-go","0"
"pit-trial","200","1229346","0.0-86.0","battery-v0.2","","""event"",""trial"",""time""
""fullscreenenter"",""1"",""2066""
","
","
","""event"",""trial"",""time""
""fullscreenenter"",""1"",""2066""
","
","","","584","","","20","7260","3789","p","elianto","#3366ff99"," "," ","1","+10","[1437.800000011921]","1","2","","","7260","82","4","1","win","go","0"
"pit-trial","201","1234215","0.0-87.0","battery-v0.2","","""event"",""trial"",""time""
""fullscreenenter"",""1"",""2066""
","
","
","""event"",""trial"",""time""
""fullscreenenter"",""1"",""2066""
","
","","","-1","","","20","7260","3789","s","elianto","#3366ff99","-1","-1","1","+10","[]","0","2","","","7260","83","5","2","win","no-go","0"
"pit-trial","202","1238130","0.0-88.0","battery-v0.2","","""event"",""trial"",""time""
""fullscreenenter"",""1"",""2066""
","
","
","""event"",""trial"",""time""
""fullscreenenter"",""1"",""2066""
","
","","","1051.300000011921","","","20","7260","3789","e","elianto","#f73b6a7A","-1"," ","0","-10","[1905.2999999821186]","1","2","","","7260","84","7","4","lose","no-go","0"
"pit-trial","203","1242055","0.0-89.0","battery-v0.2","","""event"",""trial"",""time""
""fullscreenenter"",""1"",""2066""
","
","
","""event"",""trial"",""time""
""fullscreenenter"",""1"",""2066""
","
","","","1058.9000000059605","","","20","7260","3789","p","elianto","#3366ff99"," "," ","1","+10","[1915.199999988079]","1","2","","","7260","85","4","1","win","go","0"
"pit-trial","204","1246919","0.0-90.0","battery-v0.2","","""event"",""trial"",""time""
""fullscreenenter"",""1"",""2066""
","
","
","""event"",""trial"",""time""
""fullscreenenter"",""1"",""2066""
","
","","","-1","","","20","7260","3789","e","elianto","#f73b6a7A","-1","-1","1","0","[]","0","2","","","7260","86","7","4","lose","no-go","0"
"pit-trial","205","1251783","0.0-91.0","battery-v0.2","","""event"",""trial"",""time""
""fullscreenenter"",""1"",""2066""
","
","
","""event"",""trial"",""time""
""fullscreenenter"",""1"",""2066""
","
","","","-1","","","20","7260","3789","s","elianto","#3366ff99","-1","-1","1","0","[]","0","2","","","7260","87","5","2","win","no-go","1"
"pit-trial","206","1255383","0.0-92.0","battery-v0.2","","""event"",""trial"",""time""
""fullscreenenter"",""1"",""2066""
","
","
","""event"",""trial"",""time""
""fullscreenenter"",""1"",""2066""
","
","","","732.6000000238419","","","20","7260","3789","w","elianto","#f73b6a7A"," "," ","1","0","[1589.5]","1","2","","","7260","88","6","3","lose","go","0"
"pit-trial","207","1260247","0.0-93.0","battery-v0.2","","""event"",""trial"",""time""
""fullscreenenter"",""1"",""2066""
","
","
","""event"",""trial"",""time""
""fullscreenenter"",""1"",""2066""
","
","","","-1","","","20","7260","3789","s","elianto","#3366ff99","-1","-1","1","+10","[]","0","2","","","7260","89","5","2","win","no-go","0"
"pit-trial","208","1265111","0.0-94.0","battery-v0.2","","""event"",""trial"",""time""
""fullscreenenter"",""1"",""2066""
","
","
","""event"",""trial"",""time""
""fullscreenenter"",""1"",""2066""
","
","","","-1","","","20","7260","3789","e","elianto","#f73b6a7A","-1","-1","1","0","[]","0","2","","","7260","90","7","4","lose","no-go","0"
"pit-trial","209","1268535","0.0-95.0","battery-v0.2","","""event"",""trial"",""time""
""fullscreenenter"",""1"",""2066""
","
","
","""event"",""trial"",""time""
""fullscreenenter"",""1"",""2066""
","
","","","556.7000000178814","","","20","7260","3789","w","elianto","#f73b6a7A"," "," ","1","0","[1411.2000000178814]","1","2","","","7260","91","6","3","lose","go","0"
"pit-trial","210","1272023","0.0-96.0","battery-v0.2","","""event"",""trial"",""time""
""fullscreenenter"",""1"",""2066""
","
","
","""event"",""trial"",""time""
""fullscreenenter"",""1"",""2066""
","
","","","626.3000000119209","","","20","7260","3789","p","elianto","#3366ff99"," "," ","1","+10","[1480.5999999940395]","1","2","","","7260","92","4","1","win","go","0"
"pit-trial","211","1275825","0.0-97.0","battery-v0.2","","""event"",""trial"",""time""
""fullscreenenter"",""1"",""2066""
","
","
","""event"",""trial"",""time""
""fullscreenenter"",""1"",""2066""
","
","","","935.1999999880791","","","20","7260","3789","d","elianto","#3366ff99"," "," ","1","+10","[1788.5]","1","2","","","7260","93","8","1","win","go","0"
"pit-trial","212","1280694","0.0-98.0","battery-v0.2","","""event"",""trial"",""time""
""fullscreenenter"",""1"",""2066""
","
","
","""event"",""trial"",""time""
""fullscreenenter"",""1"",""2066""
","
","","","-1","","","20","7260","3789","s","elianto","#3366ff99","-1","-1","1","+10","[]","0","2","","","7260","94","5","2","win","no-go","0"
"pit-trial","213","1284753","0.0-99.0","battery-v0.2","","""event"",""trial"",""time""
""fullscreenenter"",""1"",""2066""
","
","
","""event"",""trial"",""time""
""fullscreenenter"",""1"",""2066""
","
","","","1197.9000000059605","","","20","7260","3789","w","elianto","#f73b6a7A"," "," ","1","0","[2049]","1","2","","","7260","95","6","3","lose","go","0"
"pit-trial","214","1289622","0.0-100.0","battery-v0.2","","""event"",""trial"",""time""
""fullscreenenter"",""1"",""2066""
","
","
","""event"",""trial"",""time""
""fullscreenenter"",""1"",""2066""
","
","","","-1","","","20","7260","3789","e","elianto","#f73b6a7A","-1","-1","1","0","[]","0","2","","","7260","96","7","4","lose","no-go","0"
"pit-trial","215","1294486","0.0-101.0","battery-v0.2","","""event"",""trial"",""time""
""fullscreenenter"",""1"",""2066""
","
","
","""event"",""trial"",""time""
""fullscreenenter"",""1"",""2066""
","
","","","-1","","","20","7260","3789","e","elianto","#f73b6a7A","-1","-1","1","-10","[]","0","2","","","7260","97","7","4","lose","no-go","1"
"pit-trial","216","1299350","0.0-102.0","battery-v0.2","","""event"",""trial"",""time""
""fullscreenenter"",""1"",""2066""
","
","
","""event"",""trial"",""time""
""fullscreenenter"",""1"",""2066""
","
","","","-1","","","20","7260","3789","s","elianto","#3366ff99","-1","-1","1","+10","[]","0","2","","","7260","98","5","2","win","no-go","0"
"pit-trial","217","1302945","0.0-103.0","battery-v0.2","","""event"",""trial"",""time""
""fullscreenenter"",""1"",""2066""
","
","
","""event"",""trial"",""time""
""fullscreenenter"",""1"",""2066""
","
","","","727.7000000178814","","","20","7260","3789","d","elianto","#3366ff99"," "," ","1","+10","[1582.300000011921]","1","2","","","7260","99","8","1","win","go","0"
"pit-trial","218","1306497","0.0-104.0","battery-v0.2","","""event"",""trial"",""time""
""fullscreenenter"",""1"",""2066""
","
","
","""event"",""trial"",""time""
""fullscreenenter"",""1"",""2066""
","
","","","692.4000000059605","","","20","7260","3789","w","elianto","#f73b6a7A"," "," ","1","0","[1542.7999999821186]","1","2","","","7260","100","6","3","lose","go","0"
"pit-trial","219","1310353","0.0-105.0","battery-v0.2","","""event"",""trial"",""time""
""fullscreenenter"",""1"",""2066""
","
","
","""event"",""trial"",""time""
""fullscreenenter"",""1"",""2066""
","
","","","984.5","","","20","7260","3789","e","elianto","#f73b6a7A","-1"," ","0","-10","[1844.0999999940395]","1","2","","","7260","101","7","4","lose","no-go","0"
"pit-trial","220","1315222","0.0-106.0","battery-v0.2","","""event"",""trial"",""time""
""fullscreenenter"",""1"",""2066""
","
","
","""event"",""trial"",""time""
""fullscreenenter"",""1"",""2066""
","
","","","-1","","","20","7260","3789","s","elianto","#3366ff99","-1","-1","1","+10","[]","0","2","","","7260","102","5","2","win","no-go","0"
"pit-trial","221","1318896","0.0-107.0","battery-v0.2","","""event"",""trial"",""time""
""fullscreenenter"",""1"",""2066""
","
","
","""event"",""trial"",""time""
""fullscreenenter"",""1"",""2066""
","
","","","805.5","","","20","7260","3789","d","elianto","#3366ff99"," "," ","1","+10","[1660.199999988079]","1","2","","","7260","103","8","1","win","go","0"
"pit-trial","222","1322577","0.0-108.0","battery-v0.2","","""event"",""trial"",""time""
""fullscreenenter"",""1"",""2066""
","
","
","""event"",""trial"",""time""
""fullscreenenter"",""1"",""2066""
","
","","","812.2000000178814","","","20","7260","3789","j","elianto","#3366ff99"," "," ","1","+10","[1671.1000000238419]","1","2","","","7260","104","9","1","win","go","0"
"pit-trial","223","1326230","0.0-109.0","battery-v0.2","","""event"",""trial"",""time""
""fullscreenenter"",""1"",""2066""
","
","
","""event"",""trial"",""time""
""fullscreenenter"",""1"",""2066""
","
","","","796.6000000238419","","","20","7260","3789","d","elianto","#3366ff99"," "," ","1","0","[1646.7999999821186]","1","2","","","7260","105","8","1","win","go","1"
"pit-trial","224","1331094","0.0-110.0","battery-v0.2","","""event"",""trial"",""time""
""fullscreenenter"",""1"",""2066""
","
","
","""event"",""trial"",""time""
""fullscreenenter"",""1"",""2066""
","
","","","-1","","","20","7260","3789","p","elianto","#3366ff99"," ","-1","0","0","[]","0","2","","","7260","106","4","1","win","go","0"
"pit-trial","225","1334928","0.0-111.0","battery-v0.2","","""event"",""trial"",""time""
""fullscreenenter"",""1"",""2066""
","
","
","""event"",""trial"",""time""
""fullscreenenter"",""1"",""2066""
","
","","","974.6000000238419","","","20","7260","3789","j","elianto","#3366ff99"," "," ","1","+10","[1825.3999999761581]","1","2","","","7260","107","9","1","win","go","0"
"pit-trial","226","1339014","0.0-112.0","battery-v0.2","","""event"",""trial"",""time""
""fullscreenenter"",""1"",""2066""
","
","
","""event"",""trial"",""time""
""fullscreenenter"",""1"",""2066""
","
","","","1219.699999988079","","","20","7260","3789","w","elianto","#f73b6a7A"," "," ","1","0","[2079]","1","2","","","7260","108","6","3","lose","go","0"
"pit-trial","227","1343878","0.0-113.0","battery-v0.2","","""event"",""trial"",""time""
""fullscreenenter"",""1"",""2066""
","
","
","""event"",""trial"",""time""
""fullscreenenter"",""1"",""2066""
","
","","","-1","","","20","7260","3789","s","elianto","#3366ff99","-1","-1","1","0","[]","0","2","","","7260","109","5","2","win","no-go","1"
"pit-trial","228","1347478","0.0-114.0","battery-v0.2","","""event"",""trial"",""time""
""fullscreenenter"",""1"",""2066""
","
","
","""event"",""trial"",""time""
""fullscreenenter"",""1"",""2066""
","
","","","737","","","20","7260","3789","w","elianto","#f73b6a7A"," "," ","1","0","[1587.2000000178814]","1","2","","","7260","110","6","3","lose","go","0"
"pit-trial","229","1351062","0.0-115.0","battery-v0.2","","""event"",""trial"",""time""
""fullscreenenter"",""1"",""2066""
","
","
","""event"",""trial"",""time""
""fullscreenenter"",""1"",""2066""
","
","","","720.9000000059605","","","20","7260","3789","j","elianto","#3366ff99"," "," ","1","+10","[1575.4000000059605]","1","2","","","7260","111","9","1","win","go","0"
"pit-trial","230","1354613","0.0-116.0","battery-v0.2","","""event"",""trial"",""time""
""fullscreenenter"",""1"",""2066""
","
","
","""event"",""trial"",""time""
""fullscreenenter"",""1"",""2066""
","
","","","690.7000000178814","","","20","7260","3789","d","elianto","#3366ff99"," "," ","1","+10","[1541.3999999761581]","1","2","","","7260","112","8","1","win","go","0"
"pit-trial","231","1359480","0.0-117.0","battery-v0.2","","""event"",""trial"",""time""
""fullscreenenter"",""1"",""2066""
","
","
","""event"",""trial"",""time""
""fullscreenenter"",""1"",""2066""
","
","","","-1","","","20","7260","3789","s","elianto","#3366ff99","-1","-1","1","+10","[]","0","2","","","7260","113","5","2","win","no-go","0"
"pit-trial","232","1362981","0.0-118.0","battery-v0.2","","""event"",""trial"",""time""
""fullscreenenter"",""1"",""2066""
","
","
","""event"",""trial"",""time""
""fullscreenenter"",""1"",""2066""
","
","","","637.8000000119209","","","20","7260","3789","j","elianto","#3366ff99"," "," ","1","+10","[1495]","1","2","","","7260","114","9","1","win","go","0"
"pit-trial","233","1366901","0.0-119.0","battery-v0.2","","""event"",""trial"",""time""
""fullscreenenter"",""1"",""2066""
","
","
","""event"",""trial"",""time""
""fullscreenenter"",""1"",""2066""
","
","","","1057.300000011921","","","20","7260","3789","w","elianto","#f73b6a7A"," "," ","1","0","[1912.2000000178814]","1","2","","","7260","115","6","3","lose","go","0"
"pit-trial","234","1370453","0.0-120.0","battery-v0.2","","""event"",""trial"",""time""
""fullscreenenter"",""1"",""2066""
","
","
","""event"",""trial"",""time""
""fullscreenenter"",""1"",""2066""
","
","","","685.9000000059605","","","20","7260","3789","d","elianto","#3366ff99"," "," ","1","0","[1540.9000000059605]","1","2","","","7260","116","8","1","win","go","1"
"pit-trial","235","1374048","0.0-121.0","battery-v0.2","","""event"",""trial"",""time""
""fullscreenenter"",""1"",""2066""
","
","
","""event"",""trial"",""time""
""fullscreenenter"",""1"",""2066""
","
","","","729.8000000119209","","","20","7260","3789","w","elianto","#f73b6a7A"," "," ","1","0","[1584.2000000178814]","1","2","","","7260","117","6","3","lose","go","0"
"pit-trial","236","1377536","0.0-122.0","battery-v0.2","","""event"",""trial"",""time""
""fullscreenenter"",""1"",""2066""
","
","
","""event"",""trial"",""time""
""fullscreenenter"",""1"",""2066""
","
","","","615.4000000059605","","","20","7260","3789","j","elianto","#3366ff99"," "," ","1","0","[1475.5]","1","2","","","7260","118","9","1","win","go","1"
"pit-trial","237","1381013","0.0-123.0","battery-v0.2","","""event"",""trial"",""time""
""fullscreenenter"",""1"",""2066""
","
","
","""event"",""trial"",""time""
""fullscreenenter"",""1"",""2066""
","
","","","611.9000000059605","","","20","7260","3789","d","elianto","#3366ff99"," "," ","1","+10","[1470.5]","1","2","","","7260","119","8","1","win","go","0"
"pit-trial","238","1385877","0.0-124.0","battery-v0.2","","""event"",""trial"",""time""
""fullscreenenter"",""1"",""2066""
","
","
","""event"",""trial"",""time""
""fullscreenenter"",""1"",""2066""
","
","","","-1","","","20","7260","3789","s","elianto","#3366ff99","-1","-1","1","+10","[]","0","2","","","7260","120","5","2","win","no-go","0"
"pit-trial","239","1389359","0.0-125.0","battery-v0.2","","""event"",""trial"",""time""
""fullscreenenter"",""1"",""2066""
","
","
","""event"",""trial"",""time""
""fullscreenenter"",""1"",""2066""
","
","","","617.2000000178814","","","20","7260","3789","j","elianto","#3366ff99"," "," ","1","+10","[1467.8999999761581]","1","2","","","7260","121","9","1","win","go","0"
"pit-trial","240","1394229","0.0-126.0","battery-v0.2","","""event"",""trial"",""time""
""fullscreenenter"",""1"",""2066""
","
","
","""event"",""trial"",""time""
""fullscreenenter"",""1"",""2066""
","
","","","-1","","","20","7260","3789","e","elianto","#f73b6a7A","-1","-1","1","0","[]","0","2","","","7260","122","7","4","lose","no-go","0"
"pit-trial","241","1397797","0.0-127.0","battery-v0.2","","""event"",""trial"",""time""
""fullscreenenter"",""1"",""2066""
","
","
","""event"",""trial"",""time""
""fullscreenenter"",""1"",""2066""
","
","","","701.5","","","20","7260","3789","w","elianto","#f73b6a7A"," "," ","1","0","[1556.5]","1","2","","","7260","123","6","3","lose","go","0"
"pit-trial","242","1401205","0.0-128.0","battery-v0.2","","""event"",""trial"",""time""
""fullscreenenter"",""1"",""2066""
","
","
","""event"",""trial"",""time""
""fullscreenenter"",""1"",""2066""
","
","","","546.0999999940395","","","20","7260","3789","d","elianto","#3366ff99"," "," ","1","0","[1400.4000000059605]","1","2","","","7260","124","8","1","win","go","1"
"pit-trial","243","1404687","0.0-129.0","battery-v0.2","","""event"",""trial"",""time""
""fullscreenenter"",""1"",""2066""
","
","
","""event"",""trial"",""time""
""fullscreenenter"",""1"",""2066""
","
","","","611.4000000059605","","","20","7260","3789","w","elianto","#f73b6a7A"," "," ","1","-10","[1466.7999999821186]","1","2","","","7260","125","6","3","lose","go","1"
"pit-trial","244","1408152","0.0-130.0","battery-v0.2","","""event"",""trial"",""time""
""fullscreenenter"",""1"",""2066""
","
","
","""event"",""trial"",""time""
""fullscreenenter"",""1"",""2066""
","
","","","592.5999999940395","","","20","7260","3789","d","elianto","#3366ff99"," "," ","1","0","[1448.199999988079]","1","2","","","7260","126","8","1","win","go","1"
"pit-trial","245","1413023","0.0-131.0","battery-v0.2","","""event"",""trial"",""time""
""fullscreenenter"",""1"",""2066""
","
","
","""event"",""trial"",""time""
""fullscreenenter"",""1"",""2066""
","
","","","-1","","","20","7260","3789","e","elianto","#f73b6a7A","-1","-1","1","0","[]","0","2","","","7260","127","7","4","lose","no-go","0"
"pit-trial","246","1416575","0.0-132.0","battery-v0.2","","""event"",""trial"",""time""
""fullscreenenter"",""1"",""2066""
","
","
","""event"",""trial"",""time""
""fullscreenenter"",""1"",""2066""
","
","","","682.3999999761581","","","20","7260","3789","j","elianto","#3366ff99"," "," ","1","+10","[1536.7999999821186]","1","2","","","7260","128","9","1","win","go","0"
"pit-trial","247","1420095","0.0-133.0","battery-v0.2","","""event"",""trial"",""time""
""fullscreenenter"",""1"",""2066""
","
","
","""event"",""trial"",""time""
""fullscreenenter"",""1"",""2066""
","
","","","658.2999999821186","","","20","7260","3789","j","elianto","#3366ff99"," "," ","1","+10","[1510.199999988079]","1","2","","","7260","129","9","1","win","go","0"
"pit-trial","248","1423647","0.0-134.0","battery-v0.2","","""event"",""trial"",""time""
""fullscreenenter"",""1"",""2066""
","
","
","""event"",""trial"",""time""
""fullscreenenter"",""1"",""2066""
","
","","","687.5999999940395","","","20","7260","3789","w","elianto","#f73b6a7A"," "," ","1","0","[1538.5999999940395]","1","2","","","7260","130","6","3","lose","go","0"
"pit-trial","249","1428516","0.0-135.0","battery-v0.2","","""event"",""trial"",""time""
""fullscreenenter"",""1"",""2066""
","
","
","""event"",""trial"",""time""
""fullscreenenter"",""1"",""2066""
","
","","","-1","","","20","7260","3789","e","elianto","#f73b6a7A","-1","-1","1","0","[]","0","2","","","7260","131","7","4","lose","no-go","0"
"pit-trial","250","1432015","0.0-136.0","battery-v0.2","","""event"",""trial"",""time""
""fullscreenenter"",""1"",""2066""
","
","
","""event"",""trial"",""time""
""fullscreenenter"",""1"",""2066""
","
","","","631.8000000119209","","","20","7260","3789","d","elianto","#3366ff99"," "," ","1","+10","[1486.5999999940395]","1","2","","","7260","132","8","1","win","go","0"
"pit-trial","251","1436884","0.0-137.0","battery-v0.2","","""event"",""trial"",""time""
""fullscreenenter"",""1"",""2066""
","
","
","""event"",""trial"",""time""
""fullscreenenter"",""1"",""2066""
","
","","","-1","","","20","7260","3789","e","elianto","#f73b6a7A","-1","-1","1","0","[]","0","2","","","7260","133","7","4","lose","no-go","0"
"pit-trial","252","1440447","0.0-138.0","battery-v0.2","","""event"",""trial"",""time""
""fullscreenenter"",""1"",""2066""
","
","
","""event"",""trial"",""time""
""fullscreenenter"",""1"",""2066""
","
","","","693.7000000178814","","","20","7260","3789","w","elianto","#f73b6a7A"," "," ","1","0","[1548.5999999940395]","1","2","","","7260","134","6","3","lose","go","0"
"pit-trial","253","1443903","0.0-139.0","battery-v0.2","","""event"",""trial"",""time""
""fullscreenenter"",""1"",""2066""
","
","
","""event"",""trial"",""time""
""fullscreenenter"",""1"",""2066""
","
","","","586.8000000119209","","","20","7260","3789","j","elianto","#3366ff99"," "," ","1","+10","[1446.7000000178814]","1","2","","","7260","135","9","1","win","go","0"
"pit-trial","254","1447407","0.0-140.0","battery-v0.2","","""event"",""trial"",""time""
""fullscreenenter"",""1"",""2066""
","
","
","""event"",""trial"",""time""
""fullscreenenter"",""1"",""2066""
","
","","","634.0999999940395","","","20","7260","3789","d","elianto","#3366ff99"," "," ","1","+10","[1493]","1","2","","","7260","136","8","1","win","go","0"
"pit-trial","255","1450916","0.0-141.0","battery-v0.2","","""event"",""trial"",""time""
""fullscreenenter"",""1"",""2066""
","
","
","""event"",""trial"",""time""
""fullscreenenter"",""1"",""2066""
","
","","","642.8000000119209","","","20","7260","3789","j","elianto","#3366ff99"," "," ","1","+10","[1498]","1","2","","","7260","137","9","1","win","go","0"
"pit-trial","256","1454390","0.0-142.0","battery-v0.2","","""event"",""trial"",""time""
""fullscreenenter"",""1"",""2066""
","
","
","""event"",""trial"",""time""
""fullscreenenter"",""1"",""2066""
","
","","","605.8000000119209","","","20","7260","3789","d","elianto","#3366ff99"," "," ","1","+10","[1460.300000011921]","1","2","","","7260","138","8","1","win","go","0"
"pit-trial","257","1459263","0.0-143.0","battery-v0.2","","""event"",""trial"",""time""
""fullscreenenter"",""1"",""2066""
","
","
","""event"",""trial"",""time""
""fullscreenenter"",""1"",""2066""
","
","","","-1","","","20","7260","3789","e","elianto","#f73b6a7A","-1","-1","1","0","[]","0","2","","","7260","139","7","4","lose","no-go","0"
"pit-trial","258","1463007","0.0-144.0","battery-v0.2","","""event"",""trial"",""time""
""fullscreenenter"",""1"",""2066""
","
","
","""event"",""trial"",""time""
""fullscreenenter"",""1"",""2066""
","
","","","870.5999999940395","","","20","7260","3789","w","elianto","#f73b6a7A"," "," ","1","0","[1730.2999999821186]","1","2","","","7260","140","6","3","lose","go","0"
"pit-instructions","259","1481589","0.0-145.0","battery-v0.2","","""event"",""trial"",""time""
""fullscreenenter"",""1"",""2066""
","
","
","""event"",""trial"",""time""
""fullscreenenter"",""1"",""2066""
","
","","[{""page_index"":0,""viewing_time"":7580.4000000059605},{""page_index"":1,""viewing_time"":10998.299999982119}]","18579.09999999404","","","","","","","","","","","","","","","","","","","","","","","",""
"pit-trial","260","1485166","0.0-146.0","battery-v0.2","","""event"",""trial"",""time""
""fullscreenenter"",""1"",""2066""
","
","
","""event"",""trial"",""time""
""fullscreenenter"",""1"",""2066""
","
","","","707.9000000059605","","","20","7260","3789","b","elianto","#f73b6a7A"," "," ","1","-10","[1562.300000011921]","1","3","","","7260","141","3","3","lose","go","1"
"pit-trial","261","1488452","0.0-147.0","battery-v0.2","","""event"",""trial"",""time""
""fullscreenenter"",""1"",""2066""
","
","
","""event"",""trial"",""time""
""fullscreenenter"",""1"",""2066""
","
","","","415.80000001192093","","","20","7260","3789","n","elianto","#f73b6a7A","-1"," ","0","-10","[1276.300000011921]","1","3","","","7260","142","0","4","lose","no-go","0"
"pit-trial","262","1491742","0.0-148.0","battery-v0.2","","""event"",""trial"",""time""
""fullscreenenter"",""1"",""2066""
","
","
","""event"",""trial"",""time""
""fullscreenenter"",""1"",""2066""
","
","","","426.7000000178814","","","20","7260","3789","t","elianto","#f73b6a7A","-1"," ","0","-10","[1281.2000000178814]","1","3","","","7260","143","2","4","lose","no-go","0"
"pit-trial","263","1495086","0.0-149.0","battery-v0.2","","""event"",""trial"",""time""
""fullscreenenter"",""1"",""2066""
","
","
","""event"",""trial"",""time""
""fullscreenenter"",""1"",""2066""
","
","","","478.39999997615814","","","20","7260","3789","f","elianto","#3366ff99"," "," ","1","+10","[1331.5999999940395]","1","3","","","7260","144","1","1","win","go","0"
"pit-trial","264","1499955","0.0-150.0","battery-v0.2","","""event"",""trial"",""time""
""fullscreenenter"",""1"",""2066""
","
","
","""event"",""trial"",""time""
""fullscreenenter"",""1"",""2066""
","
","","","-1","","","20","7260","3789","t","elianto","#f73b6a7A","-1","-1","1","0","[]","0","3","","","7260","145","2","4","lose","no-go","0"
"pit-trial","265","1504819","0.0-151.0","battery-v0.2","","""event"",""trial"",""time""
""fullscreenenter"",""1"",""2066""
","
","
","""event"",""trial"",""time""
""fullscreenenter"",""1"",""2066""
","
","","","-1","","","20","7260","3789","b","elianto","#f73b6a7A"," ","-1","0","0","[]","0","3","","","7260","146","3","3","lose","go","1"
"pit-trial","266","1508254","0.0-152.0","battery-v0.2","","""event"",""trial"",""time""
""fullscreenenter"",""1"",""2066""
","
","
","""event"",""trial"",""time""
""fullscreenenter"",""1"",""2066""
","
","","","571.2000000178814","","","20","7260","3789","f","elianto","#3366ff99"," "," ","1","+10","[1426.3999999761581]","1","3","","","7260","147","1","1","win","go","0"
"pit-trial","267","1513127","0.0-153.0","battery-v0.2","","""event"",""trial"",""time""
""fullscreenenter"",""1"",""2066""
","
","
","""event"",""trial"",""time""
""fullscreenenter"",""1"",""2066""
","
","","","-1","","","20","7260","3789","n","elianto","#f73b6a7A","-1","-1","1","0","[]","0","3","","","7260","148","0","4","lose","no-go","0"
