"trial_type","trial_index","time_elapsed","internal_node_id","task_version","subject_id","interactions","blur_events","focus_events","fullscreenenter_events","fullscreenexit_events","success","view_history","rt","responses","num_errors","age","subject","participantId","rune","rune_set","hex","correct","choice","accuracy","outcome","keys","total_keys","block","practice","value","sub","trial","stimulus","robot","valence","action","sham"
"pavlovia","0","9","0.0-0.0","battery-v0.2","","""event"",""trial"",""time""
""fullscreenenter"",""1"",""1889""
","
","
","""event"",""trial"",""time""
""fullscreenenter"",""1"",""1889""
","
","","","","","","","","","","","","","","","","","","","","","","","","","","",""
"fullscreen","1","2881","0.0-1.0","battery-v0.2","","""event"",""trial"",""time""
""fullscreenenter"",""1"",""1889""
","
","
","""event"",""trial"",""time""
""fullscreenenter"",""1"",""1889""
","
","true","","","","","","","","","","","","","","","","","","","","","","","","","",""
"pit-instructions","2","12139","0.0-2.0-0.0","battery-v0.2","","""event"",""trial"",""time""
""fullscreenenter"",""1"",""1889""
","
","
","""event"",""trial"",""time""
""fullscreenenter"",""1"",""1889""
","
","","[{""page_index"":0,""viewing_time"":9254}]","9254.5","","","","","","","","","","","","","","","","","","","","","","","",""
"pit-comprehension","3","14561","0.0-2.0-1.0-0.0","battery-v0.2","","""event"",""trial"",""time""
""fullscreenenter"",""1"",""1889""
","
","
","""event"",""trial"",""time""
""fullscreenenter"",""1"",""1889""
","
","","","2415.5999999940395","[""shark""]","0","13","9107","4359","","","","","","","","","","","","","","","","","","",""
"pit-instructions","4","18251","0.0-2.0-1.0-1.0","battery-v0.2","","""event"",""trial"",""time""
""fullscreenenter"",""1"",""1889""
","
","
","""event"",""trial"",""time""
""fullscreenenter"",""1"",""1889""
","
","","[{""page_index"":0,""viewing_time"":3681.3999999910593}]","3681.8999999910593","","","","","","","","","","","","","","","","","","","","","","","",""
"pit-comprehension","5","21796","0.0-2.0-2.0-0.0","battery-v0.2","","""event"",""trial"",""time""
""fullscreenenter"",""1"",""1889""
","
","
","""event"",""trial"",""time""
""fullscreenenter"",""1"",""1889""
","
","","","3539.6000000089407","[""tiger""]","0","13","9107","4359","","","","","","","","","","","","","","","","","","",""
"pit-instructions","6","22825","0.0-2.0-2.0-1.0","battery-v0.2","","""event"",""trial"",""time""
""fullscreenenter"",""1"",""1889""
","
","
","""event"",""trial"",""time""
""fullscreenenter"",""1"",""1889""
","
","","[{""page_index"":0,""viewing_time"":1025.3999999910593}]","1025.7999999970198","","","","","","","","","","","","","","","","","","","","","","","",""
"pit-instructions","7","127199","0.0-2.0-3.0","battery-v0.2","","""event"",""trial"",""time""
""fullscreenenter"",""1"",""1889""
","
","
","""event"",""trial"",""time""
""fullscreenenter"",""1"",""1889""
","
","","[{""page_index"":0,""viewing_time"":10017},{""page_index"":1,""viewing_time"":7618.899999991059},{""page_index"":2,""viewing_time"":8744},{""page_index"":3,""viewing_time"":6424.79999999702},{""page_index"":4,""viewing_time"":6523.20000000298},{""page_index"":5,""viewing_time"":6271.20000000298},{""page_index"":6,""viewing_time"":6874.20000000298},{""page_index"":7,""viewing_time"":6834.70000000298},{""page_index"":8,""viewing_time"":7044.399999991059},{""page_index"":9,""viewing_time"":9865.70000000298},{""page_index"":10,""viewing_time"":7518.5999999940395},{""page_index"":11,""viewing_time"":8529.60000000894},{""page_index"":12,""viewing_time"":6479.899999991059},{""page_index"":13,""viewing_time"":5624.20000000298}]","104370.89999999106","","","","","","","","","","","","","","","","","","","","","","","",""
"pit-trial","8","130927","0.0-2.0-4.0-0.0","battery-v0.2","","""event"",""trial"",""time""
""fullscreenenter"",""1"",""1889""
","
","
","""event"",""trial"",""time""
""fullscreenenter"",""1"",""1889""
","
","","","866.5","","","13","9107","4359","&#9784;","elianto","#FFFFF080"," "," ","1","&#10004","[1716.5999999940395]","1","0","0","","","","","","","",""
"pit-trial","9","134581","0.0-2.0-4.1-0.1","battery-v0.2","","""event"",""trial"",""time""
""fullscreenenter"",""1"",""1889""
","
","
","""event"",""trial"",""time""
""fullscreenenter"",""1"",""1889""
","
","","","785.2999999970198","","","13","9107","4359","&#9784;","elianto","#FFFFF080"," "," ","1","&#10004","[1636.5]","1","0","0","","","","","","","",""
"pit-trial","10","138023","0.0-2.0-4.2-0.2","battery-v0.2","","""event"",""trial"",""time""
""fullscreenenter"",""1"",""1889""
","
","
","""event"",""trial"",""time""
""fullscreenenter"",""1"",""1889""
","
","","","572","","","13","9107","4359","&#9784;","elianto","#FFFFF080"," "," ","1","&#10004","[1422.5]","1","0","0","","","","","","","",""
"pit-trial","11","141466","0.0-2.0-4.3-0.3","battery-v0.2","","""event"",""trial"",""time""
""fullscreenenter"",""1"",""1889""
","
","
","""event"",""trial"",""time""
""fullscreenenter"",""1"",""1889""
","
","","","583.2000000029802","","","13","9107","4359","&#9784;","elianto","#FFFFF080"," "," ","1","&#10004","[1437.7000000029802]","1","0","0","","","","","","","",""
"pit-trial","12","144966","0.0-2.0-4.4-0.4","battery-v0.2","","""event"",""trial"",""time""
""fullscreenenter"",""1"",""1889""
","
","
","""event"",""trial"",""time""
""fullscreenenter"",""1"",""1889""
","
","","","639.6999999880791","","","13","9107","4359","&#9784;","elianto","#FFFFF080"," "," ","1","&#10004","[1489.800000011921]","1","0","0","","","","","","","",""
"pit-instructions","13","172623","0.0-2.0-5.0","battery-v0.2","","""event"",""trial"",""time""
""fullscreenenter"",""1"",""1889""
","
","
","""event"",""trial"",""time""
""fullscreenenter"",""1"",""1889""
","
","","[{""page_index"":0,""viewing_time"":7536.0999999940395},{""page_index"":1,""viewing_time"":5981.0999999940395},{""page_index"":2,""viewing_time"":8807.10000000894},{""page_index"":3,""viewing_time"":5329.70000000298}]","27654.39999999106","","","","","","","","","","","","","","","","","","","","","","","",""
"pit-trial","14","177482","0.0-2.0-6.0-0.0","battery-v0.2","","""event"",""trial"",""time""
""fullscreenenter"",""1"",""1889""
","
","
","""event"",""trial"",""time""
""fullscreenenter"",""1"",""1889""
","
","","","-1","","","13","9107","4359","&#9854;","elianto","#FFFFF080","-1","-1","1","&#10004","[]","0","0","1","","","","","","","",""
"pit-trial","15","182346","0.0-2.0-6.1-0.1","battery-v0.2","","""event"",""trial"",""time""
""fullscreenenter"",""1"",""1889""
","
","
","""event"",""trial"",""time""
""fullscreenenter"",""1"",""1889""
","
","","","-1","","","13","9107","4359","&#9854;","elianto","#FFFFF080","-1","-1","1","&#10004","[]","0","0","1","","","","","","","",""
"pit-trial","16","187214","0.0-2.0-6.2-0.2","battery-v0.2","","""event"",""trial"",""time""
""fullscreenenter"",""1"",""1889""
","
","
","""event"",""trial"",""time""
""fullscreenenter"",""1"",""1889""
","
","","","-1","","","13","9107","4359","&#9854;","elianto","#FFFFF080","-1","-1","1","&#10004","[]","0","0","1","","","","","","","",""
"pit-trial","17","192087","0.0-2.0-6.3-0.3","battery-v0.2","","""event"",""trial"",""time""
""fullscreenenter"",""1"",""1889""
","
","
","""event"",""trial"",""time""
""fullscreenenter"",""1"",""1889""
","
","","","-1","","","13","9107","4359","&#9854;","elianto","#FFFFF080","-1","-1","1","&#10004","[]","0","0","1","","","","","","","",""
"pit-trial","18","196954","0.0-2.0-6.4-0.4","battery-v0.2","","""event"",""trial"",""time""
""fullscreenenter"",""1"",""1889""
","
","
","""event"",""trial"",""time""
""fullscreenenter"",""1"",""1889""
","
","","","-1","","","13","9107","4359","&#9854;","elianto","#FFFFF080","-1","-1","1","&#10004","[]","0","0","1","","","","","","","",""
"pit-instructions","19","322016","0.0-2.0-7.0","battery-v0.2","","""event"",""trial"",""time""
""fullscreenenter"",""1"",""1889""
","
","
","""event"",""trial"",""time""
""fullscreenenter"",""1"",""1889""
","
","","[{""page_index"":0,""viewing_time"":6592.800000011921},{""page_index"":1,""viewing_time"":7676.199999988079},{""page_index"":2,""viewing_time"":5720.70000000298},{""page_index"":3,""viewing_time"":6207.4000000059605},{""page_index"":4,""viewing_time"":6093.899999991059},{""page_index"":5,""viewing_time"":5606.100000008941},{""page_index"":6,""viewing_time"":5520.20000000298},{""page_index"":7,""viewing_time"":7926.199999988079},{""page_index"":8,""viewing_time"":8023.9000000059605},{""page_index"":9,""viewing_time"":6531.79999999702},{""page_index"":10,""viewing_time"":7192.29999999702},{""page_index"":11,""viewing_time"":5294.800000011921},{""page_index"":12,""viewing_time"":7431.899999991059},{""page_index"":13,""viewing_time"":6352.29999999702},{""page_index"":14,""viewing_time"":7824.100000008941},{""page_index"":15,""viewing_time"":10039.5},{""page_index"":16,""viewing_time"":6256.70000000298},{""page_index"":17,""viewing_time"":8767.39999999106}]","125058.70000000298","","","","","","","","","","","","","","","","","","","","","","","",""
"pit-trial","20","326279","0.0-2.0-8.0-0.0","battery-v0.2","","""event"",""trial"",""time""
""fullscreenenter"",""1"",""1889""
","
","
","""event"",""trial"",""time""
""fullscreenenter"",""1"",""1889""
","
","","","1394.5999999940395","","","13","9107","4359","&#9776;","elianto","#3366ff99"," "," ","1","+10","[2245.5]","1","0","1","","","","","","","",""
"pit-trial","21","329737","0.0-2.0-8.0-1.0","battery-v0.2","","""event"",""trial"",""time""
""fullscreenenter"",""1"",""1889""
","
","
","""event"",""trial"",""time""
""fullscreenenter"",""1"",""1889""
","
","","","601.7000000029802","","","13","9107","4359","&#9776;","elianto","#3366ff99"," "," ","1","+10","[1454.7000000029802]","1","0","1","","","","","","","",""
"pit-trial","22","333481","0.0-2.0-8.0-2.0","battery-v0.2","","""event"",""trial"",""time""
""fullscreenenter"",""1"",""1889""
","
","
","""event"",""trial"",""time""
""fullscreenenter"",""1"",""1889""
","
","","","881.7000000029802","","","13","9107","4359","&#9776;","elianto","#3366ff99"," "," ","1","+10","[1735.7999999970198]","1","0","1","","","","","","","",""
"pit-trial","23","336863","0.0-2.0-8.0-3.0","battery-v0.2","","""event"",""trial"",""time""
""fullscreenenter"",""1"",""1889""
","
","
","""event"",""trial"",""time""
""fullscreenenter"",""1"",""1889""
","
","","","522.2000000029802","","","13","9107","4359","&#9776;","elianto","#3366ff99"," "," ","1","0","[1373.4000000059605]","1","0","1","","","","","","","",""
"pit-trial","24","340313","0.0-2.0-8.0-4.0","battery-v0.2","","""event"",""trial"",""time""
""fullscreenenter"",""1"",""1889""
","
","
","""event"",""trial"",""time""
""fullscreenenter"",""1"",""1889""
","
","","","588.3999999910593","","","13","9107","4359","&#9776;","elianto","#3366ff99"," "," ","1","+10","[1440.7999999970198]","1","0","1","","","","","","","",""
"pit-trial","25","345177","0.0-2.0-8.1-0.1","battery-v0.2","","""event"",""trial"",""time""
""fullscreenenter"",""1"",""1889""
","
","
","""event"",""trial"",""time""
""fullscreenenter"",""1"",""1889""
","
","","","-1","","","13","9107","4359","&#9776;","elianto","#3366ff99"," ","-1","0","0","[]","0","0","1","","","","","","","",""
"pit-trial","26","350044","0.0-2.0-8.1-1.1","battery-v0.2","","""event"",""trial"",""time""
""fullscreenenter"",""1"",""1889""
","
","
","""event"",""trial"",""time""
""fullscreenenter"",""1"",""1889""
","
","","","-1","","","13","9107","4359","&#9776;","elianto","#3366ff99"," ","-1","0","0","[]","0","0","1","","","","","","","",""
"pit-trial","27","353442","0.0-2.0-8.1-2.1","battery-v0.2","","""event"",""trial"",""time""
""fullscreenenter"",""1"",""1889""
","
","
","""event"",""trial"",""time""
""fullscreenenter"",""1"",""1889""
","
","","","544.0999999940395","","","13","9107","4359","&#9776;","elianto","#3366ff99"," "," ","1","+10","[1394.7999999970198]","1","0","1","","","","","","","",""
"pit-trial","28","357073","0.0-2.0-8.1-3.1","battery-v0.2","","""event"",""trial"",""time""
""fullscreenenter"",""1"",""1889""
","
","
","""event"",""trial"",""time""
""fullscreenenter"",""1"",""1889""
","
","","","778","","","13","9107","4359","&#9776;","elianto","#3366ff99"," "," ","1","0","[1628.8999999910593]","1","0","1","","","","","","","",""
"pit-trial","29","360825","0.0-2.0-8.1-4.1","battery-v0.2","","""event"",""trial"",""time""
""fullscreenenter"",""1"",""1889""
","
","
","""event"",""trial"",""time""
""fullscreenenter"",""1"",""1889""
","
","","","898.7000000029802","","","13","9107","4359","&#9776;","elianto","#3366ff99"," "," ","1","+10","[1749.5]","1","0","1","","","","","","","",""
"pit-trial","30","364285","0.0-2.0-8.2-0.2","battery-v0.2","","""event"",""trial"",""time""
""fullscreenenter"",""1"",""1889""
","
","
","""event"",""trial"",""time""
""fullscreenenter"",""1"",""1889""
","
","","","606","","","13","9107","4359","&#9776;","elianto","#3366ff99"," "," ","1","+10","[1456.5999999940395]","1","0","1","","","","","","","",""
"pit-trial","31","368066","0.0-2.0-8.2-1.2","battery-v0.2","","""event"",""trial"",""time""
""fullscreenenter"",""1"",""1889""
","
","
","""event"",""trial"",""time""
""fullscreenenter"",""1"",""1889""
","
","","","926.4000000059605","","","13","9107","4359","&#9776;","elianto","#3366ff99"," "," ","1","+10","[1777.300000011921]","1","0","1","","","","","","","",""
"pit-trial","32","372920","0.0-2.0-8.2-2.2","battery-v0.2","","""event"",""trial"",""time""
""fullscreenenter"",""1"",""1889""
","
","
","""event"",""trial"",""time""
""fullscreenenter"",""1"",""1889""
","
","","","-1","","","13","9107","4359","&#9776;","elianto","#3366ff99"," ","-1","0","0","[]","0","0","1","","","","","","","",""
"pit-trial","33","376682","0.0-2.0-8.2-3.2","battery-v0.2","","""event"",""trial"",""time""
""fullscreenenter"",""1"",""1889""
","
","
","""event"",""trial"",""time""
""fullscreenenter"",""1"",""1889""
","
","","","908.1000000089407","","","13","9107","4359","&#9776;","elianto","#3366ff99"," "," ","1","0","[1759.699999988079]","1","0","1","","","","","","","",""
"pit-trial","34","380530","0.0-2.0-8.2-4.2","battery-v0.2","","""event"",""trial"",""time""
""fullscreenenter"",""1"",""1889""
","
","
","""event"",""trial"",""time""
""fullscreenenter"",""1"",""1889""
","
","","","995.2999999970198","","","13","9107","4359","&#9776;","elianto","#3366ff99"," "," ","1","+10","[1845.5]","1","0","1","","","","","","","",""
"call-function","35","380533","0.0-2.0-9.0","battery-v0.2","","""event"",""trial"",""time""
""fullscreenenter"",""1"",""1889""
","
","
","""event"",""trial"",""time""
""fullscreenenter"",""1"",""1889""
","
","","","","","","","","","","","","","","","","","","","","","","","","","","",""
"pit-instructions","36","423601","0.0-2.0-10.0","battery-v0.2","","""event"",""trial"",""time""
""fullscreenenter"",""1"",""1889""
","
","
","""event"",""trial"",""time""
""fullscreenenter"",""1"",""1889""
","
","","[{""page_index"":0,""viewing_time"":7919.899999991059},{""page_index"":1,""viewing_time"":7887},{""page_index"":2,""viewing_time"":9580.40000000596},{""page_index"":3,""viewing_time"":9843.79999999702},{""page_index"":4,""viewing_time"":7836.29999999702}]","43067.89999999106","","","","","","","","","","","","","","","","","","","","","","","",""
"pit-trial","37","427474","0.0-2.0-11.0-0.0","battery-v0.2","","""event"",""trial"",""time""
""fullscreenenter"",""1"",""1889""
","
","
","""event"",""trial"",""time""
""fullscreenenter"",""1"",""1889""
","
","","","1004.7999999970198","","","13","9107","4359","&#9761;","elianto","#3366ff99","-1"," ","0","0","[1855.7999999970198]","1","0","2","","","","","","","",""
"pit-trial","38","430754","0.0-2.0-11.0-1.0","battery-v0.2","","""event"",""trial"",""time""
""fullscreenenter"",""1"",""1889""
","
","
","""event"",""trial"",""time""
""fullscreenenter"",""1"",""1889""
","
","","","418","","","13","9107","4359","&#9761;","elianto","#3366ff99","-1"," ","0","0","[1271.2000000029802]","1","0","2","","","","","","","",""
"pit-trial","39","434453","0.0-2.0-11.0-2.0","battery-v0.2","","""event"",""trial"",""time""
""fullscreenenter"",""1"",""1889""
","
","
","""event"",""trial"",""time""
""fullscreenenter"",""1"",""1889""
","
","","","823","","","13","9107","4359","&#9761;","elianto","#3366ff99","-1"," ","0","0","[821.4000000059605,1685.4000000059605]","2","0","2","","","","","","","",""
"pit-trial","40","437774","0.0-2.0-11.0-3.0","battery-v0.2","","""event"",""trial"",""time""
""fullscreenenter"",""1"",""1889""
","
","
","""event"",""trial"",""time""
""fullscreenenter"",""1"",""1889""
","
","","","456.09999999403954","","","13","9107","4359","&#9761;","elianto","#3366ff99","-1"," ","0","+10","[1306.5]","1","0","2","","","","","","","",""
"pit-trial","41","441014","0.0-2.0-11.0-4.0","battery-v0.2","","""event"",""trial"",""time""
""fullscreenenter"",""1"",""1889""
","
","
","""event"",""trial"",""time""
""fullscreenenter"",""1"",""1889""
","
","","","375.40000000596046","","","13","9107","4359","&#9761;","elianto","#3366ff99","-1"," ","0","0","[1226.4000000059605]","1","0","2","","","","","","","",""
"pit-trial","42","444094","0.0-2.0-11.1-0.1","battery-v0.2","","""event"",""trial"",""time""
""fullscreenenter"",""1"",""1889""
","
","
","""event"",""trial"",""time""
""fullscreenenter"",""1"",""1889""
","
","","","212.90000000596046","","","13","9107","4359","&#9761;","elianto","#3366ff99","-1"," ","0","0","[1064.5,2363.300000011921]","2","0","2","","","","","","","",""
"pit-trial","43","447800","0.0-2.0-11.1-1.1","battery-v0.2","","""event"",""trial"",""time""
""fullscreenenter"",""1"",""1889""
","
","
","""event"",""trial"",""time""
""fullscreenenter"",""1"",""1889""
","
","","","847.9000000059605","","","13","9107","4359","&#9761;","elianto","#3366ff99","-1"," ","0","0","[1699.1000000089407]","1","0","2","","","","","","","",""
"pit-trial","44","450988","0.0-2.0-11.1-2.1","battery-v0.2","","""event"",""trial"",""time""
""fullscreenenter"",""1"",""1889""
","
","
","""event"",""trial"",""time""
""fullscreenenter"",""1"",""1889""
","
","","","333.40000000596046","","","13","9107","4359","&#9761;","elianto","#3366ff99","-1"," ","0","0","[1184.1000000089407]","1","0","2","","","","","","","",""
"pit-trial","45","454275","0.0-2.0-11.1-3.1","battery-v0.2","","""event"",""trial"",""time""
""fullscreenenter"",""1"",""1889""
","
","
","""event"",""trial"",""time""
""fullscreenenter"",""1"",""1889""
","
","","","427.8999999910593","","","13","9107","4359","&#9761;","elianto","#3366ff99","-1"," ","0","+10","[1283.699999988079]","1","0","2","","","","","","","",""
"pit-trial","46","459129","0.0-2.0-11.1-4.1","battery-v0.2","","""event"",""trial"",""time""
""fullscreenenter"",""1"",""1889""
","
","
","""event"",""trial"",""time""
""fullscreenenter"",""1"",""1889""
","
","","","-1","","","13","9107","4359","&#9761;","elianto","#3366ff99","-1","-1","1","+10","[]","0","0","2","","","","","","","",""
"pit-trial","47","462325","0.0-2.0-11.2-0.2","battery-v0.2","","""event"",""trial"",""time""
""fullscreenenter"",""1"",""1889""
","
","
","""event"",""trial"",""time""
""fullscreenenter"",""1"",""1889""
","
","","","341.1000000089407","","","13","9107","4359","&#9761;","elianto","#3366ff99","-1"," ","0","0","[1191.699999988079]","1","0","2","","","","","","","",""
"pit-trial","48","465950","0.0-2.0-11.2-1.2","battery-v0.2","","""event"",""trial"",""time""
""fullscreenenter"",""1"",""1889""
","
","
","""event"",""trial"",""time""
""fullscreenenter"",""1"",""1889""
","
","","","771.5","","","13","9107","4359","&#9761;","elianto","#3366ff99","-1"," ","0","0","[1622.3999999910593]","1","0","2","","","","","","","",""
"pit-trial","49","469147","0.0-2.0-11.2-2.2","battery-v0.2","","""event"",""trial"",""time""
""fullscreenenter"",""1"",""1889""
","
","
","""event"",""trial"",""time""
""fullscreenenter"",""1"",""1889""
","
","","","344.20000000298023","","","13","9107","4359","&#9761;","elianto","#3366ff99","-1"," ","0","0","[1194.6000000089407]","1","0","2","","","","","","","",""
"pit-trial","50","474001","0.0-2.0-11.2-3.2","battery-v0.2","","""event"",""trial"",""time""
""fullscreenenter"",""1"",""1889""
","
","
","""event"",""trial"",""time""
""fullscreenenter"",""1"",""1889""
","
","","","-1","","","13","9107","4359","&#9761;","elianto","#3366ff99","-1","-1","1","0","[]","0","0","2","","","","","","","",""
"pit-trial","51","477835","0.0-2.0-11.2-4.2","battery-v0.2","","""event"",""trial"",""time""
""fullscreenenter"",""1"",""1889""
","
","
","""event"",""trial"",""time""
""fullscreenenter"",""1"",""1889""
","
","","","979.7000000029802","","","13","9107","4359","&#9761;","elianto","#3366ff99","-1"," ","0","0","[1831.3999999910593]","1","0","2","","","","","","","",""
"pit-trial","52","482689","0.0-2.0-11.3-0.3","battery-v0.2","","""event"",""trial"",""time""
""fullscreenenter"",""1"",""1889""
","
","
","""event"",""trial"",""time""
""fullscreenenter"",""1"",""1889""
","
","","","-1","","","13","9107","4359","&#9761;","elianto","#3366ff99","-1","-1","1","+10","[]","0","0","2","","","","","","","",""
"pit-trial","53","487543","0.0-2.0-11.3-1.3","battery-v0.2","","""event"",""trial"",""time""
""fullscreenenter"",""1"",""1889""
","
","
","""event"",""trial"",""time""
""fullscreenenter"",""1"",""1889""
","
","","","-1","","","13","9107","4359","&#9761;","elianto","#3366ff99","-1","-1","1","+10","[]","0","0","2","","","","","","","",""
"pit-trial","54","492396","0.0-2.0-11.3-2.3","battery-v0.2","","""event"",""trial"",""time""
""fullscreenenter"",""1"",""1889""
","
","
","""event"",""trial"",""time""
""fullscreenenter"",""1"",""1889""
","
","","","-1","","","13","9107","4359","&#9761;","elianto","#3366ff99","-1","-1","1","+10","[]","0","0","2","","","","","","","",""
"pit-trial","55","497264","0.0-2.0-11.3-3.3","battery-v0.2","","""event"",""trial"",""time""
""fullscreenenter"",""1"",""1889""
","
","
","""event"",""trial"",""time""
""fullscreenenter"",""1"",""1889""
","
","","","-1","","","13","9107","4359","&#9761;","elianto","#3366ff99","-1","-1","1","0","[]","0","0","2","","","","","","","",""
"pit-trial","56","502118","0.0-2.0-11.3-4.3","battery-v0.2","","""event"",""trial"",""time""
""fullscreenenter"",""1"",""1889""
","
","
","""event"",""trial"",""time""
""fullscreenenter"",""1"",""1889""
","
","","","-1","","","13","9107","4359","&#9761;","elianto","#3366ff99","-1","-1","1","+10","[]","0","0","2","","","","","","","",""
"call-function","57","502120","0.0-2.0-12.0","battery-v0.2","","""event"",""trial"",""time""
""fullscreenenter"",""1"",""1889""
","
","
","""event"",""trial"",""time""
""fullscreenenter"",""1"",""1889""
","
","","","","","","","","","","","","","","","","","","","","","","","","","","",""
"pit-instructions","58","547365","0.0-2.0-13.0","battery-v0.2","","""event"",""trial"",""time""
""fullscreenenter"",""1"",""1889""
","
","
","""event"",""trial"",""time""
""fullscreenenter"",""1"",""1889""
","
","","[{""page_index"":0,""viewing_time"":13136.89999999106},{""page_index"":1,""viewing_time"":7572.29999999702},{""page_index"":2,""viewing_time"":4239.300000011921},{""page_index"":3,""viewing_time"":10520.199999988079},{""page_index"":4,""viewing_time"":9775}]","45244.09999999404","","","","","","","","","","","","","","","","","","","","","","","",""
"pit-trial","59","552241","0.0-2.0-14.0-0.0","battery-v0.2","","""event"",""trial"",""time""
""fullscreenenter"",""1"",""1889""
","
","
","""event"",""trial"",""time""
""fullscreenenter"",""1"",""1889""
","
","","","-1","","","13","9107","4359","&#9826;","elianto","#f73b6a7A","-1","-1","1","0","[]","0","0","3","","","","","","","",""
"pit-trial","60","557108","0.0-2.0-14.0-1.0","battery-v0.2","","""event"",""trial"",""time""
""fullscreenenter"",""1"",""1889""
","
","
","""event"",""trial"",""time""
""fullscreenenter"",""1"",""1889""
","
","","","-1","","","13","9107","4359","&#9826;","elianto","#f73b6a7A","-1","-1","1","0","[]","0","0","3","","","","","","","",""
"pit-trial","61","561978","0.0-2.0-14.0-2.0","battery-v0.2","","""event"",""trial"",""time""
""fullscreenenter"",""1"",""1889""
","
","
","""event"",""trial"",""time""
""fullscreenenter"",""1"",""1889""
","
","","","-1","","","13","9107","4359","&#9826;","elianto","#f73b6a7A","-1","-1","1","0","[]","0","0","3","","","","","","","",""
"pit-trial","62","566845","0.0-2.0-14.0-3.0","battery-v0.2","","""event"",""trial"",""time""
""fullscreenenter"",""1"",""1889""
","
","
","""event"",""trial"",""time""
""fullscreenenter"",""1"",""1889""
","
","","","-1","","","13","9107","4359","&#9826;","elianto","#f73b6a7A","-1","-1","1","-10","[]","0","0","3","","","","","","","",""
"pit-trial","63","571345","0.0-2.0-14.0-4.0","battery-v0.2","","""event"",""trial"",""time""
""fullscreenenter"",""1"",""1889""
","
","
","""event"",""trial"",""time""
""fullscreenenter"",""1"",""1889""
","
","","","1628.2999999970198","","","13","9107","4359","&#9826;","elianto","#f73b6a7A","-1"," ","0","-10","[2484.3999999910593]","1","0","3","","","","","","","",""
"pit-trial","64","576199","0.0-2.0-14.1-0.1","battery-v0.2","","""event"",""trial"",""time""
""fullscreenenter"",""1"",""1889""
","
","
","""event"",""trial"",""time""
""fullscreenenter"",""1"",""1889""
","
","","","-1","","","13","9107","4359","&#9826;","elianto","#f73b6a7A","-1","-1","1","0","[]","0","0","3","","","","","","","",""
"pit-trial","65","581052","0.0-2.0-14.1-1.1","battery-v0.2","","""event"",""trial"",""time""
""fullscreenenter"",""1"",""1889""
","
","
","""event"",""trial"",""time""
""fullscreenenter"",""1"",""1889""
","
","","","-1","","","13","9107","4359","&#9826;","elianto","#f73b6a7A","-1","-1","1","0","[]","0","0","3","","","","","","","",""
"pit-trial","66","585905","0.0-2.0-14.1-2.1","battery-v0.2","","""event"",""trial"",""time""
""fullscreenenter"",""1"",""1889""
","
","
","""event"",""trial"",""time""
""fullscreenenter"",""1"",""1889""
","
","","","-1","","","13","9107","4359","&#9826;","elianto","#f73b6a7A","-1","-1","1","0","[]","0","0","3","","","","","","","",""
"pit-trial","67","590760","0.0-2.0-14.1-3.1","battery-v0.2","","""event"",""trial"",""time""
""fullscreenenter"",""1"",""1889""
","
","
","""event"",""trial"",""time""
""fullscreenenter"",""1"",""1889""
","
","","","-1","","","13","9107","4359","&#9826;","elianto","#f73b6a7A","-1","-1","1","-10","[]","0","0","3","","","","","","","",""
"pit-trial","68","595613","0.0-2.0-14.1-4.1","battery-v0.2","","""event"",""trial"",""time""
""fullscreenenter"",""1"",""1889""
","
","
","""event"",""trial"",""time""
""fullscreenenter"",""1"",""1889""
","
","","","-1","","","13","9107","4359","&#9826;","elianto","#f73b6a7A","-1","-1","1","0","[]","0","0","3","","","","","","","",""
"pit-trial","69","600467","0.0-2.0-14.2-0.2","battery-v0.2","","""event"",""trial"",""time""
""fullscreenenter"",""1"",""1889""
","
","
","""event"",""trial"",""time""
""fullscreenenter"",""1"",""1889""
","
","","","-1","","","13","9107","4359","&#9826;","elianto","#f73b6a7A","-1","-1","1","0","[4555.800000011921]","1","0","3","","","","","","","",""
"pit-trial","70","604084","0.0-2.0-14.2-1.2","battery-v0.2","","""event"",""trial"",""time""
""fullscreenenter"",""1"",""1889""
","
","
","""event"",""trial"",""time""
""fullscreenenter"",""1"",""1889""
","
","","","763.6999999880791","","","13","9107","4359","&#9826;","elianto","#f73b6a7A","-1"," ","0","-10","[87.20000000298023,1614.3999999910593]","2","0","3","","","","","","","",""
"pit-trial","71","608605","0.0-2.0-14.2-2.2","battery-v0.2","","""event"",""trial"",""time""
""fullscreenenter"",""1"",""1889""
","
","
","""event"",""trial"",""time""
""fullscreenenter"",""1"",""1889""
","
","","","1666.9000000059605","","","13","9107","4359","&#9826;","elianto","#f73b6a7A","-1"," ","0","-10","[2517.300000011921]","1","0","3","","","","","","","",""
"pit-trial","72","612119","0.0-2.0-14.2-3.2","battery-v0.2","","""event"",""trial"",""time""
""fullscreenenter"",""1"",""1889""
","
","
","""event"",""trial"",""time""
""fullscreenenter"",""1"",""1889""
","
","","","660.3000000119209","","","13","9107","4359","&#9826;","elianto","#f73b6a7A","-1"," ","0","0","[1511]","1","0","3","","","","","","","",""
"pit-trial","73","616971","0.0-2.0-14.2-4.2","battery-v0.2","","""event"",""trial"",""time""
""fullscreenenter"",""1"",""1889""
","
","
","""event"",""trial"",""time""
""fullscreenenter"",""1"",""1889""
","
","","","-1","","","13","9107","4359","&#9826;","elianto","#f73b6a7A","-1","-1","1","0","[]","0","0","3","","","","","","","",""
"pit-trial","74","621826","0.0-2.0-14.3-0.3","battery-v0.2","","""event"",""trial"",""time""
""fullscreenenter"",""1"",""1889""
","
","
","""event"",""trial"",""time""
""fullscreenenter"",""1"",""1889""
","
","","","-1","","","13","9107","4359","&#9826;","elianto","#f73b6a7A","-1","-1","1","0","[]","0","0","3","","","","","","","",""
"pit-trial","75","626680","0.0-2.0-14.3-1.3","battery-v0.2","","""event"",""trial"",""time""
""fullscreenenter"",""1"",""1889""
","
","
","""event"",""trial"",""time""
""fullscreenenter"",""1"",""1889""
","
","","","-1","","","13","9107","4359","&#9826;","elianto","#f73b6a7A","-1","-1","1","0","[]","0","0","3","","","","","","","",""
"pit-trial","76","631533","0.0-2.0-14.3-2.3","battery-v0.2","","""event"",""trial"",""time""
""fullscreenenter"",""1"",""1889""
","
","
","""event"",""trial"",""time""
""fullscreenenter"",""1"",""1889""
","
","","","-1","","","13","9107","4359","&#9826;","elianto","#f73b6a7A","-1","-1","1","0","[]","0","0","3","","","","","","","",""
"pit-trial","77","636386","0.0-2.0-14.3-3.3","battery-v0.2","","""event"",""trial"",""time""
""fullscreenenter"",""1"",""1889""
","
","
","""event"",""trial"",""time""
""fullscreenenter"",""1"",""1889""
","
","","","-1","","","13","9107","4359","&#9826;","elianto","#f73b6a7A","-1","-1","1","-10","[]","0","0","3","","","","","","","",""
"pit-trial","78","641239","0.0-2.0-14.3-4.3","battery-v0.2","","""event"",""trial"",""time""
""fullscreenenter"",""1"",""1889""
","
","
","""event"",""trial"",""time""
""fullscreenenter"",""1"",""1889""
","
","","","-1","","","13","9107","4359","&#9826;","elianto","#f73b6a7A","-1","-1","1","0","[]","0","0","3","","","","","","","",""
"call-function","79","641241","0.0-2.0-15.0","battery-v0.2","","""event"",""trial"",""time""
""fullscreenenter"",""1"",""1889""
","
","
","""event"",""trial"",""time""
""fullscreenenter"",""1"",""1889""
","
","","","","","","","","","","","","","","","","","","","","","","","","","","",""
"pit-instructions","80","672884","0.0-2.0-16.0","battery-v0.2","","""event"",""trial"",""time""
""fullscreenenter"",""1"",""1889""
","
","
","""event"",""trial"",""time""
""fullscreenenter"",""1"",""1889""
","
","","[{""page_index"":0,""viewing_time"":12333.29999999702},{""page_index"":1,""viewing_time"":9865.10000000894},{""page_index"":2,""viewing_time"":4640},{""page_index"":3,""viewing_time"":4803.899999991059}]","31642.70000000298","","","","","","","","","","","","","","","","","","","","","","","",""
"pit-trial","81","677452","0.0-2.0-17.0-0.0","battery-v0.2","","""event"",""trial"",""time""
""fullscreenenter"",""1"",""1889""
","
","
","""event"",""trial"",""time""
""fullscreenenter"",""1"",""1889""
","
","","","1706","","","13","9107","4359","&#9789;","elianto","#f73b6a7A"," "," ","1","0","[2558.5999999940395]","1","0","4","","","","","","","",""
"pit-trial","82","680862","0.0-2.0-17.0-1.0","battery-v0.2","","""event"",""trial"",""time""
""fullscreenenter"",""1"",""1889""
","
","
","""event"",""trial"",""time""
""fullscreenenter"",""1"",""1889""
","
","","","547.6000000089407","","","13","9107","4359","&#9789;","elianto","#f73b6a7A"," "," ","1","0","[1397.8999999910593]","1","0","4","","","","","","","",""
"pit-trial","83","684029","0.0-2.0-17.0-2.0","battery-v0.2","","""event"",""trial"",""time""
""fullscreenenter"",""1"",""1889""
","
","
","""event"",""trial"",""time""
""fullscreenenter"",""1"",""1889""
","
","","","304.70000000298023","","","13","9107","4359","&#9789;","elianto","#f73b6a7A"," "," ","1","0","[1156.1000000089407]","1","0","4","","","","","","","",""
"pit-trial","84","687769","0.0-2.0-17.0-3.0","battery-v0.2","","""event"",""trial"",""time""
""fullscreenenter"",""1"",""1889""
","
","
","""event"",""trial"",""time""
""fullscreenenter"",""1"",""1889""
","
","","","871.3000000119209","","","13","9107","4359","&#9789;","elianto","#f73b6a7A"," "," ","1","-10","[1725.5999999940395]","1","0","4","","","","","","","",""
"pit-trial","85","692638","0.0-2.0-17.0-4.0","battery-v0.2","","""event"",""trial"",""time""
""fullscreenenter"",""1"",""1889""
","
","
","""event"",""trial"",""time""
""fullscreenenter"",""1"",""1889""
","
","","","-1","","","13","9107","4359","&#9789;","elianto","#f73b6a7A"," ","-1","0","-10","[]","0","0","4","","","","","","","",""
"pit-trial","86","697518","0.0-2.0-17.1-0.1","battery-v0.2","","""event"",""trial"",""time""
""fullscreenenter"",""1"",""1889""
","
","
","""event"",""trial"",""time""
""fullscreenenter"",""1"",""1889""
","
","","","-1","","","13","9107","4359","&#9789;","elianto","#f73b6a7A"," ","-1","0","-10","[]","0","0","4","","","","","","","",""
"pit-trial","87","700925","0.0-2.0-17.1-1.1","battery-v0.2","","""event"",""trial"",""time""
""fullscreenenter"",""1"",""1889""
","
","
","""event"",""trial"",""time""
""fullscreenenter"",""1"",""1889""
","
","","","545","","","13","9107","4359","&#9789;","elianto","#f73b6a7A"," "," ","1","0","[1396.7999999970198]","1","0","4","","","","","","","",""
"pit-trial","88","704197","0.0-2.0-17.1-2.1","battery-v0.2","","""event"",""trial"",""time""
""fullscreenenter"",""1"",""1889""
","
","
","""event"",""trial"",""time""
""fullscreenenter"",""1"",""1889""
","
","","","412","","","13","9107","4359","&#9789;","elianto","#f73b6a7A"," "," ","1","0","[1269.9000000059605]","1","0","4","","","","","","","",""
"pit-trial","89","707599","0.0-2.0-17.1-3.1","battery-v0.2","","""event"",""trial"",""time""
""fullscreenenter"",""1"",""1889""
","
","
","""event"",""trial"",""time""
""fullscreenenter"",""1"",""1889""
","
","","","549.2000000029802","","","13","9107","4359","&#9789;","elianto","#f73b6a7A"," "," ","1","-10","[1399.5]","1","0","4","","","","","","","",""
"pit-trial","90","710678","0.0-2.0-17.1-4.1","battery-v0.2","","""event"",""trial"",""time""
""fullscreenenter"",""1"",""1889""
","
","
","""event"",""trial"",""time""
""fullscreenenter"",""1"",""1889""
","
","","","224.59999999403954","","","13","9107","4359","&#9789;","elianto","#f73b6a7A"," "," ","1","0","[1075.4000000059605]","1","0","4","","","","","","","",""
"pit-trial","91","713989","0.0-2.0-17.2-0.2","battery-v0.2","","""event"",""trial"",""time""
""fullscreenenter"",""1"",""1889""
","
","
","""event"",""trial"",""time""
""fullscreenenter"",""1"",""1889""
","
","","","457.40000000596046","","","13","9107","4359","&#9789;","elianto","#f73b6a7A"," "," ","1","0","[1308.1000000089407]","1","0","4","","","","","","","",""
"pit-trial","92","717023","0.0-2.0-17.2-1.2","battery-v0.2","","""event"",""trial"",""time""
""fullscreenenter"",""1"",""1889""
","
","
","""event"",""trial"",""time""
""fullscreenenter"",""1"",""1889""
","
","","","180.20000000298023","","","13","9107","4359","&#9789;","elianto","#f73b6a7A"," "," ","1","0","[1030.7000000029802,1461.7999999970198]","2","0","4","","","","","","","",""
"pit-trial","93","720111","0.0-2.0-17.2-2.2","battery-v0.2","","""event"",""trial"",""time""
""fullscreenenter"",""1"",""1889""
","
","
","""event"",""trial"",""time""
""fullscreenenter"",""1"",""1889""
","
","","","234.79999999701977","","","13","9107","4359","&#9789;","elianto","#f73b6a7A"," "," ","1","0","[1085.2999999970198]","1","0","4","","","","","","","",""
"pit-trial","94","723521","0.0-2.0-17.2-3.2","battery-v0.2","","""event"",""trial"",""time""
""fullscreenenter"",""1"",""1889""
","
","
","""event"",""trial"",""time""
""fullscreenenter"",""1"",""1889""
","
","","","556.4000000059605","","","13","9107","4359","&#9789;","elianto","#f73b6a7A"," "," ","1","-10","[4.4000000059604645,1407.0999999940395]","2","0","4","","","","","","","",""
"pit-trial","95","727054","0.0-2.0-17.2-4.2","battery-v0.2","","""event"",""trial"",""time""
""fullscreenenter"",""1"",""1889""
","
","
","""event"",""trial"",""time""
""fullscreenenter"",""1"",""1889""
","
","","","679.2999999970198","","","13","9107","4359","&#9789;","elianto","#f73b6a7A"," "," ","1","0","[1530.3999999910593,2098]","2","0","4","","","","","","","",""
"pit-trial","96","730504","0.0-2.0-17.3-0.3","battery-v0.2","","""event"",""trial"",""time""
""fullscreenenter"",""1"",""1889""
","
","
","""event"",""trial"",""time""
""fullscreenenter"",""1"",""1889""
","
","","","596.2999999970198","","","13","9107","4359","&#9789;","elianto","#f73b6a7A"," "," ","1","0","[787.7999999970198,1446.8999999910593,1956.0999999940395,3372.2000000029802]","4","0","4","","","","","","","",""
"pit-trial","97","734270","0.0-2.0-17.3-1.3","battery-v0.2","","""event"",""trial"",""time""
""fullscreenenter"",""1"",""1889""
","
","
","""event"",""trial"",""time""
""fullscreenenter"",""1"",""1889""
","
","","","912.5","","","13","9107","4359","&#9789;","elianto","#f73b6a7A"," "," ","1","0","[1763.7999999970198]","1","0","4","","","","","","","",""
"pit-trial","98","739124","0.0-2.0-17.3-2.3","battery-v0.2","","""event"",""trial"",""time""
""fullscreenenter"",""1"",""1889""
","
","
","""event"",""trial"",""time""
""fullscreenenter"",""1"",""1889""
","
","","","-1","","","13","9107","4359","&#9789;","elianto","#f73b6a7A"," ","-1","0","-10","[3724.7000000029802]","1","0","4","","","","","","","",""
"pit-trial","99","742327","0.0-2.0-17.3-3.3","battery-v0.2","","""event"",""trial"",""time""
""fullscreenenter"",""1"",""1889""
","
","
","""event"",""trial"",""time""
""fullscreenenter"",""1"",""1889""
","
","","","347.5","","","13","9107","4359","&#9789;","elianto","#f73b6a7A"," "," ","1","-10","[1199.5999999940395]","1","0","4","","","","","","","",""
"pit-trial","100","746072","0.0-2.0-17.3-4.3","battery-v0.2","","""event"",""trial"",""time""
""fullscreenenter"",""1"",""1889""
","
","
","""event"",""trial"",""time""
""fullscreenenter"",""1"",""1889""
","
","","","892.0999999940395","","","13","9107","4359","&#9789;","elianto","#f73b6a7A"," "," ","1","0","[1742.2000000029802]","1","0","4","","","","","","","",""
"call-function","101","746074","0.0-2.0-18.0","battery-v0.2","","""event"",""trial"",""time""
""fullscreenenter"",""1"",""1889""
","
","
","""event"",""trial"",""time""
""fullscreenenter"",""1"",""1889""
","
","","","","","","","","","","","","","","","","","","","","","","","","","","",""
"pit-instructions","102","824646","0.0-2.0-19.0","battery-v0.2","","""event"",""trial"",""time""
""fullscreenenter"",""1"",""1889""
","
","
","""event"",""trial"",""time""
""fullscreenenter"",""1"",""1889""
","
","","[{""page_index"":0,""viewing_time"":6780.9000000059605},{""page_index"":1,""viewing_time"":9055.09999999404},{""page_index"":2,""viewing_time"":12133},{""page_index"":3,""viewing_time"":7758.0999999940395},{""page_index"":4,""viewing_time"":13027.800000011921},{""page_index"":5,""viewing_time"":8429.09999999404},{""page_index"":6,""viewing_time"":10904.5},{""page_index"":7,""viewing_time"":6114.0999999940395},{""page_index"":8,""viewing_time"":4369}]","78572","","","","","","","","","","","","","","","","","","","","","","","",""
"pit-comprehension","103","829207","0.0-2.0-20.0-0.0","battery-v0.2","","""event"",""trial"",""time""
""fullscreenenter"",""1"",""1889""
","
","
","""event"",""trial"",""time""
""fullscreenenter"",""1"",""1889""
","
","","","4555","[""SPACE""]","0","13","9107","4359","","","","","","","","","","","","","","","","","","",""
"pit-instructions","104","831865","0.0-2.0-20.0-1.0","battery-v0.2","","""event"",""trial"",""time""
""fullscreenenter"",""1"",""1889""
","
","
","""event"",""trial"",""time""
""fullscreenenter"",""1"",""1889""
","
","","[{""page_index"":0,""viewing_time"":2625.7999999970198}]","2626.2000000029802","","","","","","","","","","","","","","","","","","","","","","","",""
"pit-comprehension","105","838248","0.0-2.0-21.0-0.0","battery-v0.2","","""event"",""trial"",""time""
""fullscreenenter"",""1"",""1889""
","
","
","""event"",""trial"",""time""
""fullscreenenter"",""1"",""1889""
","
","","","6379.100000008941","[""10""]","0","13","9107","4359","","","","","","","","","","","","","","","","","","",""
"pit-instructions","106","839934","0.0-2.0-21.0-1.0","battery-v0.2","","""event"",""trial"",""time""
""fullscreenenter"",""1"",""1889""
","
","
","""event"",""trial"",""time""
""fullscreenenter"",""1"",""1889""
","
","","[{""page_index"":0,""viewing_time"":1651.8999999910593}]","1652.2999999970198","","","","","","","","","","","","","","","","","","","","","","","",""
"pit-comprehension","107","846794","0.0-2.0-22.0-0.0","battery-v0.2","","""event"",""trial"",""time""
""fullscreenenter"",""1"",""1889""
","
","
","""event"",""trial"",""time""
""fullscreenenter"",""1"",""1889""
","
","","","6855.29999999702","[""-10""]","1","13","9107","4359","","","","","","","","","","","","","","","","","","",""
"pit-instructions","108","851425","0.0-2.0-22.0-1.0","battery-v0.2","","""event"",""trial"",""time""
""fullscreenenter"",""1"",""1889""
","
","
","""event"",""trial"",""time""
""fullscreenenter"",""1"",""1889""
","
","","[{""page_index"":0,""viewing_time"":4592.9000000059605}]","4593.29999999702","","","","","","","","","","","","","","","","","","","","","","","",""
"pit-instructions","109","852418","0.0-2.0-22.0-2.0-0.0","battery-v0.2","","""event"",""trial"",""time""
""fullscreenenter"",""1"",""1889""
","
","
","""event"",""trial"",""time""
""fullscreenenter"",""1"",""1889""
","
","","[{""page_index"":0,""viewing_time"":990.7999999970198}]","991.2000000029802","","","","","","","","","","","","","","","","","","","","","","","",""
"pit-comprehension","110","859007","0.0-2.0-22.1-0.1","battery-v0.2","","""event"",""trial"",""time""
""fullscreenenter"",""1"",""1889""
","
","
","""event"",""trial"",""time""
""fullscreenenter"",""1"",""1889""
","
","","","6584.70000000298","[""0""]","0","13","9107","4359","","","","","","","","","","","","","","","","","","",""
"pit-instructions","111","861258","0.0-2.0-22.1-1.1","battery-v0.2","","""event"",""trial"",""time""
""fullscreenenter"",""1"",""1889""
","
","
","""event"",""trial"",""time""
""fullscreenenter"",""1"",""1889""
","
","","[{""page_index"":0,""viewing_time"":2216.2000000029802}]","2216.5999999940395","","","","","","","","","","","","","","","","","","","","","","","",""
"pit-comprehension","112","870789","0.0-2.0-23.0-0.0","battery-v0.2","","""event"",""trial"",""time""
""fullscreenenter"",""1"",""1889""
","
","
","""event"",""trial"",""time""
""fullscreenenter"",""1"",""1889""
","
","","","9526.09999999404","[""True""]","0","13","9107","4359","","","","","","","","","","","","","","","","","","",""
"pit-instructions","113","874866","0.0-2.0-23.0-1.0","battery-v0.2","","""event"",""trial"",""time""
""fullscreenenter"",""1"",""1889""
","
","
","""event"",""trial"",""time""
""fullscreenenter"",""1"",""1889""
","
","","[{""page_index"":0,""viewing_time"":4041.4000000059605}]","4041.9000000059605","","","","","","","","","","","","","","","","","","","","","","","",""
"pit-comprehension","114","882581","0.0-2.0-24.0-0.0","battery-v0.2","","""event"",""trial"",""time""
""fullscreenenter"",""1"",""1889""
","
","
","""event"",""trial"",""time""
""fullscreenenter"",""1"",""1889""
","
","","","7711.199999988079","[""True""]","0","13","9107","4359","","","","","","","","","","","","","","","","","","",""
"pit-instructions","115","884528","0.0-2.0-24.0-1.0","battery-v0.2","","""event"",""trial"",""time""
""fullscreenenter"",""1"",""1889""
","
","
","""event"",""trial"",""time""
""fullscreenenter"",""1"",""1889""
","
","","[{""page_index"":0,""viewing_time"":1911.1000000089407}]","1911.4000000059605","","","","","","","","","","","","","","","","","","","","","","","",""
"pit-comprehension","116","891013","0.0-2.0-25.0-0.0","battery-v0.2","","""event"",""trial"",""time""
""fullscreenenter"",""1"",""1889""
","
","
","""event"",""trial"",""time""
""fullscreenenter"",""1"",""1889""
","
","","","6480.5","[""True""]","0","13","9107","4359","","","","","","","","","","","","","","","","","","",""
"pit-instructions","117","896006","0.0-2.0-25.0-1.0","battery-v0.2","","""event"",""trial"",""time""
""fullscreenenter"",""1"",""1889""
","
","
","""event"",""trial"",""time""
""fullscreenenter"",""1"",""1889""
","
","","[{""page_index"":0,""viewing_time"":4955.300000011921}]","4955.800000011921","","","","","","","","","","","","","","","","","","","","","","","",""
"pit-comprehension","118","901652","0.0-2.0-26.0-0.0","battery-v0.2","","""event"",""trial"",""time""
""fullscreenenter"",""1"",""1889""
","
","
","""event"",""trial"",""time""
""fullscreenenter"",""1"",""1889""
","
","","","5640.9000000059605","[""False""]","0","13","9107","4359","","","","","","","","","","","","","","","","","","",""
"pit-instructions","119","906141","0.0-2.0-26.0-1.0","battery-v0.2","","""event"",""trial"",""time""
""fullscreenenter"",""1"",""1889""
","
","
","""event"",""trial"",""time""
""fullscreenenter"",""1"",""1889""
","
","","[{""page_index"":0,""viewing_time"":4452.100000008941}]","4452.600000008941","","","","","","","","","","","","","","","","","","","","","","","",""
"pit-instructions","120","923355","0.0-3.0","battery-v0.2","","""event"",""trial"",""time""
""fullscreenenter"",""1"",""1889""
","
","
","""event"",""trial"",""time""
""fullscreenenter"",""1"",""1889""
","
","","[{""page_index"":0,""viewing_time"":4157.4000000059605},{""page_index"":1,""viewing_time"":5471.29999999702},{""page_index"":2,""viewing_time"":7583}]","17212.09999999404","","","","","","","","","","","","","","","","","","","","","","","",""
"pit-trial","121","928219","0.0-4.0","battery-v0.2","","""event"",""trial"",""time""
""fullscreenenter"",""1"",""1889""
","
","
","""event"",""trial"",""time""
""fullscreenenter"",""1"",""1889""
","
","","","-1","","","13","9107","4359","&#9752;","elianto","#f73b6a7A"," ","-1","0","-10","[]","0","1","","","9107","1","3","3","lose","go","0"
"pit-trial","122","931727","0.0-5.0","battery-v0.2","","""event"",""trial"",""time""
""fullscreenenter"",""1"",""1889""
","
","
","""event"",""trial"",""time""
""fullscreenenter"",""1"",""1889""
","
","","","645.1999999880791","","","13","9107","4359","&#9733;","elianto","#3366ff99","-1"," ","0","+10","[1497.3999999910593]","1","1","","","9107","2","2","2","win","no-go","1"
"pit-trial","123","935602","0.0-6.0","battery-v0.2","","""event"",""trial"",""time""
""fullscreenenter"",""1"",""1889""
","
","
","""event"",""trial"",""time""
""fullscreenenter"",""1"",""1889""
","
","","","1001.4000000059605","","","13","9107","4359","&#9730;","elianto","#3366ff99"," "," ","1","+10","[1861.6000000089407]","1","1","","","9107","3","1","1","win","go","0"
"pit-trial","124","940470","0.0-7.0","battery-v0.2","","""event"",""trial"",""time""
""fullscreenenter"",""1"",""1889""
","
","
","""event"",""trial"",""time""
""fullscreenenter"",""1"",""1889""
","
","","","-1","","","13","9107","4359","&#9728;","elianto","#f73b6a7A","-1","-1","1","0","[]","0","1","","","9107","4","0","4","lose","no-go","0"
"pit-trial","125","944353","0.0-8.0","battery-v0.2","","""event"",""trial"",""time""
""fullscreenenter"",""1"",""1889""
","
","
","""event"",""trial"",""time""
""fullscreenenter"",""1"",""1889""
","
","","","1026.5999999940395","","","13","9107","4359","&#9752;","elianto","#f73b6a7A"," "," ","1","0","[1878.5]","1","1","","","9107","5","3","3","lose","go","0"
"pit-trial","126","948359","0.0-9.0","battery-v0.2","","""event"",""trial"",""time""
""fullscreenenter"",""1"",""1889""
","
","
","""event"",""trial"",""time""
""fullscreenenter"",""1"",""1889""
","
","","","1146.2000000029802","","","13","9107","4359","&#9730;","elianto","#3366ff99"," "," ","1","+10","[1997.800000011921]","1","1","","","9107","6","1","1","win","go","0"
"pit-trial","127","952238","0.0-10.0","battery-v0.2","","""event"",""trial"",""time""
""fullscreenenter"",""1"",""1889""
","
","
","""event"",""trial"",""time""
""fullscreenenter"",""1"",""1889""
","
","","","1008.5999999940395","","","13","9107","4359","&#9728;","elianto","#f73b6a7A","-1"," ","0","-10","[1863.4000000059605]","1","1","","","9107","7","0","4","lose","no-go","0"
"pit-trial","128","956136","0.0-11.0","battery-v0.2","","""event"",""trial"",""time""
""fullscreenenter"",""1"",""1889""
","
","
","""event"",""trial"",""time""
""fullscreenenter"",""1"",""1889""
","
","","","1044.2000000029802","","","13","9107","4359","&#9733;","elianto","#3366ff99","-1"," ","0","0","[1894.5]","1","1","","","9107","8","2","2","win","no-go","0"
"pit-trial","129","960273","0.0-12.0","battery-v0.2","","""event"",""trial"",""time""
""fullscreenenter"",""1"",""1889""
","
","
","""event"",""trial"",""time""
""fullscreenenter"",""1"",""1889""
","
","","","1284.7000000029802","","","13","9107","4359","&#9752;","elianto","#f73b6a7A"," "," ","1","0","[2135.5]","1","1","","","9107","9","3","3","lose","go","0"
"pit-trial","130","964264","0.0-13.0","battery-v0.2","","""event"",""trial"",""time""
""fullscreenenter"",""1"",""1889""
","
","
","""event"",""trial"",""time""
""fullscreenenter"",""1"",""1889""
","
","","","1136.7000000029802","","","13","9107","4359","&#9730;","elianto","#3366ff99"," "," ","1","+10","[1987.7999999970198]","1","1","","","9107","10","1","1","win","go","0"
"pit-trial","131","969118","0.0-14.0","battery-v0.2","","""event"",""trial"",""time""
""fullscreenenter"",""1"",""1889""
","
","
","""event"",""trial"",""time""
""fullscreenenter"",""1"",""1889""
","
","","","-1","","","13","9107","4359","&#9728;","elianto","#f73b6a7A","-1","-1","1","0","[]","0","1","","","9107","11","0","4","lose","no-go","0"
"pit-trial","132","973240","0.0-15.0","battery-v0.2","","""event"",""trial"",""time""
""fullscreenenter"",""1"",""1889""
","
","
","""event"",""trial"",""time""
""fullscreenenter"",""1"",""1889""
","
","","","1269","","","13","9107","4359","&#9733;","elianto","#3366ff99","-1"," ","0","0","[2119.7999999970198]","1","1","","","9107","12","2","2","win","no-go","0"
"pit-trial","133","978094","0.0-16.0","battery-v0.2","","""event"",""trial"",""time""
""fullscreenenter"",""1"",""1889""
","
","
","""event"",""trial"",""time""
""fullscreenenter"",""1"",""1889""
","
","","","-1","","","13","9107","4359","&#9728;","elianto","#f73b6a7A","-1","-1","1","0","[]","0","1","","","9107","13","0","4","lose","no-go","0"
"pit-trial","134","981617","0.0-17.0","battery-v0.2","","""event"",""trial"",""time""
""fullscreenenter"",""1"",""1889""
","
","
","""event"",""trial"",""time""
""fullscreenenter"",""1"",""1889""
","
","","","669","","","13","9107","4359","&#9730;","elianto","#3366ff99"," "," ","1","+10","[1519.5999999940395]","1","1","","","9107","14","1","1","win","go","0"
"pit-trial","135","985809","0.0-18.0","battery-v0.2","","""event"",""trial"",""time""
""fullscreenenter"",""1"",""1889""
","
","
","""event"",""trial"",""time""
""fullscreenenter"",""1"",""1889""
","
","","","1338.2999999970198","","","13","9107","4359","&#9752;","elianto","#f73b6a7A"," "," ","1","0","[2189.4000000059605]","1","1","","","9107","15","3","3","lose","go","0"
"pit-trial","136","990662","0.0-19.0","battery-v0.2","","""event"",""trial"",""time""
""fullscreenenter"",""1"",""1889""
","
","
","""event"",""trial"",""time""
""fullscreenenter"",""1"",""1889""
","
","","","-1","","","13","9107","4359","&#9733;","elianto","#3366ff99","-1","-1","1","+10","[]","0","1","","","9107","16","2","2","win","no-go","0"
"pit-trial","137","995145","0.0-20.0","battery-v0.2","","""event"",""trial"",""time""
""fullscreenenter"",""1"",""1889""
","
","
","""event"",""trial"",""time""
""fullscreenenter"",""1"",""1889""
","
","","","1628.800000011921","","","13","9107","4359","&#9752;","elianto","#f73b6a7A"," "," ","1","0","[2479.4000000059605]","1","1","","","9107","17","3","3","lose","go","0"
"pit-trial","138","998961","0.0-21.0","battery-v0.2","","""event"",""trial"",""time""
""fullscreenenter"",""1"",""1889""
","
","
","""event"",""trial"",""time""
""fullscreenenter"",""1"",""1889""
","
","","","962.7000000029802","","","13","9107","4359","&#9730;","elianto","#3366ff99"," "," ","1","+10","[1812.9000000059605]","1","1","","","9107","18","1","1","win","go","0"
"pit-trial","139","1003813","0.0-22.0","battery-v0.2","","""event"",""trial"",""time""
""fullscreenenter"",""1"",""1889""
","
","
","""event"",""trial"",""time""
""fullscreenenter"",""1"",""1889""
","
","","","-1","","","13","9107","4359","&#9728;","elianto","#f73b6a7A","-1","-1","1","-10","[]","0","1","","","9107","19","0","4","lose","no-go","1"
"pit-trial","140","1008667","0.0-23.0","battery-v0.2","","""event"",""trial"",""time""
""fullscreenenter"",""1"",""1889""
","
","
","""event"",""trial"",""time""
""fullscreenenter"",""1"",""1889""
","
","","","-1","","","13","9107","4359","&#9733;","elianto","#3366ff99","-1","-1","1","+10","[]","0","1","","","9107","20","2","2","win","no-go","0"
"pit-instructions","141","1025861","0.0-24.0","battery-v0.2","","""event"",""trial"",""time""
""fullscreenenter"",""1"",""1889""
","
","
","""event"",""trial"",""time""
""fullscreenenter"",""1"",""1889""
","
","","[{""page_index"":0,""viewing_time"":8138},{""page_index"":1,""viewing_time"":9053}]","17191.60000000894","","","","","","","","","","","","","","","","","","","","","","","",""
"pit-trial","142","1030027","0.0-25.0","battery-v0.2","","""event"",""trial"",""time""
""fullscreenenter"",""1"",""1889""
","
","
","""event"",""trial"",""time""
""fullscreenenter"",""1"",""1889""
","
","","","1292.8999999910593","","","13","9107","4359","d","elianto","#3366ff99"," "," ","1","+10","[2151.4000000059605,3831.5]","2","2","","","9107","21","1","1","win","go","0"
"pit-trial","143","1034893","0.0-26.0","battery-v0.2","","""event"",""trial"",""time""
""fullscreenenter"",""1"",""1889""
","
","
","""event"",""trial"",""time""
""fullscreenenter"",""1"",""1889""
","
","","","-1","","","13","9107","4359","j","elianto","#f73b6a7A","-1","-1","1","0","[]","0","2","","","9107","22","0","4","lose","no-go","0"
"pit-trial","144","1039271","0.0-27.0","battery-v0.2","","""event"",""trial"",""time""
""fullscreenenter"",""1"",""1889""
","
","
","""event"",""trial"",""time""
""fullscreenenter"",""1"",""1889""
","
","","","1515.2000000029802","","","13","9107","4359","w","elianto","#f73b6a7A"," "," ","1","0","[2368.4000000059605]","1","2","","","9107","23","3","3","lose","go","0"
"pit-trial","145","1044138","0.0-28.0","battery-v0.2","","""event"",""trial"",""time""
""fullscreenenter"",""1"",""1889""
","
","
","""event"",""trial"",""time""
""fullscreenenter"",""1"",""1889""
","
","","","-1","","","13","9107","4359","e","elianto","#f73b6a7A","-1","-1","1","-10","[2976]","1","2","","","9107","24","2","4","lose","no-go","1"
"pit-trial","146","1048035","0.0-29.0","battery-v0.2","","""event"",""trial"",""time""
""fullscreenenter"",""1"",""1889""
","
","
","""event"",""trial"",""time""
""fullscreenenter"",""1"",""1889""
","
","","","1030.2000000029802","","","13","9107","4359","d","elianto","#3366ff99"," "," ","1","0","[1883.7000000029802]","1","2","","","9107","25","1","1","win","go","1"
"pit-trial","147","1052410","0.0-30.0","battery-v0.2","","""event"",""trial"",""time""
""fullscreenenter"",""1"",""1889""
","
","
","""event"",""trial"",""time""
""fullscreenenter"",""1"",""1889""
","
","","","1515.1000000089407","","","13","9107","4359","j","elianto","#f73b6a7A","-1"," ","0","-10","[2365.699999988079]","1","2","","","9107","26","0","4","lose","no-go","0"
"pit-trial","148","1056593","0.0-31.0","battery-v0.2","","""event"",""trial"",""time""
""fullscreenenter"",""1"",""1889""
","
","
","""event"",""trial"",""time""
""fullscreenenter"",""1"",""1889""
","
","","","1328.2000000029802","","","13","9107","4359","w","elianto","#f73b6a7A"," "," ","1","0","[2180.4000000059605]","1","2","","","9107","27","3","3","lose","go","0"
"pit-trial","149","1060951","0.0-32.0","battery-v0.2","","""event"",""trial"",""time""
""fullscreenenter"",""1"",""1889""
","
","
","""event"",""trial"",""time""
""fullscreenenter"",""1"",""1889""
","
","","","1491.1000000089407","","","13","9107","4359","e","elianto","#f73b6a7A","-1"," ","0","-10","[2341.2000000029802]","1","2","","","9107","28","2","4","lose","no-go","0"
"pit-trial","150","1065065","0.0-33.0","battery-v0.2","","""event"",""trial"",""time""
""fullscreenenter"",""1"",""1889""
","
","
","""event"",""trial"",""time""
""fullscreenenter"",""1"",""1889""
","
","","","1261.4000000059605","","","13","9107","4359","w","elianto","#f73b6a7A"," "," ","1","0","[2111.5]","1","2","","","9107","29","3","3","lose","go","0"
"pit-trial","151","1069918","0.0-34.0","battery-v0.2","","""event"",""trial"",""time""
""fullscreenenter"",""1"",""1889""
","
","
","""event"",""trial"",""time""
""fullscreenenter"",""1"",""1889""
","
","","","-1","","","13","9107","4359","e","elianto","#f73b6a7A","-1","-1","1","0","[]","0","2","","","9107","30","2","4","lose","no-go","0"
"pit-trial","152","1073980","0.0-35.0","battery-v0.2","","""event"",""trial"",""time""
""fullscreenenter"",""1"",""1889""
","
","
","""event"",""trial"",""time""
""fullscreenenter"",""1"",""1889""
","
","","","1209","","","13","9107","4359","d","elianto","#3366ff99"," "," ","1","+10","[2059.2999999970198]","1","2","","","9107","31","1","1","win","go","0"
"pit-trial","153","1078834","0.0-36.0","battery-v0.2","","""event"",""trial"",""time""
""fullscreenenter"",""1"",""1889""
","
","
","""event"",""trial"",""time""
""fullscreenenter"",""1"",""1889""
","
","","","-1","","","13","9107","4359","j","elianto","#f73b6a7A","-1","-1","1","0","[]","0","2","","","9107","32","0","4","lose","no-go","0"
"pit-trial","154","1083688","0.0-37.0","battery-v0.2","","""event"",""trial"",""time""
""fullscreenenter"",""1"",""1889""
","
","
","""event"",""trial"",""time""
""fullscreenenter"",""1"",""1889""
","
","","","-1","","","13","9107","4359","d","elianto","#3366ff99"," ","-1","0","+10","[]","0","2","","","9107","33","1","1","win","go","1"
"pit-trial","155","1088540","0.0-38.0","battery-v0.2","","""event"",""trial"",""time""
""fullscreenenter"",""1"",""1889""
","
","
","""event"",""trial"",""time""
""fullscreenenter"",""1"",""1889""
","
","","","-1","","","13","9107","4359","w","elianto","#f73b6a7A"," ","-1","0","-10","[]","0","2","","","9107","34","3","3","lose","go","0"
"pit-trial","156","1093034","0.0-39.0","battery-v0.2","","""event"",""trial"",""time""
""fullscreenenter"",""1"",""1889""
","
","
","""event"",""trial"",""time""
""fullscreenenter"",""1"",""1889""
","
","","","1638.5","","","13","9107","4359","e","elianto","#f73b6a7A","-1"," ","0","-10","[2490.4000000059605]","1","2","","","9107","35","2","4","lose","no-go","0"
"pit-trial","157","1097888","0.0-40.0","battery-v0.2","","""event"",""trial"",""time""
""fullscreenenter"",""1"",""1889""
","
","
","""event"",""trial"",""time""
""fullscreenenter"",""1"",""1889""
","
","","","-1","","","13","9107","4359","j","elianto","#f73b6a7A","-1","-1","1","0","[]","0","2","","","9107","36","0","4","lose","no-go","0"
"pit-trial","158","1101674","0.0-41.0","battery-v0.2","","""event"",""trial"",""time""
""fullscreenenter"",""1"",""1889""
","
","
","""event"",""trial"",""time""
""fullscreenenter"",""1"",""1889""
","
","","","932.5","","","13","9107","4359","e","elianto","#f73b6a7A","-1"," ","0","-10","[1783.0999999940395]","1","2","","","9107","37","2","4","lose","no-go","0"
"pit-trial","159","1106527","0.0-42.0","battery-v0.2","","""event"",""trial"",""time""
""fullscreenenter"",""1"",""1889""
","
","
","""event"",""trial"",""time""
""fullscreenenter"",""1"",""1889""
","
","","","-1","","","13","9107","4359","j","elianto","#f73b6a7A","-1","-1","1","-10","[]","0","2","","","9107","38","0","4","lose","no-go","1"
"pit-trial","160","1110450","0.0-43.0","battery-v0.2","","""event"",""trial"",""time""
""fullscreenenter"",""1"",""1889""
","
","
","""event"",""trial"",""time""
""fullscreenenter"",""1"",""1889""
","
","","","1068.800000011921","","","13","9107","4359","w","elianto","#f73b6a7A"," "," ","1","-10","[1919.9000000059605]","1","2","","","9107","39","3","3","lose","go","1"
"pit-trial","161","1115249","0.0-44.0","battery-v0.2","","""event"",""trial"",""time""
""fullscreenenter"",""1"",""1889""
","
","
","""event"",""trial"",""time""
""fullscreenenter"",""1"",""1889""
","
","","","1946.300000011921","","","13","9107","4359","d","elianto","#3366ff99"," "," ","1","+10","[2796.7000000029802]","1","2","","","9107","40","1","1","win","go","0"
"pit-trial","162","1119818","0.0-45.0","battery-v0.2","","""event"",""trial"",""time""
""fullscreenenter"",""1"",""1889""
","
","
","""event"",""trial"",""time""
""fullscreenenter"",""1"",""1889""
","
","","","1715.1000000089407","","","13","9107","4359","e","elianto","#f73b6a7A","-1"," ","0","0","[2565.2000000029802]","1","2","","","9107","41","2","4","lose","no-go","1"
"pit-trial","163","1124671","0.0-46.0","battery-v0.2","","""event"",""trial"",""time""
""fullscreenenter"",""1"",""1889""
","
","
","""event"",""trial"",""time""
""fullscreenenter"",""1"",""1889""
","
","","","-1","","","13","9107","4359","d","elianto","#3366ff99"," ","-1","0","0","[]","0","2","","","9107","42","1","1","win","go","0"
"pit-trial","164","1129404","0.0-47.0","battery-v0.2","","""event"",""trial"",""time""
""fullscreenenter"",""1"",""1889""
","
","
","""event"",""trial"",""time""
""fullscreenenter"",""1"",""1889""
","
","","","1879","","","13","9107","4359","w","elianto","#f73b6a7A"," "," ","1","-10","[2729.7999999970198]","1","2","","","9107","43","3","3","lose","go","1"
"pit-trial","165","1134258","0.0-48.0","battery-v0.2","","""event"",""trial"",""time""
""fullscreenenter"",""1"",""1889""
","
","
","""event"",""trial"",""time""
""fullscreenenter"",""1"",""1889""
","
","","","-1","","","13","9107","4359","j","elianto","#f73b6a7A","-1","-1","1","0","[]","0","2","","","9107","44","0","4","lose","no-go","0"
"pit-trial","166","1139113","0.0-49.0","battery-v0.2","","""event"",""trial"",""time""
""fullscreenenter"",""1"",""1889""
","
","
","""event"",""trial"",""time""
""fullscreenenter"",""1"",""1889""
","
","","","-1","","","13","9107","4359","j","elianto","#f73b6a7A","-1","-1","1","0","[]","0","2","","","9107","45","0","4","lose","no-go","0"
"pit-trial","167","1143666","0.0-50.0","battery-v0.2","","""event"",""trial"",""time""
""fullscreenenter"",""1"",""1889""
","
","
","""event"",""trial"",""time""
""fullscreenenter"",""1"",""1889""
","
","","","1699.199999988079","","","13","9107","4359","e","elianto","#f73b6a7A","-1"," ","0","-10","[2550]","1","2","","","9107","46","2","4","lose","no-go","0"
"pit-trial","168","1147765","0.0-51.0","battery-v0.2","","""event"",""trial"",""time""
""fullscreenenter"",""1"",""1889""
","
","
","""event"",""trial"",""time""
""fullscreenenter"",""1"",""1889""
","
","","","1245.4000000059605","","","13","9107","4359","s","elianto","#3366ff99","-1"," ","0","0","[2095.7999999970198]","1","2","","","9107","47","4","2","win","no-go","0"
"pit-trial","169","1151978","0.0-52.0","battery-v0.2","","""event"",""trial"",""time""
""fullscreenenter"",""1"",""1889""
","
","
","""event"",""trial"",""time""
""fullscreenenter"",""1"",""1889""
","
","","","1360.1000000089407","","","13","9107","4359","w","elianto","#f73b6a7A"," "," ","1","0","[2210.6000000089407]","1","2","","","9107","48","3","3","lose","go","0"
"pit-trial","170","1156830","0.0-53.0","battery-v0.2","","""event"",""trial"",""time""
""fullscreenenter"",""1"",""1889""
","
","
","""event"",""trial"",""time""
""fullscreenenter"",""1"",""1889""
","
","","","-1","","","13","9107","4359","j","elianto","#f73b6a7A","-1","-1","1","-10","[]","0","2","","","9107","49","0","4","lose","no-go","1"
"pit-trial","171","1161684","0.0-54.0","battery-v0.2","","""event"",""trial"",""time""
""fullscreenenter"",""1"",""1889""
","
","
","""event"",""trial"",""time""
""fullscreenenter"",""1"",""1889""
","
","","","-1","","","13","9107","4359","d","elianto","#3366ff99"," ","-1","0","0","[]","0","2","","","9107","50","1","1","win","go","0"
"pit-trial","172","1166537","0.0-55.0","battery-v0.2","","""event"",""trial"",""time""
""fullscreenenter"",""1"",""1889""
","
","
","""event"",""trial"",""time""
""fullscreenenter"",""1"",""1889""
","
","","","-1","","","13","9107","4359","w","elianto","#f73b6a7A"," ","-1","0","-10","[]","0","2","","","9107","51","3","3","lose","go","0"
"pit-trial","173","1170115","0.0-56.0","battery-v0.2","","""event"",""trial"",""time""
""fullscreenenter"",""1"",""1889""
","
","
","""event"",""trial"",""time""
""fullscreenenter"",""1"",""1889""
","
","","","724.6000000089407","","","13","9107","4359","s","elianto","#3366ff99","-1"," ","0","0","[1574.5999999940395]","1","2","","","9107","52","4","2","win","no-go","0"
"pit-trial","174","1174968","0.0-57.0","battery-v0.2","","""event"",""trial"",""time""
""fullscreenenter"",""1"",""1889""
","
","
","""event"",""trial"",""time""
""fullscreenenter"",""1"",""1889""
","
","","","-1","","","13","9107","4359","s","elianto","#3366ff99","-1","-1","1","+10","[]","0","2","","","9107","53","4","2","win","no-go","0"
"pit-trial","175","1179821","0.0-58.0","battery-v0.2","","""event"",""trial"",""time""
""fullscreenenter"",""1"",""1889""
","
","
","""event"",""trial"",""time""
""fullscreenenter"",""1"",""1889""
","
","","","-1","","","13","9107","4359","j","elianto","#f73b6a7A","-1","-1","1","0","[]","0","2","","","9107","54","0","4","lose","no-go","0"
"pit-trial","176","1184349","0.0-59.0","battery-v0.2","","""event"",""trial"",""time""
""fullscreenenter"",""1"",""1889""
","
","
","""event"",""trial"",""time""
""fullscreenenter"",""1"",""1889""
","
","","","1674.9000000059605","","","13","9107","4359","d","elianto","#3366ff99"," "," ","1","+10","[2525.6000000089407]","1","2","","","9107","55","1","1","win","go","0"
"pit-trial","177","1189204","0.0-60.0","battery-v0.2","","""event"",""trial"",""time""
""fullscreenenter"",""1"",""1889""
","
","
","""event"",""trial"",""time""
""fullscreenenter"",""1"",""1889""
","
","","","-1","","","13","9107","4359","e","elianto","#f73b6a7A","-1","-1","1","0","[]","0","2","","","9107","56","2","4","lose","no-go","0"
"pit-trial","178","1194058","0.0-61.0","battery-v0.2","","""event"",""trial"",""time""
""fullscreenenter"",""1"",""1889""
","
","
","""event"",""trial"",""time""
""fullscreenenter"",""1"",""1889""
","
","","","-1","","","13","9107","4359","w","elianto","#f73b6a7A"," ","-1","0","-10","[]","0","2","","","9107","57","3","3","lose","go","0"
"pit-trial","179","1198911","0.0-62.0","battery-v0.2","","""event"",""trial"",""time""
""fullscreenenter"",""1"",""1889""
","
","
","""event"",""trial"",""time""
""fullscreenenter"",""1"",""1889""
","
","","","-1","","","13","9107","4359","s","elianto","#3366ff99","-1","-1","1","0","[]","0","2","","","9107","58","4","2","win","no-go","1"
"pit-trial","180","1203764","0.0-63.0","battery-v0.2","","""event"",""trial"",""time""
""fullscreenenter"",""1"",""1889""
","
","
","""event"",""trial"",""time""
""fullscreenenter"",""1"",""1889""
","
","","","-1","","","13","9107","4359","j","elianto","#f73b6a7A","-1","-1","1","0","[]","0","2","","","9107","59","0","4","lose","no-go","0"
"pit-trial","181","1208499","0.0-64.0","battery-v0.2","","""event"",""trial"",""time""
""fullscreenenter"",""1"",""1889""
","
","
","""event"",""trial"",""time""
""fullscreenenter"",""1"",""1889""
","
","","","1881.2999999970198","","","13","9107","4359","d","elianto","#3366ff99"," "," ","1","+10","[2731.5]","1","2","","","9107","60","1","1","win","go","0"
"pit-trial","182","1213353","0.0-65.0","battery-v0.2","","""event"",""trial"",""time""
""fullscreenenter"",""1"",""1889""
","
","
","""event"",""trial"",""time""
""fullscreenenter"",""1"",""1889""
","
","","","-1","","","13","9107","4359","d","elianto","#3366ff99"," ","-1","0","+10","[]","0","2","","","9107","61","1","1","win","go","1"
"pit-trial","183","1217428","0.0-66.0","battery-v0.2","","""event"",""trial"",""time""
""fullscreenenter"",""1"",""1889""
","
","
","""event"",""trial"",""time""
""fullscreenenter"",""1"",""1889""
","
","","","1221.5999999940395","","","13","9107","4359","s","elianto","#3366ff99","-1"," ","0","0","[2072.5]","1","2","","","9107","62","4","2","win","no-go","0"
"pit-trial","184","1221627","0.0-67.0","battery-v0.2","","""event"",""trial"",""time""
""fullscreenenter"",""1"",""1889""
","
","
","""event"",""trial"",""time""
""fullscreenenter"",""1"",""1889""
","
","","","1343.8999999910593","","","13","9107","4359","w","elianto","#f73b6a7A"," "," ","1","0","[2195.7999999970198]","1","2","","","9107","63","3","3","lose","go","0"
"pit-trial","185","1226481","0.0-68.0","battery-v0.2","","""event"",""trial"",""time""
""fullscreenenter"",""1"",""1889""
","
","
","""event"",""trial"",""time""
""fullscreenenter"",""1"",""1889""
","
","","","-1","","","13","9107","4359","e","elianto","#f73b6a7A","-1","-1","1","0","[]","0","2","","","9107","64","2","4","lose","no-go","0"
"pit-trial","186","1231334","0.0-69.0","battery-v0.2","","""event"",""trial"",""time""
""fullscreenenter"",""1"",""1889""
","
","
","""event"",""trial"",""time""
""fullscreenenter"",""1"",""1889""
","
","","","-1","","","13","9107","4359","e","elianto","#f73b6a7A","-1","-1","1","-10","[]","0","2","","","9107","65","2","4","lose","no-go","1"
"pit-trial","187","1236187","0.0-70.0","battery-v0.2","","""event"",""trial"",""time""
""fullscreenenter"",""1"",""1889""
","
","
","""event"",""trial"",""time""
""fullscreenenter"",""1"",""1889""
","
","","","-1","","","13","9107","4359","s","elianto","#3366ff99","-1","-1","1","+10","[2954.1000000089407]","1","2","","","9107","66","4","2","win","no-go","0"
"pit-trial","188","1241041","0.0-71.0","battery-v0.2","","""event"",""trial"",""time""
""fullscreenenter"",""1"",""1889""
","
","
","""event"",""trial"",""time""
""fullscreenenter"",""1"",""1889""
","
","","","-1","","","13","9107","4359","w","elianto","#f73b6a7A"," ","-1","0","0","[]","0","2","","","9107","67","3","3","lose","go","1"
"pit-trial","189","1245059","0.0-72.0","battery-v0.2","","""event"",""trial"",""time""
""fullscreenenter"",""1"",""1889""
","
","
","""event"",""trial"",""time""
""fullscreenenter"",""1"",""1889""
","
","","","1164.7999999970198","","","13","9107","4359","d","elianto","#3366ff99"," "," ","1","0","[2015.4000000059605]","1","2","","","9107","68","1","1","win","go","1"
"pit-trial","190","1249853","0.0-73.0","battery-v0.2","","""event"",""trial"",""time""
""fullscreenenter"",""1"",""1889""
","
","
","""event"",""trial"",""time""
""fullscreenenter"",""1"",""1889""
","
","","","1939.8999999910593","","","13","9107","4359","s","elianto","#3366ff99","-1"," ","0","0","[2791.2999999970198]","1","2","","","9107","69","4","2","win","no-go","0"
"pit-trial","191","1254219","0.0-74.0","battery-v0.2","","""event"",""trial"",""time""
""fullscreenenter"",""1"",""1889""
","
","
","""event"",""trial"",""time""
""fullscreenenter"",""1"",""1889""
","
","","","1512.5","","","13","9107","4359","p","elianto","#3366ff99"," "," ","1","+10","[2363.1000000089407]","1","2","","","9107","70","5","1","win","go","0"
"pit-trial","192","1259072","0.0-75.0","battery-v0.2","","""event"",""trial"",""time""
""fullscreenenter"",""1"",""1889""
","
","
","""event"",""trial"",""time""
""fullscreenenter"",""1"",""1889""
","
","","","-1","","","13","9107","4359","w","elianto","#f73b6a7A"," ","-1","0","-10","[]","0","2","","","9107","71","3","3","lose","go","0"
"pit-trial","193","1263925","0.0-76.0","battery-v0.2","","""event"",""trial"",""time""
""fullscreenenter"",""1"",""1889""
","
","
","""event"",""trial"",""time""
""fullscreenenter"",""1"",""1889""
","
","","","-1","","","13","9107","4359","d","elianto","#3366ff99"," ","-1","0","+10","[]","0","2","","","9107","72","1","1","win","go","1"
"pit-trial","194","1268317","0.0-77.0","battery-v0.2","","""event"",""trial"",""time""
""fullscreenenter"",""1"",""1889""
","
","
","""event"",""trial"",""time""
""fullscreenenter"",""1"",""1889""
","
","","","1536","","","13","9107","4359","s","elianto","#3366ff99","-1"," ","0","0","[2388.1000000089407]","1","2","","","9107","73","4","2","win","no-go","0"
"pit-trial","195","1272627","0.0-78.0","battery-v0.2","","""event"",""trial"",""time""
""fullscreenenter"",""1"",""1889""
","
","
","""event"",""trial"",""time""
""fullscreenenter"",""1"",""1889""
","
","","","1458.1000000089407","","","13","9107","4359","p","elianto","#3366ff99"," "," ","1","+10","[2308.7000000029802]","1","2","","","9107","74","5","1","win","go","0"
"pit-trial","196","1277244","0.0-79.0","battery-v0.2","","""event"",""trial"",""time""
""fullscreenenter"",""1"",""1889""
","
","
","""event"",""trial"",""time""
""fullscreenenter"",""1"",""1889""
","
","","","1762.7999999970198","","","13","9107","4359","d","elianto","#3366ff99"," "," ","1","+10","[2613.2999999970198]","1","2","","","9107","75","1","1","win","go","0"
"pit-trial","197","1282097","0.0-80.0","battery-v0.2","","""event"",""trial"",""time""
""fullscreenenter"",""1"",""1889""
","
","
","""event"",""trial"",""time""
""fullscreenenter"",""1"",""1889""
","
","","","-1","","","13","9107","4359","w","elianto","#f73b6a7A"," ","-1","0","-10","[]","0","2","","","9107","76","3","3","lose","go","0"
"pit-trial","198","1286366","0.0-81.0","battery-v0.2","","""event"",""trial"",""time""
""fullscreenenter"",""1"",""1889""
","
","
","""event"",""trial"",""time""
""fullscreenenter"",""1"",""1889""
","
","","","1415","","","13","9107","4359","g","elianto","#f73b6a7A","-1"," ","0","-10","[2265.5]","1","2","","","9107","77","6","4","lose","no-go","0"
"pit-trial","199","1291219","0.0-82.0","battery-v0.2","","""event"",""trial"",""time""
""fullscreenenter"",""1"",""1889""
","
","
","""event"",""trial"",""time""
""fullscreenenter"",""1"",""1889""
","
","","","-1","","","13","9107","4359","w","elianto","#f73b6a7A"," ","-1","0","-10","[]","0","2","","","9107","78","3","3","lose","go","0"
"pit-trial","200","1295788","0.0-83.0","battery-v0.2","","""event"",""trial"",""time""
""fullscreenenter"",""1"",""1889""
","
","
","""event"",""trial"",""time""
""fullscreenenter"",""1"",""1889""
","
","","","1715","","","13","9107","4359","p","elianto","#3366ff99"," "," ","1","0","[2565.8999999910593]","1","2","","","9107","79","5","1","win","go","1"
"pit-trial","201","1300036","0.0-84.0","battery-v0.2","","""event"",""trial"",""time""
""fullscreenenter"",""1"",""1889""
","
","
","""event"",""trial"",""time""
""fullscreenenter"",""1"",""1889""
","
","","","1394.7000000029802","","","13","9107","4359","s","elianto","#3366ff99","-1"," ","0","0","[2244.7999999970198]","1","2","","","9107","80","4","2","win","no-go","0"
"pit-trial","202","1304196","0.0-85.0","battery-v0.2","","""event"",""trial"",""time""
""fullscreenenter"",""1"",""1889""
","
","
","""event"",""trial"",""time""
""fullscreenenter"",""1"",""1889""
","
","","","1307.2999999970198","","","13","9107","4359","p","elianto","#3366ff99"," "," ","1","+10","[2158]","1","2","","","9107","81","5","1","win","go","0"
"pit-trial","203","1309049","0.0-86.0","battery-v0.2","","""event"",""trial"",""time""
""fullscreenenter"",""1"",""1889""
","
","
","""event"",""trial"",""time""
""fullscreenenter"",""1"",""1889""
","
","","","-1","","","13","9107","4359","s","elianto","#3366ff99","-1","-1","1","+10","[]","0","2","","","9107","82","4","2","win","no-go","0"
"pit-trial","204","1312988","0.0-87.0","battery-v0.2","","""event"",""trial"",""time""
""fullscreenenter"",""1"",""1889""
","
","
","""event"",""trial"",""time""
""fullscreenenter"",""1"",""1889""
","
","","","1085.2999999970198","","","13","9107","4359","g","elianto","#f73b6a7A","-1"," ","0","-10","[1935.8999999910593]","1","2","","","9107","83","6","4","lose","no-go","0"
"pit-trial","205","1317014","0.0-88.0","battery-v0.2","","""event"",""trial"",""time""
""fullscreenenter"",""1"",""1889""
","
","
","""event"",""trial"",""time""
""fullscreenenter"",""1"",""1889""
","
","","","1172.199999988079","","","13","9107","4359","a","elianto","#f73b6a7A"," "," ","1","0","[2023.0999999940395]","1","2","","","9107","84","7","3","lose","go","0"
"pit-trial","206","1320478","0.0-89.0","battery-v0.2","","""event"",""trial"",""time""
""fullscreenenter"",""1"",""1889""
","
","
","""event"",""trial"",""time""
""fullscreenenter"",""1"",""1889""
","
","","","610.7999999970198","","","13","9107","4359","a","elianto","#f73b6a7A"," "," ","1","0","[1461.4000000059605]","1","2","","","9107","85","7","3","lose","go","0"
"pit-trial","207","1325332","0.0-90.0","battery-v0.2","","""event"",""trial"",""time""
""fullscreenenter"",""1"",""1889""
","
","
","""event"",""trial"",""time""
""fullscreenenter"",""1"",""1889""
","
","","","-1","","","13","9107","4359","g","elianto","#f73b6a7A","-1","-1","1","0","[]","0","2","","","9107","86","6","4","lose","no-go","0"
"pit-trial","208","1329612","0.0-91.0","battery-v0.2","","""event"",""trial"",""time""
""fullscreenenter"",""1"",""1889""
","
","
","""event"",""trial"",""time""
""fullscreenenter"",""1"",""1889""
","
","","","1427","","","13","9107","4359","s","elianto","#3366ff99","-1"," ","0","+10","[2277.3999999910593]","1","2","","","9107","87","4","2","win","no-go","1"
"pit-trial","209","1334466","0.0-92.0","battery-v0.2","","""event"",""trial"",""time""
""fullscreenenter"",""1"",""1889""
","
","
","""event"",""trial"",""time""
""fullscreenenter"",""1"",""1889""
","
","","","-1","","","13","9107","4359","p","elianto","#3366ff99"," ","-1","0","0","[]","0","2","","","9107","88","5","1","win","go","0"
"pit-trial","210","1338947","0.0-93.0","battery-v0.2","","""event"",""trial"",""time""
""fullscreenenter"",""1"",""1889""
","
","
","""event"",""trial"",""time""
""fullscreenenter"",""1"",""1889""
","
","","","1629","","","13","9107","4359","a","elianto","#f73b6a7A"," "," ","1","0","[2479.2000000029802]","1","2","","","9107","89","7","3","lose","go","0"
"pit-trial","211","1343013","0.0-94.0","battery-v0.2","","""event"",""trial"",""time""
""fullscreenenter"",""1"",""1889""
","
","
","""event"",""trial"",""time""
""fullscreenenter"",""1"",""1889""
","
","","","1211.2999999970198","","","13","9107","4359","p","elianto","#3366ff99"," "," ","1","0","[2062.2999999970198]","1","2","","","9107","90","5","1","win","go","1"
"pit-trial","212","1347190","0.0-95.0","battery-v0.2","","""event"",""trial"",""time""
""fullscreenenter"",""1"",""1889""
","
","
","""event"",""trial"",""time""
""fullscreenenter"",""1"",""1889""
","
","","","1324.6000000089407","","","13","9107","4359","s","elianto","#3366ff99","-1"," ","0","0","[2174.6000000089407]","1","2","","","9107","91","4","2","win","no-go","0"
"pit-trial","213","1352055","0.0-96.0","battery-v0.2","","""event"",""trial"",""time""
""fullscreenenter"",""1"",""1889""
","
","
","""event"",""trial"",""time""
""fullscreenenter"",""1"",""1889""
","
","","","-1","","","13","9107","4359","g","elianto","#f73b6a7A","-1","-1","1","0","[]","0","2","","","9107","92","6","4","lose","no-go","0"
"pit-trial","214","1356908","0.0-97.0","battery-v0.2","","""event"",""trial"",""time""
""fullscreenenter"",""1"",""1889""
","
","
","""event"",""trial"",""time""
""fullscreenenter"",""1"",""1889""
","
","","","-1","","","13","9107","4359","p","elianto","#3366ff99"," ","-1","0","0","[]","0","2","","","9107","93","5","1","win","go","0"
"pit-trial","215","1361109","0.0-98.0","battery-v0.2","","""event"",""trial"",""time""
""fullscreenenter"",""1"",""1889""
","
","
","""event"",""trial"",""time""
""fullscreenenter"",""1"",""1889""
","
","","","1347.9000000059605","","","13","9107","4359","l","elianto","#3366ff99","-1"," ","0","0","[2198]","1","2","","","9107","94","8","2","win","no-go","0"
"pit-trial","216","1365963","0.0-99.0","battery-v0.2","","""event"",""trial"",""time""
""fullscreenenter"",""1"",""1889""
","
","
","""event"",""trial"",""time""
""fullscreenenter"",""1"",""1889""
","
","","","-1","","","13","9107","4359","g","elianto","#f73b6a7A","-1","-1","1","0","[]","0","2","","","9107","95","6","4","lose","no-go","0"
"pit-trial","217","1370048","0.0-100.0","battery-v0.2","","""event"",""trial"",""time""
""fullscreenenter"",""1"",""1889""
","
","
","""event"",""trial"",""time""
""fullscreenenter"",""1"",""1889""
","
","","","1229.8999999910593","","","13","9107","4359","a","elianto","#f73b6a7A"," "," ","1","0","[2081.5999999940395]","1","2","","","9107","96","7","3","lose","go","0"
"pit-trial","218","1373965","0.0-101.0","battery-v0.2","","""event"",""trial"",""time""
""fullscreenenter"",""1"",""1889""
","
","
","""event"",""trial"",""time""
""fullscreenenter"",""1"",""1889""
","
","","","1063.5","","","13","9107","4359","p","elianto","#3366ff99"," "," ","1","0","[1914.4000000059605]","1","2","","","9107","97","5","1","win","go","1"
"pit-trial","219","1378826","0.0-102.0","battery-v0.2","","""event"",""trial"",""time""
""fullscreenenter"",""1"",""1889""
","
","
","""event"",""trial"",""time""
""fullscreenenter"",""1"",""1889""
","
","","","-1","","","13","9107","4359","l","elianto","#3366ff99","-1","-1","1","+10","[]","0","2","","","9107","98","8","2","win","no-go","0"
"pit-trial","220","1382583","0.0-103.0","battery-v0.2","","""event"",""trial"",""time""
""fullscreenenter"",""1"",""1889""
","
","
","""event"",""trial"",""time""
""fullscreenenter"",""1"",""1889""
","
","","","903.7000000029802","","","13","9107","4359","a","elianto","#f73b6a7A"," "," ","1","-10","[1754.2000000029802]","1","2","","","9107","99","7","3","lose","go","1"
"pit-trial","221","1387436","0.0-104.0","battery-v0.2","","""event"",""trial"",""time""
""fullscreenenter"",""1"",""1889""
","
","
","""event"",""trial"",""time""
""fullscreenenter"",""1"",""1889""
","
","","","-1","","","13","9107","4359","g","elianto","#f73b6a7A","-1","-1","1","-10","[]","0","2","","","9107","100","6","4","lose","no-go","1"
"pit-trial","222","1392289","0.0-105.0","battery-v0.2","","""event"",""trial"",""time""
""fullscreenenter"",""1"",""1889""
","
","
","""event"",""trial"",""time""
""fullscreenenter"",""1"",""1889""
","
","","","-1","","","13","9107","4359","l","elianto","#3366ff99","-1","-1","1","+10","[]","0","2","","","9107","101","8","2","win","no-go","0"
"pit-trial","223","1397142","0.0-106.0","battery-v0.2","","""event"",""trial"",""time""
""fullscreenenter"",""1"",""1889""
","
","
","""event"",""trial"",""time""
""fullscreenenter"",""1"",""1889""
","
","","","-1","","","13","9107","4359","g","elianto","#f73b6a7A","-1","-1","1","-10","[]","0","2","","","9107","102","6","4","lose","no-go","1"
"pit-trial","224","1401996","0.0-107.0","battery-v0.2","","""event"",""trial"",""time""
""fullscreenenter"",""1"",""1889""
","
","
","""event"",""trial"",""time""
""fullscreenenter"",""1"",""1889""
","
","","","-1","","","13","9107","4359","p","elianto","#3366ff99"," ","-1","0","0","[]","0","2","","","9107","103","5","1","win","go","0"
"pit-trial","225","1406093","0.0-108.0","battery-v0.2","","""event"",""trial"",""time""
""fullscreenenter"",""1"",""1889""
","
","
","""event"",""trial"",""time""
""fullscreenenter"",""1"",""1889""
","
","","","1243.7999999970198","","","13","9107","4359","u","elianto","#3366ff99","-1"," ","0","+10","[2094.6000000089407]","1","2","","","9107","104","9","2","win","no-go","1"
"pit-trial","226","1409590","0.0-109.0","battery-v0.2","","""event"",""trial"",""time""
""fullscreenenter"",""1"",""1889""
","
","
","""event"",""trial"",""time""
""fullscreenenter"",""1"",""1889""
","
","","","641.5","","","13","9107","4359","u","elianto","#3366ff99","-1"," ","0","+10","[1493.5]","1","2","","","9107","105","9","2","win","no-go","1"
"pit-trial","227","1414444","0.0-110.0","battery-v0.2","","""event"",""trial"",""time""
""fullscreenenter"",""1"",""1889""
","
","
","""event"",""trial"",""time""
""fullscreenenter"",""1"",""1889""
","
","","","-1","","","13","9107","4359","l","elianto","#3366ff99","-1","-1","1","+10","[]","0","2","","","9107","106","8","2","win","no-go","0"
"pit-trial","228","1419297","0.0-111.0","battery-v0.2","","""event"",""trial"",""time""
""fullscreenenter"",""1"",""1889""
","
","
","""event"",""trial"",""time""
""fullscreenenter"",""1"",""1889""
","
","","","-1","","","13","9107","4359","g","elianto","#f73b6a7A","-1","-1","1","0","[]","0","2","","","9107","107","6","4","lose","no-go","0"
"pit-trial","229","1423565","0.0-112.0","battery-v0.2","","""event"",""trial"",""time""
""fullscreenenter"",""1"",""1889""
","
","
","""event"",""trial"",""time""
""fullscreenenter"",""1"",""1889""
","
","","","1414.4000000059605","","","13","9107","4359","p","elianto","#3366ff99"," "," ","1","+10","[2264.9000000059605]","1","2","","","9107","108","5","1","win","go","0"
"pit-trial","230","1427800","0.0-113.0","battery-v0.2","","""event"",""trial"",""time""
""fullscreenenter"",""1"",""1889""
","
","
","""event"",""trial"",""time""
""fullscreenenter"",""1"",""1889""
","
","","","1379.0999999940395","","","13","9107","4359","u","elianto","#3366ff99","-1"," ","0","0","[2231.0999999940395]","1","2","","","9107","109","9","2","win","no-go","0"
"pit-trial","231","1432653","0.0-114.0","battery-v0.2","","""event"",""trial"",""time""
""fullscreenenter"",""1"",""1889""
","
","
","""event"",""trial"",""time""
""fullscreenenter"",""1"",""1889""
","
","","","-1","","","13","9107","4359","g","elianto","#f73b6a7A","-1","-1","1","0","[]","0","2","","","9107","110","6","4","lose","no-go","0"
"pit-trial","232","1437507","0.0-115.0","battery-v0.2","","""event"",""trial"",""time""
""fullscreenenter"",""1"",""1889""
","
","
","""event"",""trial"",""time""
""fullscreenenter"",""1"",""1889""
","
","","","-1","","","13","9107","4359","p","elianto","#3366ff99"," ","-1","0","0","[]","0","2","","","9107","111","5","1","win","go","0"
"pit-trial","233","1442361","0.0-116.0","battery-v0.2","","""event"",""trial"",""time""
""fullscreenenter"",""1"",""1889""
","
","
","""event"",""trial"",""time""
""fullscreenenter"",""1"",""1889""
","
","","","-1","","","13","9107","4359","l","elianto","#3366ff99","-1","-1","1","+10","[]","0","2","","","9107","112","8","2","win","no-go","0"
"pit-trial","234","1445996","0.0-117.0","battery-v0.2","","""event"",""trial"",""time""
""fullscreenenter"",""1"",""1889""
","
","
","""event"",""trial"",""time""
""fullscreenenter"",""1"",""1889""
","
","","","780.5999999940395","","","13","9107","4359","p","elianto","#3366ff99"," "," ","1","+10","[1632.9000000059605]","1","2","","","9107","113","5","1","win","go","0"
"pit-trial","235","1450849","0.0-118.0","battery-v0.2","","""event"",""trial"",""time""
""fullscreenenter"",""1"",""1889""
","
","
","""event"",""trial"",""time""
""fullscreenenter"",""1"",""1889""
","
","","","-1","","","13","9107","4359","a","elianto","#f73b6a7A"," ","-1","0","0","[]","0","2","","","9107","114","7","3","lose","go","1"
"pit-trial","236","1455703","0.0-119.0","battery-v0.2","","""event"",""trial"",""time""
""fullscreenenter"",""1"",""1889""
","
","
","""event"",""trial"",""time""
""fullscreenenter"",""1"",""1889""
","
","","","-1","","","13","9107","4359","l","elianto","#3366ff99","-1","-1","1","+10","[]","0","2","","","9107","115","8","2","win","no-go","0"
"pit-trial","237","1459669","0.0-120.0","battery-v0.2","","""event"",""trial"",""time""
""fullscreenenter"",""1"",""1889""
","
","
","""event"",""trial"",""time""
""fullscreenenter"",""1"",""1889""
","
","","","1113","","","13","9107","4359","u","elianto","#3366ff99","-1"," ","0","0","[1963.2000000029802]","1","2","","","9107","116","9","2","win","no-go","0"
"pit-trial","238","1464523","0.0-121.0","battery-v0.2","","""event"",""trial"",""time""
""fullscreenenter"",""1"",""1889""
","
","
","""event"",""trial"",""time""
""fullscreenenter"",""1"",""1889""
","
","","","-1","","","13","9107","4359","l","elianto","#3366ff99","-1","-1","1","+10","[]","0","2","","","9107","117","8","2","win","no-go","0"
"pit-trial","239","1469376","0.0-122.0","battery-v0.2","","""event"",""trial"",""time""
""fullscreenenter"",""1"",""1889""
","
","
","""event"",""trial"",""time""
""fullscreenenter"",""1"",""1889""
","
","","","-1","","","13","9107","4359","g","elianto","#f73b6a7A","-1","-1","1","0","[]","0","2","","","9107","118","6","4","lose","no-go","0"
"pit-trial","240","1473454","0.0-123.0","battery-v0.2","","""event"",""trial"",""time""
""fullscreenenter"",""1"",""1889""
","
","
","""event"",""trial"",""time""
""fullscreenenter"",""1"",""1889""
","
","","","1224.0999999940395","","","13","9107","4359","u","elianto","#3366ff99","-1"," ","0","0","[2074.7000000029802]","1","2","","","9107","119","9","2","win","no-go","0"
"pit-trial","241","1477461","0.0-124.0","battery-v0.2","","""event"",""trial"",""time""
""fullscreenenter"",""1"",""1889""
","
","
","""event"",""trial"",""time""
""fullscreenenter"",""1"",""1889""
","
","","","1152.8999999910593","","","13","9107","4359","p","elianto","#3366ff99"," "," ","1","+10","[2004.2999999970198]","1","2","","","9107","120","5","1","win","go","0"
"pit-trial","242","1481070","0.0-125.0","battery-v0.2","","""event"",""trial"",""time""
""fullscreenenter"",""1"",""1889""
","
","
","""event"",""trial"",""time""
""fullscreenenter"",""1"",""1889""
","
","","","753.4000000059605","","","13","9107","4359","p","elianto","#3366ff99"," "," ","1","+10","[1605.4000000059605]","1","2","","","9107","121","5","1","win","go","0"
"pit-trial","243","1485924","0.0-126.0","battery-v0.2","","""event"",""trial"",""time""
""fullscreenenter"",""1"",""1889""
","
","
","""event"",""trial"",""time""
""fullscreenenter"",""1"",""1889""
","
","","","-1","","","13","9107","4359","u","elianto","#3366ff99","-1","-1","1","+10","[]","0","2","","","9107","122","9","2","win","no-go","0"
"pit-trial","244","1490777","0.0-127.0","battery-v0.2","","""event"",""trial"",""time""
""fullscreenenter"",""1"",""1889""
","
","
","""event"",""trial"",""time""
""fullscreenenter"",""1"",""1889""
","
","","","-1","","","13","9107","4359","a","elianto","#f73b6a7A"," ","-1","0","-10","[]","0","2","","","9107","123","7","3","lose","go","0"
"pit-trial","245","1495631","0.0-128.0","battery-v0.2","","""event"",""trial"",""time""
""fullscreenenter"",""1"",""1889""
","
","
","""event"",""trial"",""time""
""fullscreenenter"",""1"",""1889""
","
","","","-1","","","13","9107","4359","l","elianto","#3366ff99","-1","-1","1","+10","[]","0","2","","","9107","124","8","2","win","no-go","0"
"pit-trial","246","1500485","0.0-129.0","battery-v0.2","","""event"",""trial"",""time""
""fullscreenenter"",""1"",""1889""
","
","
","""event"",""trial"",""time""
""fullscreenenter"",""1"",""1889""
","
","","","-1","","","13","9107","4359","l","elianto","#3366ff99","-1","-1","1","+10","[]","0","2","","","9107","125","8","2","win","no-go","0"
"pit-trial","247","1505338","0.0-130.0","battery-v0.2","","""event"",""trial"",""time""
""fullscreenenter"",""1"",""1889""
","
","
","""event"",""trial"",""time""
""fullscreenenter"",""1"",""1889""
","
","","","-1","","","13","9107","4359","g","elianto","#f73b6a7A","-1","-1","1","-10","[]","0","2","","","9107","126","6","4","lose","no-go","1"
"pit-trial","248","1510194","0.0-131.0","battery-v0.2","","""event"",""trial"",""time""
""fullscreenenter"",""1"",""1889""
","
","
","""event"",""trial"",""time""
""fullscreenenter"",""1"",""1889""
","
","","","-1","","","13","9107","4359","a","elianto","#f73b6a7A"," ","-1","0","0","[]","0","2","","","9107","127","7","3","lose","go","1"
"pit-trial","249","1515047","0.0-132.0","battery-v0.2","","""event"",""trial"",""time""
""fullscreenenter"",""1"",""1889""
","
","
","""event"",""trial"",""time""
""fullscreenenter"",""1"",""1889""
","
","","","-1","","","13","9107","4359","u","elianto","#3366ff99","-1","-1","1","+10","[]","0","2","","","9107","128","9","2","win","no-go","0"
"pit-trial","250","1519900","0.0-133.0","battery-v0.2","","""event"",""trial"",""time""
""fullscreenenter"",""1"",""1889""
","
","
","""event"",""trial"",""time""
""fullscreenenter"",""1"",""1889""
","
","","","-1","","","13","9107","4359","l","elianto","#3366ff99","-1","-1","1","+10","[]","0","2","","","9107","129","8","2","win","no-go","0"
"pit-trial","251","1524755","0.0-134.0","battery-v0.2","","""event"",""trial"",""time""
""fullscreenenter"",""1"",""1889""
","
","
","""event"",""trial"",""time""
""fullscreenenter"",""1"",""1889""
","
","","","-1","","","13","9107","4359","g","elianto","#f73b6a7A","-1","-1","1","-10","[]","0","2","","","9107","130","6","4","lose","no-go","1"
"pit-trial","252","1529608","0.0-135.0","battery-v0.2","","""event"",""trial"",""time""
""fullscreenenter"",""1"",""1889""
","
","
","""event"",""trial"",""time""
""fullscreenenter"",""1"",""1889""
","
","","","-1","","","13","9107","4359","u","elianto","#3366ff99","-1","-1","1","+10","[]","0","2","","","9107","131","9","2","win","no-go","0"
"pit-trial","253","1534462","0.0-136.0","battery-v0.2","","""event"",""trial"",""time""
""fullscreenenter"",""1"",""1889""
","
","
","""event"",""trial"",""time""
""fullscreenenter"",""1"",""1889""
","
","","","-1","","","13","9107","4359","a","elianto","#f73b6a7A"," ","-1","0","-10","[]","0","2","","","9107","132","7","3","lose","go","0"
"pit-trial","254","1539316","0.0-137.0","battery-v0.2","","""event"",""trial"",""time""
""fullscreenenter"",""1"",""1889""
","
","
","""event"",""trial"",""time""
""fullscreenenter"",""1"",""1889""
","
","","","-1","","","13","9107","4359","l","elianto","#3366ff99","-1","-1","1","+10","[]","0","2","","","9107","133","8","2","win","no-go","0"
"pit-trial","255","1544169","0.0-138.0","battery-v0.2","","""event"",""trial"",""time""
""fullscreenenter"",""1"",""1889""
","
","
","""event"",""trial"",""time""
""fullscreenenter"",""1"",""1889""
","
","","","-1","","","13","9107","4359","g","elianto","#f73b6a7A","-1","-1","1","-10","[]","0","2","","","9107","134","6","4","lose","no-go","1"
"pit-trial","256","1549022","0.0-139.0","battery-v0.2","","""event"",""trial"",""time""
""fullscreenenter"",""1"",""1889""
","
","
","""event"",""trial"",""time""
""fullscreenenter"",""1"",""1889""
","
","","","-1","","","13","9107","4359","a","elianto","#f73b6a7A"," ","-1","0","0","[]","0","2","","","9107","135","7","3","lose","go","1"
"pit-trial","257","1553876","0.0-140.0","battery-v0.2","","""event"",""trial"",""time""
""fullscreenenter"",""1"",""1889""
","
","
","""event"",""trial"",""time""
""fullscreenenter"",""1"",""1889""
","
","","","-1","","","13","9107","4359","u","elianto","#3366ff99","-1","-1","1","+10","[]","0","2","","","9107","136","9","2","win","no-go","0"
"pit-trial","258","1558729","0.0-141.0","battery-v0.2","","""event"",""trial"",""time""
""fullscreenenter"",""1"",""1889""
","
","
","""event"",""trial"",""time""
""fullscreenenter"",""1"",""1889""
","
","","","-1","","","13","9107","4359","l","elianto","#3366ff99","-1","-1","1","+10","[]","0","2","","","9107","137","8","2","win","no-go","0"
"pit-trial","259","1563583","0.0-142.0","battery-v0.2","","""event"",""trial"",""time""
""fullscreenenter"",""1"",""1889""
","
","
","""event"",""trial"",""time""
""fullscreenenter"",""1"",""1889""
","
","","","-1","","","13","9107","4359","a","elianto","#f73b6a7A"," ","-1","0","0","[]","0","2","","","9107","138","7","3","lose","go","1"
"pit-trial","260","1568437","0.0-143.0","battery-v0.2","","""event"",""trial"",""time""
""fullscreenenter"",""1"",""1889""
","
","
","""event"",""trial"",""time""
""fullscreenenter"",""1"",""1889""
","
","","","-1","","","13","9107","4359","g","elianto","#f73b6a7A","-1","-1","1","0","[]","0","2","","","9107","139","6","4","lose","no-go","0"
"pit-trial","261","1572287","0.0-144.0","battery-v0.2","","""event"",""trial"",""time""
""fullscreenenter"",""1"",""1889""
","
","
","""event"",""trial"",""time""
""fullscreenenter"",""1"",""1889""
","
","","","996.7999999970198","","","13","9107","4359","u","elianto","#3366ff99","-1"," ","0","0","[1847.4000000059605]","1","2","","","9107","140","9","2","win","no-go","0"
"pit-instructions","262","1600179","0.0-145.0","battery-v0.2","","""event"",""trial"",""time""
""fullscreenenter"",""1"",""1889""
","
","
","""event"",""trial"",""time""
""fullscreenenter"",""1"",""1889""
","
","","[{""page_index"":0,""viewing_time"":16551.70000000298},{""page_index"":1,""viewing_time"":11338.20000000298}]","27890.20000000298","","","","","","","","","","","","","","","","","","","","","","","",""
"pit-trial","263","1604510","0.0-146.0","battery-v0.2","","""event"",""trial"",""time""
""fullscreenenter"",""1"",""1889""
","
","
","""event"",""trial"",""time""
""fullscreenenter"",""1"",""1889""
","
","","","1457.7000000029802","","","13","9107","4359","b","elianto","#f73b6a7A","-1"," ","0","-10","[2310.9000000059605]","1","3","","","9107","141","3","4","lose","no-go","0"
"pit-trial","264","1608732","0.0-147.0","battery-v0.2","","""event"",""trial"",""time""
""fullscreenenter"",""1"",""1889""
","
","
","""event"",""trial"",""time""
""fullscreenenter"",""1"",""1889""
","
","","","1354.6000000089407","","","13","9107","4359","f","elianto","#3366ff99","-1"," ","0","0","[2208.8999999910593]","1","3","","","9107","142","1","2","win","no-go","0"
"pit-trial","265","1613596","0.0-148.0","battery-v0.2","","""event"",""trial"",""time""
""fullscreenenter"",""1"",""1889""
","
","
","""event"",""trial"",""time""
""fullscreenenter"",""1"",""1889""
","
","","","-1","","","13","9107","4359","t","elianto","#f73b6a7A"," ","-1","0","0","[2879.2999999970198]","1","3","","","9107","143","2","3","lose","go","1"
"pit-trial","266","1618464","0.0-149.0","battery-v0.2","","""event"",""trial"",""time""
""fullscreenenter"",""1"",""1889""
","
","
","""event"",""trial"",""time""
""fullscreenenter"",""1"",""1889""
","
","","","-1","","","13","9107","4359","n","elianto","#f73b6a7A"," ","-1","0","-10","[3152.0999999940395]","1","3","","","9107","144","0","3","lose","go","0"
"pit-trial","267","1623327","0.0-150.0","battery-v0.2","","""event"",""trial"",""time""
""fullscreenenter"",""1"",""1889""
","
","
","""event"",""trial"",""time""
""fullscreenenter"",""1"",""1889""
","
