"trial_type","trial_index","time_elapsed","internal_node_id","task_version","subject_id","interactions","blur_events","focus_events","fullscreenenter_events","fullscreenexit_events","success","view_history","rt","responses","num_errors","age","subject","participantId","rune","rune_set","hex","correct","choice","accuracy","outcome","keys","total_keys","block","practice","value","sub","trial","stimulus","robot","valence","action","sham"
"pavlovia","0","12","0.0-0.0","battery-v0.2","","""event"",""trial"",""time""
""fullscreenenter"",""1"",""3180""
","
","
","""event"",""trial"",""time""
""fullscreenenter"",""1"",""3180""
","
","","","","","","","","","","","","","","","","","","","","","","","","","","",""
"fullscreen","1","4165","0.0-1.0","battery-v0.2","","""event"",""trial"",""time""
""fullscreenenter"",""1"",""3180""
","
","
","""event"",""trial"",""time""
""fullscreenenter"",""1"",""3180""
","
","true","","","","","","","","","","","","","","","","","","","","","","","","","",""
"pit-instructions","2","9120","0.0-2.0-0.0","battery-v0.2","","""event"",""trial"",""time""
""fullscreenenter"",""1"",""3180""
","
","
","""event"",""trial"",""time""
""fullscreenenter"",""1"",""3180""
","
","","[{""page_index"":0,""viewing_time"":4949.899999976158}]","4950.5","","","","","","","","","","","","","","","","","","","","","","","",""
"pit-comprehension","3","12730","0.0-2.0-1.0-0.0","battery-v0.2","","""event"",""trial"",""time""
""fullscreenenter"",""1"",""3180""
","
","
","""event"",""trial"",""time""
""fullscreenenter"",""1"",""3180""
","
","","","3604.7999999523163","[""shark""]","0","10","11013","4320","","","","","","","","","","","","","","","","","","",""
"pit-instructions","4","17417","0.0-2.0-1.0-1.0","battery-v0.2","","""event"",""trial"",""time""
""fullscreenenter"",""1"",""3180""
","
","
","""event"",""trial"",""time""
""fullscreenenter"",""1"",""3180""
","
","","[{""page_index"":0,""viewing_time"":4657.300000071526}]","4657.600000023842","","","","","","","","","","","","","","","","","","","","","","","",""
"pit-comprehension","5","20587","0.0-2.0-2.0-0.0","battery-v0.2","","""event"",""trial"",""time""
""fullscreenenter"",""1"",""3180""
","
","
","""event"",""trial"",""time""
""fullscreenenter"",""1"",""3180""
","
","","","3164.899999976158","[""tiger""]","0","10","11013","4320","","","","","","","","","","","","","","","","","","",""
"pit-instructions","6","22128","0.0-2.0-2.0-1.0","battery-v0.2","","""event"",""trial"",""time""
""fullscreenenter"",""1"",""3180""
","
","
","""event"",""trial"",""time""
""fullscreenenter"",""1"",""3180""
","
","","[{""page_index"":0,""viewing_time"":1536.7999999523163}]","1537.1999999284744","","","","","","","","","","","","","","","","","","","","","","","",""
"pit-instructions","7","134642","0.0-2.0-3.0","battery-v0.2","","""event"",""trial"",""time""
""fullscreenenter"",""1"",""3180""
","
","
","""event"",""trial"",""time""
""fullscreenenter"",""1"",""3180""
","
","","[{""page_index"":0,""viewing_time"":10655},{""page_index"":1,""viewing_time"":8190.799999952316},{""page_index"":2,""viewing_time"":8314.399999976158},{""page_index"":3,""viewing_time"":5805},{""page_index"":4,""viewing_time"":8938.800000071526},{""page_index"":5,""viewing_time"":8887.799999952316},{""page_index"":6,""viewing_time"":8236.600000023842},{""page_index"":7,""viewing_time"":7358.299999952316},{""page_index"":8,""viewing_time"":6588},{""page_index"":9,""viewing_time"":8832},{""page_index"":10,""viewing_time"":8825.300000071526},{""page_index"":11,""viewing_time"":9329.899999976158},{""page_index"":12,""viewing_time"":6662.799999952316},{""page_index"":13,""viewing_time"":5881.700000047684}]","112507","","","","","","","","","","","","","","","","","","","","","","","",""
"pit-trial","8","138183","0.0-2.0-4.0-0.0","battery-v0.2","","""event"",""trial"",""time""
""fullscreenenter"",""1"",""3180""
","
","
","""event"",""trial"",""time""
""fullscreenenter"",""1"",""3180""
","
","","","674.8000000715256","","","10","11013","4320","&#9784;","elianto","#FFFFF080"," "," ","1","&#10004","[1530.9000000953674]","1","0","0","","","","","","","",""
"pit-trial","9","141573","0.0-2.0-4.1-0.1","battery-v0.2","","""event"",""trial"",""time""
""fullscreenenter"",""1"",""3180""
","
","
","""event"",""trial"",""time""
""fullscreenenter"",""1"",""3180""
","
","","","530.6999999284744","","","10","11013","4320","&#9784;","elianto","#FFFFF080"," "," ","1","&#10004","[1381.8000000715256]","1","0","0","","","","","","","",""
"pit-trial","10","145055","0.0-2.0-4.2-0.2","battery-v0.2","","""event"",""trial"",""time""
""fullscreenenter"",""1"",""3180""
","
","
","""event"",""trial"",""time""
""fullscreenenter"",""1"",""3180""
","
","","","614.5999999046326","","","10","11013","4320","&#9784;","elianto","#FFFFF080"," "," ","1","&#10004","[1472.5]","1","0","0","","","","","","","",""
"pit-trial","11","148409","0.0-2.0-4.3-0.3","battery-v0.2","","""event"",""trial"",""time""
""fullscreenenter"",""1"",""3180""
","
","
","""event"",""trial"",""time""
""fullscreenenter"",""1"",""3180""
","
","","","482.2000000476837","","","10","11013","4320","&#9784;","elianto","#FFFFF080"," "," ","1","&#10004","[1344.3999999761581]","1","0","0","","","","","","","",""
"pit-trial","12","151831","0.0-2.0-4.4-0.4","battery-v0.2","","""event"",""trial"",""time""
""fullscreenenter"",""1"",""3180""
","
","
","""event"",""trial"",""time""
""fullscreenenter"",""1"",""3180""
","
","","","547.5","","","10","11013","4320","&#9784;","elianto","#FFFFF080"," "," ","1","&#10004","[1408.7000000476837]","1","0","0","","","","","","","",""
"pit-instructions","13","183833","0.0-2.0-5.0","battery-v0.2","","""event"",""trial"",""time""
""fullscreenenter"",""1"",""3180""
","
","
","""event"",""trial"",""time""
""fullscreenenter"",""1"",""3180""
","
","","[{""page_index"":0,""viewing_time"":8273.600000023842},{""page_index"":1,""viewing_time"":11673.799999952316},{""page_index"":2,""viewing_time"":6151.899999976158},{""page_index"":3,""viewing_time"":5897.700000047684}]","31998.299999952316","","","","","","","","","","","","","","","","","","","","","","","",""
"pit-trial","14","188715","0.0-2.0-6.0-0.0","battery-v0.2","","""event"",""trial"",""time""
""fullscreenenter"",""1"",""3180""
","
","
","""event"",""trial"",""time""
""fullscreenenter"",""1"",""3180""
","
","","","-1","","","10","11013","4320","&#9854;","elianto","#FFFFF080","-1","-1","1","&#10004","[]","0","0","1","","","","","","","",""
"pit-trial","15","193581","0.0-2.0-6.1-0.1","battery-v0.2","","""event"",""trial"",""time""
""fullscreenenter"",""1"",""3180""
","
","
","""event"",""trial"",""time""
""fullscreenenter"",""1"",""3180""
","
","","","-1","","","10","11013","4320","&#9854;","elianto","#FFFFF080","-1","-1","1","&#10004","[]","0","0","1","","","","","","","",""
"pit-trial","16","198458","0.0-2.0-6.2-0.2","battery-v0.2","","""event"",""trial"",""time""
""fullscreenenter"",""1"",""3180""
","
","
","""event"",""trial"",""time""
""fullscreenenter"",""1"",""3180""
","
","","","-1","","","10","11013","4320","&#9854;","elianto","#FFFFF080","-1","-1","1","&#10004","[]","0","0","1","","","","","","","",""
"pit-trial","17","203331","0.0-2.0-6.3-0.3","battery-v0.2","","""event"",""trial"",""time""
""fullscreenenter"",""1"",""3180""
","
","
","""event"",""trial"",""time""
""fullscreenenter"",""1"",""3180""
","
","","","-1","","","10","11013","4320","&#9854;","elianto","#FFFFF080","-1","-1","1","&#10004","[]","0","0","1","","","","","","","",""
"pit-trial","18","208201","0.0-2.0-6.4-0.4","battery-v0.2","","""event"",""trial"",""time""
""fullscreenenter"",""1"",""3180""
","
","
","""event"",""trial"",""time""
""fullscreenenter"",""1"",""3180""
","
","","","-1","","","10","11013","4320","&#9854;","elianto","#FFFFF080","-1","-1","1","&#10004","[]","0","0","1","","","","","","","",""
"pit-instructions","19","380924","0.0-2.0-7.0","battery-v0.2","","""event"",""trial"",""time""
""fullscreenenter"",""1"",""3180""
","
","
","""event"",""trial"",""time""
""fullscreenenter"",""1"",""3180""
","
","","[{""page_index"":0,""viewing_time"":7352.899999976158},{""page_index"":1,""viewing_time"":8545},{""page_index"":2,""viewing_time"":6962.299999952316},{""page_index"":3,""viewing_time"":7907.800000071526},{""page_index"":4,""viewing_time"":8640.600000023842},{""page_index"":5,""viewing_time"":8330},{""page_index"":6,""viewing_time"":6306.099999904633},{""page_index"":7,""viewing_time"":12853.700000047684},{""page_index"":8,""viewing_time"":11591.100000023842},{""page_index"":9,""viewing_time"":11991},{""page_index"":10,""viewing_time"":9528.399999976158},{""page_index"":11,""viewing_time"":9171.100000023842},{""page_index"":12,""viewing_time"":9658.799999952316},{""page_index"":13,""viewing_time"":14967.800000071526},{""page_index"":14,""viewing_time"":10500},{""page_index"":15,""viewing_time"":10037.399999976158},{""page_index"":16,""viewing_time"":7736.600000023842},{""page_index"":17,""viewing_time"":10634.899999976158}]","172716.5","","","","","","","","","","","","","","","","","","","","","","","",""
"pit-trial","20","384385","0.0-2.0-8.0-0.0","battery-v0.2","","""event"",""trial"",""time""
""fullscreenenter"",""1"",""3180""
","
","
","""event"",""trial"",""time""
""fullscreenenter"",""1"",""3180""
","
","","","602.5","","","10","11013","4320","&#9776;","elianto","#3366ff99"," "," ","1","+10","[1454.7999999523163]","1","0","1","","","","","","","",""
"pit-trial","21","387815","0.0-2.0-8.0-1.0","battery-v0.2","","""event"",""trial"",""time""
""fullscreenenter"",""1"",""3180""
","
","
","""event"",""trial"",""time""
""fullscreenenter"",""1"",""3180""
","
","","","570.0999999046326","","","10","11013","4320","&#9776;","elianto","#3366ff99"," "," ","1","+10","[1422.3000000715256]","1","0","1","","","","","","","",""
"pit-trial","22","391138","0.0-2.0-8.0-2.0","battery-v0.2","","""event"",""trial"",""time""
""fullscreenenter"",""1"",""3180""
","
","
","""event"",""trial"",""time""
""fullscreenenter"",""1"",""3180""
","
","","","452.1999999284744","","","10","11013","4320","&#9776;","elianto","#3366ff99"," "," ","1","+10","[1304.5999999046326]","1","0","1","","","","","","","",""
"pit-trial","23","394453","0.0-2.0-8.0-3.0","battery-v0.2","","""event"",""trial"",""time""
""fullscreenenter"",""1"",""3180""
","
","
","""event"",""trial"",""time""
""fullscreenenter"",""1"",""3180""
","
","","","455.2999999523163","","","10","11013","4320","&#9776;","elianto","#3366ff99"," "," ","1","0","[1312.1000000238419]","1","0","1","","","","","","","",""
"pit-trial","24","397729","0.0-2.0-8.0-4.0","battery-v0.2","","""event"",""trial"",""time""
""fullscreenenter"",""1"",""3180""
","
","
","""event"",""trial"",""time""
""fullscreenenter"",""1"",""3180""
","
","","","419.39999997615814","","","10","11013","4320","&#9776;","elianto","#3366ff99"," "," ","1","+10","[1273]","1","0","1","","","","","","","",""
"pit-trial","25","400897","0.0-2.0-8.1-0.1","battery-v0.2","","""event"",""trial"",""time""
""fullscreenenter"",""1"",""3180""
","
","
","""event"",""trial"",""time""
""fullscreenenter"",""1"",""3180""
","
","","","305.7999999523163","","","10","11013","4320","&#9776;","elianto","#3366ff99"," "," ","1","+10","[1159.7000000476837]","1","0","1","","","","","","","",""
"pit-trial","26","404107","0.0-2.0-8.1-1.1","battery-v0.2","","""event"",""trial"",""time""
""fullscreenenter"",""1"",""3180""
","
","
","""event"",""trial"",""time""
""fullscreenenter"",""1"",""3180""
","
","","","346.40000009536743","","","10","11013","4320","&#9776;","elianto","#3366ff99"," "," ","1","+10","[1197.9000000953674]","1","0","1","","","","","","","",""
"pit-trial","27","407389","0.0-2.0-8.1-2.1","battery-v0.2","","""event"",""trial"",""time""
""fullscreenenter"",""1"",""3180""
","
","
","""event"",""trial"",""time""
""fullscreenenter"",""1"",""3180""
","
","","","420.6999999284744","","","10","11013","4320","&#9776;","elianto","#3366ff99"," "," ","1","+10","[1275.7000000476837]","1","0","1","","","","","","","",""
"pit-trial","28","410638","0.0-2.0-8.1-3.1","battery-v0.2","","""event"",""trial"",""time""
""fullscreenenter"",""1"",""3180""
","
","
","""event"",""trial"",""time""
""fullscreenenter"",""1"",""3180""
","
","","","386.6999999284744","","","10","11013","4320","&#9776;","elianto","#3366ff99"," "," ","1","0","[1245.1999999284744]","1","0","1","","","","","","","",""
"pit-trial","29","413965","0.0-2.0-8.1-4.1","battery-v0.2","","""event"",""trial"",""time""
""fullscreenenter"",""1"",""3180""
","
","
","""event"",""trial"",""time""
""fullscreenenter"",""1"",""3180""
","
","","","467.60000002384186","","","10","11013","4320","&#9776;","elianto","#3366ff99"," "," ","1","+10","[1320]","1","0","1","","","","","","","",""
"pit-trial","30","417309","0.0-2.0-8.2-0.2","battery-v0.2","","""event"",""trial"",""time""
""fullscreenenter"",""1"",""3180""
","
","
","""event"",""trial"",""time""
""fullscreenenter"",""1"",""3180""
","
","","","481","","","10","11013","4320","&#9776;","elianto","#3366ff99"," "," ","1","+10","[1337.0999999046326]","1","0","1","","","","","","","",""
"pit-trial","31","420536","0.0-2.0-8.2-1.2","battery-v0.2","","""event"",""trial"",""time""
""fullscreenenter"",""1"",""3180""
","
","
","""event"",""trial"",""time""
""fullscreenenter"",""1"",""3180""
","
","","","357.90000009536743","","","10","11013","4320","&#9776;","elianto","#3366ff99"," "," ","1","+10","[1218.2999999523163]","1","0","1","","","","","","","",""
"pit-trial","32","423764","0.0-2.0-8.2-2.2","battery-v0.2","","""event"",""trial"",""time""
""fullscreenenter"",""1"",""3180""
","
","
","""event"",""trial"",""time""
""fullscreenenter"",""1"",""3180""
","
","","","370.7000000476837","","","10","11013","4320","&#9776;","elianto","#3366ff99"," "," ","1","+10","[1223.7000000476837]","1","0","1","","","","","","","",""
"pit-trial","33","426995","0.0-2.0-8.2-3.2","battery-v0.2","","""event"",""trial"",""time""
""fullscreenenter"",""1"",""3180""
","
","
","""event"",""trial"",""time""
""fullscreenenter"",""1"",""3180""
","
","","","367.2000000476837","","","10","11013","4320","&#9776;","elianto","#3366ff99"," "," ","1","0","[1227.8999999761581]","1","0","1","","","","","","","",""
"pit-trial","34","430268","0.0-2.0-8.2-4.2","battery-v0.2","","""event"",""trial"",""time""
""fullscreenenter"",""1"",""3180""
","
","
","""event"",""trial"",""time""
""fullscreenenter"",""1"",""3180""
","
","","","410.90000009536743","","","10","11013","4320","&#9776;","elianto","#3366ff99"," "," ","1","+10","[1264.5]","1","0","1","","","","","","","",""
"call-function","35","430270","0.0-2.0-9.0","battery-v0.2","","""event"",""trial"",""time""
""fullscreenenter"",""1"",""3180""
","
","
","""event"",""trial"",""time""
""fullscreenenter"",""1"",""3180""
","
","","","","","","","","","","","","","","","","","","","","","","","","","","",""
"pit-instructions","36","480292","0.0-2.0-10.0","battery-v0.2","","""event"",""trial"",""time""
""fullscreenenter"",""1"",""3180""
","
","
","""event"",""trial"",""time""
""fullscreenenter"",""1"",""3180""
","
","","[{""page_index"":0,""viewing_time"":6291.100000023842},{""page_index"":1,""viewing_time"":8195.299999952316},{""page_index"":2,""viewing_time"":11885.300000071526},{""page_index"":3,""viewing_time"":12541},{""page_index"":4,""viewing_time"":11106.199999928474}]","50019.700000047684","","","","","","","","","","","","","","","","","","","","","","","",""
"pit-trial","37","483773","0.0-2.0-11.0-0.0","battery-v0.2","","""event"",""trial"",""time""
""fullscreenenter"",""1"",""3180""
","
","
","""event"",""trial"",""time""
""fullscreenenter"",""1"",""3180""
","
","","","622.8000000715256","","","10","11013","4320","&#9761;","elianto","#3366ff99","-1"," ","0","0","[1473.6000000238419]","1","0","2","","","","","","","",""
"pit-trial","38","487116","0.0-2.0-11.0-1.0","battery-v0.2","","""event"",""trial"",""time""
""fullscreenenter"",""1"",""3180""
","
","
","""event"",""trial"",""time""
""fullscreenenter"",""1"",""3180""
","
","","","473.7999999523163","","","10","11013","4320","&#9761;","elianto","#3366ff99","-1"," ","0","0","[1330.3999999761581]","1","0","2","","","","","","","",""
"pit-trial","39","490319","0.0-2.0-11.0-2.0","battery-v0.2","","""event"",""trial"",""time""
""fullscreenenter"",""1"",""3180""
","
","
","""event"",""trial"",""time""
""fullscreenenter"",""1"",""3180""
","
","","","340.5","","","10","11013","4320","&#9761;","elianto","#3366ff99","-1"," ","0","0","[1196.1999999284744]","1","0","2","","","","","","","",""
"pit-trial","40","493473","0.0-2.0-11.0-3.0","battery-v0.2","","""event"",""trial"",""time""
""fullscreenenter"",""1"",""3180""
","
","
","""event"",""trial"",""time""
""fullscreenenter"",""1"",""3180""
","
","","","293","","","10","11013","4320","&#9761;","elianto","#3366ff99","-1"," ","0","+10","[1145.7000000476837]","1","0","2","","","","","","","",""
"pit-trial","41","496706","0.0-2.0-11.0-4.0","battery-v0.2","","""event"",""trial"",""time""
""fullscreenenter"",""1"",""3180""
","
","
","""event"",""trial"",""time""
""fullscreenenter"",""1"",""3180""
","
","","","359.2999999523163","","","10","11013","4320","&#9761;","elianto","#3366ff99","-1"," ","0","0","[1216.2000000476837]","1","0","2","","","","","","","",""
"pit-trial","42","499890","0.0-2.0-11.1-0.1","battery-v0.2","","""event"",""trial"",""time""
""fullscreenenter"",""1"",""3180""
","
","
","""event"",""trial"",""time""
""fullscreenenter"",""1"",""3180""
","
","","","326.6999999284744","","","10","11013","4320","&#9761;","elianto","#3366ff99","-1"," ","0","0","[1178.6000000238419]","1","0","2","","","","","","","",""
"pit-trial","43","503043","0.0-2.0-11.1-1.1","battery-v0.2","","""event"",""trial"",""time""
""fullscreenenter"",""1"",""3180""
","
","
","""event"",""trial"",""time""
""fullscreenenter"",""1"",""3180""
","
","","","286.59999990463257","","","10","11013","4320","&#9761;","elianto","#3366ff99","-1"," ","0","0","[1139.0999999046326]","1","0","2","","","","","","","",""
"pit-trial","44","506191","0.0-2.0-11.1-2.1","battery-v0.2","","""event"",""trial"",""time""
""fullscreenenter"",""1"",""3180""
","
","
","""event"",""trial"",""time""
""fullscreenenter"",""1"",""3180""
","
","","","279.5","","","10","11013","4320","&#9761;","elianto","#3366ff99","-1"," ","0","0","[1134.2000000476837]","1","0","2","","","","","","","",""
"pit-trial","45","509299","0.0-2.0-11.1-3.1","battery-v0.2","","""event"",""trial"",""time""
""fullscreenenter"",""1"",""3180""
","
","
","""event"",""trial"",""time""
""fullscreenenter"",""1"",""3180""
","
","","","248.5","","","10","11013","4320","&#9761;","elianto","#3366ff99","-1"," ","0","+10","[1100]","1","0","2","","","","","","","",""
"pit-trial","46","512434","0.0-2.0-11.1-4.1","battery-v0.2","","""event"",""trial"",""time""
""fullscreenenter"",""1"",""3180""
","
","
","""event"",""trial"",""time""
""fullscreenenter"",""1"",""3180""
","
","","","269.5","","","10","11013","4320","&#9761;","elianto","#3366ff99","-1"," ","0","0","[1128.1000000238419]","1","0","2","","","","","","","",""
"pit-trial","47","515656","0.0-2.0-11.2-0.2","battery-v0.2","","""event"",""trial"",""time""
""fullscreenenter"",""1"",""3180""
","
","
","""event"",""trial"",""time""
""fullscreenenter"",""1"",""3180""
","
","","","363","","","10","11013","4320","&#9761;","elianto","#3366ff99","-1"," ","0","0","[1214.1999999284744]","1","0","2","","","","","","","",""
"pit-trial","48","518690","0.0-2.0-11.2-1.2","battery-v0.2","","""event"",""trial"",""time""
""fullscreenenter"",""1"",""3180""
","
","
","""event"",""trial"",""time""
""fullscreenenter"",""1"",""3180""
","
","","","175.90000009536743","","","10","11013","4320","&#9761;","elianto","#3366ff99","-1"," ","0","0","[1026.8999999761581]","1","0","2","","","","","","","",""
"pit-trial","49","521813","0.0-2.0-11.2-2.2","battery-v0.2","","""event"",""trial"",""time""
""fullscreenenter"",""1"",""3180""
","
","
","""event"",""trial"",""time""
""fullscreenenter"",""1"",""3180""
","
","","","265.10000002384186","","","10","11013","4320","&#9761;","elianto","#3366ff99","-1"," ","0","0","[1115.2000000476837]","1","0","2","","","","","","","",""
"pit-trial","50","524926","0.0-2.0-11.2-3.2","battery-v0.2","","""event"",""trial"",""time""
""fullscreenenter"",""1"",""3180""
","
","
","""event"",""trial"",""time""
""fullscreenenter"",""1"",""3180""
","
","","","253.29999995231628","","","10","11013","4320","&#9761;","elianto","#3366ff99","-1"," ","0","+10","[1104.3999999761581]","1","0","2","","","","","","","",""
"pit-trial","51","528032","0.0-2.0-11.2-4.2","battery-v0.2","","""event"",""trial"",""time""
""fullscreenenter"",""1"",""3180""
","
","
","""event"",""trial"",""time""
""fullscreenenter"",""1"",""3180""
","
","","","246.89999997615814","","","10","11013","4320","&#9761;","elianto","#3366ff99","-1"," ","0","0","[1101.1000000238419]","1","0","2","","","","","","","",""
"pit-trial","52","531248","0.0-2.0-11.3-0.3","battery-v0.2","","""event"",""trial"",""time""
""fullscreenenter"",""1"",""3180""
","
","
","""event"",""trial"",""time""
""fullscreenenter"",""1"",""3180""
","
","","","356","","","10","11013","4320","&#9761;","elianto","#3366ff99","-1"," ","0","0","[1210.3000000715256]","1","0","2","","","","","","","",""
"pit-trial","53","534472","0.0-2.0-11.3-1.3","battery-v0.2","","""event"",""trial"",""time""
""fullscreenenter"",""1"",""3180""
","
","
","""event"",""trial"",""time""
""fullscreenenter"",""1"",""3180""
","
","","","365.6999999284744","","","10","11013","4320","&#9761;","elianto","#3366ff99","-1"," ","0","0","[1218.3999999761581]","1","0","2","","","","","","","",""
"pit-trial","54","537618","0.0-2.0-11.3-2.3","battery-v0.2","","""event"",""trial"",""time""
""fullscreenenter"",""1"",""3180""
","
","
","""event"",""trial"",""time""
""fullscreenenter"",""1"",""3180""
","
","","","289.39999997615814","","","10","11013","4320","&#9761;","elianto","#3366ff99","-1"," ","0","0","[1142.6999999284744]","1","0","2","","","","","","","",""
"pit-trial","55","540713","0.0-2.0-11.3-3.3","battery-v0.2","","""event"",""trial"",""time""
""fullscreenenter"",""1"",""3180""
","
","
","""event"",""trial"",""time""
""fullscreenenter"",""1"",""3180""
","
","","","238.20000004768372","","","10","11013","4320","&#9761;","elianto","#3366ff99","-1"," ","0","+10","[1088.3999999761581]","1","0","2","","","","","","","",""
"pit-trial","56","543815","0.0-2.0-11.3-4.3","battery-v0.2","","""event"",""trial"",""time""
""fullscreenenter"",""1"",""3180""
","
","
","""event"",""trial"",""time""
""fullscreenenter"",""1"",""3180""
","
","","","242.39999997615814","","","10","11013","4320","&#9761;","elianto","#3366ff99","-1"," ","0","0","[1092.6000000238419]","1","0","2","","","","","","","",""
"call-function","57","543817","0.0-2.0-12.0","battery-v0.2","","""event"",""trial"",""time""
""fullscreenenter"",""1"",""3180""
","
","
","""event"",""trial"",""time""
""fullscreenenter"",""1"",""3180""
","
","","","","","","","","","","","","","","","","","","","","","","","","","","",""
"pit-instructions","58","583379","0.0-2.0-13.0","battery-v0.2","","""event"",""trial"",""time""
""fullscreenenter"",""1"",""3180""
","
","
","""event"",""trial"",""time""
""fullscreenenter"",""1"",""3180""
","
","","[{""page_index"":0,""viewing_time"":7773.299999952316},{""page_index"":1,""viewing_time"":10186},{""page_index"":2,""viewing_time"":4301.400000095367},{""page_index"":3,""viewing_time"":11410.099999904633},{""page_index"":4,""viewing_time"":5890.300000071526}]","39561.89999997616","","","","","","","","","","","","","","","","","","","","","","","",""
"pit-trial","59","588256","0.0-2.0-14.0-0.0","battery-v0.2","","""event"",""trial"",""time""
""fullscreenenter"",""1"",""3180""
","
","
","""event"",""trial"",""time""
""fullscreenenter"",""1"",""3180""
","
","","","-1","","","10","11013","4320","&#9826;","elianto","#f73b6a7A","-1","-1","1","0","[]","0","0","3","","","","","","","",""
"pit-trial","60","593121","0.0-2.0-14.0-1.0","battery-v0.2","","""event"",""trial"",""time""
""fullscreenenter"",""1"",""3180""
","
","
","""event"",""trial"",""time""
""fullscreenenter"",""1"",""3180""
","
","","","-1","","","10","11013","4320","&#9826;","elianto","#f73b6a7A","-1","-1","1","0","[]","0","0","3","","","","","","","",""
"pit-trial","61","597988","0.0-2.0-14.0-2.0","battery-v0.2","","""event"",""trial"",""time""
""fullscreenenter"",""1"",""3180""
","
","
","""event"",""trial"",""time""
""fullscreenenter"",""1"",""3180""
","
","","","-1","","","10","11013","4320","&#9826;","elianto","#f73b6a7A","-1","-1","1","0","[]","0","0","3","","","","","","","",""
"pit-trial","62","602858","0.0-2.0-14.0-3.0","battery-v0.2","","""event"",""trial"",""time""
""fullscreenenter"",""1"",""3180""
","
","
","""event"",""trial"",""time""
""fullscreenenter"",""1"",""3180""
","
","","","-1","","","10","11013","4320","&#9826;","elianto","#f73b6a7A","-1","-1","1","-10","[]","0","0","3","","","","","","","",""
"pit-trial","63","606233","0.0-2.0-14.0-4.0","battery-v0.2","","""event"",""trial"",""time""
""fullscreenenter"",""1"",""3180""
","
","
","""event"",""trial"",""time""
""fullscreenenter"",""1"",""3180""
","
","","","519.8000000715256","","","10","11013","4320","&#9826;","elianto","#f73b6a7A","-1"," ","0","-10","[1370.2000000476837]","1","0","3","","","","","","","",""
"pit-trial","64","611113","0.0-2.0-14.1-0.1","battery-v0.2","","""event"",""trial"",""time""
""fullscreenenter"",""1"",""3180""
","
","
","""event"",""trial"",""time""
""fullscreenenter"",""1"",""3180""
","
","","","-1","","","10","11013","4320","&#9826;","elianto","#f73b6a7A","-1","-1","1","0","[2952.8000000715256]","1","0","3","","","","","","","",""
"pit-trial","65","615155","0.0-2.0-14.1-1.1","battery-v0.2","","""event"",""trial"",""time""
""fullscreenenter"",""1"",""3180""
","
","
","""event"",""trial"",""time""
""fullscreenenter"",""1"",""3180""
","
","","","1175.1999999284744","","","10","11013","4320","&#9826;","elianto","#f73b6a7A","-1"," ","0","-10","[2033.1999999284744]","1","0","3","","","","","","","",""
"pit-trial","66","620014","0.0-2.0-14.1-2.1","battery-v0.2","","""event"",""trial"",""time""
""fullscreenenter"",""1"",""3180""
","
","
","""event"",""trial"",""time""
""fullscreenenter"",""1"",""3180""
","
","","","-1","","","10","11013","4320","&#9826;","elianto","#f73b6a7A","-1","-1","1","0","[]","0","0","3","","","","","","","",""
"pit-trial","67","624871","0.0-2.0-14.1-3.1","battery-v0.2","","""event"",""trial"",""time""
""fullscreenenter"",""1"",""3180""
","
","
","""event"",""trial"",""time""
""fullscreenenter"",""1"",""3180""
","
","","","-1","","","10","11013","4320","&#9826;","elianto","#f73b6a7A","-1","-1","1","-10","[]","0","0","3","","","","","","","",""
"pit-trial","68","628596","0.0-2.0-14.1-4.1","battery-v0.2","","""event"",""trial"",""time""
""fullscreenenter"",""1"",""3180""
","
","
","""event"",""trial"",""time""
""fullscreenenter"",""1"",""3180""
","
","","","860.8000000715256","","","10","11013","4320","&#9826;","elianto","#f73b6a7A","-1"," ","0","-10","[1712.6000000238419]","1","0","3","","","","","","","",""
"pit-trial","69","631816","0.0-2.0-14.2-0.2","battery-v0.2","","""event"",""trial"",""time""
""fullscreenenter"",""1"",""3180""
","
","
","""event"",""trial"",""time""
""fullscreenenter"",""1"",""3180""
","
","","","353.5","","","10","11013","4320","&#9826;","elianto","#f73b6a7A","-1"," ","0","-10","[1209]","1","0","3","","","","","","","",""
"pit-trial","70","635197","0.0-2.0-14.2-1.2","battery-v0.2","","""event"",""trial"",""time""
""fullscreenenter"",""1"",""3180""
","
","
","""event"",""trial"",""time""
""fullscreenenter"",""1"",""3180""
","
","","","516.6000000238419","","","10","11013","4320","&#9826;","elianto","#f73b6a7A","-1"," ","0","-10","[1371.8999999761581]","1","0","3","","","","","","","",""
"pit-trial","71","640061","0.0-2.0-14.2-2.2","battery-v0.2","","""event"",""trial"",""time""
""fullscreenenter"",""1"",""3180""
","
","
","""event"",""trial"",""time""
""fullscreenenter"",""1"",""3180""
","
","","","-1","","","10","11013","4320","&#9826;","elianto","#f73b6a7A","-1","-1","1","0","[]","0","0","3","","","","","","","",""
"pit-trial","72","644928","0.0-2.0-14.2-3.2","battery-v0.2","","""event"",""trial"",""time""
""fullscreenenter"",""1"",""3180""
","
","
","""event"",""trial"",""time""
""fullscreenenter"",""1"",""3180""
","
","","","-1","","","10","11013","4320","&#9826;","elianto","#f73b6a7A","-1","-1","1","-10","[]","0","0","3","","","","","","","",""
"pit-trial","73","649791","0.0-2.0-14.2-4.2","battery-v0.2","","""event"",""trial"",""time""
""fullscreenenter"",""1"",""3180""
","
","
","""event"",""trial"",""time""
""fullscreenenter"",""1"",""3180""
","
","","","-1","","","10","11013","4320","&#9826;","elianto","#f73b6a7A","-1","-1","1","0","[]","0","0","3","","","","","","","",""
"pit-trial","74","654660","0.0-2.0-14.3-0.3","battery-v0.2","","""event"",""trial"",""time""
""fullscreenenter"",""1"",""3180""
","
","
","""event"",""trial"",""time""
""fullscreenenter"",""1"",""3180""
","
","","","-1","","","10","11013","4320","&#9826;","elianto","#f73b6a7A","-1","-1","1","0","[]","0","0","3","","","","","","","",""
"pit-trial","75","659526","0.0-2.0-14.3-1.3","battery-v0.2","","""event"",""trial"",""time""
""fullscreenenter"",""1"",""3180""
","
","
","""event"",""trial"",""time""
""fullscreenenter"",""1"",""3180""
","
","","","-1","","","10","11013","4320","&#9826;","elianto","#f73b6a7A","-1","-1","1","0","[]","0","0","3","","","","","","","",""
"pit-trial","76","664391","0.0-2.0-14.3-2.3","battery-v0.2","","""event"",""trial"",""time""
""fullscreenenter"",""1"",""3180""
","
","
","""event"",""trial"",""time""
""fullscreenenter"",""1"",""3180""
","
","","","-1","","","10","11013","4320","&#9826;","elianto","#f73b6a7A","-1","-1","1","0","[]","0","0","3","","","","","","","",""
"pit-trial","77","669261","0.0-2.0-14.3-3.3","battery-v0.2","","""event"",""trial"",""time""
""fullscreenenter"",""1"",""3180""
","
","
","""event"",""trial"",""time""
""fullscreenenter"",""1"",""3180""
","
","","","-1","","","10","11013","4320","&#9826;","elianto","#f73b6a7A","-1","-1","1","-10","[]","0","0","3","","","","","","","",""
"pit-trial","78","674123","0.0-2.0-14.3-4.3","battery-v0.2","","""event"",""trial"",""time""
""fullscreenenter"",""1"",""3180""
","
","
","""event"",""trial"",""time""
""fullscreenenter"",""1"",""3180""
","
","","","-1","","","10","11013","4320","&#9826;","elianto","#f73b6a7A","-1","-1","1","0","[]","0","0","3","","","","","","","",""
"call-function","79","674125","0.0-2.0-15.0","battery-v0.2","","""event"",""trial"",""time""
""fullscreenenter"",""1"",""3180""
","
","
","""event"",""trial"",""time""
""fullscreenenter"",""1"",""3180""
","
","","","","","","","","","","","","","","","","","","","","","","","","","","",""
"pit-instructions","80","709517","0.0-2.0-16.0","battery-v0.2","","""event"",""trial"",""time""
""fullscreenenter"",""1"",""3180""
","
","
","""event"",""trial"",""time""
""fullscreenenter"",""1"",""3180""
","
","","[{""page_index"":0,""viewing_time"":8824.600000023842},{""page_index"":1,""viewing_time"":13403.899999976158},{""page_index"":2,""viewing_time"":6118.100000023842},{""page_index"":3,""viewing_time"":7040}]","35387.10000002384","","","","","","","","","","","","","","","","","","","","","","","",""
"pit-trial","81","714387","0.0-2.0-17.0-0.0","battery-v0.2","","""event"",""trial"",""time""
""fullscreenenter"",""1"",""3180""
","
","
","""event"",""trial"",""time""
""fullscreenenter"",""1"",""3180""
","
","","","-1","","","10","11013","4320","&#9789;","elianto","#f73b6a7A"," ","-1","0","-10","[]","0","0","4","","","","","","","",""
"pit-trial","82","717997","0.0-2.0-17.0-1.0","battery-v0.2","","""event"",""trial"",""time""
""fullscreenenter"",""1"",""3180""
","
","
","""event"",""trial"",""time""
""fullscreenenter"",""1"",""3180""
","
","","","740.2000000476837","","","10","11013","4320","&#9789;","elianto","#f73b6a7A"," "," ","1","0","[1594.6000000238419]","1","0","4","","","","","","","",""
"pit-trial","83","721527","0.0-2.0-17.0-2.0","battery-v0.2","","""event"",""trial"",""time""
""fullscreenenter"",""1"",""3180""
","
","
","""event"",""trial"",""time""
""fullscreenenter"",""1"",""3180""
","
","","","665.5","","","10","11013","4320","&#9789;","elianto","#f73b6a7A"," "," ","1","0","[1518.8999999761581]","1","0","4","","","","","","","",""
"pit-trial","84","724876","0.0-2.0-17.0-3.0","battery-v0.2","","""event"",""trial"",""time""
""fullscreenenter"",""1"",""3180""
","
","
","""event"",""trial"",""time""
""fullscreenenter"",""1"",""3180""
","
","","","493.60000002384186","","","10","11013","4320","&#9789;","elianto","#f73b6a7A"," "," ","1","-10","[1345.5]","1","0","4","","","","","","","",""
"pit-trial","85","729756","0.0-2.0-17.0-4.0","battery-v0.2","","""event"",""trial"",""time""
""fullscreenenter"",""1"",""3180""
","
","
","""event"",""trial"",""time""
""fullscreenenter"",""1"",""3180""
","
","","","-1","","","10","11013","4320","&#9789;","elianto","#f73b6a7A"," ","-1","0","-10","[]","0","0","4","","","","","","","",""
"pit-trial","86","734632","0.0-2.0-17.1-0.1","battery-v0.2","","""event"",""trial"",""time""
""fullscreenenter"",""1"",""3180""
","
","
","""event"",""trial"",""time""
""fullscreenenter"",""1"",""3180""
","
","","","-1","","","10","11013","4320","&#9789;","elianto","#f73b6a7A"," ","-1","0","-10","[]","0","0","4","","","","","","","",""
"pit-trial","87","739497","0.0-2.0-17.1-1.1","battery-v0.2","","""event"",""trial"",""time""
""fullscreenenter"",""1"",""3180""
","
","
","""event"",""trial"",""time""
""fullscreenenter"",""1"",""3180""
","
","","","-1","","","10","11013","4320","&#9789;","elianto","#f73b6a7A"," ","-1","0","-10","[]","0","0","4","","","","","","","",""
"pit-trial","88","744351","0.0-2.0-17.1-2.1","battery-v0.2","","""event"",""trial"",""time""
""fullscreenenter"",""1"",""3180""
","
","
","""event"",""trial"",""time""
""fullscreenenter"",""1"",""3180""
","
","","","-1","","","10","11013","4320","&#9789;","elianto","#f73b6a7A"," ","-1","0","-10","[]","0","0","4","","","","","","","",""
"pit-trial","89","749207","0.0-2.0-17.1-3.1","battery-v0.2","","""event"",""trial"",""time""
""fullscreenenter"",""1"",""3180""
","
","
","""event"",""trial"",""time""
""fullscreenenter"",""1"",""3180""
","
","","","-1","","","10","11013","4320","&#9789;","elianto","#f73b6a7A"," ","-1","0","0","[]","0","0","4","","","","","","","",""
"pit-trial","90","754077","0.0-2.0-17.1-4.1","battery-v0.2","","""event"",""trial"",""time""
""fullscreenenter"",""1"",""3180""
","
","
","""event"",""trial"",""time""
""fullscreenenter"",""1"",""3180""
","
","","","-1","","","10","11013","4320","&#9789;","elianto","#f73b6a7A"," ","-1","0","-10","[]","0","0","4","","","","","","","",""
"pit-trial","91","758944","0.0-2.0-17.2-0.2","battery-v0.2","","""event"",""trial"",""time""
""fullscreenenter"",""1"",""3180""
","
","
","""event"",""trial"",""time""
""fullscreenenter"",""1"",""3180""
","
","","","-1","","","10","11013","4320","&#9789;","elianto","#f73b6a7A"," ","-1","0","-10","[]","0","0","4","","","","","","","",""
"pit-trial","92","763804","0.0-2.0-17.2-1.2","battery-v0.2","","""event"",""trial"",""time""
""fullscreenenter"",""1"",""3180""
","
","
","""event"",""trial"",""time""
""fullscreenenter"",""1"",""3180""
","
","","","-1","","","10","11013","4320","&#9789;","elianto","#f73b6a7A"," ","-1","0","-10","[]","0","0","4","","","","","","","",""
"pit-trial","93","767142","0.0-2.0-17.2-2.2","battery-v0.2","","""event"",""trial"",""time""
""fullscreenenter"",""1"",""3180""
","
","
","""event"",""trial"",""time""
""fullscreenenter"",""1"",""3180""
","
","","","477.2000000476837","","","10","11013","4320","&#9789;","elianto","#f73b6a7A"," "," ","1","0","[1331]","1","0","4","","","","","","","",""
"pit-trial","94","770305","0.0-2.0-17.2-3.2","battery-v0.2","","""event"",""trial"",""time""
""fullscreenenter"",""1"",""3180""
","
","
","""event"",""trial"",""time""
""fullscreenenter"",""1"",""3180""
","
","","","302.10000002384186","","","10","11013","4320","&#9789;","elianto","#f73b6a7A"," "," ","1","-10","[1155.7000000476837]","1","0","4","","","","","","","",""
"pit-trial","95","773383","0.0-2.0-17.2-4.2","battery-v0.2","","""event"",""trial"",""time""
""fullscreenenter"",""1"",""3180""
","
","
","""event"",""trial"",""time""
""fullscreenenter"",""1"",""3180""
","
","","","216.70000004768372","","","10","11013","4320","&#9789;","elianto","#f73b6a7A"," "," ","1","0","[1069]","1","0","4","","","","","","","",""
"pit-trial","96","778248","0.0-2.0-17.3-0.3","battery-v0.2","","""event"",""trial"",""time""
""fullscreenenter"",""1"",""3180""
","
","
","""event"",""trial"",""time""
""fullscreenenter"",""1"",""3180""
","
","","","-1","","","10","11013","4320","&#9789;","elianto","#f73b6a7A"," ","-1","0","-10","[]","0","0","4","","","","","","","",""
"pit-trial","97","783108","0.0-2.0-17.3-1.3","battery-v0.2","","""event"",""trial"",""time""
""fullscreenenter"",""1"",""3180""
","
","
","""event"",""trial"",""time""
""fullscreenenter"",""1"",""3180""
","
","","","-1","","","10","11013","4320","&#9789;","elianto","#f73b6a7A"," ","-1","0","-10","[]","0","0","4","","","","","","","",""
"pit-trial","98","787966","0.0-2.0-17.3-2.3","battery-v0.2","","""event"",""trial"",""time""
""fullscreenenter"",""1"",""3180""
","
","
","""event"",""trial"",""time""
""fullscreenenter"",""1"",""3180""
","
","","","-1","","","10","11013","4320","&#9789;","elianto","#f73b6a7A"," ","-1","0","-10","[]","0","0","4","","","","","","","",""
"pit-trial","99","792824","0.0-2.0-17.3-3.3","battery-v0.2","","""event"",""trial"",""time""
""fullscreenenter"",""1"",""3180""
","
","
","""event"",""trial"",""time""
""fullscreenenter"",""1"",""3180""
","
","","","-1","","","10","11013","4320","&#9789;","elianto","#f73b6a7A"," ","-1","0","0","[]","0","0","4","","","","","","","",""
"pit-trial","100","797694","0.0-2.0-17.3-4.3","battery-v0.2","","""event"",""trial"",""time""
""fullscreenenter"",""1"",""3180""
","
","
","""event"",""trial"",""time""
""fullscreenenter"",""1"",""3180""
","
","","","-1","","","10","11013","4320","&#9789;","elianto","#f73b6a7A"," ","-1","0","-10","[]","0","0","4","","","","","","","",""
"call-function","101","797696","0.0-2.0-18.0","battery-v0.2","","""event"",""trial"",""time""
""fullscreenenter"",""1"",""3180""
","
","
","""event"",""trial"",""time""
""fullscreenenter"",""1"",""3180""
","
","","","","","","","","","","","","","","","","","","","","","","","","","","",""
"pit-instructions","102","866540","0.0-2.0-19.0","battery-v0.2","","""event"",""trial"",""time""
""fullscreenenter"",""1"",""3180""
","
","
","""event"",""trial"",""time""
""fullscreenenter"",""1"",""3180""
","
","","[{""page_index"":0,""viewing_time"":7009.5},{""page_index"":1,""viewing_time"":6788.5},{""page_index"":2,""viewing_time"":8017.5},{""page_index"":3,""viewing_time"":4925.900000095367},{""page_index"":4,""viewing_time"":8984.899999976158},{""page_index"":5,""viewing_time"":9788.799999952316},{""page_index"":6,""viewing_time"":9128.300000071526},{""page_index"":7,""viewing_time"":6573.799999952316},{""page_index"":8,""viewing_time"":7624.5}]","68842.30000007153","","","","","","","","","","","","","","","","","","","","","","","",""
"pit-comprehension","103","871606","0.0-2.0-20.0-0.0","battery-v0.2","","""event"",""trial"",""time""
""fullscreenenter"",""1"",""3180""
","
","
","""event"",""trial"",""time""
""fullscreenenter"",""1"",""3180""
","
","","","5057.100000023842","[""SPACE""]","0","10","11013","4320","","","","","","","","","","","","","","","","","","",""
"pit-instructions","104","874683","0.0-2.0-20.0-1.0","battery-v0.2","","""event"",""trial"",""time""
""fullscreenenter"",""1"",""3180""
","
","
","""event"",""trial"",""time""
""fullscreenenter"",""1"",""3180""
","
","","[{""page_index"":0,""viewing_time"":3018.5}]","3019.3000000715256","","","","","","","","","","","","","","","","","","","","","","","",""
"pit-comprehension","105","881159","0.0-2.0-21.0-0.0","battery-v0.2","","""event"",""trial"",""time""
""fullscreenenter"",""1"",""3180""
","
","
","""event"",""trial"",""time""
""fullscreenenter"",""1"",""3180""
","
","","","6468.899999976158","[""10""]","0","10","11013","4320","","","","","","","","","","","","","","","","","","",""
"pit-instructions","106","883750","0.0-2.0-21.0-1.0","battery-v0.2","","""event"",""trial"",""time""
""fullscreenenter"",""1"",""3180""
","
","
","""event"",""trial"",""time""
""fullscreenenter"",""1"",""3180""
","
","","[{""page_index"":0,""viewing_time"":2526.399999976158}]","2527","","","","","","","","","","","","","","","","","","","","","","","",""
"pit-comprehension","107","891623","0.0-2.0-22.0-0.0","battery-v0.2","","""event"",""trial"",""time""
""fullscreenenter"",""1"",""3180""
","
","
","""event"",""trial"",""time""
""fullscreenenter"",""1"",""3180""
","
","","","7865.700000047684","[""0""]","0","10","11013","4320","","","","","","","","","","","","","","","","","","",""
"pit-instructions","108","896118","0.0-2.0-22.0-1.0","battery-v0.2","","""event"",""trial"",""time""
""fullscreenenter"",""1"",""3180""
","
","
","""event"",""trial"",""time""
""fullscreenenter"",""1"",""3180""
","
","","[{""page_index"":0,""viewing_time"":4437.600000023842}]","4438.299999952316","","","","","","","","","","","","","","","","","","","","","","","",""
"pit-comprehension","109","907691","0.0-2.0-23.0-0.0","battery-v0.2","","""event"",""trial"",""time""
""fullscreenenter"",""1"",""3180""
","
","
","""event"",""trial"",""time""
""fullscreenenter"",""1"",""3180""
","
","","","11563.799999952316","[""True""]","0","10","11013","4320","","","","","","","","","","","","","","","","","","",""
"pit-instructions","110","914010","0.0-2.0-23.0-1.0","battery-v0.2","","""event"",""trial"",""time""
""fullscreenenter"",""1"",""3180""
","
","
","""event"",""trial"",""time""
""fullscreenenter"",""1"",""3180""
","
","","[{""page_index"":0,""viewing_time"":6260.600000023842}]","6261.100000023842","","","","","","","","","","","","","","","","","","","","","","","",""
"pit-comprehension","111","923083","0.0-2.0-24.0-0.0","battery-v0.2","","""event"",""trial"",""time""
""fullscreenenter"",""1"",""3180""
","
","
","""event"",""trial"",""time""
""fullscreenenter"",""1"",""3180""
","
","","","9065.699999928474","[""True""]","0","10","11013","4320","","","","","","","","","","","","","","","","","","",""
"pit-instructions","112","932223","0.0-2.0-24.0-1.0","battery-v0.2","","""event"",""trial"",""time""
""fullscreenenter"",""1"",""3180""
","
","
","""event"",""trial"",""time""
""fullscreenenter"",""1"",""3180""
","
","","[{""page_index"":0,""viewing_time"":9075.399999976158}]","9076","","","","","","","","","","","","","","","","","","","","","","","",""
"pit-comprehension","113","940243","0.0-2.0-25.0-0.0","battery-v0.2","","""event"",""trial"",""time""
""fullscreenenter"",""1"",""3180""
","
","
","""event"",""trial"",""time""
""fullscreenenter"",""1"",""3180""
","
","","","8010.700000047684","[""True""]","0","10","11013","4320","","","","","","","","","","","","","","","","","","",""
"pit-instructions","114","944856","0.0-2.0-25.0-1.0","battery-v0.2","","""event"",""trial"",""time""
""fullscreenenter"",""1"",""3180""
","
","
","""event"",""trial"",""time""
""fullscreenenter"",""1"",""3180""
","
","","[{""page_index"":0,""viewing_time"":4552.600000023842}]","4553.100000023842","","","","","","","","","","","","","","","","","","","","","","","",""
"pit-comprehension","115","951432","0.0-2.0-26.0-0.0","battery-v0.2","","""event"",""trial"",""time""
""fullscreenenter"",""1"",""3180""
","
","
","""event"",""trial"",""time""
""fullscreenenter"",""1"",""3180""
","
","","","6567.799999952316","[""False""]","0","10","11013","4320","","","","","","","","","","","","","","","","","","",""
"pit-instructions","116","955944","0.0-2.0-26.0-1.0","battery-v0.2","","""event"",""trial"",""time""
""fullscreenenter"",""1"",""3180""
","
","
","""event"",""trial"",""time""
""fullscreenenter"",""1"",""3180""
","
","","[{""page_index"":0,""viewing_time"":4450.899999976158}]","4451.199999928474","","","","","","","","","","","","","","","","","","","","","","","",""
"pit-instructions","117","988291","0.0-3.0","battery-v0.2","","""event"",""trial"",""time""
""fullscreenenter"",""1"",""3180""
","
","
","""event"",""trial"",""time""
""fullscreenenter"",""1"",""3180""
","
","","[{""page_index"":0,""viewing_time"":9606.600000023842},{""page_index"":1,""viewing_time"":7585.399999976158},{""page_index"":2,""viewing_time"":15151}]","32344","","","","","","","","","","","","","","","","","","","","","","","",""
"pit-trial","118","991815","0.0-4.0","battery-v0.2","","""event"",""trial"",""time""
""fullscreenenter"",""1"",""3180""
","
","
","""event"",""trial"",""time""
""fullscreenenter"",""1"",""3180""
","
","","","650.8999999761581","","","10","11013","4320","&#9733;","elianto","#3366ff99","-1"," ","0","0","[1505.5]","1","1","","","11013","1","2","2","win","no-go","0"
"pit-trial","119","995355","0.0-5.0","battery-v0.2","","""event"",""trial"",""time""
""fullscreenenter"",""1"",""3180""
","
","
","""event"",""trial"",""time""
""fullscreenenter"",""1"",""3180""
","
","","","682.3999999761581","","","10","11013","4320","&#9752;","elianto","#f73b6a7A"," "," ","1","0","[1535.3000000715256]","1","1","","","11013","2","3","3","lose","go","0"
"pit-trial","120","999194","0.0-6.0","battery-v0.2","","""event"",""trial"",""time""
""fullscreenenter"",""1"",""3180""
","
","
","""event"",""trial"",""time""
""fullscreenenter"",""1"",""3180""
","
","","","969.5","","","10","11013","4320","&#9728;","elianto","#f73b6a7A","-1"," ","0","-10","[1832.2000000476837]","1","1","","","11013","3","0","4","lose","no-go","0"
"pit-trial","121","1003101","0.0-7.0","battery-v0.2","","""event"",""trial"",""time""
""fullscreenenter"",""1"",""3180""
","
","
","""event"",""trial"",""time""
""fullscreenenter"",""1"",""3180""
","
","","","1038.5","","","10","11013","4320","&#9730;","elianto","#3366ff99"," "," ","1","+10","[1899.0999999046326]","1","1","","","11013","4","1","1","win","go","0"
"pit-trial","122","1006704","0.0-8.0","battery-v0.2","","""event"",""trial"",""time""
""fullscreenenter"",""1"",""3180""
","
","
","""event"",""trial"",""time""
""fullscreenenter"",""1"",""3180""
","
","","","745.8999999761581","","","10","11013","4320","&#9728;","elianto","#f73b6a7A","-1"," ","0","-10","[1597.6999999284744]","1","1","","","11013","5","0","4","lose","no-go","0"
"pit-trial","123","1010227","0.0-9.0","battery-v0.2","","""event"",""trial"",""time""
""fullscreenenter"",""1"",""3180""
","
","
","""event"",""trial"",""time""
""fullscreenenter"",""1"",""3180""
","
","","","662.1000000238419","","","10","11013","4320","&#9752;","elianto","#f73b6a7A"," "," ","1","0","[1513.3000000715256]","1","1","","","11013","6","3","3","lose","go","0"
"pit-trial","124","1013681","0.0-10.0","battery-v0.2","","""event"",""trial"",""time""
""fullscreenenter"",""1"",""3180""
","
","
","""event"",""trial"",""time""
""fullscreenenter"",""1"",""3180""
","
","","","591.2000000476837","","","10","11013","4320","&#9733;","elianto","#3366ff99","-1"," ","0","0","[1445.8000000715256]","1","1","","","11013","7","2","2","win","no-go","0"
"pit-trial","125","1017064","0.0-11.0","battery-v0.2","","""event"",""trial"",""time""
""fullscreenenter"",""1"",""3180""
","
","
","""event"",""trial"",""time""
""fullscreenenter"",""1"",""3180""
","
","","","525","","","10","11013","4320","&#9730;","elianto","#3366ff99"," "," ","1","+10","[1376.2999999523163]","1","1","","","11013","8","1","1","win","go","0"
"pit-trial","126","1021002","0.0-12.0","battery-v0.2","","""event"",""trial"",""time""
""fullscreenenter"",""1"",""3180""
","
","
","""event"",""trial"",""time""
""fullscreenenter"",""1"",""3180""
","
","","","1081","","","10","11013","4320","&#9752;","elianto","#f73b6a7A"," "," ","1","0","[1932.8999999761581]","1","1","","","11013","9","3","3","lose","go","0"
"pit-trial","127","1025863","0.0-13.0","battery-v0.2","","""event"",""trial"",""time""
""fullscreenenter"",""1"",""3180""
","
","
","""event"",""trial"",""time""
""fullscreenenter"",""1"",""3180""
","
","","","-1","","","10","11013","4320","&#9728;","elianto","#f73b6a7A","-1","-1","1","-10","[]","0","1","","","11013","10","0","4","lose","no-go","1"
"pit-trial","128","1029314","0.0-14.0","battery-v0.2","","""event"",""trial"",""time""
""fullscreenenter"",""1"",""3180""
","
","
","""event"",""trial"",""time""
""fullscreenenter"",""1"",""3180""
","
","","","590.8000000715256","","","10","11013","4320","&#9730;","elianto","#3366ff99"," "," ","1","+10","[1442.8999999761581]","1","1","","","11013","11","1","1","win","go","0"
"pit-trial","129","1032746","0.0-15.0","battery-v0.2","","""event"",""trial"",""time""
""fullscreenenter"",""1"",""3180""
","
","
","""event"",""trial"",""time""
""fullscreenenter"",""1"",""3180""
","
","","","576.3000000715256","","","10","11013","4320","&#9733;","elianto","#3366ff99","-1"," ","0","0","[1428.4000000953674]","1","1","","","11013","12","2","2","win","no-go","0"
"pit-trial","130","1036170","0.0-16.0","battery-v0.2","","""event"",""trial"",""time""
""fullscreenenter"",""1"",""3180""
","
","
","""event"",""trial"",""time""
""fullscreenenter"",""1"",""3180""
","
","","","555.5","","","10","11013","4320","&#9752;","elianto","#f73b6a7A"," "," ","1","0","[1406.3999999761581]","1","1","","","11013","13","3","3","lose","go","0"
"pit-trial","131","1039629","0.0-17.0","battery-v0.2","","""event"",""trial"",""time""
""fullscreenenter"",""1"",""3180""
","
","
","""event"",""trial"",""time""
""fullscreenenter"",""1"",""3180""
","
","","","598.5","","","10","11013","4320","&#9733;","elianto","#3366ff99","-1"," ","0","0","[1449.6999999284744]","1","1","","","11013","14","2","2","win","no-go","0"
"pit-trial","132","1042976","0.0-18.0","battery-v0.2","","""event"",""trial"",""time""
""fullscreenenter"",""1"",""3180""
","
","
","""event"",""trial"",""time""
""fullscreenenter"",""1"",""3180""
","
","","","489.10000002384186","","","10","11013","4320","&#9728;","elianto","#f73b6a7A","-1"," ","0","-10","[1342.1000000238419]","1","1","","","11013","15","0","4","lose","no-go","0"
"pit-trial","133","1046273","0.0-19.0","battery-v0.2","","""event"",""trial"",""time""
""fullscreenenter"",""1"",""3180""
","
","
","""event"",""trial"",""time""
""fullscreenenter"",""1"",""3180""
","
","","","441.2000000476837","","","10","11013","4320","&#9730;","elianto","#3366ff99"," "," ","1","+10","[1291.8000000715256]","1","1","","","11013","16","1","1","win","go","0"
"pit-trial","134","1049634","0.0-20.0","battery-v0.2","","""event"",""trial"",""time""
""fullscreenenter"",""1"",""3180""
","
","
","""event"",""trial"",""time""
""fullscreenenter"",""1"",""3180""
","
","","","505.89999997615814","","","10","11013","4320","&#9730;","elianto","#3366ff99"," "," ","1","+10","[1356.1000000238419]","1","1","","","11013","17","1","1","win","go","0"
"pit-trial","135","1054499","0.0-21.0","battery-v0.2","","""event"",""trial"",""time""
""fullscreenenter"",""1"",""3180""
","
","
","""event"",""trial"",""time""
""fullscreenenter"",""1"",""3180""
","
","","","-1","","","10","11013","4320","&#9728;","elianto","#f73b6a7A","-1","-1","1","-10","[2998.399999976158]","1","1","","","11013","18","0","4","lose","no-go","1"
"pit-trial","136","1057751","0.0-22.0","battery-v0.2","","""event"",""trial"",""time""
""fullscreenenter"",""1"",""3180""
","
","
","""event"",""trial"",""time""
""fullscreenenter"",""1"",""3180""
","
","","","390.89999997615814","","","10","11013","4320","&#9752;","elianto","#f73b6a7A"," "," ","1","0","[1245.8999999761581]","1","1","","","11013","19","3","3","lose","go","0"
"pit-trial","137","1060949","0.0-23.0","battery-v0.2","","""event"",""trial"",""time""
""fullscreenenter"",""1"",""3180""
","
","
","""event"",""trial"",""time""
""fullscreenenter"",""1"",""3180""
","
","","","333.3000000715256","","","10","11013","4320","&#9733;","elianto","#3366ff99","-1"," ","0","0","[1186.8000000715256]","1","1","","","11013","20","2","2","win","no-go","0"
"pit-instructions","138","1125174","0.0-24.0","battery-v0.2","","""event"",""trial"",""time""
""fullscreenenter"",""1"",""3180""
","
","
","""event"",""trial"",""time""
""fullscreenenter"",""1"",""3180""
","
","","[{""page_index"":0,""viewing_time"":56160.799999952316},{""page_index"":1,""viewing_time"":8061.700000047684}]","64223","","","","","","","","","","","","","","","","","","","","","","","",""
"pit-trial","139","1129359","0.0-25.0","battery-v0.2","","""event"",""trial"",""time""
""fullscreenenter"",""1"",""3180""
","
","
","""event"",""trial"",""time""
""fullscreenenter"",""1"",""3180""
","
","","","1307.3000000715256","","","10","11013","4320","m","elianto","#f73b6a7A"," "," ","1","-10","[2167.3000000715256]","1","2","","","11013","21","0","3","lose","go","1"
"pit-trial","140","1132847","0.0-26.0","battery-v0.2","","""event"",""trial"",""time""
""fullscreenenter"",""1"",""3180""
","
","
","""event"",""trial"",""time""
""fullscreenenter"",""1"",""3180""
","
","","","618.5","","","10","11013","4320","r","elianto","#3366ff99","-1"," ","0","0","[1472.3999999761581]","1","2","","","11013","22","1","2","win","no-go","0"
"pit-trial","141","1136655","0.0-27.0","battery-v0.2","","""event"",""trial"",""time""
""fullscreenenter"",""1"",""3180""
","
","
","""event"",""trial"",""time""
""fullscreenenter"",""1"",""3180""
","
","","","946.7000000476837","","","10","11013","4320","h","elianto","#f73b6a7A","-1"," ","0","-10","[1802]","1","2","","","11013","23","3","4","lose","no-go","0"
"pit-trial","142","1140147","0.0-28.0","battery-v0.2","","""event"",""trial"",""time""
""fullscreenenter"",""1"",""3180""
","
","
","""event"",""trial"",""time""
""fullscreenenter"",""1"",""3180""
","
","","","633.2999999523163","","","10","11013","4320","y","elianto","#f73b6a7A"," "," ","1","0","[1487.6000000238419]","1","2","","","11013","24","2","3","lose","go","0"
"pit-trial","143","1143583","0.0-29.0","battery-v0.2","","""event"",""trial"",""time""
""fullscreenenter"",""1"",""3180""
","
","
","""event"",""trial"",""time""
""fullscreenenter"",""1"",""3180""
","
","","","566.1000000238419","","","10","11013","4320","r","elianto","#3366ff99","-1"," ","0","0","[1423.8999999761581]","1","2","","","11013","25","1","2","win","no-go","0"
"pit-trial","144","1148452","0.0-30.0","battery-v0.2","","""event"",""trial"",""time""
""fullscreenenter"",""1"",""3180""
","
","
","""event"",""trial"",""time""
""fullscreenenter"",""1"",""3180""
","
","","","-1","","","10","11013","4320","y","elianto","#f73b6a7A"," ","-1","0","-10","[]","0","2","","","11013","26","2","3","lose","go","0"
"pit-trial","145","1151691","0.0-31.0","battery-v0.2","","""event"",""trial"",""time""
""fullscreenenter"",""1"",""3180""
","
","
","""event"",""trial"",""time""
""fullscreenenter"",""1"",""3180""
","
","","","370.7000000476837","","","10","11013","4320","h","elianto","#f73b6a7A","-1"," ","0","0","[1221.5]","1","2","","","11013","27","3","4","lose","no-go","1"
"pit-trial","146","1154956","0.0-32.0","battery-v0.2","","""event"",""trial"",""time""
""fullscreenenter"",""1"",""3180""
","
","
","""event"",""trial"",""time""
""fullscreenenter"",""1"",""3180""
","
","","","397.89999997615814","","","10","11013","4320","m","elianto","#f73b6a7A"," "," ","1","0","[1256]","1","2","","","11013","28","0","3","lose","go","0"
"pit-trial","147","1158335","0.0-33.0","battery-v0.2","","""event"",""trial"",""time""
""fullscreenenter"",""1"",""3180""
","
","
","""event"",""trial"",""time""
""fullscreenenter"",""1"",""3180""
","
","","","521.1000000238419","","","10","11013","4320","r","elianto","#3366ff99","-1"," ","0","0","[1374.1999999284744]","1","2","","","11013","29","1","2","win","no-go","0"
"pit-trial","148","1162415","0.0-34.0","battery-v0.2","","""event"",""trial"",""time""
""fullscreenenter"",""1"",""3180""
","
","
","""event"",""trial"",""time""
""fullscreenenter"",""1"",""3180""
","
","","","1224","","","10","11013","4320","y","elianto","#f73b6a7A"," "," ","1","0","[2077]","1","2","","","11013","30","2","3","lose","go","0"
"pit-trial","149","1165749","0.0-35.0","battery-v0.2","","""event"",""trial"",""time""
""fullscreenenter"",""1"",""3180""
","
","
","""event"",""trial"",""time""
""fullscreenenter"",""1"",""3180""
","
","","","476.2000000476837","","","10","11013","4320","m","elianto","#f73b6a7A"," "," ","1","-10","[1331]","1","2","","","11013","31","0","3","lose","go","1"
"pit-trial","150","1169121","0.0-36.0","battery-v0.2","","""event"",""trial"",""time""
""fullscreenenter"",""1"",""3180""
","
","
","""event"",""trial"",""time""
""fullscreenenter"",""1"",""3180""
","
","","","516.5","","","10","11013","4320","h","elianto","#f73b6a7A","-1"," ","0","-10","[1367.2999999523163]","1","2","","","11013","32","3","4","lose","no-go","0"
"pit-trial","151","1173982","0.0-37.0","battery-v0.2","","""event"",""trial"",""time""
""fullscreenenter"",""1"",""3180""
","
","
","""event"",""trial"",""time""
""fullscreenenter"",""1"",""3180""
","
","","","-1","","","10","11013","4320","h","elianto","#f73b6a7A","-1","-1","1","0","[]","0","2","","","11013","33","3","4","lose","no-go","0"
"pit-trial","152","1177520","0.0-38.0","battery-v0.2","","""event"",""trial"",""time""
""fullscreenenter"",""1"",""3180""
","
","
","""event"",""trial"",""time""
""fullscreenenter"",""1"",""3180""
","
","","","678.1999999284744","","","10","11013","4320","m","elianto","#f73b6a7A"," "," ","1","0","[1528.7000000476837]","1","2","","","11013","34","0","3","lose","go","0"
"pit-trial","153","1180987","0.0-39.0","battery-v0.2","","""event"",""trial"",""time""
""fullscreenenter"",""1"",""3180""
","
","
","""event"",""trial"",""time""
""fullscreenenter"",""1"",""3180""
","
","","","604.5","","","10","11013","4320","r","elianto","#3366ff99","-1"," ","0","0","[1458.8999999761581]","1","2","","","11013","35","1","2","win","no-go","0"
"pit-trial","154","1184818","0.0-40.0","battery-v0.2","","""event"",""trial"",""time""
""fullscreenenter"",""1"",""3180""
","
","
","""event"",""trial"",""time""
""fullscreenenter"",""1"",""3180""
","
","","","970.5","","","10","11013","4320","y","elianto","#f73b6a7A"," "," ","1","0","[1822.1000000238419]","1","2","","","11013","36","2","3","lose","go","0"
"pit-trial","155","1188451","0.0-41.0","battery-v0.2","","""event"",""trial"",""time""
""fullscreenenter"",""1"",""3180""
","
","
","""event"",""trial"",""time""
""fullscreenenter"",""1"",""3180""
","
","","","770.9000000953674","","","10","11013","4320","m","elianto","#f73b6a7A"," "," ","1","0","[1623.8000000715256]","1","2","","","11013","37","0","3","lose","go","0"
"pit-trial","156","1192338","0.0-42.0","battery-v0.2","","""event"",""trial"",""time""
""fullscreenenter"",""1"",""3180""
","
","
","""event"",""trial"",""time""
""fullscreenenter"",""1"",""3180""
","
","","","1029.7000000476837","","","10","11013","4320","h","elianto","#f73b6a7A","-1"," ","0","-10","[1880]","1","2","","","11013","38","3","4","lose","no-go","0"
"pit-trial","157","1197199","0.0-43.0","battery-v0.2","","""event"",""trial"",""time""
""fullscreenenter"",""1"",""3180""
","
","
","""event"",""trial"",""time""
""fullscreenenter"",""1"",""3180""
","
","","","-1","","","10","11013","4320","r","elianto","#3366ff99","-1","-1","1","+10","[]","0","2","","","11013","39","1","2","win","no-go","0"
"pit-trial","158","1200700","0.0-44.0","battery-v0.2","","""event"",""trial"",""time""
""fullscreenenter"",""1"",""3180""
","
","
","""event"",""trial"",""time""
""fullscreenenter"",""1"",""3180""
","
","","","638.6000000238419","","","10","11013","4320","y","elianto","#f73b6a7A"," "," ","1","0","[1492.6000000238419]","1","2","","","11013","40","2","3","lose","go","0"
"pit-trial","159","1205562","0.0-45.0","battery-v0.2","","""event"",""trial"",""time""
""fullscreenenter"",""1"",""3180""
","
","
","""event"",""trial"",""time""
""fullscreenenter"",""1"",""3180""
","
","","","-1","","","10","11013","4320","h","elianto","#f73b6a7A","-1","-1","1","0","[]","0","2","","","11013","41","3","4","lose","no-go","0"
"pit-trial","160","1209216","0.0-46.0","battery-v0.2","","""event"",""trial"",""time""
""fullscreenenter"",""1"",""3180""
","
","
","""event"",""trial"",""time""
""fullscreenenter"",""1"",""3180""
","
","","","793.7999999523163","","","10","11013","4320","m","elianto","#f73b6a7A"," "," ","1","0","[1645.1999999284744]","1","2","","","11013","42","0","3","lose","go","0"
"pit-trial","161","1212709","0.0-47.0","battery-v0.2","","""event"",""trial"",""time""
""fullscreenenter"",""1"",""3180""
","
","
","""event"",""trial"",""time""
""fullscreenenter"",""1"",""3180""
","
","","","627.5","","","10","11013","4320","y","elianto","#f73b6a7A"," "," ","1","0","[1479.2999999523163]","1","2","","","11013","43","2","3","lose","go","0"
"pit-trial","162","1217569","0.0-48.0","battery-v0.2","","""event"",""trial"",""time""
""fullscreenenter"",""1"",""3180""
","
","
","""event"",""trial"",""time""
""fullscreenenter"",""1"",""3180""
","
","","","-1","","","10","11013","4320","r","elianto","#3366ff99","-1","-1","1","+10","[]","0","2","","","11013","44","1","2","win","no-go","0"
"pit-trial","163","1222432","0.0-49.0","battery-v0.2","","""event"",""trial"",""time""
""fullscreenenter"",""1"",""3180""
","
","
","""event"",""trial"",""time""
""fullscreenenter"",""1"",""3180""
","
","","","-1","","","10","11013","4320","r","elianto","#3366ff99","-1","-1","1","+10","[]","0","2","","","11013","45","1","2","win","no-go","0"
"pit-trial","164","1226140","0.0-50.0","battery-v0.2","","""event"",""trial"",""time""
""fullscreenenter"",""1"",""3180""
","
","
","""event"",""trial"",""time""
""fullscreenenter"",""1"",""3180""
","
","","","848.5999999046326","","","10","11013","4320","m","elianto","#f73b6a7A"," "," ","1","0","[1700.1999999284744]","1","2","","","11013","46","0","3","lose","go","0"
"pit-trial","165","1229528","0.0-51.0","battery-v0.2","","""event"",""trial"",""time""
""fullscreenenter"",""1"",""3180""
","
","
","""event"",""trial"",""time""
""fullscreenenter"",""1"",""3180""
","
","","","526.2999999523163","","","10","11013","4320","y","elianto","#f73b6a7A"," "," ","1","0","[1376.6999999284744]","1","2","","","11013","47","2","3","lose","go","0"
"pit-trial","166","1234393","0.0-52.0","battery-v0.2","","""event"",""trial"",""time""
""fullscreenenter"",""1"",""3180""
","
","
","""event"",""trial"",""time""
""fullscreenenter"",""1"",""3180""
","
","","","-1","","","10","11013","4320","h","elianto","#f73b6a7A","-1","-1","1","0","[]","0","2","","","11013","48","3","4","lose","no-go","0"
"pit-trial","167","1238013","0.0-53.0","battery-v0.2","","""event"",""trial"",""time""
""fullscreenenter"",""1"",""3180""
","
","
","""event"",""trial"",""time""
""fullscreenenter"",""1"",""3180""
","
","","","751.6999999284744","","","10","11013","4320","m","elianto","#f73b6a7A"," "," ","1","-10","[1602]","1","2","","","11013","49","0","3","lose","go","1"
"pit-trial","168","1242882","0.0-54.0","battery-v0.2","","""event"",""trial"",""time""
""fullscreenenter"",""1"",""3180""
","
","
","""event"",""trial"",""time""
""fullscreenenter"",""1"",""3180""
","
","","","-1","","","10","11013","4320","h","elianto","#f73b6a7A","-1","-1","1","-10","[]","0","2","","","11013","50","3","4","lose","no-go","1"
"pit-trial","169","1246501","0.0-55.0","battery-v0.2","","""event"",""trial"",""time""
""fullscreenenter"",""1"",""3180""
","
","
","""event"",""trial"",""time""
""fullscreenenter"",""1"",""3180""
","
","","","753.8999999761581","","","10","11013","4320","y","elianto","#f73b6a7A"," "," ","1","0","[1611.7999999523163]","1","2","","","11013","51","2","3","lose","go","0"
"pit-trial","170","1251364","0.0-56.0","battery-v0.2","","""event"",""trial"",""time""
""fullscreenenter"",""1"",""3180""
","
","
","""event"",""trial"",""time""
""fullscreenenter"",""1"",""3180""
","
","","","-1","","","10","11013","4320","r","elianto","#3366ff99","-1","-1","1","+10","[]","0","2","","","11013","52","1","2","win","no-go","0"
"pit-trial","171","1254933","0.0-57.0","battery-v0.2","","""event"",""trial"",""time""
""fullscreenenter"",""1"",""3180""
","
","
","""event"",""trial"",""time""
""fullscreenenter"",""1"",""3180""
","
","","","698.8000000715256","","","10","11013","4320","y","elianto","#f73b6a7A"," "," ","1","0","[1556.6000000238419]","1","2","","","11013","53","2","3","lose","go","0"
"pit-trial","172","1259788","0.0-58.0","battery-v0.2","","""event"",""trial"",""time""
""fullscreenenter"",""1"",""3180""
","
","
","""event"",""trial"",""time""
""fullscreenenter"",""1"",""3180""
","
","","","-1","","","10","11013","4320","r","elianto","#3366ff99","-1","-1","1","+10","[]","0","2","","","11013","54","1","2","win","no-go","0"
"pit-trial","173","1263647","0.0-59.0","battery-v0.2","","""event"",""trial"",""time""
""fullscreenenter"",""1"",""3180""
","
","
","""event"",""trial"",""time""
""fullscreenenter"",""1"",""3180""
","
","","","993","","","10","11013","4320","m","elianto","#f73b6a7A"," "," ","1","0","[1848.0999999046326]","1","2","","","11013","55","0","3","lose","go","0"
"pit-trial","174","1268510","0.0-60.0","battery-v0.2","","""event"",""trial"",""time""
""fullscreenenter"",""1"",""3180""
","
","
","""event"",""trial"",""time""
""fullscreenenter"",""1"",""3180""
","
","","","-1","","","10","11013","4320","h","elianto","#f73b6a7A","-1","-1","1","0","[2968]","1","2","","","11013","56","3","4","lose","no-go","0"
"pit-trial","175","1272012","0.0-61.0","battery-v0.2","","""event"",""trial"",""time""
""fullscreenenter"",""1"",""3180""
","
","
","""event"",""trial"",""time""
""fullscreenenter"",""1"",""3180""
","
","","","642.7999999523163","","","10","11013","4320","y","elianto","#f73b6a7A"," "," ","1","-10","[1494.8999999761581]","1","2","","","11013","57","2","3","lose","go","1"
"pit-trial","176","1275541","0.0-62.0","battery-v0.2","","""event"",""trial"",""time""
""fullscreenenter"",""1"",""3180""
","
","
","""event"",""trial"",""time""
""fullscreenenter"",""1"",""3180""
","
","","","665","","","10","11013","4320","z","elianto","#3366ff99"," "," ","1","0","[1520.3999999761581]","1","2","","","11013","58","4","1","win","go","1"
"pit-trial","177","1279337","0.0-63.0","battery-v0.2","","""event"",""trial"",""time""
""fullscreenenter"",""1"",""3180""
","
","
","""event"",""trial"",""time""
""fullscreenenter"",""1"",""3180""
","
","","","938.8999999761581","","","10","11013","4320","m","elianto","#f73b6a7A"," "," ","1","-10","[1792.1999999284744]","1","2","","","11013","59","0","3","lose","go","1"
"pit-trial","178","1284197","0.0-64.0","battery-v0.2","","""event"",""trial"",""time""
""fullscreenenter"",""1"",""3180""
","
","
","""event"",""trial"",""time""
""fullscreenenter"",""1"",""3180""
","
","","","-1","","","10","11013","4320","h","elianto","#f73b6a7A","-1","-1","1","0","[]","0","2","","","11013","60","3","4","lose","no-go","0"
"pit-trial","179","1289067","0.0-65.0","battery-v0.2","","""event"",""trial"",""time""
""fullscreenenter"",""1"",""3180""
","
","
","""event"",""trial"",""time""
""fullscreenenter"",""1"",""3180""
","
","","","-1","","","10","11013","4320","h","elianto","#f73b6a7A","-1","-1","1","-10","[]","0","2","","","11013","61","3","4","lose","no-go","1"
"pit-trial","180","1292545","0.0-66.0","battery-v0.2","","""event"",""trial"",""time""
""fullscreenenter"",""1"",""3180""
","
","
","""event"",""trial"",""time""
""fullscreenenter"",""1"",""3180""
","
","","","622.8999999761581","","","10","11013","4320","y","elianto","#f73b6a7A"," "," ","1","0","[1474.8000000715256]","1","2","","","11013","62","2","3","lose","go","0"
"pit-trial","181","1297419","0.0-67.0","battery-v0.2","","""event"",""trial"",""time""
""fullscreenenter"",""1"",""3180""
","
","
","""event"",""trial"",""time""
""fullscreenenter"",""1"",""3180""
","
","","","-1","","","10","11013","4320","r","elianto","#3366ff99","-1","-1","1","0","[]","0","2","","","11013","63","1","2","win","no-go","1"
"pit-trial","182","1301138","0.0-68.0","battery-v0.2","","""event"",""trial"",""time""
""fullscreenenter"",""1"",""3180""
","
","
","""event"",""trial"",""time""
""fullscreenenter"",""1"",""3180""
","
","","","861.5","","","10","11013","4320","z","elianto","#3366ff99"," "," ","1","+10","[1711.6000000238419]","1","2","","","11013","64","4","1","win","go","0"
"pit-trial","183","1305997","0.0-69.0","battery-v0.2","","""event"",""trial"",""time""
""fullscreenenter"",""1"",""3180""
","
","
","""event"",""trial"",""time""
""fullscreenenter"",""1"",""3180""
","
","","","-1","","","10","11013","4320","h","elianto","#f73b6a7A","-1","-1","1","0","[]","0","2","","","11013","65","3","4","lose","no-go","0"
"pit-trial","184","1309516","0.0-70.0","battery-v0.2","","""event"",""trial"",""time""
""fullscreenenter"",""1"",""3180""
","
","
","""event"",""trial"",""time""
""fullscreenenter"",""1"",""3180""
","
","","","662.1000000238419","","","10","11013","4320","z","elianto","#3366ff99"," "," ","1","+10","[1512.7000000476837]","1","2","","","11013","66","4","1","win","go","0"
"pit-trial","185","1314382","0.0-71.0","battery-v0.2","","""event"",""trial"",""time""
""fullscreenenter"",""1"",""3180""
","
","
","""event"",""trial"",""time""
""fullscreenenter"",""1"",""3180""
","
","","","-1","","","10","11013","4320","r","elianto","#3366ff99","-1","-1","1","+10","[]","0","2","","","11013","67","1","2","win","no-go","0"
"pit-trial","186","1318021","0.0-72.0","battery-v0.2","","""event"",""trial"",""time""
""fullscreenenter"",""1"",""3180""
","
","
","""event"",""trial"",""time""
""fullscreenenter"",""1"",""3180""
","
","","","779.2999999523163","","","10","11013","4320","c","elianto","#3366ff99","-1"," ","0","0","[1630.2999999523163]","1","2","","","11013","68","5","2","win","no-go","0"
"pit-trial","187","1321988","0.0-73.0","battery-v0.2","","""event"",""trial"",""time""
""fullscreenenter"",""1"",""3180""
","
","
","""event"",""trial"",""time""
""fullscreenenter"",""1"",""3180""
","
","","","1104.6000000238419","","","10","11013","4320","y","elianto","#f73b6a7A"," "," ","1","0","[1957.1000000238419]","1","2","","","11013","69","2","3","lose","go","0"
"pit-trial","188","1326855","0.0-74.0","battery-v0.2","","""event"",""trial"",""time""
""fullscreenenter"",""1"",""3180""
","
","
","""event"",""trial"",""time""
""fullscreenenter"",""1"",""3180""
","
","","","-1","","","10","11013","4320","r","elianto","#3366ff99","-1","-1","1","+10","[]","0","2","","","11013","70","1","2","win","no-go","0"
"pit-trial","189","1330645","0.0-75.0","battery-v0.2","","""event"",""trial"",""time""
""fullscreenenter"",""1"",""3180""
","
","
","""event"",""trial"",""time""
""fullscreenenter"",""1"",""3180""
","
","","","932.3999999761581","","","10","11013","4320","z","elianto","#3366ff99"," "," ","1","+10","[1784.1999999284744]","1","2","","","11013","71","4","1","win","go","0"
"pit-trial","190","1334470","0.0-76.0","battery-v0.2","","""event"",""trial"",""time""
""fullscreenenter"",""1"",""3180""
","
","
","""event"",""trial"",""time""
""fullscreenenter"",""1"",""3180""
","
","","","967","","","10","11013","4320","c","elianto","#3366ff99","-1"," ","0","0","[1822.0999999046326]","1","2","","","11013","72","5","2","win","no-go","0"
"pit-trial","191","1339339","0.0-77.0","battery-v0.2","","""event"",""trial"",""time""
""fullscreenenter"",""1"",""3180""
","
","
","""event"",""trial"",""time""
""fullscreenenter"",""1"",""3180""
","
","","","-1","","","10","11013","4320","c","elianto","#3366ff99","-1","-1","1","+10","[]","0","2","","","11013","73","5","2","win","no-go","0"
"pit-trial","192","1342919","0.0-78.0","battery-v0.2","","""event"",""trial"",""time""
""fullscreenenter"",""1"",""3180""
","
","
","""event"",""trial"",""time""
""fullscreenenter"",""1"",""3180""
","
","","","725","","","10","11013","4320","z","elianto","#3366ff99"," "," ","1","+10","[1576.7000000476837]","1","2","","","11013","74","4","1","win","go","0"
"pit-trial","193","1347774","0.0-79.0","battery-v0.2","","""event"",""trial"",""time""
""fullscreenenter"",""1"",""3180""
","
","
","""event"",""trial"",""time""
""fullscreenenter"",""1"",""3180""
","
","","","1990.2000000476837","","","10","11013","4320","h","elianto","#f73b6a7A","-1"," ","0","-10","[2848.399999976158]","1","2","","","11013","75","3","4","lose","no-go","0"
"pit-trial","194","1352635","0.0-80.0","battery-v0.2","","""event"",""trial"",""time""
""fullscreenenter"",""1"",""3180""
","
","
","""event"",""trial"",""time""
""fullscreenenter"",""1"",""3180""
","
","","","-1","","","10","11013","4320","r","elianto","#3366ff99","-1","-1","1","+10","[]","0","2","","","11013","76","1","2","win","no-go","0"
"pit-trial","195","1356339","0.0-81.0","battery-v0.2","","""event"",""trial"",""time""
""fullscreenenter"",""1"",""3180""
","
","
","""event"",""trial"",""time""
""fullscreenenter"",""1"",""3180""
","
","","","843.1000000238419","","","10","11013","4320","z","elianto","#3366ff99"," "," ","1","+10","[1699.3999999761581]","1","2","","","11013","77","4","1","win","go","0"
"pit-trial","196","1359986","0.0-82.0","battery-v0.2","","""event"",""trial"",""time""
""fullscreenenter"",""1"",""3180""
","
","
","""event"",""trial"",""time""
""fullscreenenter"",""1"",""3180""
","
","","","789","","","10","11013","4320","c","elianto","#3366ff99","-1"," ","0","0","[1643.5]","1","2","","","11013","78","5","2","win","no-go","0"
"pit-trial","197","1363869","0.0-83.0","battery-v0.2","","""event"",""trial"",""time""
""fullscreenenter"",""1"",""3180""
","
","
","""event"",""trial"",""time""
""fullscreenenter"",""1"",""3180""
","
","","","1029.1000000238419","","","10","11013","4320","z","elianto","#3366ff99"," "," ","1","+10","[1880.5]","1","2","","","11013","79","4","1","win","go","0"
"pit-trial","198","1367496","0.0-84.0","battery-v0.2","","""event"",""trial"",""time""
""fullscreenenter"",""1"",""3180""
","
","
","""event"",""trial"",""time""
""fullscreenenter"",""1"",""3180""
","
","","","767.6000000238419","","","10","11013","4320","h","elianto","#f73b6a7A","-1"," ","0","0","[1624.4000000953674]","1","2","","","11013","80","3","4","lose","no-go","1"
"pit-trial","199","1371022","0.0-85.0","battery-v0.2","","""event"",""trial"",""time""
""fullscreenenter"",""1"",""3180""
","
","
","""event"",""trial"",""time""
""fullscreenenter"",""1"",""3180""
","
","","","669.7000000476837","","","10","11013","4320","c","elianto","#3366ff99","-1"," ","0","0","[1520.8999999761581]","1","2","","","11013","81","5","2","win","no-go","0"
"pit-trial","200","1374428","0.0-86.0","battery-v0.2","","""event"",""trial"",""time""
""fullscreenenter"",""1"",""3180""
","
","
","""event"",""trial"",""time""
""fullscreenenter"",""1"",""3180""
","
","","","542.4000000953674","","","10","11013","4320","z","elianto","#3366ff99"," "," ","1","0","[1395.7000000476837]","1","2","","","11013","82","4","1","win","go","1"
"pit-trial","201","1378015","0.0-87.0","battery-v0.2","","""event"",""trial"",""time""
""fullscreenenter"",""1"",""3180""
","
","
","""event"",""trial"",""time""
""fullscreenenter"",""1"",""3180""
","
","","","725.1000000238419","","","10","11013","4320","h","elianto","#f73b6a7A","-1"," ","0","-10","[1575.3000000715256]","1","2","","","11013","83","3","4","lose","no-go","0"
"pit-trial","202","1381640","0.0-88.0","battery-v0.2","","""event"",""trial"",""time""
""fullscreenenter"",""1"",""3180""
","
","
","""event"",""trial"",""time""
""fullscreenenter"",""1"",""3180""
","
","","","762.2000000476837","","","10","11013","4320","t","elianto","#f73b6a7A","-1"," ","0","-10","[1615.1000000238419]","1","2","","","11013","84","7","4","lose","no-go","0"
"pit-trial","203","1385274","0.0-89.0","battery-v0.2","","""event"",""trial"",""time""
""fullscreenenter"",""1"",""3180""
","
","
","""event"",""trial"",""time""
""fullscreenenter"",""1"",""3180""
","
","","","775.2000000476837","","","10","11013","4320","b","elianto","#f73b6a7A"," "," ","1","0","[1630.1000000238419]","1","2","","","11013","85","6","3","lose","go","0"
"pit-trial","204","1388693","0.0-90.0","battery-v0.2","","""event"",""trial"",""time""
""fullscreenenter"",""1"",""3180""
","
","
","""event"",""trial"",""time""
""fullscreenenter"",""1"",""3180""
","
","","","551.6000000238419","","","10","11013","4320","c","elianto","#3366ff99","-1"," ","0","0","[1409.1000000238419]","1","2","","","11013","86","5","2","win","no-go","0"
"pit-trial","205","1392215","0.0-91.0","battery-v0.2","","""event"",""trial"",""time""
""fullscreenenter"",""1"",""3180""
","
","
","""event"",""trial"",""time""
""fullscreenenter"",""1"",""3180""
","
","","","652.8999999761581","","","10","11013","4320","t","elianto","#f73b6a7A","-1"," ","0","-10","[1504.1999999284744]","1","2","","","11013","87","7","4","lose","no-go","0"
"pit-trial","206","1395733","0.0-92.0","battery-v0.2","","""event"",""trial"",""time""
""fullscreenenter"",""1"",""3180""
","
","
","""event"",""trial"",""time""
""fullscreenenter"",""1"",""3180""
","
","","","658.7000000476837","","","10","11013","4320","z","elianto","#3366ff99"," "," ","1","0","[1513]","1","2","","","11013","88","4","1","win","go","1"
"pit-trial","207","1399342","0.0-93.0","battery-v0.2","","""event"",""trial"",""time""
""fullscreenenter"",""1"",""3180""
","
","
","""event"",""trial"",""time""
""fullscreenenter"",""1"",""3180""
","
","","","752.2999999523163","","","10","11013","4320","z","elianto","#3366ff99"," "," ","1","+10","[1606.1000000238419]","1","2","","","11013","89","4","1","win","go","0"
"pit-trial","208","1404209","0.0-94.0","battery-v0.2","","""event"",""trial"",""time""
""fullscreenenter"",""1"",""3180""
","
","
","""event"",""trial"",""time""
""fullscreenenter"",""1"",""3180""
","
","","","-1","","","10","11013","4320","c","elianto","#3366ff99","-1","-1","1","+10","[]","0","2","","","11013","90","5","2","win","no-go","0"
"pit-trial","209","1409067","0.0-95.0","battery-v0.2","","""event"",""trial"",""time""
""fullscreenenter"",""1"",""3180""
","
","
","""event"",""trial"",""time""
""fullscreenenter"",""1"",""3180""
","
","","","-1","","","10","11013","4320","t","elianto","#f73b6a7A","-1","-1","1","0","[]","0","2","","","11013","91","7","4","lose","no-go","0"
"pit-trial","210","1413929","0.0-96.0","battery-v0.2","","""event"",""trial"",""time""
""fullscreenenter"",""1"",""3180""
","
","
","""event"",""trial"",""time""
""fullscreenenter"",""1"",""3180""
","
","","","-1","","","10","11013","4320","b","elianto","#f73b6a7A"," ","-1","0","-10","[]","0","2","","","11013","92","6","3","lose","go","0"
"pit-trial","211","1417721","0.0-97.0","battery-v0.2","","""event"",""trial"",""time""
""fullscreenenter"",""1"",""3180""
","
","
","""event"",""trial"",""time""
""fullscreenenter"",""1"",""3180""
","
","","","930.9000000953674","","","10","11013","4320","b","elianto","#f73b6a7A"," "," ","1","0","[1782.2000000476837]","1","2","","","11013","93","6","3","lose","go","0"
"pit-trial","212","1422582","0.0-98.0","battery-v0.2","","""event"",""trial"",""time""
""fullscreenenter"",""1"",""3180""
","
","
","""event"",""trial"",""time""
""fullscreenenter"",""1"",""3180""
","
","","","-1","","","10","11013","4320","c","elianto","#3366ff99","-1","-1","1","+10","[]","0","2","","","11013","94","5","2","win","no-go","0"
"pit-trial","213","1427447","0.0-99.0","battery-v0.2","","""event"",""trial"",""time""
""fullscreenenter"",""1"",""3180""
","
","
","""event"",""trial"",""time""
""fullscreenenter"",""1"",""3180""
","
","","","-1","","","10","11013","4320","t","elianto","#f73b6a7A","-1","-1","1","-10","[]","0","2","","","11013","95","7","4","lose","no-go","1"
"pit-trial","214","1430961","0.0-100.0","battery-v0.2","","""event"",""trial"",""time""
""fullscreenenter"",""1"",""3180""
","
","
","""event"",""trial"",""time""
""fullscreenenter"",""1"",""3180""
","
","","","652.6000000238419","","","10","11013","4320","f","elianto","#3366ff99"," "," ","1","+10","[1507.1000000238419]","1","2","","","11013","96","8","1","win","go","0"
"pit-trial","215","1434516","0.0-101.0","battery-v0.2","","""event"",""trial"",""time""
""fullscreenenter"",""1"",""3180""
","
","
","""event"",""trial"",""time""
""fullscreenenter"",""1"",""3180""
","
","","","700.6000000238419","","","10","11013","4320","f","elianto","#3366ff99"," "," ","1","0","[1551.3999999761581]","1","2","","","11013","97","8","1","win","go","1"
"pit-trial","216","1439378","0.0-102.0","battery-v0.2","","""event"",""trial"",""time""
""fullscreenenter"",""1"",""3180""
","
","
","""event"",""trial"",""time""
""fullscreenenter"",""1"",""3180""
","
","","","-1","","","10","11013","4320","c","elianto","#3366ff99","-1","-1","1","+10","[]","0","2","","","11013","98","5","2","win","no-go","0"
"pit-trial","217","1444029","0.0-103.0","battery-v0.2","","""event"",""trial"",""time""
""fullscreenenter"",""1"",""3180""
","
","
","""event"",""trial"",""time""
""fullscreenenter"",""1"",""3180""
","
","","","1796","","","10","11013","4320","b","elianto","#f73b6a7A"," "," ","1","0","[2647.7000000476837]","1","2","","","11013","99","6","3","lose","go","0"
"pit-trial","218","1448889","0.0-104.0","battery-v0.2","","""event"",""trial"",""time""
""fullscreenenter"",""1"",""3180""
","
","
","""event"",""trial"",""time""
""fullscreenenter"",""1"",""3180""
","
","","","-1","","","10","11013","4320","t","elianto","#f73b6a7A","-1","-1","1","0","[]","0","2","","","11013","100","7","4","lose","no-go","0"
"pit-trial","219","1453763","0.0-105.0","battery-v0.2","","""event"",""trial"",""time""
""fullscreenenter"",""1"",""3180""
","
","
","""event"",""trial"",""time""
""fullscreenenter"",""1"",""3180""
","
","","","-1","","","10","11013","4320","c","elianto","#3366ff99","-1","-1","1","+10","[]","0","2","","","11013","101","5","2","win","no-go","0"
"pit-trial","220","1457432","0.0-106.0","battery-v0.2","","""event"",""trial"",""time""
""fullscreenenter"",""1"",""3180""
","
","
","""event"",""trial"",""time""
""fullscreenenter"",""1"",""3180""
","
","","","808.2999999523163","","","10","11013","4320","f","elianto","#3366ff99"," "," ","1","+10","[1659.7999999523163]","1","2","","","11013","102","8","1","win","go","0"
"pit-trial","221","1462296","0.0-107.0","battery-v0.2","","""event"",""trial"",""time""
""fullscreenenter"",""1"",""3180""
","
","
","""event"",""trial"",""time""
""fullscreenenter"",""1"",""3180""
","
","","","-1","","","10","11013","4320","t","elianto","#f73b6a7A","-1","-1","1","0","[]","0","2","","","11013","103","7","4","lose","no-go","0"
"pit-trial","222","1466005","0.0-108.0","battery-v0.2","","""event"",""trial"",""time""
""fullscreenenter"",""1"",""3180""
","
","
","""event"",""trial"",""time""
""fullscreenenter"",""1"",""3180""
","
","","","855.6999999284744","","","10","11013","4320","n","elianto","#3366ff99"," "," ","1","+10","[1705.8999999761581]","1","2","","","11013","104","9","1","win","go","0"
"pit-trial","223","1469501","0.0-109.0","battery-v0.2","","""event"",""trial"",""time""
""fullscreenenter"",""1"",""3180""
","
","
","""event"",""trial"",""time""
""fullscreenenter"",""1"",""3180""
","
","","","633.1000000238419","","","10","11013","4320","z","elianto","#3366ff99"," "," ","1","+10","[1485.7999999523163]","1","2","","","11013","105","4","1","win","go","0"
"pit-trial","224","1473023","0.0-110.0","battery-v0.2","","""event"",""trial"",""time""
""fullscreenenter"",""1"",""3180""
","
","
","""event"",""trial"",""time""
""fullscreenenter"",""1"",""3180""
","
","","","663.6000000238419","","","10","11013","4320","f","elianto","#3366ff99"," "," ","1","+10","[1516.1000000238419]","1","2","","","11013","106","8","1","win","go","0"
"pit-trial","225","1477182","0.0-111.0","battery-v0.2","","""event"",""trial"",""time""
""fullscreenenter"",""1"",""3180""
","
","
","""event"",""trial"",""time""
""fullscreenenter"",""1"",""3180""
","
","","","1293.8000000715256","","","10","11013","4320","b","elianto","#f73b6a7A"," "," ","1","0","[2150.2999999523163]","1","2","","","11013","107","6","3","lose","go","0"
"pit-trial","226","1480645","0.0-112.0","battery-v0.2","","""event"",""trial"",""time""
""fullscreenenter"",""1"",""3180""
","
","
","""event"",""trial"",""time""
""fullscreenenter"",""1"",""3180""
","
","","","605","","","10","11013","4320","n","elianto","#3366ff99"," "," ","1","+10","[1461.2000000476837]","1","2","","","11013","108","9","1","win","go","0"
"pit-trial","227","1485519","0.0-113.0","battery-v0.2","","""event"",""trial"",""time""
""fullscreenenter"",""1"",""3180""
","
","
","""event"",""trial"",""time""
""fullscreenenter"",""1"",""3180""
","
","","","-1","","","10","11013","4320","c","elianto","#3366ff99","-1","-1","1","+10","[]","0","2","","","11013","109","5","2","win","no-go","0"
"pit-trial","228","1489097","0.0-114.0","battery-v0.2","","""event"",""trial"",""time""
""fullscreenenter"",""1"",""3180""
","
","
","""event"",""trial"",""time""
""fullscreenenter"",""1"",""3180""
","
","","","720.3999999761581","","","10","11013","4320","n","elianto","#3366ff99"," "," ","1","+10","[1570.8999999761581]","1","2","","","11013","110","9","1","win","go","0"
"pit-trial","229","1492635","0.0-115.0","battery-v0.2","","""event"",""trial"",""time""
""fullscreenenter"",""1"",""3180""
","
","
","""event"",""trial"",""time""
""fullscreenenter"",""1"",""3180""
","
","","","678.1999999284744","","","10","11013","4320","b","elianto","#f73b6a7A"," "," ","1","0","[1535.3999999761581]","1","2","","","11013","111","6","3","lose","go","0"
"pit-trial","230","1496155","0.0-116.0","battery-v0.2","","""event"",""trial"",""time""
""fullscreenenter"",""1"",""3180""
","
","
","""event"",""trial"",""time""
""fullscreenenter"",""1"",""3180""
","
","","","657.1999999284744","","","10","11013","4320","f","elianto","#3366ff99"," "," ","1","+10","[1511.1999999284744]","1","2","","","11013","112","8","1","win","go","0"
"pit-trial","231","1499631","0.0-117.0","battery-v0.2","","""event"",""trial"",""time""
""fullscreenenter"",""1"",""3180""
","
","
","""event"",""trial"",""time""
""fullscreenenter"",""1"",""3180""
","
","","","615.6000000238419","","","10","11013","4320","f","elianto","#3366ff99"," "," ","1","+10","[1469.3000000715256]","1","2","","","11013","113","8","1","win","go","0"
"pit-trial","232","1503027","0.0-118.0","battery-v0.2","","""event"",""trial"",""time""
""fullscreenenter"",""1"",""3180""
","
","
","""event"",""trial"",""time""
""fullscreenenter"",""1"",""3180""
","
","","","532.4000000953674","","","10","11013","4320","c","elianto","#3366ff99","-1"," ","0","0","[1389.3000000715256]","1","2","","","11013","114","5","2","win","no-go","0"
"pit-trial","233","1506554","0.0-119.0","battery-v0.2","","""event"",""trial"",""time""
""fullscreenenter"",""1"",""3180""
","
","
","""event"",""trial"",""time""
""fullscreenenter"",""1"",""3180""
","
","","","667.1999999284744","","","10","11013","4320","b","elianto","#f73b6a7A"," "," ","1","0","[1518.3999999761581]","1","2","","","11013","115","6","3","lose","go","0"
"pit-trial","234","1510433","0.0-120.0","battery-v0.2","","""event"",""trial"",""time""
""fullscreenenter"",""1"",""3180""
","
","
","""event"",""trial"",""time""
""fullscreenenter"",""1"",""3180""
","
","","","1013.4000000953674","","","10","11013","4320","n","elianto","#3366ff99"," "," ","1","+10","[1868.2000000476837]","1","2","","","11013","116","9","1","win","go","0"
"pit-trial","235","1513890","0.0-121.0","battery-v0.2","","""event"",""trial"",""time""
""fullscreenenter"",""1"",""3180""
","
","
","""event"",""trial"",""time""
""fullscreenenter"",""1"",""3180""
","
","","","599.0999999046326","","","10","11013","4320","f","elianto","#3366ff99"," "," ","1","+10","[1451.8999999761581]","1","2","","","11013","117","8","1","win","go","0"
"pit-trial","236","1517800","0.0-122.0","battery-v0.2","","""event"",""trial"",""time""
""fullscreenenter"",""1"",""3180""
","
","
","""event"",""trial"",""time""
""fullscreenenter"",""1"",""3180""
","
","","","1049.3000000715256","","","10","11013","4320","n","elianto","#3366ff99"," "," ","1","+10","[1902.1000000238419]","1","2","","","11013","118","9","1","win","go","0"
"pit-trial","237","1521387","0.0-123.0","battery-v0.2","","""event"",""trial"",""time""
""fullscreenenter"",""1"",""3180""
","
","
","""event"",""trial"",""time""
""fullscreenenter"",""1"",""3180""
","
","","","726.6000000238419","","","10","11013","4320","b","elianto","#f73b6a7A"," "," ","1","0","[1579.7000000476837]","1","2","","","11013","119","6","3","lose","go","0"
"pit-trial","238","1526244","0.0-124.0","battery-v0.2","","""event"",""trial"",""time""
""fullscreenenter"",""1"",""3180""
","
","
","""event"",""trial"",""time""
""fullscreenenter"",""1"",""3180""
","
","","","-1","","","10","11013","4320","c","elianto","#3366ff99","-1","-1","1","0","[]","0","2","","","11013","120","5","2","win","no-go","1"
"pit-trial","239","1529980","0.0-125.0","battery-v0.2","","""event"",""trial"",""time""
""fullscreenenter"",""1"",""3180""
","
","
","""event"",""trial"",""time""
""fullscreenenter"",""1"",""3180""
","
","","","874.5","","","10","11013","4320","f","elianto","#3366ff99"," "," ","1","0","[1725.8999999761581]","1","2","","","11013","121","8","1","win","go","1"
"pit-trial","240","1533600","0.0-126.0","battery-v0.2","","""event"",""trial"",""time""
""fullscreenenter"",""1"",""3180""
","
","
","""event"",""trial"",""time""
""fullscreenenter"",""1"",""3180""
","
","","","761.8999999761581","","","10","11013","4320","b","elianto","#f73b6a7A"," "," ","1","0","[1612.2999999523163]","1","2","","","11013","122","6","3","lose","go","0"
"pit-trial","241","1538460","0.0-127.0","battery-v0.2","","""event"",""trial"",""time""
""fullscreenenter"",""1"",""3180""
","
","
","""event"",""trial"",""time""
""fullscreenenter"",""1"",""3180""
","
","","","-1","","","10","11013","4320","t","elianto","#f73b6a7A","-1","-1","1","-10","[]","0","2","","","11013","123","7","4","lose","no-go","1"
"pit-trial","242","1542046","0.0-128.0","battery-v0.2","","""event"",""trial"",""time""
""fullscreenenter"",""1"",""3180""
","
","
","""event"",""trial"",""time""
""fullscreenenter"",""1"",""3180""
","
","","","726.9000000953674","","","10","11013","4320","n","elianto","#3366ff99"," "," ","1","+10","[1579.1000000238419]","1","2","","","11013","124","9","1","win","go","0"
"pit-trial","243","1545665","0.0-129.0","battery-v0.2","","""event"",""trial"",""time""
""fullscreenenter"",""1"",""3180""
","
","
","""event"",""trial"",""time""
""fullscreenenter"",""1"",""3180""
","
","","","758.3999999761581","","","10","11013","4320","b","elianto","#f73b6a7A"," "," ","1","0","[1612.8999999761581]","1","2","","","11013","125","6","3","lose","go","0"
"pit-trial","244","1549054","0.0-130.0","battery-v0.2","","""event"",""trial"",""time""
""fullscreenenter"",""1"",""3180""
","
","
","""event"",""trial"",""time""
""fullscreenenter"",""1"",""3180""
","
","","","525.7000000476837","","","10","11013","4320","n","elianto","#3366ff99"," "," ","1","+10","[1379.1000000238419]","1","2","","","11013","126","9","1","win","go","0"
"pit-trial","245","1552467","0.0-131.0","battery-v0.2","","""event"",""trial"",""time""
""fullscreenenter"",""1"",""3180""
","
","
","""event"",""trial"",""time""
""fullscreenenter"",""1"",""3180""
","
","","","554","","","10","11013","4320","f","elianto","#3366ff99"," "," ","1","+10","[1405.6000000238419]","1","2","","","11013","127","8","1","win","go","0"
"pit-trial","246","1556138","0.0-132.0","battery-v0.2","","""event"",""trial"",""time""
""fullscreenenter"",""1"",""3180""
","
","
","""event"",""trial"",""time""
""fullscreenenter"",""1"",""3180""
","
","","","805.1000000238419","","","10","11013","4320","t","elianto","#f73b6a7A","-1"," ","0","-10","[1662.8999999761581]","1","2","","","11013","128","7","4","lose","no-go","0"
"pit-trial","247","1559679","0.0-133.0","battery-v0.2","","""event"",""trial"",""time""
""fullscreenenter"",""1"",""3180""
","
","
","""event"",""trial"",""time""
""fullscreenenter"",""1"",""3180""
","
","","","675.1999999284744","","","10","11013","4320","f","elianto","#3366ff99"," "," ","1","+10","[1530.3999999761581]","1","2","","","11013","129","8","1","win","go","0"
"pit-trial","248","1563370","0.0-134.0","battery-v0.2","","""event"",""trial"",""time""
""fullscreenenter"",""1"",""3180""
","
","
","""event"",""trial"",""time""
""fullscreenenter"",""1"",""3180""
","
","","","835","","","10","11013","4320","b","elianto","#f73b6a7A"," "," ","1","0","[1687.2999999523163]","1","2","","","11013","130","6","3","lose","go","0"
"pit-trial","249","1566838","0.0-135.0","battery-v0.2","","""event"",""trial"",""time""
""fullscreenenter"",""1"",""3180""
","
","
","""event"",""trial"",""time""
""fullscreenenter"",""1"",""3180""
","
","","","606.7000000476837","","","10","11013","4320","t","elianto","#f73b6a7A","-1"," ","0","-10","[1458.2999999523163]","1","2","","","11013","131","7","4","lose","no-go","0"
"pit-trial","250","1570591","0.0-136.0","battery-v0.2","","""event"",""trial"",""time""
""fullscreenenter"",""1"",""3180""
","
","
","""event"",""trial"",""time""
""fullscreenenter"",""1"",""3180""
","
","","","896.7999999523163","","","10","11013","4320","n","elianto","#3366ff99"," "," ","1","+10","[1748]","1","2","","","11013","132","9","1","win","go","0"
"pit-trial","251","1574217","0.0-137.0","battery-v0.2","","""event"",""trial"",""time""
""fullscreenenter"",""1"",""3180""
","
","
","""event"",""trial"",""time""
""fullscreenenter"",""1"",""3180""
","
","","","766.2999999523163","","","10","11013","4320","t","elianto","#f73b6a7A","-1"," ","0","0","[1617.0999999046326]","1","2","","","11013","133","7","4","lose","no-go","1"
"pit-trial","252","1577547","0.0-138.0","battery-v0.2","","""event"",""trial"",""time""
""fullscreenenter"",""1"",""3180""
","
","
","""event"",""trial"",""time""
""fullscreenenter"",""1"",""3180""
","
","","","469.5","","","10","11013","4320","n","elianto","#3366ff99"," "," ","1","+10","[1320.3999999761581]","1","2","","","11013","134","9","1","win","go","0"
"pit-trial","253","1581067","0.0-139.0","battery-v0.2","","""event"",""trial"",""time""
""fullscreenenter"",""1"",""3180""
","
","
","""event"",""trial"",""time""
""fullscreenenter"",""1"",""3180""
","
","","","663.6000000238419","","","10","11013","4320","b","elianto","#f73b6a7A"," "," ","1","0","[1515.3000000715256]","1","2","","","11013","135","6","3","lose","go","0"
"pit-trial","254","1584445","0.0-140.0","battery-v0.2","","""event"",""trial"",""time""
""fullscreenenter"",""1"",""3180""
","
","
","""event"",""trial"",""time""
""fullscreenenter"",""1"",""3180""
","
","","","518.2000000476837","","","10","11013","4320","f","elianto","#3366ff99"," "," ","1","+10","[1368.3999999761581]","1","2","","","11013","136","8","1","win","go","0"
"pit-trial","255","1588085","0.0-141.0","battery-v0.2","","""event"",""trial"",""time""
""fullscreenenter"",""1"",""3180""
","
","
","""event"",""trial"",""time""
""fullscreenenter"",""1"",""3180""
","
","","","781.0999999046326","","","10","11013","4320","b","elianto","#f73b6a7A"," "," ","1","0","[1633]","1","2","","","11013","137","6","3","lose","go","0"
"pit-trial","256","1591827","0.0-142.0","battery-v0.2","","""event"",""trial"",""time""
""fullscreenenter"",""1"",""3180""
","
","
","""event"",""trial"",""time""
""fullscreenenter"",""1"",""3180""
","
","","","885.2000000476837","","","10","11013","4320","t","elianto","#f73b6a7A","-1"," ","0","-10","[1737]","1","2","","","11013","138","7","4","lose","no-go","0"
"pit-trial","257","1595571","0.0-143.0","battery-v0.2","","""event"",""trial"",""time""
""fullscreenenter"",""1"",""3180""
","
","
","""event"",""trial"",""time""
""fullscreenenter"",""1"",""3180""
","
","","","883.3000000715256","","","10","11013","4320","f","elianto","#3366ff99"," "," ","1","0","[1737.5]","1","2","","","11013","139","8","1","win","go","1"
"pit-trial","258","1599025","0.0-144.0","battery-v0.2","","""event"",""trial"",""time""
""fullscreenenter"",""1"",""3180""
","
","
","""event"",""trial"",""time""
""fullscreenenter"",""1"",""3180""
","
","","","598.6000000238419","","","10","11013","4320","n","elianto","#3366ff99"," "," ","1","+10","[1449]","1","2","","","11013","140","9","1","win","go","0"
"pit-instructions","259","1624562","0.0-145.0","battery-v0.2","","""event"",""trial"",""time""
""fullscreenenter"",""1"",""3180""
","
","
","""event"",""trial"",""time""
""fullscreenenter"",""1"",""3180""
","
","","[{""page_index"":0,""viewing_time"":15726.5},{""page_index"":1,""viewing_time"":9808.100000023842}]","25535.299999952316","","","","","","","","","","","","","","","","","","","","","","","",""
"pit-trial","260","1628202","0.0-146.0","battery-v0.2","","""event"",""trial"",""time""
""fullscreenenter"",""1"",""3180""
","
","
","""event"",""trial"",""time""
""fullscreenenter"",""1"",""3180""
","
","","","765.8000000715256","","","10","11013","4320","g","elianto","#f73b6a7A"," "," ","1","0","[1616.7999999523163]","1","3","","","11013","141","3","3","lose","go","0"
"pit-trial","261","1631755","0.0-147.0","battery-v0.2","","""event"",""trial"",""time""
""fullscreenenter"",""1"",""3180""
","
","
","""event"",""trial"",""time""
""fullscreenenter"",""1"",""3180""
","
","","","684","","","10","11013","4320","l","elianto","#3366ff99"," "," ","1","+10","[1539]","1","3","","","11013","142","1","1","win","go","0"
"pit-trial","262","1635523","0.0-148.0","battery-v0.2","","""event"",""trial"",""time""
""fullscreenenter"",""1"",""3180""
","
","
","""event"",""trial"",""time""
""fullscreenenter"",""1"",""3180""
","
","","","902.3999999761581","","","10","11013","4320","u","elianto","#f73b6a7A","-1"," ","0","-10","[1755.5]","1","3","","","11013","143","0","4","lose","no-go","0"
"pit-trial","263","1639117","0.0-149.0","battery-v0.2","","""event"",""trial"",""time""
""fullscreenenter"",""1"",""3180""
","
","
","""event"",""trial"",""time""
""fullscreenenter"",""1"",""3180""
","
","","","726.8999999761581","","","10","11013","4320","a","elianto","#f73b6a7A","-1"," ","0","-10","[1585.7999999523163]","1","3","","","11013","144","2","4","lose","no-go","0"
"pit-trial","264","1643963","0.0-150.0","battery-v0.2","","""event"",""trial"",""time""
""fullscreenenter"",""1"",""3180""
","
