"trial_type","trial_index","time_elapsed","internal_node_id","task_version","subject_id","interactions","blur_events","focus_events","fullscreenenter_events","fullscreenexit_events","success","view_history","rt","responses","num_errors","age","subject","participantId","rune","rune_set","hex","correct","choice","accuracy","outcome","keys","total_keys","block","practice","value","sub","trial","stimulus","robot","valence","action","sham"
"pavlovia","0","13","0.0-0.0","battery-v0.2","","""event"",""trial"",""time""
""fullscreenenter"",""1"",""6036""
","
","
","""event"",""trial"",""time""
""fullscreenenter"",""1"",""6036""
","
","","","","","","","","","","","","","","","","","","","","","","","","","","",""
"fullscreen","1","7014","0.0-1.0","battery-v0.2","","""event"",""trial"",""time""
""fullscreenenter"",""1"",""6036""
","
","
","""event"",""trial"",""time""
""fullscreenenter"",""1"",""6036""
","
","true","","","","","","","","","","","","","","","","","","","","","","","","","",""
"pit-instructions","2","13497","0.0-2.0-0.0","battery-v0.2","","""event"",""trial"",""time""
""fullscreenenter"",""1"",""6036""
","
","
","""event"",""trial"",""time""
""fullscreenenter"",""1"",""6036""
","
","","[{""page_index"":0,""viewing_time"":6475.700000047684}]","6476.700000047684","","","","","","","","","","","","","","","","","","","","","","","",""
"pit-comprehension","3","16796","0.0-2.0-1.0-0.0","battery-v0.2","","""event"",""trial"",""time""
""fullscreenenter"",""1"",""6036""
","
","
","""event"",""trial"",""time""
""fullscreenenter"",""1"",""6036""
","
","","","3292.100000023842","[""shark""]","0","20","8548","4162","","","","","","","","","","","","","","","","","","",""
"pit-instructions","4","22870","0.0-2.0-1.0-1.0","battery-v0.2","","""event"",""trial"",""time""
""fullscreenenter"",""1"",""6036""
","
","
","""event"",""trial"",""time""
""fullscreenenter"",""1"",""6036""
","
","","[{""page_index"":0,""viewing_time"":6053.199999988079}]","6054","","","","","","","","","","","","","","","","","","","","","","","",""
"pit-comprehension","5","26267","0.0-2.0-2.0-0.0","battery-v0.2","","""event"",""trial"",""time""
""fullscreenenter"",""1"",""6036""
","
","
","""event"",""trial"",""time""
""fullscreenenter"",""1"",""6036""
","
","","","3390.900000035763","[""tiger""]","0","20","8548","4162","","","","","","","","","","","","","","","","","","",""
"pit-instructions","6","26940","0.0-2.0-2.0-1.0","battery-v0.2","","""event"",""trial"",""time""
""fullscreenenter"",""1"",""6036""
","
","
","""event"",""trial"",""time""
""fullscreenenter"",""1"",""6036""
","
","","[{""page_index"":0,""viewing_time"":662.0999999642372}]","663","","","","","","","","","","","","","","","","","","","","","","","",""
"pit-instructions","7","123129","0.0-2.0-3.0","battery-v0.2","","""event"",""trial"",""time""
""fullscreenenter"",""1"",""6036""
","
","
","""event"",""trial"",""time""
""fullscreenenter"",""1"",""6036""
","
","","[{""page_index"":0,""viewing_time"":7673},{""page_index"":1,""viewing_time"":5875.899999976158},{""page_index"":2,""viewing_time"":6145.400000035763},{""page_index"":3,""viewing_time"":5994.800000011921},{""page_index"":4,""viewing_time"":5190.699999988079},{""page_index"":5,""viewing_time"":5658.199999988079},{""page_index"":6,""viewing_time"":6282.699999988079},{""page_index"":7,""viewing_time"":7234.199999988079},{""page_index"":8,""viewing_time"":6276.800000011921},{""page_index"":9,""viewing_time"":12085.699999988079},{""page_index"":10,""viewing_time"":7340.600000023842},{""page_index"":11,""viewing_time"":7045.5},{""page_index"":12,""viewing_time"":7910.899999976158},{""page_index"":13,""viewing_time"":5466.200000047684}]","96181.60000002384","","","","","","","","","","","","","","","","","","","","","","","",""
"pit-trial","8","126614","0.0-2.0-4.0-0.0","battery-v0.2","","""event"",""trial"",""time""
""fullscreenenter"",""1"",""6036""
","
","
","""event"",""trial"",""time""
""fullscreenenter"",""1"",""6036""
","
","","","626","","","20","8548","4162","&#9784;","elianto","#FFFFF080"," "," ","1","&#10004","[1476.8999999761581]","1","0","0","","","","","","","",""
"pit-trial","9","130077","0.0-2.0-4.1-0.1","battery-v0.2","","""event"",""trial"",""time""
""fullscreenenter"",""1"",""6036""
","
","
","""event"",""trial"",""time""
""fullscreenenter"",""1"",""6036""
","
","","","606.2999999523163","","","20","8548","4162","&#9784;","elianto","#FFFFF080"," "," ","1","&#10004","[1456.800000011921]","1","0","0","","","","","","","",""
"pit-trial","10","133327","0.0-2.0-4.2-0.2","battery-v0.2","","""event"",""trial"",""time""
""fullscreenenter"",""1"",""6036""
","
","
","""event"",""trial"",""time""
""fullscreenenter"",""1"",""6036""
","
","","","394.19999998807907","","","20","8548","4162","&#9784;","elianto","#FFFFF080"," "," ","1","&#10004","[1244.8999999761581]","1","0","0","","","","","","","",""
"pit-trial","11","136542","0.0-2.0-4.3-0.3","battery-v0.2","","""event"",""trial"",""time""
""fullscreenenter"",""1"",""6036""
","
","
","""event"",""trial"",""time""
""fullscreenenter"",""1"",""6036""
","
","","","356.89999997615814","","","20","8548","4162","&#9784;","elianto","#FFFFF080"," "," ","1","&#10004","[1209.699999988079]","1","0","0","","","","","","","",""
"pit-trial","12","139717","0.0-2.0-4.4-0.4","battery-v0.2","","""event"",""trial"",""time""
""fullscreenenter"",""1"",""6036""
","
","
","""event"",""trial"",""time""
""fullscreenenter"",""1"",""6036""
","
","","","317.0999999642372","","","20","8548","4162","&#9784;","elianto","#FFFFF080"," "," ","1","&#10004","[1168.4000000357628]","1","0","0","","","","","","","",""
"pit-instructions","13","160837","0.0-2.0-5.0","battery-v0.2","","""event"",""trial"",""time""
""fullscreenenter"",""1"",""6036""
","
","
","""event"",""trial"",""time""
""fullscreenenter"",""1"",""6036""
","
","","[{""page_index"":0,""viewing_time"":4806.5},{""page_index"":1,""viewing_time"":5682.400000035763},{""page_index"":2,""viewing_time"":4696.199999988079},{""page_index"":3,""viewing_time"":5929.300000011921}]","21115.200000047684","","","","","","","","","","","","","","","","","","","","","","","",""
"pit-trial","14","165694","0.0-2.0-6.0-0.0","battery-v0.2","","""event"",""trial"",""time""
""fullscreenenter"",""1"",""6036""
","
","
","""event"",""trial"",""time""
""fullscreenenter"",""1"",""6036""
","
","","","-1","","","20","8548","4162","&#9854;","elianto","#FFFFF080","-1","-1","1","&#10004","[]","0","0","1","","","","","","","",""
"pit-trial","15","170553","0.0-2.0-6.1-0.1","battery-v0.2","","""event"",""trial"",""time""
""fullscreenenter"",""1"",""6036""
","
","
","""event"",""trial"",""time""
""fullscreenenter"",""1"",""6036""
","
","","","-1","","","20","8548","4162","&#9854;","elianto","#FFFFF080","-1","-1","1","&#10004","[]","0","0","1","","","","","","","",""
"pit-trial","16","175412","0.0-2.0-6.2-0.2","battery-v0.2","","""event"",""trial"",""time""
""fullscreenenter"",""1"",""6036""
","
","
","""event"",""trial"",""time""
""fullscreenenter"",""1"",""6036""
","
","","","-1","","","20","8548","4162","&#9854;","elianto","#FFFFF080","-1","-1","1","&#10004","[]","0","0","1","","","","","","","",""
"pit-trial","17","180272","0.0-2.0-6.3-0.3","battery-v0.2","","""event"",""trial"",""time""
""fullscreenenter"",""1"",""6036""
","
","
","""event"",""trial"",""time""
""fullscreenenter"",""1"",""6036""
","
","","","-1","","","20","8548","4162","&#9854;","elianto","#FFFFF080","-1","-1","1","&#10004","[]","0","0","1","","","","","","","",""
"pit-trial","18","185128","0.0-2.0-6.4-0.4","battery-v0.2","","""event"",""trial"",""time""
""fullscreenenter"",""1"",""6036""
","
","
","""event"",""trial"",""time""
""fullscreenenter"",""1"",""6036""
","
","","","-1","","","20","8548","4162","&#9854;","elianto","#FFFFF080","-1","-1","1","&#10004","[]","0","0","1","","","","","","","",""
"pit-instructions","19","315378","0.0-2.0-7.0","battery-v0.2","","""event"",""trial"",""time""
""fullscreenenter"",""1"",""6036""
","
","
","""event"",""trial"",""time""
""fullscreenenter"",""1"",""6036""
","
","","[{""page_index"":0,""viewing_time"":7030.600000023842},{""page_index"":1,""viewing_time"":6827.099999964237},{""page_index"":2,""viewing_time"":5778.800000011921},{""page_index"":3,""viewing_time"":5961.100000023842},{""page_index"":4,""viewing_time"":5912.299999952316},{""page_index"":5,""viewing_time"":5572.200000047684},{""page_index"":6,""viewing_time"":4239.399999976158},{""page_index"":7,""viewing_time"":7839.800000011921},{""page_index"":8,""viewing_time"":7447.199999988079},{""page_index"":9,""viewing_time"":6227.800000011921},{""page_index"":10,""viewing_time"":7397.199999988079},{""page_index"":11,""viewing_time"":4327.699999988079},{""page_index"":12,""viewing_time"":6871.5},{""page_index"":13,""viewing_time"":10568.800000011921},{""page_index"":14,""viewing_time"":9919.100000023842},{""page_index"":15,""viewing_time"":6463.599999964237},{""page_index"":16,""viewing_time"":8630.400000035763},{""page_index"":17,""viewing_time"":13229.799999952316}]","130245.30000001192","","","","","","","","","","","","","","","","","","","","","","","",""
"pit-trial","20","319146","0.0-2.0-8.0-0.0","battery-v0.2","","""event"",""trial"",""time""
""fullscreenenter"",""1"",""6036""
","
","
","""event"",""trial"",""time""
""fullscreenenter"",""1"",""6036""
","
","","","911.1999999880791","","","20","8548","4162","&#9776;","elianto","#3366ff99"," "," ","1","+10","[1763.300000011921]","1","0","1","","","","","","","",""
"pit-trial","21","322467","0.0-2.0-8.0-1.0","battery-v0.2","","""event"",""trial"",""time""
""fullscreenenter"",""1"",""6036""
","
","
","""event"",""trial"",""time""
""fullscreenenter"",""1"",""6036""
","
","","","463.10000002384186","","","20","8548","4162","&#9776;","elianto","#3366ff99"," "," ","1","+10","[1314.5]","1","0","1","","","","","","","",""
"pit-trial","22","325711","0.0-2.0-8.0-2.0","battery-v0.2","","""event"",""trial"",""time""
""fullscreenenter"",""1"",""6036""
","
","
","""event"",""trial"",""time""
""fullscreenenter"",""1"",""6036""
","
","","","386.69999998807907","","","20","8548","4162","&#9776;","elianto","#3366ff99"," "," ","1","+10","[1238.5]","1","0","1","","","","","","","",""
"pit-trial","23","328928","0.0-2.0-8.0-3.0","battery-v0.2","","""event"",""trial"",""time""
""fullscreenenter"",""1"",""6036""
","
","
","""event"",""trial"",""time""
""fullscreenenter"",""1"",""6036""
","
","","","361.19999998807907","","","20","8548","4162","&#9776;","elianto","#3366ff99"," "," ","1","0","[1211.800000011921]","1","0","1","","","","","","","",""
"pit-trial","24","332287","0.0-2.0-8.0-4.0","battery-v0.2","","""event"",""trial"",""time""
""fullscreenenter"",""1"",""6036""
","
","
","""event"",""trial"",""time""
""fullscreenenter"",""1"",""6036""
","
","","","504.5999999642372","","","20","8548","4162","&#9776;","elianto","#3366ff99"," "," ","1","+10","[1356]","1","0","1","","","","","","","",""
"pit-trial","25","335554","0.0-2.0-8.1-0.1","battery-v0.2","","""event"",""trial"",""time""
""fullscreenenter"",""1"",""6036""
","
","
","""event"",""trial"",""time""
""fullscreenenter"",""1"",""6036""
","
","","","407.69999998807907","","","20","8548","4162","&#9776;","elianto","#3366ff99"," "," ","1","+10","[1259.300000011921]","1","0","1","","","","","","","",""
"pit-trial","26","338786","0.0-2.0-8.1-1.1","battery-v0.2","","""event"",""trial"",""time""
""fullscreenenter"",""1"",""6036""
","
","
","""event"",""trial"",""time""
""fullscreenenter"",""1"",""6036""
","
","","","375.89999997615814","","","20","8548","4162","&#9776;","elianto","#3366ff99"," "," ","1","+10","[1227.699999988079]","1","0","1","","","","","","","",""
"pit-trial","27","342021","0.0-2.0-8.1-2.1","battery-v0.2","","""event"",""trial"",""time""
""fullscreenenter"",""1"",""6036""
","
","
","""event"",""trial"",""time""
""fullscreenenter"",""1"",""6036""
","
","","","379.80000001192093","","","20","8548","4162","&#9776;","elianto","#3366ff99"," "," ","1","+10","[1230.300000011921]","1","0","1","","","","","","","",""
"pit-trial","28","345240","0.0-2.0-8.1-3.1","battery-v0.2","","""event"",""trial"",""time""
""fullscreenenter"",""1"",""6036""
","
","
","""event"",""trial"",""time""
""fullscreenenter"",""1"",""6036""
","
","","","364.2000000476837","","","20","8548","4162","&#9776;","elianto","#3366ff99"," "," ","1","0","[1215.2000000476837]","1","0","1","","","","","","","",""
"pit-trial","29","348580","0.0-2.0-8.1-4.1","battery-v0.2","","""event"",""trial"",""time""
""fullscreenenter"",""1"",""6036""
","
","
","""event"",""trial"",""time""
""fullscreenenter"",""1"",""6036""
","
","","","485.4000000357628","","","20","8548","4162","&#9776;","elianto","#3366ff99"," "," ","1","+10","[1335.4000000357628]","1","0","1","","","","","","","",""
"pit-trial","30","351807","0.0-2.0-8.2-0.2","battery-v0.2","","""event"",""trial"",""time""
""fullscreenenter"",""1"",""6036""
","
","
","""event"",""trial"",""time""
""fullscreenenter"",""1"",""6036""
","
","","","372","","","20","8548","4162","&#9776;","elianto","#3366ff99"," "," ","1","+10","[1222]","1","0","1","","","","","","","",""
"pit-trial","31","355087","0.0-2.0-8.2-1.2","battery-v0.2","","""event"",""trial"",""time""
""fullscreenenter"",""1"",""6036""
","
","
","""event"",""trial"",""time""
""fullscreenenter"",""1"",""6036""
","
","","","418.5999999642372","","","20","8548","4162","&#9776;","elianto","#3366ff99"," "," ","1","+10","[1275.800000011921]","1","0","1","","","","","","","",""
"pit-trial","32","358276","0.0-2.0-8.2-2.2","battery-v0.2","","""event"",""trial"",""time""
""fullscreenenter"",""1"",""6036""
","
","
","""event"",""trial"",""time""
""fullscreenenter"",""1"",""6036""
","
","","","335.5999999642372","","","20","8548","4162","&#9776;","elianto","#3366ff99"," "," ","1","+10","[1186.1000000238419]","1","0","1","","","","","","","",""
"pit-trial","33","361705","0.0-2.0-8.2-3.2","battery-v0.2","","""event"",""trial"",""time""
""fullscreenenter"",""1"",""6036""
","
","
","""event"",""trial"",""time""
""fullscreenenter"",""1"",""6036""
","
","","","574.9000000357628","","","20","8548","4162","&#9776;","elianto","#3366ff99"," "," ","1","0","[1425]","1","0","1","","","","","","","",""
"pit-trial","34","364933","0.0-2.0-8.2-4.2","battery-v0.2","","""event"",""trial"",""time""
""fullscreenenter"",""1"",""6036""
","
","
","""event"",""trial"",""time""
""fullscreenenter"",""1"",""6036""
","
","","","374.5","","","20","8548","4162","&#9776;","elianto","#3366ff99"," "," ","1","+10","[1224.7999999523163]","1","0","1","","","","","","","",""
"call-function","35","364936","0.0-2.0-9.0","battery-v0.2","","""event"",""trial"",""time""
""fullscreenenter"",""1"",""6036""
","
","
","""event"",""trial"",""time""
""fullscreenenter"",""1"",""6036""
","
","","","","","","","","","","","","","","","","","","","","","","","","","","",""
"pit-instructions","36","403451","0.0-2.0-10.0","battery-v0.2","","""event"",""trial"",""time""
""fullscreenenter"",""1"",""6036""
","
","
","""event"",""trial"",""time""
""fullscreenenter"",""1"",""6036""
","
","","[{""page_index"":0,""viewing_time"":6306.799999952316},{""page_index"":1,""viewing_time"":6783.600000023842},{""page_index"":2,""viewing_time"":9464.399999976158},{""page_index"":3,""viewing_time"":8334.5},{""page_index"":4,""viewing_time"":7624.700000047684}]","38514.799999952316","","","","","","","","","","","","","","","","","","","","","","","",""
"pit-trial","37","406971","0.0-2.0-11.0-0.0","battery-v0.2","","""event"",""trial"",""time""
""fullscreenenter"",""1"",""6036""
","
","
","""event"",""trial"",""time""
""fullscreenenter"",""1"",""6036""
","
","","","661.8000000119209","","","20","8548","4162","&#9761;","elianto","#3366ff99","-1"," ","0","0","[1513.6000000238419]","1","0","2","","","","","","","",""
"pit-trial","38","410225","0.0-2.0-11.0-1.0","battery-v0.2","","""event"",""trial"",""time""
""fullscreenenter"",""1"",""6036""
","
","
","""event"",""trial"",""time""
""fullscreenenter"",""1"",""6036""
","
","","","397.9000000357628","","","20","8548","4162","&#9761;","elianto","#3366ff99","-1"," ","0","0","[1249.800000011921]","1","0","2","","","","","","","",""
"pit-trial","39","413640","0.0-2.0-11.0-2.0","battery-v0.2","","""event"",""trial"",""time""
""fullscreenenter"",""1"",""6036""
","
","
","""event"",""trial"",""time""
""fullscreenenter"",""1"",""6036""
","
","","","559.1000000238419","","","20","8548","4162","&#9761;","elianto","#3366ff99","-1"," ","0","0","[1409.199999988079]","1","0","2","","","","","","","",""
"pit-trial","40","417432","0.0-2.0-11.0-3.0","battery-v0.2","","""event"",""trial"",""time""
""fullscreenenter"",""1"",""6036""
","
","
","""event"",""trial"",""time""
""fullscreenenter"",""1"",""6036""
","
","","","935.1000000238419","","","20","8548","4162","&#9761;","elianto","#3366ff99","-1"," ","0","+10","[1787.4000000357628]","1","0","2","","","","","","","",""
"pit-trial","41","420679","0.0-2.0-11.0-4.0","battery-v0.2","","""event"",""trial"",""time""
""fullscreenenter"",""1"",""6036""
","
","
","""event"",""trial"",""time""
""fullscreenenter"",""1"",""6036""
","
","","","391.4000000357628","","","20","8548","4162","&#9761;","elianto","#3366ff99","-1"," ","0","0","[1242.300000011921]","1","0","2","","","","","","","",""
"pit-trial","42","423958","0.0-2.0-11.1-0.1","battery-v0.2","","""event"",""trial"",""time""
""fullscreenenter"",""1"",""6036""
","
","
","""event"",""trial"",""time""
""fullscreenenter"",""1"",""6036""
","
","","","423.10000002384186","","","20","8548","4162","&#9761;","elianto","#3366ff99","-1"," ","0","0","[1273.5]","1","0","2","","","","","","","",""
"pit-trial","43","427182","0.0-2.0-11.1-1.1","battery-v0.2","","""event"",""trial"",""time""
""fullscreenenter"",""1"",""6036""
","
","
","""event"",""trial"",""time""
""fullscreenenter"",""1"",""6036""
","
","","","366.5","","","20","8548","4162","&#9761;","elianto","#3366ff99","-1"," ","0","0","[1217.6000000238419]","1","0","2","","","","","","","",""
"pit-trial","44","431240","0.0-2.0-11.1-2.1","battery-v0.2","","""event"",""trial"",""time""
""fullscreenenter"",""1"",""6036""
","
","
","""event"",""trial"",""time""
""fullscreenenter"",""1"",""6036""
","
","","","1200.199999988079","","","20","8548","4162","&#9761;","elianto","#3366ff99","-1"," ","0","0","[2051.900000035763]","1","0","2","","","","","","","",""
"pit-trial","45","434747","0.0-2.0-11.1-3.1","battery-v0.2","","""event"",""trial"",""time""
""fullscreenenter"",""1"",""6036""
","
","
","""event"",""trial"",""time""
""fullscreenenter"",""1"",""6036""
","
","","","651.8000000119209","","","20","8548","4162","&#9761;","elianto","#3366ff99","-1"," ","0","+10","[1502.8999999761581]","1","0","2","","","","","","","",""
"pit-trial","46","437912","0.0-2.0-11.1-4.1","battery-v0.2","","""event"",""trial"",""time""
""fullscreenenter"",""1"",""6036""
","
","
","""event"",""trial"",""time""
""fullscreenenter"",""1"",""6036""
","
","","","309.10000002384186","","","20","8548","4162","&#9761;","elianto","#3366ff99","-1"," ","0","0","[1161.800000011921]","1","0","2","","","","","","","",""
"pit-trial","47","441122","0.0-2.0-11.2-0.2","battery-v0.2","","""event"",""trial"",""time""
""fullscreenenter"",""1"",""6036""
","
","
","""event"",""trial"",""time""
""fullscreenenter"",""1"",""6036""
","
","","","353.60000002384186","","","20","8548","4162","&#9761;","elianto","#3366ff99","-1"," ","0","0","[1204.199999988079]","1","0","2","","","","","","","",""
"pit-trial","48","444410","0.0-2.0-11.2-1.2","battery-v0.2","","""event"",""trial"",""time""
""fullscreenenter"",""1"",""6036""
","
","
","""event"",""trial"",""time""
""fullscreenenter"",""1"",""6036""
","
","","","434.2999999523163","","","20","8548","4162","&#9761;","elianto","#3366ff99","-1"," ","0","0","[1284.199999988079]","1","0","2","","","","","","","",""
"pit-trial","49","447892","0.0-2.0-11.2-2.2","battery-v0.2","","""event"",""trial"",""time""
""fullscreenenter"",""1"",""6036""
","
","
","""event"",""trial"",""time""
""fullscreenenter"",""1"",""6036""
","
","","","627.3000000119209","","","20","8548","4162","&#9761;","elianto","#3366ff99","-1"," ","0","0","[1478.5]","1","0","2","","","","","","","",""
"pit-trial","50","451237","0.0-2.0-11.2-3.2","battery-v0.2","","""event"",""trial"",""time""
""fullscreenenter"",""1"",""6036""
","
","
","""event"",""trial"",""time""
""fullscreenenter"",""1"",""6036""
","
","","","490.10000002384186","","","20","8548","4162","&#9761;","elianto","#3366ff99","-1"," ","0","+10","[1341]","1","0","2","","","","","","","",""
"pit-trial","51","454512","0.0-2.0-11.2-4.2","battery-v0.2","","""event"",""trial"",""time""
""fullscreenenter"",""1"",""6036""
","
","
","""event"",""trial"",""time""
""fullscreenenter"",""1"",""6036""
","
","","","421.0999999642372","","","20","8548","4162","&#9761;","elianto","#3366ff99","-1"," ","0","0","[437.9000000357628,1271.9000000357628]","2","0","2","","","","","","","",""
"pit-trial","52","457729","0.0-2.0-11.3-0.3","battery-v0.2","","""event"",""trial"",""time""
""fullscreenenter"",""1"",""6036""
","
","
","""event"",""trial"",""time""
""fullscreenenter"",""1"",""6036""
","
","","","359.9000000357628","","","20","8548","4162","&#9761;","elianto","#3366ff99","-1"," ","0","0","[1212]","1","0","2","","","","","","","",""
"pit-trial","53","460996","0.0-2.0-11.3-1.3","battery-v0.2","","""event"",""trial"",""time""
""fullscreenenter"",""1"",""6036""
","
","
","""event"",""trial"",""time""
""fullscreenenter"",""1"",""6036""
","
","","","412.80000001192093","","","20","8548","4162","&#9761;","elianto","#3366ff99","-1"," ","0","0","[760.5,1263.199999988079]","2","0","2","","","","","","","",""
"pit-trial","54","464133","0.0-2.0-11.3-2.3","battery-v0.2","","""event"",""trial"",""time""
""fullscreenenter"",""1"",""6036""
","
","
","""event"",""trial"",""time""
""fullscreenenter"",""1"",""6036""
","
","","","281.89999997615814","","","20","8548","4162","&#9761;","elianto","#3366ff99","-1"," ","0","0","[1132.8999999761581]","1","0","2","","","","","","","",""
"pit-trial","55","467323","0.0-2.0-11.3-3.3","battery-v0.2","","""event"",""trial"",""time""
""fullscreenenter"",""1"",""6036""
","
","
","""event"",""trial"",""time""
""fullscreenenter"",""1"",""6036""
","
","","","335.69999998807907","","","20","8548","4162","&#9761;","elianto","#3366ff99","-1"," ","0","+10","[1185.800000011921]","1","0","2","","","","","","","",""
"pit-trial","56","470387","0.0-2.0-11.3-4.3","battery-v0.2","","""event"",""trial"",""time""
""fullscreenenter"",""1"",""6036""
","
","
","""event"",""trial"",""time""
""fullscreenenter"",""1"",""6036""
","
","","","208.80000001192093","","","20","8548","4162","&#9761;","elianto","#3366ff99","-1"," ","0","0","[1060.699999988079]","1","0","2","","","","","","","",""
"call-function","57","470390","0.0-2.0-12.0","battery-v0.2","","""event"",""trial"",""time""
""fullscreenenter"",""1"",""6036""
","
","
","""event"",""trial"",""time""
""fullscreenenter"",""1"",""6036""
","
","","","","","","","","","","","","","","","","","","","","","","","","","","",""
"pit-instructions","58","512887","0.0-2.0-13.0","battery-v0.2","","""event"",""trial"",""time""
""fullscreenenter"",""1"",""6036""
","
","
","""event"",""trial"",""time""
""fullscreenenter"",""1"",""6036""
","
","","[{""page_index"":0,""viewing_time"":5968.599999964237},{""page_index"":1,""viewing_time"":11315.400000035763},{""page_index"":2,""viewing_time"":4246},{""page_index"":3,""viewing_time"":10511.5},{""page_index"":4,""viewing_time"":10453.699999988079}]","42495.89999997616","","","","","","","","","","","","","","","","","","","","","","","",""
"pit-trial","59","517744","0.0-2.0-14.0-0.0","battery-v0.2","","""event"",""trial"",""time""
""fullscreenenter"",""1"",""6036""
","
","
","""event"",""trial"",""time""
""fullscreenenter"",""1"",""6036""
","
","","","-1","","","20","8548","4162","&#9826;","elianto","#f73b6a7A","-1","-1","1","0","[]","0","0","3","","","","","","","",""
"pit-trial","60","522600","0.0-2.0-14.0-1.0","battery-v0.2","","""event"",""trial"",""time""
""fullscreenenter"",""1"",""6036""
","
","
","""event"",""trial"",""time""
""fullscreenenter"",""1"",""6036""
","
","","","-1","","","20","8548","4162","&#9826;","elianto","#f73b6a7A","-1","-1","1","0","[]","0","0","3","","","","","","","",""
"pit-trial","61","527458","0.0-2.0-14.0-2.0","battery-v0.2","","""event"",""trial"",""time""
""fullscreenenter"",""1"",""6036""
","
","
","""event"",""trial"",""time""
""fullscreenenter"",""1"",""6036""
","
","","","-1","","","20","8548","4162","&#9826;","elianto","#f73b6a7A","-1","-1","1","0","[]","0","0","3","","","","","","","",""
"pit-trial","62","532315","0.0-2.0-14.0-3.0","battery-v0.2","","""event"",""trial"",""time""
""fullscreenenter"",""1"",""6036""
","
","
","""event"",""trial"",""time""
""fullscreenenter"",""1"",""6036""
","
","","","-1","","","20","8548","4162","&#9826;","elianto","#f73b6a7A","-1","-1","1","-10","[]","0","0","3","","","","","","","",""
"pit-trial","63","537171","0.0-2.0-14.0-4.0","battery-v0.2","","""event"",""trial"",""time""
""fullscreenenter"",""1"",""6036""
","
","
","""event"",""trial"",""time""
""fullscreenenter"",""1"",""6036""
","
","","","-1","","","20","8548","4162","&#9826;","elianto","#f73b6a7A","-1","-1","1","0","[]","0","0","3","","","","","","","",""
"pit-trial","64","542027","0.0-2.0-14.1-0.1","battery-v0.2","","""event"",""trial"",""time""
""fullscreenenter"",""1"",""6036""
","
","
","""event"",""trial"",""time""
""fullscreenenter"",""1"",""6036""
","
","","","-1","","","20","8548","4162","&#9826;","elianto","#f73b6a7A","-1","-1","1","0","[]","0","0","3","","","","","","","",""
"pit-trial","65","546881","0.0-2.0-14.1-1.1","battery-v0.2","","""event"",""trial"",""time""
""fullscreenenter"",""1"",""6036""
","
","
","""event"",""trial"",""time""
""fullscreenenter"",""1"",""6036""
","
","","","-1","","","20","8548","4162","&#9826;","elianto","#f73b6a7A","-1","-1","1","0","[2957.100000023842]","1","0","3","","","","","","","",""
"pit-trial","66","550269","0.0-2.0-14.1-2.1","battery-v0.2","","""event"",""trial"",""time""
""fullscreenenter"",""1"",""6036""
","
","
","""event"",""trial"",""time""
""fullscreenenter"",""1"",""6036""
","
","","","533.6000000238419","","","20","8548","4162","&#9826;","elianto","#f73b6a7A","-1"," ","0","-10","[1384.1000000238419]","1","0","3","","","","","","","",""
"pit-trial","67","555123","0.0-2.0-14.1-3.1","battery-v0.2","","""event"",""trial"",""time""
""fullscreenenter"",""1"",""6036""
","
","
","""event"",""trial"",""time""
""fullscreenenter"",""1"",""6036""
","
","","","-1","","","20","8548","4162","&#9826;","elianto","#f73b6a7A","-1","-1","1","-10","[]","0","0","3","","","","","","","",""
"pit-trial","68","559978","0.0-2.0-14.1-4.1","battery-v0.2","","""event"",""trial"",""time""
""fullscreenenter"",""1"",""6036""
","
","
","""event"",""trial"",""time""
""fullscreenenter"",""1"",""6036""
","
","","","-1","","","20","8548","4162","&#9826;","elianto","#f73b6a7A","-1","-1","1","0","[]","0","0","3","","","","","","","",""
"pit-trial","69","564835","0.0-2.0-14.2-0.2","battery-v0.2","","""event"",""trial"",""time""
""fullscreenenter"",""1"",""6036""
","
","
","""event"",""trial"",""time""
""fullscreenenter"",""1"",""6036""
","
","","","-1","","","20","8548","4162","&#9826;","elianto","#f73b6a7A","-1","-1","1","0","[]","0","0","3","","","","","","","",""
"pit-trial","70","569689","0.0-2.0-14.2-1.2","battery-v0.2","","""event"",""trial"",""time""
""fullscreenenter"",""1"",""6036""
","
","
","""event"",""trial"",""time""
""fullscreenenter"",""1"",""6036""
","
","","","-1","","","20","8548","4162","&#9826;","elianto","#f73b6a7A","-1","-1","1","0","[]","0","0","3","","","","","","","",""
"pit-trial","71","574545","0.0-2.0-14.2-2.2","battery-v0.2","","""event"",""trial"",""time""
""fullscreenenter"",""1"",""6036""
","
","
","""event"",""trial"",""time""
""fullscreenenter"",""1"",""6036""
","
","","","-1","","","20","8548","4162","&#9826;","elianto","#f73b6a7A","-1","-1","1","0","[]","0","0","3","","","","","","","",""
"pit-trial","72","579399","0.0-2.0-14.2-3.2","battery-v0.2","","""event"",""trial"",""time""
""fullscreenenter"",""1"",""6036""
","
","
","""event"",""trial"",""time""
""fullscreenenter"",""1"",""6036""
","
","","","-1","","","20","8548","4162","&#9826;","elianto","#f73b6a7A","-1","-1","1","-10","[]","0","0","3","","","","","","","",""
"pit-trial","73","584254","0.0-2.0-14.2-4.2","battery-v0.2","","""event"",""trial"",""time""
""fullscreenenter"",""1"",""6036""
","
","
","""event"",""trial"",""time""
""fullscreenenter"",""1"",""6036""
","
","","","-1","","","20","8548","4162","&#9826;","elianto","#f73b6a7A","-1","-1","1","0","[]","0","0","3","","","","","","","",""
"pit-trial","74","589110","0.0-2.0-14.3-0.3","battery-v0.2","","""event"",""trial"",""time""
""fullscreenenter"",""1"",""6036""
","
","
","""event"",""trial"",""time""
""fullscreenenter"",""1"",""6036""
","
","","","-1","","","20","8548","4162","&#9826;","elianto","#f73b6a7A","-1","-1","1","0","[]","0","0","3","","","","","","","",""
"pit-trial","75","593965","0.0-2.0-14.3-1.3","battery-v0.2","","""event"",""trial"",""time""
""fullscreenenter"",""1"",""6036""
","
","
","""event"",""trial"",""time""
""fullscreenenter"",""1"",""6036""
","
","","","-1","","","20","8548","4162","&#9826;","elianto","#f73b6a7A","-1","-1","1","0","[]","0","0","3","","","","","","","",""
"pit-trial","76","598820","0.0-2.0-14.3-2.3","battery-v0.2","","""event"",""trial"",""time""
""fullscreenenter"",""1"",""6036""
","
","
","""event"",""trial"",""time""
""fullscreenenter"",""1"",""6036""
","
","","","-1","","","20","8548","4162","&#9826;","elianto","#f73b6a7A","-1","-1","1","0","[]","0","0","3","","","","","","","",""
"pit-trial","77","603674","0.0-2.0-14.3-3.3","battery-v0.2","","""event"",""trial"",""time""
""fullscreenenter"",""1"",""6036""
","
","
","""event"",""trial"",""time""
""fullscreenenter"",""1"",""6036""
","
","","","-1","","","20","8548","4162","&#9826;","elianto","#f73b6a7A","-1","-1","1","-10","[]","0","0","3","","","","","","","",""
"pit-trial","78","608529","0.0-2.0-14.3-4.3","battery-v0.2","","""event"",""trial"",""time""
""fullscreenenter"",""1"",""6036""
","
","
","""event"",""trial"",""time""
""fullscreenenter"",""1"",""6036""
","
","","","-1","","","20","8548","4162","&#9826;","elianto","#f73b6a7A","-1","-1","1","0","[]","0","0","3","","","","","","","",""
"call-function","79","608532","0.0-2.0-15.0","battery-v0.2","","""event"",""trial"",""time""
""fullscreenenter"",""1"",""6036""
","
","
","""event"",""trial"",""time""
""fullscreenenter"",""1"",""6036""
","
","","","","","","","","","","","","","","","","","","","","","","","","","","",""
"pit-instructions","80","635633","0.0-2.0-16.0","battery-v0.2","","""event"",""trial"",""time""
""fullscreenenter"",""1"",""6036""
","
","
","""event"",""trial"",""time""
""fullscreenenter"",""1"",""6036""
","
","","[{""page_index"":0,""viewing_time"":6672},{""page_index"":1,""viewing_time"":9283.600000023842},{""page_index"":2,""viewing_time"":5216.399999976158},{""page_index"":3,""viewing_time"":5926.900000035763}]","27099.5","","","","","","","","","","","","","","","","","","","","","","","",""
"pit-trial","81","639135","0.0-2.0-17.0-0.0","battery-v0.2","","""event"",""trial"",""time""
""fullscreenenter"",""1"",""6036""
","
","
","""event"",""trial"",""time""
""fullscreenenter"",""1"",""6036""
","
","","","646.8999999761581","","","20","8548","4162","&#9789;","elianto","#f73b6a7A"," "," ","1","0","[1497.199999988079]","1","0","4","","","","","","","",""
"pit-trial","82","643989","0.0-2.0-17.0-1.0","battery-v0.2","","""event"",""trial"",""time""
""fullscreenenter"",""1"",""6036""
","
","
","""event"",""trial"",""time""
""fullscreenenter"",""1"",""6036""
","
","","","-1","","","20","8548","4162","&#9789;","elianto","#f73b6a7A"," ","-1","0","-10","[]","0","0","4","","","","","","","",""
"pit-trial","83","647048","0.0-2.0-17.0-2.0","battery-v0.2","","""event"",""trial"",""time""
""fullscreenenter"",""1"",""6036""
","
","
","""event"",""trial"",""time""
""fullscreenenter"",""1"",""6036""
","
","","","204.30000001192093","","","20","8548","4162","&#9789;","elianto","#f73b6a7A"," "," ","1","0","[1054.800000011921]","1","0","4","","","","","","","",""
"pit-trial","84","650277","0.0-2.0-17.0-3.0","battery-v0.2","","""event"",""trial"",""time""
""fullscreenenter"",""1"",""6036""
","
","
","""event"",""trial"",""time""
""fullscreenenter"",""1"",""6036""
","
","","","373.7999999523163","","","20","8548","4162","&#9789;","elianto","#f73b6a7A"," "," ","1","-10","[1225.5]","1","0","4","","","","","","","",""
"pit-trial","85","653513","0.0-2.0-17.0-4.0","battery-v0.2","","""event"",""trial"",""time""
""fullscreenenter"",""1"",""6036""
","
","
","""event"",""trial"",""time""
""fullscreenenter"",""1"",""6036""
","
","","","380","","","20","8548","4162","&#9789;","elianto","#f73b6a7A"," "," ","1","0","[1231.7000000476837]","1","0","4","","","","","","","",""
"pit-trial","86","656565","0.0-2.0-17.1-0.1","battery-v0.2","","""event"",""trial"",""time""
""fullscreenenter"",""1"",""6036""
","
","
","""event"",""trial"",""time""
""fullscreenenter"",""1"",""6036""
","
","","","190.30000001192093","","","20","8548","4162","&#9789;","elianto","#f73b6a7A"," "," ","1","0","[1044.9000000357628]","1","0","4","","","","","","","",""
"pit-trial","87","661423","0.0-2.0-17.1-1.1","battery-v0.2","","""event"",""trial"",""time""
""fullscreenenter"",""1"",""6036""
","
","
","""event"",""trial"",""time""
""fullscreenenter"",""1"",""6036""
","
","","","-1","","","20","8548","4162","&#9789;","elianto","#f73b6a7A"," ","-1","0","-10","[]","0","0","4","","","","","","","",""
"pit-trial","88","665724","0.0-2.0-17.1-2.1","battery-v0.2","","""event"",""trial"",""time""
""fullscreenenter"",""1"",""6036""
","
","
","""event"",""trial"",""time""
""fullscreenenter"",""1"",""6036""
","
","","","1445.199999988079","","","20","8548","4162","&#9789;","elianto","#f73b6a7A"," "," ","1","0","[2297.899999976158]","1","0","4","","","","","","","",""
"pit-trial","89","669038","0.0-2.0-17.1-3.1","battery-v0.2","","""event"",""trial"",""time""
""fullscreenenter"",""1"",""6036""
","
","
","""event"",""trial"",""time""
""fullscreenenter"",""1"",""6036""
","
","","","458.39999997615814","","","20","8548","4162","&#9789;","elianto","#f73b6a7A"," "," ","1","-10","[1309.5]","1","0","4","","","","","","","",""
"pit-trial","90","671994","0.0-2.0-17.1-4.1","battery-v0.2","","""event"",""trial"",""time""
""fullscreenenter"",""1"",""6036""
","
","
","""event"",""trial"",""time""
""fullscreenenter"",""1"",""6036""
","
","","","100","","","20","8548","4162","&#9789;","elianto","#f73b6a7A"," "," ","1","0","[951.5]","1","0","4","","","","","","","",""
"pit-trial","91","675164","0.0-2.0-17.2-0.2","battery-v0.2","","""event"",""trial"",""time""
""fullscreenenter"",""1"",""6036""
","
","
","""event"",""trial"",""time""
""fullscreenenter"",""1"",""6036""
","
","","","314.9000000357628","","","20","8548","4162","&#9789;","elianto","#f73b6a7A"," "," ","1","0","[1165.1000000238419]","1","0","4","","","","","","","",""
"pit-trial","92","678979","0.0-2.0-17.2-1.2","battery-v0.2","","""event"",""trial"",""time""
""fullscreenenter"",""1"",""6036""
","
","
","""event"",""trial"",""time""
""fullscreenenter"",""1"",""6036""
","
","","","961.8999999761581","","","20","8548","4162","&#9789;","elianto","#f73b6a7A"," "," ","1","0","[1812.0999999642372]","1","0","4","","","","","","","",""
"pit-trial","93","682020","0.0-2.0-17.2-2.2","battery-v0.2","","""event"",""trial"",""time""
""fullscreenenter"",""1"",""6036""
","
","
","""event"",""trial"",""time""
""fullscreenenter"",""1"",""6036""
","
","","","184.80000001192093","","","20","8548","4162","&#9789;","elianto","#f73b6a7A"," "," ","1","0","[1037.199999988079]","1","0","4","","","","","","","",""
"pit-trial","94","685216","0.0-2.0-17.2-3.2","battery-v0.2","","""event"",""trial"",""time""
""fullscreenenter"",""1"",""6036""
","
","
","""event"",""trial"",""time""
""fullscreenenter"",""1"",""6036""
","
","","","342","","","20","8548","4162","&#9789;","elianto","#f73b6a7A"," "," ","1","-10","[1193.1000000238419]","1","0","4","","","","","","","",""
"pit-trial","95","689245","0.0-2.0-17.2-4.2","battery-v0.2","","""event"",""trial"",""time""
""fullscreenenter"",""1"",""6036""
","
","
","""event"",""trial"",""time""
""fullscreenenter"",""1"",""6036""
","
","","","1174.9000000357628","","","20","8548","4162","&#9789;","elianto","#f73b6a7A"," "," ","1","0","[2025.1000000238419]","1","0","4","","","","","","","",""
"pit-trial","96","693133","0.0-2.0-17.3-0.3","battery-v0.2","","""event"",""trial"",""time""
""fullscreenenter"",""1"",""6036""
","
","
","""event"",""trial"",""time""
""fullscreenenter"",""1"",""6036""
","
","","","1023.1000000238419","","","20","8548","4162","&#9789;","elianto","#f73b6a7A"," "," ","1","0","[1873.5]","1","0","4","","","","","","","",""
"pit-trial","97","696562","0.0-2.0-17.3-1.3","battery-v0.2","","""event"",""trial"",""time""
""fullscreenenter"",""1"",""6036""
","
","
","""event"",""trial"",""time""
""fullscreenenter"",""1"",""6036""
","
","","","572.5999999642372","","","20","8548","4162","&#9789;","elianto","#f73b6a7A"," "," ","1","0","[1425.199999988079]","1","0","4","","","","","","","",""
"pit-trial","98","699711","0.0-2.0-17.3-2.3","battery-v0.2","","""event"",""trial"",""time""
""fullscreenenter"",""1"",""6036""
","
","
","""event"",""trial"",""time""
""fullscreenenter"",""1"",""6036""
","
","","","293.89999997615814","","","20","8548","4162","&#9789;","elianto","#f73b6a7A"," "," ","1","0","[1144.800000011921]","1","0","4","","","","","","","",""
"pit-trial","99","703310","0.0-2.0-17.3-3.3","battery-v0.2","","""event"",""trial"",""time""
""fullscreenenter"",""1"",""6036""
","
","
","""event"",""trial"",""time""
""fullscreenenter"",""1"",""6036""
","
","","","742.9000000357628","","","20","8548","4162","&#9789;","elianto","#f73b6a7A"," "," ","1","-10","[1595.300000011921]","1","0","4","","","","","","","",""
"pit-trial","100","708165","0.0-2.0-17.3-4.3","battery-v0.2","","""event"",""trial"",""time""
""fullscreenenter"",""1"",""6036""
","
","
","""event"",""trial"",""time""
""fullscreenenter"",""1"",""6036""
","
","","","-1","","","20","8548","4162","&#9789;","elianto","#f73b6a7A"," ","-1","0","-10","[3577]","1","0","4","","","","","","","",""
"call-function","101","708168","0.0-2.0-18.0","battery-v0.2","","""event"",""trial"",""time""
""fullscreenenter"",""1"",""6036""
","
","
","""event"",""trial"",""time""
""fullscreenenter"",""1"",""6036""
","
","","","","","","","","","","","","","","","","","","","","","","","","","","",""
"pit-instructions","102","782820","0.0-2.0-19.0","battery-v0.2","","""event"",""trial"",""time""
""fullscreenenter"",""1"",""6036""
","
","
","""event"",""trial"",""time""
""fullscreenenter"",""1"",""6036""
","
","","[{""page_index"":0,""viewing_time"":11945.099999964237},{""page_index"":1,""viewing_time"":9142.400000035763},{""page_index"":2,""viewing_time"":11491.199999988079},{""page_index"":3,""viewing_time"":6703},{""page_index"":4,""viewing_time"":6496},{""page_index"":5,""viewing_time"":8820.100000023842},{""page_index"":6,""viewing_time"":8810.5},{""page_index"":7,""viewing_time"":7267.199999988079},{""page_index"":8,""viewing_time"":3975}]","74651.30000001192","","","","","","","","","","","","","","","","","","","","","","","",""
"pit-comprehension","103","787381","0.0-2.0-20.0-0.0","battery-v0.2","","""event"",""trial"",""time""
""fullscreenenter"",""1"",""6036""
","
","
","""event"",""trial"",""time""
""fullscreenenter"",""1"",""6036""
","
","","","4554.399999976158","[""SPACE""]","0","20","8548","4162","","","","","","","","","","","","","","","","","","",""
"pit-instructions","104","790067","0.0-2.0-20.0-1.0","battery-v0.2","","""event"",""trial"",""time""
""fullscreenenter"",""1"",""6036""
","
","
","""event"",""trial"",""time""
""fullscreenenter"",""1"",""6036""
","
","","[{""page_index"":0,""viewing_time"":2643.5}]","2644.300000011921","","","","","","","","","","","","","","","","","","","","","","","",""
"pit-comprehension","105","796105","0.0-2.0-21.0-0.0","battery-v0.2","","""event"",""trial"",""time""
""fullscreenenter"",""1"",""6036""
","
","
","""event"",""trial"",""time""
""fullscreenenter"",""1"",""6036""
","
","","","6029.099999964237","[""10""]","0","20","8548","4162","","","","","","","","","","","","","","","","","","",""
"pit-instructions","106","801617","0.0-2.0-21.0-1.0","battery-v0.2","","""event"",""trial"",""time""
""fullscreenenter"",""1"",""6036""
","
","
","""event"",""trial"",""time""
""fullscreenenter"",""1"",""6036""
","
","","[{""page_index"":0,""viewing_time"":5470.300000011921}]","5471","","","","","","","","","","","","","","","","","","","","","","","",""
"pit-comprehension","107","808192","0.0-2.0-22.0-0.0","battery-v0.2","","""event"",""trial"",""time""
""fullscreenenter"",""1"",""6036""
","
","
","""event"",""trial"",""time""
""fullscreenenter"",""1"",""6036""
","
","","","6568.599999964237","[""0""]","0","20","8548","4162","","","","","","","","","","","","","","","","","","",""
"pit-instructions","108","812787","0.0-2.0-22.0-1.0","battery-v0.2","","""event"",""trial"",""time""
""fullscreenenter"",""1"",""6036""
","
","
","""event"",""trial"",""time""
""fullscreenenter"",""1"",""6036""
","
","","[{""page_index"":0,""viewing_time"":4555.699999988079}]","4555.900000035763","","","","","","","","","","","","","","","","","","","","","","","",""
"pit-comprehension","109","832760","0.0-2.0-23.0-0.0","battery-v0.2","","""event"",""trial"",""time""
""fullscreenenter"",""1"",""6036""
","
","
","""event"",""trial"",""time""
""fullscreenenter"",""1"",""6036""
","
","","","19968.900000035763","[""False""]","1","20","8548","4162","","","","","","","","","","","","","","","","","","",""
"pit-instructions","110","838029","0.0-2.0-23.0-1.0","battery-v0.2","","""event"",""trial"",""time""
""fullscreenenter"",""1"",""6036""
","
","
","""event"",""trial"",""time""
""fullscreenenter"",""1"",""6036""
","
","","[{""page_index"":0,""viewing_time"":5225.300000011921}]","5225.900000035763","","","","","","","","","","","","","","","","","","","","","","","",""
"pit-instructions","111","839296","0.0-2.0-23.0-2.0-0.0","battery-v0.2","","""event"",""trial"",""time""
""fullscreenenter"",""1"",""6036""
","
","
","""event"",""trial"",""time""
""fullscreenenter"",""1"",""6036""
","
","","[{""page_index"":0,""viewing_time"":1262.5}]","1263.199999988079","","","","","","","","","","","","","","","","","","","","","","","",""
"pit-comprehension","112","847741","0.0-2.0-23.1-0.1","battery-v0.2","","""event"",""trial"",""time""
""fullscreenenter"",""1"",""6036""
","
","
","""event"",""trial"",""time""
""fullscreenenter"",""1"",""6036""
","
","","","8439.700000047684","[""True""]","0","20","8548","4162","","","","","","","","","","","","","","","","","","",""
"pit-instructions","113","849435","0.0-2.0-23.1-1.1","battery-v0.2","","""event"",""trial"",""time""
""fullscreenenter"",""1"",""6036""
","
","
","""event"",""trial"",""time""
""fullscreenenter"",""1"",""6036""
","
","","[{""page_index"":0,""viewing_time"":1649.4000000357628}]","1649.7000000476837","","","","","","","","","","","","","","","","","","","","","","","",""
"pit-comprehension","114","857918","0.0-2.0-24.0-0.0","battery-v0.2","","""event"",""trial"",""time""
""fullscreenenter"",""1"",""6036""
","
","
","""event"",""trial"",""time""
""fullscreenenter"",""1"",""6036""
","
","","","8480.100000023842","[""True""]","0","20","8548","4162","","","","","","","","","","","","","","","","","","",""
"pit-instructions","115","859570","0.0-2.0-24.0-1.0","battery-v0.2","","""event"",""trial"",""time""
""fullscreenenter"",""1"",""6036""
","
","
","""event"",""trial"",""time""
""fullscreenenter"",""1"",""6036""
","
","","[{""page_index"":0,""viewing_time"":1588.6000000238419}]","1589.300000011921","","","","","","","","","","","","","","","","","","","","","","","",""
"pit-comprehension","116","866130","0.0-2.0-25.0-0.0","battery-v0.2","","""event"",""trial"",""time""
""fullscreenenter"",""1"",""6036""
","
","
","""event"",""trial"",""time""
""fullscreenenter"",""1"",""6036""
","
","","","6553.800000011921","[""True""]","0","20","8548","4162","","","","","","","","","","","","","","","","","","",""
"pit-instructions","117","867896","0.0-2.0-25.0-1.0","battery-v0.2","","""event"",""trial"",""time""
""fullscreenenter"",""1"",""6036""
","
","
","""event"",""trial"",""time""
""fullscreenenter"",""1"",""6036""
","
","","[{""page_index"":0,""viewing_time"":1722.1000000238419}]","1722.4000000357628","","","","","","","","","","","","","","","","","","","","","","","",""
"pit-comprehension","118","873808","0.0-2.0-26.0-0.0","battery-v0.2","","""event"",""trial"",""time""
""fullscreenenter"",""1"",""6036""
","
","
","""event"",""trial"",""time""
""fullscreenenter"",""1"",""6036""
","
","","","5908.099999964237","[""False""]","0","20","8548","4162","","","","","","","","","","","","","","","","","","",""
"pit-instructions","119","875387","0.0-2.0-26.0-1.0","battery-v0.2","","""event"",""trial"",""time""
""fullscreenenter"",""1"",""6036""
","
","
","""event"",""trial"",""time""
""fullscreenenter"",""1"",""6036""
","
","","[{""page_index"":0,""viewing_time"":1533.1000000238419}]","1533.8999999761581","","","","","","","","","","","","","","","","","","","","","","","",""
"pit-instructions","120","891636","0.0-3.0","battery-v0.2","","""event"",""trial"",""time""
""fullscreenenter"",""1"",""6036""
","
","
","""event"",""trial"",""time""
""fullscreenenter"",""1"",""6036""
","
","","[{""page_index"":0,""viewing_time"":3595.099999964237},{""page_index"":1,""viewing_time"":5853.400000035763},{""page_index"":2,""viewing_time"":6796.300000011921}]","16245.599999964237","","","","","","","","","","","","","","","","","","","","","","","",""
"pit-trial","121","895196","0.0-4.0","battery-v0.2","","""event"",""trial"",""time""
""fullscreenenter"",""1"",""6036""
","
","
","""event"",""trial"",""time""
""fullscreenenter"",""1"",""6036""
","
","","","701.7999999523163","","","20","8548","4162","&#9730;","elianto","#3366ff99"," "," ","1","+10","[1552.199999988079]","1","1","","","8548","1","1","1","win","go","0"
"pit-trial","122","899287","0.0-5.0","battery-v0.2","","""event"",""trial"",""time""
""fullscreenenter"",""1"",""6036""
","
","
","""event"",""trial"",""time""
""fullscreenenter"",""1"",""6036""
","
","","","1233.6000000238419","","","20","8548","4162","&#9728;","elianto","#f73b6a7A","-1"," ","0","-10","[2084.900000035763]","1","1","","","8548","2","0","4","lose","no-go","0"
"pit-trial","123","902958","0.0-6.0","battery-v0.2","","""event"",""trial"",""time""
""fullscreenenter"",""1"",""6036""
","
","
","""event"",""trial"",""time""
""fullscreenenter"",""1"",""6036""
","
","","","815.8999999761581","","","20","8548","4162","&#9733;","elianto","#3366ff99","-1"," ","0","0","[1666.6000000238419]","1","1","","","8548","3","2","2","win","no-go","0"
"pit-trial","124","907215","0.0-7.0","battery-v0.2","","""event"",""trial"",""time""
""fullscreenenter"",""1"",""6036""
","
","
","""event"",""trial"",""time""
""fullscreenenter"",""1"",""6036""
","
","","","1402.8999999761581","","","20","8548","4162","&#9752;","elianto","#f73b6a7A"," "," ","1","-10","[2254.2999999523163]","1","1","","","8548","4","3","3","lose","go","1"
"pit-trial","125","912072","0.0-8.0","battery-v0.2","","""event"",""trial"",""time""
""fullscreenenter"",""1"",""6036""
","
","
","""event"",""trial"",""time""
""fullscreenenter"",""1"",""6036""
","
","","","-1","","","20","8548","4162","&#9752;","elianto","#f73b6a7A"," ","-1","0","0","[]","0","1","","","8548","5","3","3","lose","go","1"
"pit-trial","126","915574","0.0-9.0","battery-v0.2","","""event"",""trial"",""time""
""fullscreenenter"",""1"",""6036""
","
","
","""event"",""trial"",""time""
""fullscreenenter"",""1"",""6036""
","
","","","646.6000000238419","","","20","8548","4162","&#9733;","elianto","#3366ff99","-1"," ","0","0","[1497]","1","1","","","8548","6","2","2","win","no-go","0"
"pit-trial","127","919343","0.0-10.0","battery-v0.2","","""event"",""trial"",""time""
""fullscreenenter"",""1"",""6036""
","
","
","""event"",""trial"",""time""
""fullscreenenter"",""1"",""6036""
","
","","","911.3999999761581","","","20","8548","4162","&#9730;","elianto","#3366ff99"," "," ","1","0","[1763.0999999642372]","1","1","","","8548","7","1","1","win","go","1"
"pit-trial","128","924197","0.0-11.0","battery-v0.2","","""event"",""trial"",""time""
""fullscreenenter"",""1"",""6036""
","
","
","""event"",""trial"",""time""
""fullscreenenter"",""1"",""6036""
","
","","","-1","","","20","8548","4162","&#9728;","elianto","#f73b6a7A","-1","-1","1","0","[]","0","1","","","8548","8","0","4","lose","no-go","0"
"pit-trial","129","927807","0.0-12.0","battery-v0.2","","""event"",""trial"",""time""
""fullscreenenter"",""1"",""6036""
","
","
","""event"",""trial"",""time""
""fullscreenenter"",""1"",""6036""
","
","","","755.6000000238419","","","20","8548","4162","&#9730;","elianto","#3366ff99"," "," ","1","+10","[1606.199999988079]","1","1","","","8548","9","1","1","win","go","0"
"pit-trial","130","932661","0.0-13.0","battery-v0.2","","""event"",""trial"",""time""
""fullscreenenter"",""1"",""6036""
","
","
","""event"",""trial"",""time""
""fullscreenenter"",""1"",""6036""
","
","","","-1","","","20","8548","4162","&#9728;","elianto","#f73b6a7A","-1","-1","1","0","[]","0","1","","","8548","10","0","4","lose","no-go","0"
"pit-trial","131","936288","0.0-14.0","battery-v0.2","","""event"",""trial"",""time""
""fullscreenenter"",""1"",""6036""
","
","
","""event"",""trial"",""time""
""fullscreenenter"",""1"",""6036""
","
","","","773.4000000357628","","","20","8548","4162","&#9733;","elianto","#3366ff99","-1"," ","0","0","[1623.5999999642372]","1","1","","","8548","11","2","2","win","no-go","0"
"pit-trial","132","941141","0.0-15.0","battery-v0.2","","""event"",""trial"",""time""
""fullscreenenter"",""1"",""6036""
","
","
","""event"",""trial"",""time""
""fullscreenenter"",""1"",""6036""
","
","","","-1","","","20","8548","4162","&#9752;","elianto","#f73b6a7A"," ","-1","0","-10","[]","0","1","","","8548","12","3","3","lose","go","0"
"pit-trial","133","945995","0.0-16.0","battery-v0.2","","""event"",""trial"",""time""
""fullscreenenter"",""1"",""6036""
","
","
","""event"",""trial"",""time""
""fullscreenenter"",""1"",""6036""
","
","","","-1","","","20","8548","4162","&#9728;","elianto","#f73b6a7A","-1","-1","1","0","[]","0","1","","","8548","13","0","4","lose","no-go","0"
"pit-trial","134","949659","0.0-17.0","battery-v0.2","","""event"",""trial"",""time""
""fullscreenenter"",""1"",""6036""
","
","
","""event"",""trial"",""time""
""fullscreenenter"",""1"",""6036""
","
","","","810.6999999880791","","","20","8548","4162","&#9730;","elianto","#3366ff99"," "," ","1","+10","[1661]","1","1","","","8548","14","1","1","win","go","0"
"pit-trial","135","954514","0.0-18.0","battery-v0.2","","""event"",""trial"",""time""
""fullscreenenter"",""1"",""6036""
","
","
","""event"",""trial"",""time""
""fullscreenenter"",""1"",""6036""
","
","","","-1","","","20","8548","4162","&#9733;","elianto","#3366ff99","-1","-1","1","+10","[]","0","1","","","8548","15","2","2","win","no-go","0"
"pit-trial","136","959368","0.0-19.0","battery-v0.2","","""event"",""trial"",""time""
""fullscreenenter"",""1"",""6036""
","
","
","""event"",""trial"",""time""
""fullscreenenter"",""1"",""6036""
","
","","","-1","","","20","8548","4162","&#9752;","elianto","#f73b6a7A"," ","-1","0","0","[]","0","1","","","8548","16","3","3","lose","go","1"
"pit-trial","137","963370","0.0-20.0","battery-v0.2","","""event"",""trial"",""time""
""fullscreenenter"",""1"",""6036""
","
","
","""event"",""trial"",""time""
""fullscreenenter"",""1"",""6036""
","
","","","1146.5999999642372","","","20","8548","4162","&#9730;","elianto","#3366ff99"," "," ","1","0","[1997.8999999761581]","1","1","","","8548","17","1","1","win","go","1"
"pit-trial","138","968225","0.0-21.0","battery-v0.2","","""event"",""trial"",""time""
""fullscreenenter"",""1"",""6036""
","
","
","""event"",""trial"",""time""
""fullscreenenter"",""1"",""6036""
","
","","","-1","","","20","8548","4162","&#9728;","elianto","#f73b6a7A","-1","-1","1","0","[]","0","1","","","8548","18","0","4","lose","no-go","0"
"pit-trial","139","973079","0.0-22.0","battery-v0.2","","""event"",""trial"",""time""
""fullscreenenter"",""1"",""6036""
","
","
","""event"",""trial"",""time""
""fullscreenenter"",""1"",""6036""
","
","","","-1","","","20","8548","4162","&#9752;","elianto","#f73b6a7A"," ","-1","0","-10","[]","0","1","","","8548","19","3","3","lose","go","0"
"pit-trial","140","977932","0.0-23.0","battery-v0.2","","""event"",""trial"",""time""
""fullscreenenter"",""1"",""6036""
","
","
","""event"",""trial"",""time""
""fullscreenenter"",""1"",""6036""
","
","","","-1","","","20","8548","4162","&#9733;","elianto","#3366ff99","-1","-1","1","0","[]","0","1","","","8548","20","2","2","win","no-go","1"
"pit-instructions","141","991578","0.0-24.0","battery-v0.2","","""event"",""trial"",""time""
""fullscreenenter"",""1"",""6036""
","
","
","""event"",""trial"",""time""
""fullscreenenter"",""1"",""6036""
","
","","[{""page_index"":0,""viewing_time"":6803.100000023842},{""page_index"":1,""viewing_time"":6839.100000023842}]","13642.900000035763","","","","","","","","","","","","","","","","","","","","","","","",""
"pit-trial","142","996436","0.0-25.0","battery-v0.2","","""event"",""trial"",""time""
""fullscreenenter"",""1"",""6036""
","
","
","""event"",""trial"",""time""
""fullscreenenter"",""1"",""6036""
","
","","","-1","","","20","8548","4162","n","elianto","#f73b6a7A","-1","-1","1","0","[]","0","2","","","8548","21","0","4","lose","no-go","0"
"pit-trial","143","1000593","0.0-26.0","battery-v0.2","","""event"",""trial"",""time""
""fullscreenenter"",""1"",""6036""
","
","
","""event"",""trial"",""time""
""fullscreenenter"",""1"",""6036""
","
","","","1301.8999999761581","","","20","8548","4162","f","elianto","#3366ff99"," "," ","1","+10","[2154]","1","2","","","8548","22","1","1","win","go","0"
"pit-trial","144","1005365","0.0-27.0","battery-v0.2","","""event"",""trial"",""time""
""fullscreenenter"",""1"",""6036""
","
","
","""event"",""trial"",""time""
""fullscreenenter"",""1"",""6036""
","
","","","1915.6000000238419","","","20","8548","4162","b","elianto","#f73b6a7A"," "," ","1","0","[2766.199999988079]","1","2","","","8548","23","3","3","lose","go","0"
"pit-trial","145","1009201","0.0-28.0","battery-v0.2","","""event"",""trial"",""time""
""fullscreenenter"",""1"",""6036""
","
","
","""event"",""trial"",""time""
""fullscreenenter"",""1"",""6036""
","
","","","981.1000000238419","","","20","8548","4162","t","elianto","#f73b6a7A","-1"," ","0","-10","[1832.1000000238419]","1","2","","","8548","24","2","4","lose","no-go","0"
"pit-trial","146","1012692","0.0-29.0","battery-v0.2","","""event"",""trial"",""time""
""fullscreenenter"",""1"",""6036""
","
","
","""event"",""trial"",""time""
""fullscreenenter"",""1"",""6036""
","
","","","634.6000000238419","","","20","8548","4162","b","elianto","#f73b6a7A"," "," ","1","0","[1487]","1","2","","","8548","25","3","3","lose","go","0"
"pit-trial","147","1016249","0.0-30.0","battery-v0.2","","""event"",""trial"",""time""
""fullscreenenter"",""1"",""6036""
","
","
","""event"",""trial"",""time""
""fullscreenenter"",""1"",""6036""
","
","","","701.6000000238419","","","20","8548","4162","f","elianto","#3366ff99"," "," ","1","0","[1552.4000000357628]","1","2","","","8548","26","1","1","win","go","1"
"pit-trial","148","1021105","0.0-31.0","battery-v0.2","","""event"",""trial"",""time""
""fullscreenenter"",""1"",""6036""
","
","
","""event"",""trial"",""time""
""fullscreenenter"",""1"",""6036""
","
","","","-1","","","20","8548","4162","n","elianto","#f73b6a7A","-1","-1","1","-10","[]","0","2","","","8548","27","0","4","lose","no-go","1"
"pit-trial","149","1025961","0.0-32.0","battery-v0.2","","""event"",""trial"",""time""
""fullscreenenter"",""1"",""6036""
","
","
","""event"",""trial"",""time""
""fullscreenenter"",""1"",""6036""
","
","","","-1","","","20","8548","4162","t","elianto","#f73b6a7A","-1","-1","1","0","[]","0","2","","","8548","28","2","4","lose","no-go","0"
"pit-trial","150","1029519","0.0-33.0","battery-v0.2","","""event"",""trial"",""time""
""fullscreenenter"",""1"",""6036""
","
","
","""event"",""trial"",""time""
""fullscreenenter"",""1"",""6036""
","
","","","703.6999999880791","","","20","8548","4162","f","elianto","#3366ff99"," "," ","1","+10","[1554.8999999761581]","1","2","","","8548","29","1","1","win","go","0"
"pit-trial","151","1034372","0.0-34.0","battery-v0.2","","""event"",""trial"",""time""
""fullscreenenter"",""1"",""6036""
","
","
","""event"",""trial"",""time""
""fullscreenenter"",""1"",""6036""
","
","","","-1","","","20","8548","4162","b","elianto","#f73b6a7A"," ","-1","0","-10","[]","0","2","","","8548","30","3","3","lose","go","0"
"pit-trial","152","1037860","0.0-35.0","battery-v0.2","","""event"",""trial"",""time""
""fullscreenenter"",""1"",""6036""
","
","
","""event"",""trial"",""time""
""fullscreenenter"",""1"",""6036""
","
","","","633.8999999761581","","","20","8548","4162","n","elianto","#f73b6a7A","-1"," ","0","0","[1484]","1","2","","","8548","31","0","4","lose","no-go","1"
"pit-trial","153","1042715","0.0-36.0","battery-v0.2","","""event"",""trial"",""time""
""fullscreenenter"",""1"",""6036""
","
","
","""event"",""trial"",""time""
""fullscreenenter"",""1"",""6036""
","
","","","-1","","","20","8548","4162","t","elianto","#f73b6a7A","-1","-1","1","0","[]","0","2","","","8548","32","2","4","lose","no-go","0"
"pit-trial","154","1047123","0.0-37.0","battery-v0.2","","""event"",""trial"",""time""
""fullscreenenter"",""1"",""6036""
","
","
","""event"",""trial"",""time""
""fullscreenenter"",""1"",""6036""
","
","","","1553.0999999642372","","","20","8548","4162","n","elianto","#f73b6a7A","-1"," ","0","-10","[2403.599999964237]","1","2","","","8548","33","0","4","lose","no-go","0"
"pit-trial","155","1050865","0.0-38.0","battery-v0.2","","""event"",""trial"",""time""
""fullscreenenter"",""1"",""6036""
","
","
","""event"",""trial"",""time""
""fullscreenenter"",""1"",""6036""
","
","","","888.1999999880791","","","20","8548","4162","b","elianto","#f73b6a7A"," "," ","1","0","[1738.8999999761581]","1","2","","","8548","34","3","3","lose","go","0"
"pit-trial","156","1054297","0.0-39.0","battery-v0.2","","""event"",""trial"",""time""
""fullscreenenter"",""1"",""6036""
","
","
","""event"",""trial"",""time""
""fullscreenenter"",""1"",""6036""
","
","","","577.6999999880791","","","20","8548","4162","f","elianto","#3366ff99"," "," ","1","0","[1427.5999999642372]","1","2","","","8548","35","1","1","win","go","1"
"pit-trial","157","1059151","0.0-40.0","battery-v0.2","","""event"",""trial"",""time""
""fullscreenenter"",""1"",""6036""
","
","
","""event"",""trial"",""time""
""fullscreenenter"",""1"",""6036""
","
","","","-1","","","20","8548","4162","t","elianto","#f73b6a7A","-1","-1","1","-10","[]","0","2","","","8548","36","2","4","lose","no-go","1"
"pit-trial","158","1063407","0.0-41.0","battery-v0.2","","""event"",""trial"",""time""
""fullscreenenter"",""1"",""6036""
","
","
","""event"",""trial"",""time""
""fullscreenenter"",""1"",""6036""
","
","","","1401.699999988079","","","20","8548","4162","n","elianto","#f73b6a7A","-1"," ","0","-10","[2251.900000035763]","1","2","","","8548","37","0","4","lose","no-go","0"
"pit-trial","159","1066901","0.0-42.0","battery-v0.2","","""event"",""trial"",""time""
""fullscreenenter"",""1"",""6036""
","
","
","""event"",""trial"",""time""
""fullscreenenter"",""1"",""6036""
","
","","","638.3000000119209","","","20","8548","4162","f","elianto","#3366ff99"," "," ","1","+10","[1489.300000011921]","1","2","","","8548","38","1","1","win","go","0"
"pit-trial","160","1071756","0.0-43.0","battery-v0.2","","""event"",""trial"",""time""
""fullscreenenter"",""1"",""6036""
","
","
","""event"",""trial"",""time""
""fullscreenenter"",""1"",""6036""
","
","","","-1","","","20","8548","4162","t","elianto","#f73b6a7A","-1","-1","1","0","[]","0","2","","","8548","39","2","4","lose","no-go","0"
"pit-trial","161","1075573","0.0-44.0","battery-v0.2","","""event"",""trial"",""time""
""fullscreenenter"",""1"",""6036""
","
","
","""event"",""trial"",""time""
""fullscreenenter"",""1"",""6036""
","
","","","961.6999999880791","","","20","8548","4162","b","elianto","#f73b6a7A"," "," ","1","0","[1812.3999999761581]","1","2","","","8548","40","3","3","lose","go","0"
"pit-trial","162","1080427","0.0-45.0","battery-v0.2","","""event"",""trial"",""time""
""fullscreenenter"",""1"",""6036""
","
","
","""event"",""trial"",""time""
""fullscreenenter"",""1"",""6036""
","
","","","-1","","","20","8548","4162","n","elianto","#f73b6a7A","-1","-1","1","0","[]","0","2","","","8548","41","0","4","lose","no-go","0"
"pit-trial","163","1083949","0.0-46.0","battery-v0.2","","""event"",""trial"",""time""
""fullscreenenter"",""1"",""6036""
","
","
","""event"",""trial"",""time""
""fullscreenenter"",""1"",""6036""
","
","","","667.3999999761581","","","20","8548","4162","f","elianto","#3366ff99"," "," ","1","+10","[1517.5]","1","2","","","8548","42","1","1","win","go","0"
"pit-trial","164","1088805","0.0-47.0","battery-v0.2","","""event"",""trial"",""time""
""fullscreenenter"",""1"",""6036""
","
","
","""event"",""trial"",""time""
""fullscreenenter"",""1"",""6036""
","
","","","-1","","","20","8548","4162","t","elianto","#f73b6a7A","-1","-1","1","0","[]","0","2","","","8548","43","2","4","lose","no-go","0"
"pit-trial","165","1093659","0.0-48.0","battery-v0.2","","""event"",""trial"",""time""
""fullscreenenter"",""1"",""6036""
","
","
","""event"",""trial"",""time""
""fullscreenenter"",""1"",""6036""
","
","","","-1","","","20","8548","4162","b","elianto","#f73b6a7A"," ","-1","0","-10","[]","0","2","","","8548","44","3","3","lose","go","0"
"pit-trial","166","1097113","0.0-49.0","battery-v0.2","","""event"",""trial"",""time""
""fullscreenenter"",""1"",""6036""
","
","
","""event"",""trial"",""time""
""fullscreenenter"",""1"",""6036""
","
","","","599.1999999880791","","","20","8548","4162","b","elianto","#f73b6a7A"," "," ","1","0","[1449.4000000357628]","1","2","","","8548","45","3","3","lose","go","0"
"pit-trial","167","1101967","0.0-50.0","battery-v0.2","","""event"",""trial"",""time""
""fullscreenenter"",""1"",""6036""
","
","
","""event"",""trial"",""time""
""fullscreenenter"",""1"",""6036""
","
","","","-1","","","20","8548","4162","n","elianto","#f73b6a7A","-1","-1","1","0","[]","0","2","","","8548","46","0","4","lose","no-go","0"
"pit-trial","168","1105988","0.0-51.0","battery-v0.2","","""event"",""trial"",""time""
""fullscreenenter"",""1"",""6036""
","
","
","""event"",""trial"",""time""
""fullscreenenter"",""1"",""6036""
","
","","","1166.5999999642372","","","20","8548","4162","c","elianto","#3366ff99","-1"," ","0","0","[2016.699999988079]","1","2","","","8548","47","4","2","win","no-go","0"
"pit-trial","169","1110844","0.0-52.0","battery-v0.2","","""event"",""trial"",""time""
""fullscreenenter"",""1"",""6036""
","
","
","""event"",""trial"",""time""
""fullscreenenter"",""1"",""6036""
","
","","","-1","","","20","8548","4162","t","elianto","#f73b6a7A","-1","-1","1","-10","[]","0","2","","","8548","48","2","4","lose","no-go","1"
"pit-trial","170","1114162","0.0-53.0","battery-v0.2","","""event"",""trial"",""time""
""fullscreenenter"",""1"",""6036""
","
","
","""event"",""trial"",""time""
""fullscreenenter"",""1"",""6036""
","
","","","462.30000001192093","","","20","8548","4162","b","elianto","#f73b6a7A"," "," ","1","0","[1314.199999988079]","1","2","","","8548","49","3","3","lose","go","0"
"pit-trial","171","1119017","0.0-54.0","battery-v0.2","","""event"",""trial"",""time""
""fullscreenenter"",""1"",""6036""
","
","
","""event"",""trial"",""time""
""fullscreenenter"",""1"",""6036""
","
","","","-1","","","20","8548","4162","n","elianto","#f73b6a7A","-1","-1","1","0","[]","0","2","","","8548","50","0","4","lose","no-go","0"
"pit-trial","172","1122611","0.0-55.0","battery-v0.2","","""event"",""trial"",""time""
""fullscreenenter"",""1"",""6036""
","
","
","""event"",""trial"",""time""
""fullscreenenter"",""1"",""6036""
","
","","","738.7999999523163","","","20","8548","4162","c","elianto","#3366ff99","-1"," ","0","+10","[1590]","1","2","","","8548","51","4","2","win","no-go","1"
"pit-trial","173","1126102","0.0-56.0","battery-v0.2","","""event"",""trial"",""time""
""fullscreenenter"",""1"",""6036""
","
","
","""event"",""trial"",""time""
""fullscreenenter"",""1"",""6036""
","
","","","637","","","20","8548","4162","f","elianto","#3366ff99"," "," ","1","+10","[1487.3999999761581]","1","2","","","8548","52","1","1","win","go","0"
"pit-trial","174","1130956","0.0-57.0","battery-v0.2","","""event"",""trial"",""time""
""fullscreenenter"",""1"",""6036""
","
","
","""event"",""trial"",""time""
""fullscreenenter"",""1"",""6036""
","
","","","-1","","","20","8548","4162","t","elianto","#f73b6a7A","-1","-1","1","0","[]","0","2","","","8548","53","2","4","lose","no-go","0"
"pit-trial","175","1134439","0.0-58.0","battery-v0.2","","""event"",""trial"",""time""
""fullscreenenter"",""1"",""6036""
","
","
","""event"",""trial"",""time""
""fullscreenenter"",""1"",""6036""
","
","","","629.6000000238419","","","20","8548","4162","f","elianto","#3366ff99"," "," ","1","0","[1479.5]","1","2","","","8548","54","1","1","win","go","1"
"pit-trial","176","1139295","0.0-59.0","battery-v0.2","","""event"",""trial"",""time""
""fullscreenenter"",""1"",""6036""
","
","
","""event"",""trial"",""time""
""fullscreenenter"",""1"",""6036""
","
","","","-1","","","20","8548","4162","n","elianto","#f73b6a7A","-1","-1","1","0","[]","0","2","","","8548","55","0","4","lose","no-go","0"
"pit-trial","177","1143027","0.0-60.0","battery-v0.2","","""event"",""trial"",""time""
""fullscreenenter"",""1"",""6036""
","
","
","""event"",""trial"",""time""
""fullscreenenter"",""1"",""6036""
","
","","","878","","","20","8548","4162","c","elianto","#3366ff99","-1"," ","0","0","[1728.5]","1","2","","","8548","56","4","2","win","no-go","0"
"pit-trial","178","1147882","0.0-61.0","battery-v0.2","","""event"",""trial"",""time""
""fullscreenenter"",""1"",""6036""
","
","
","""event"",""trial"",""time""
""fullscreenenter"",""1"",""6036""
","
","","","-1","","","20","8548","4162","n","elianto","#f73b6a7A","-1","-1","1","0","[]","0","2","","","8548","57","0","4","lose","no-go","0"
"pit-trial","179","1151508","0.0-62.0","battery-v0.2","","""event"",""trial"",""time""
""fullscreenenter"",""1"",""6036""
","
","
","""event"",""trial"",""time""
""fullscreenenter"",""1"",""6036""
","
","","","771.1000000238419","","","20","8548","4162","c","elianto","#3366ff99","-1"," ","0","+10","[1622.300000011921]","1","2","","","8548","58","4","2","win","no-go","1"
"pit-trial","180","1155029","0.0-63.0","battery-v0.2","","""event"",""trial"",""time""
""fullscreenenter"",""1"",""6036""
","
","
","""event"",""trial"",""time""
""fullscreenenter"",""1"",""6036""
","
","","","666.1999999880791","","","20","8548","4162","b","elianto","#f73b6a7A"," "," ","1","0","[1517.2000000476837]","1","2","","","8548","59","3","3","lose","go","0"
"pit-trial","181","1158471","0.0-64.0","battery-v0.2","","""event"",""trial"",""time""
""fullscreenenter"",""1"",""6036""
","
","
","""event"",""trial"",""time""
""fullscreenenter"",""1"",""6036""
","
","","","587.3999999761581","","","20","8548","4162","f","elianto","#3366ff99"," "," ","1","0","[1438.199999988079]","1","2","","","8548","60","1","1","win","go","1"
"pit-trial","182","1162962","0.0-65.0","battery-v0.2","","""event"",""trial"",""time""
""fullscreenenter"",""1"",""6036""
","
","
","""event"",""trial"",""time""
""fullscreenenter"",""1"",""6036""
","
","","","1635.6000000238419","","","20","8548","4162","c","elianto","#3366ff99","-1"," ","0","0","[2487.5]","1","2","","","8548","61","4","2","win","no-go","0"
"pit-trial","183","1166456","0.0-66.0","battery-v0.2","","""event"",""trial"",""time""
""fullscreenenter"",""1"",""6036""
","
","
","""event"",""trial"",""time""
""fullscreenenter"",""1"",""6036""
","
","","","638.8000000119209","","","20","8548","4162","b","elianto","#f73b6a7A"," "," ","1","0","[1489.199999988079]","1","2","","","8548","62","3","3","lose","go","0"
"pit-trial","184","1171317","0.0-67.0","battery-v0.2","","""event"",""trial"",""time""
""fullscreenenter"",""1"",""6036""
","
","
","""event"",""trial"",""time""
""fullscreenenter"",""1"",""6036""
","
","","","-1","","","20","8548","4162","t","elianto","#f73b6a7A","-1","-1","1","0","[]","0","2","","","8548","63","2","4","lose","no-go","0"
"pit-trial","185","1174763","0.0-68.0","battery-v0.2","","""event"",""trial"",""time""
""fullscreenenter"",""1"",""6036""
","
","
","""event"",""trial"",""time""
""fullscreenenter"",""1"",""6036""
","
","","","591.5","","","20","8548","4162","f","elianto","#3366ff99"," "," ","1","0","[1442.6000000238419]","1","2","","","8548","64","1","1","win","go","1"
"pit-trial","186","1179618","0.0-69.0","battery-v0.2","","""event"",""trial"",""time""
""fullscreenenter"",""1"",""6036""
","
","
","""event"",""trial"",""time""
""fullscreenenter"",""1"",""6036""
","
","","","-1","","","20","8548","4162","t","elianto","#f73b6a7A","-1","-1","1","0","[]","0","2","","","8548","65","2","4","lose","no-go","0"
"pit-trial","187","1183181","0.0-70.0","battery-v0.2","","""event"",""trial"",""time""
""fullscreenenter"",""1"",""6036""
","
","
","""event"",""trial"",""time""
""fullscreenenter"",""1"",""6036""
","
","","","709.3000000119209","","","20","8548","4162","c","elianto","#3366ff99","-1"," ","0","0","[1559.3999999761581]","1","2","","","8548","66","4","2","win","no-go","0"
"pit-trial","188","1186939","0.0-71.0","battery-v0.2","","""event"",""trial"",""time""
""fullscreenenter"",""1"",""6036""
","
","
","""event"",""trial"",""time""
""fullscreenenter"",""1"",""6036""
","
","","","902.8000000119209","","","20","8548","4162","b","elianto","#f73b6a7A"," "," ","1","0","[1755.300000011921]","1","2","","","8548","67","3","3","lose","go","0"
"pit-trial","189","1190614","0.0-72.0","battery-v0.2","","""event"",""trial"",""time""
""fullscreenenter"",""1"",""6036""
","
","
","""event"",""trial"",""time""
""fullscreenenter"",""1"",""6036""
","
","","","820.6999999880791","","","20","8548","4162","f","elianto","#3366ff99"," "," ","1","+10","[1671.6000000238419]","1","2","","","8548","68","1","1","win","go","0"
"pit-trial","190","1194537","0.0-73.0","battery-v0.2","","""event"",""trial"",""time""
""fullscreenenter"",""1"",""6036""
","
","
","""event"",""trial"",""time""
""fullscreenenter"",""1"",""6036""
","
","","","1067.699999988079","","","20","8548","4162","c","elianto","#3366ff99","-1"," ","0","0","[1919.3999999761581]","1","2","","","8548","69","4","2","win","no-go","0"
"pit-trial","191","1198263","0.0-74.0","battery-v0.2","","""event"",""trial"",""time""
""fullscreenenter"",""1"",""6036""
","
","
","""event"",""trial"",""time""
""fullscreenenter"",""1"",""6036""
","
","","","869.5999999642372","","","20","8548","4162","b","elianto","#f73b6a7A"," "," ","1","-10","[1722.199999988079]","1","2","","","8548","70","3","3","lose","go","1"
"pit-trial","192","1202094","0.0-75.0","battery-v0.2","","""event"",""trial"",""time""
""fullscreenenter"",""1"",""6036""
","
","
","""event"",""trial"",""time""
""fullscreenenter"",""1"",""6036""
","
","","","976.8000000119209","","","20","8548","4162","f","elianto","#3366ff99"," "," ","1","+10","[1827.1000000238419]","1","2","","","8548","71","1","1","win","go","0"
"pit-trial","193","1206948","0.0-76.0","battery-v0.2","","""event"",""trial"",""time""
""fullscreenenter"",""1"",""6036""
","
","
","""event"",""trial"",""time""
""fullscreenenter"",""1"",""6036""
","
","","","-1","","","20","8548","4162","z","elianto","#3366ff99"," ","-1","0","+10","[3811.600000023842]","1","2","","","8548","72","5","1","win","go","1"
"pit-trial","194","1211082","0.0-77.0","battery-v0.2","","""event"",""trial"",""time""
""fullscreenenter"",""1"",""6036""
","
","
","""event"",""trial"",""time""
""fullscreenenter"",""1"",""6036""
","
","","","1279.5","","","20","8548","4162","f","elianto","#3366ff99"," "," ","1","+10","[2130.399999976158]","1","2","","","8548","73","1","1","win","go","0"
"pit-trial","195","1214857","0.0-78.0","battery-v0.2","","""event"",""trial"",""time""
""fullscreenenter"",""1"",""6036""
","
","
","""event"",""trial"",""time""
""fullscreenenter"",""1"",""6036""
","
","","","919.5","","","20","8548","4162","z","elianto","#3366ff99"," "," ","1","0","[1770]","1","2","","","8548","74","5","1","win","go","1"
"pit-trial","196","1218678","0.0-79.0","battery-v0.2","","""event"",""trial"",""time""
""fullscreenenter"",""1"",""6036""
","
","
","""event"",""trial"",""time""
""fullscreenenter"",""1"",""6036""
","
","","","965.4000000357628","","","20","8548","4162","c","elianto","#3366ff99","-1"," ","0","0","[1817]","1","2","","","8548","75","4","2","win","no-go","0"
"pit-trial","197","1222258","0.0-80.0","battery-v0.2","","""event"",""trial"",""time""
""fullscreenenter"",""1"",""6036""
","
","
","""event"",""trial"",""time""
""fullscreenenter"",""1"",""6036""
","
","","","725.8000000119209","","","20","8548","4162","b","elianto","#f73b6a7A"," "," ","1","0","[1576.3999999761581]","1","2","","","8548","76","3","3","lose","go","0"
"pit-trial","198","1225704","0.0-81.0","battery-v0.2","","""event"",""trial"",""time""
""fullscreenenter"",""1"",""6036""
","
","
","""event"",""trial"",""time""
""fullscreenenter"",""1"",""6036""
","
","","","591.3000000119209","","","20","8548","4162","b","elianto","#f73b6a7A"," "," ","1","0","[1441.3999999761581]","1","2","","","8548","77","3","3","lose","go","0"
"pit-trial","199","1229134","0.0-82.0","battery-v0.2","","""event"",""trial"",""time""
""fullscreenenter"",""1"",""6036""
","
","
","""event"",""trial"",""time""
""fullscreenenter"",""1"",""6036""
","
","","","576.4000000357628","","","20","8548","4162","z","elianto","#3366ff99"," "," ","1","0","[1426.800000011921]","1","2","","","8548","78","5","1","win","go","1"
"pit-trial","200","1232899","0.0-83.0","battery-v0.2","","""event"",""trial"",""time""
""fullscreenenter"",""1"",""6036""
","
","
","""event"",""trial"",""time""
""fullscreenenter"",""1"",""6036""
","
","","","911.8000000119209","","","20","8548","4162","c","elianto","#3366ff99","-1"," ","0","0","[1762]","1","2","","","8548","79","4","2","win","no-go","0"
"pit-trial","201","1237445","0.0-84.0","battery-v0.2","","""event"",""trial"",""time""
""fullscreenenter"",""1"",""6036""
","
","
","""event"",""trial"",""time""
""fullscreenenter"",""1"",""6036""
","
","","","1691.8999999761581","","","20","8548","4162","h","elianto","#f73b6a7A","-1"," ","0","-10","[2542.800000011921]","1","2","","","8548","80","6","4","lose","no-go","0"
"pit-trial","202","1242300","0.0-85.0","battery-v0.2","","""event"",""trial"",""time""
""fullscreenenter"",""1"",""6036""
","
","
","""event"",""trial"",""time""
""fullscreenenter"",""1"",""6036""
","
","","","-1","","","20","8548","4162","z","elianto","#3366ff99"," ","-1","0","+10","[]","0","2","","","8548","81","5","1","win","go","1"
"pit-trial","203","1246262","0.0-86.0","battery-v0.2","","""event"",""trial"",""time""
""fullscreenenter"",""1"",""6036""
","
","
","""event"",""trial"",""time""
""fullscreenenter"",""1"",""6036""
","
","","","1105.7999999523163","","","20","8548","4162","y","elianto","#f73b6a7A"," "," ","1","0","[1956.199999988079]","1","2","","","8548","82","7","3","lose","go","0"
"pit-trial","204","1251118","0.0-87.0","battery-v0.2","","""event"",""trial"",""time""
""fullscreenenter"",""1"",""6036""
","
","
","""event"",""trial"",""time""
""fullscreenenter"",""1"",""6036""
","
","","","-1","","","20","8548","4162","h","elianto","#f73b6a7A","-1","-1","1","0","[]","0","2","","","8548","83","6","4","lose","no-go","0"
"pit-trial","205","1255000","0.0-88.0","battery-v0.2","","""event"",""trial"",""time""
""fullscreenenter"",""1"",""6036""
","
","
","""event"",""trial"",""time""
""fullscreenenter"",""1"",""6036""
","
","","","1027.4000000357628","","","20","8548","4162","c","elianto","#3366ff99","-1"," ","0","0","[1877.800000011921]","1","2","","","8548","84","4","2","win","no-go","0"
"pit-trial","206","1259854","0.0-89.0","battery-v0.2","","""event"",""trial"",""time""
""fullscreenenter"",""1"",""6036""
","
","
","""event"",""trial"",""time""
""fullscreenenter"",""1"",""6036""
","
","","","-1","","","20","8548","4162","y","elianto","#f73b6a7A"," ","-1","0","0","[]","0","2","","","8548","85","7","3","lose","go","1"
"pit-trial","207","1264717","0.0-90.0","battery-v0.2","","""event"",""trial"",""time""
""fullscreenenter"",""1"",""6036""
","
","
","""event"",""trial"",""time""
""fullscreenenter"",""1"",""6036""
","
","","","-1","","","20","8548","4162","h","elianto","#f73b6a7A","-1","-1","1","0","[]","0","2","","","8548","86","6","4","lose","no-go","0"
"pit-trial","208","1268785","0.0-91.0","battery-v0.2","","""event"",""trial"",""time""
""fullscreenenter"",""1"",""6036""
","
","
","""event"",""trial"",""time""
""fullscreenenter"",""1"",""6036""
","
","","","1212.3999999761581","","","20","8548","4162","c","elianto","#3366ff99","-1"," ","0","0","[2064.100000023842]","1","2","","","8548","87","4","2","win","no-go","0"
"pit-trial","209","1273192","0.0-92.0","battery-v0.2","","""event"",""trial"",""time""
""fullscreenenter"",""1"",""6036""
","
","
","""event"",""trial"",""time""
""fullscreenenter"",""1"",""6036""
","
","","","1550.3999999761581","","","20","8548","4162","z","elianto","#3366ff99"," "," ","1","+10","[2401.800000011921]","1","2","","","8548","88","5","1","win","go","0"
"pit-trial","210","1278047","0.0-93.0","battery-v0.2","","""event"",""trial"",""time""
""fullscreenenter"",""1"",""6036""
","
","
","""event"",""trial"",""time""
""fullscreenenter"",""1"",""6036""
","
","","","-1","","","20","8548","4162","h","elianto","#f73b6a7A","-1","-1","1","0","[]","0","2","","","8548","89","6","4","lose","no-go","0"
"pit-trial","211","1281889","0.0-94.0","battery-v0.2","","""event"",""trial"",""time""
""fullscreenenter"",""1"",""6036""
","
","
","""event"",""trial"",""time""
""fullscreenenter"",""1"",""6036""
","
","","","988","","","20","8548","4162","c","elianto","#3366ff99","-1"," ","0","0","[1838.0999999642372]","1","2","","","8548","90","4","2","win","no-go","0"
"pit-trial","212","1286153","0.0-95.0","battery-v0.2","","""event"",""trial"",""time""
""fullscreenenter"",""1"",""6036""
","
","
","""event"",""trial"",""time""
""fullscreenenter"",""1"",""6036""
","
","","","1409.699999988079","","","20","8548","4162","y","elianto","#f73b6a7A"," "," ","1","0","[2260.400000035763]","1","2","","","8548","91","7","3","lose","go","0"
"pit-trial","213","1291007","0.0-96.0","battery-v0.2","","""event"",""trial"",""time""
""fullscreenenter"",""1"",""6036""
","
","
","""event"",""trial"",""time""
""fullscreenenter"",""1"",""6036""
","
","","","-1","","","20","8548","4162","z","elianto","#3366ff99"," ","-1","0","+10","[]","0","2","","","8548","92","5","1","win","go","1"
"pit-trial","214","1295862","0.0-97.0","battery-v0.2","","""event"",""trial"",""time""
""fullscreenenter"",""1"",""6036""
","
","
","""event"",""trial"",""time""
""fullscreenenter"",""1"",""6036""
","
","","","-1","","","20","8548","4162","h","elianto","#f73b6a7A","-1","-1","1","-10","[]","0","2","","","8548","93","6","4","lose","no-go","1"
"pit-trial","215","1299840","0.0-98.0","battery-v0.2","","""event"",""trial"",""time""
""fullscreenenter"",""1"",""6036""
","
","
","""event"",""trial"",""time""
""fullscreenenter"",""1"",""6036""
","
","","","1125.5999999642372","","","20","8548","4162","y","elianto","#f73b6a7A"," "," ","1","0","[1976]","1","2","","","8548","94","7","3","lose","go","0"
"pit-trial","216","1303956","0.0-99.0","battery-v0.2","","""event"",""trial"",""time""
""fullscreenenter"",""1"",""6036""
","
","
","""event"",""trial"",""time""
""fullscreenenter"",""1"",""6036""
","
","","","1261.5","","","20","8548","4162","r","elianto","#3366ff99","-1"," ","0","0","[2111.699999988079]","1","2","","","8548","95","8","2","win","no-go","0"
"pit-trial","217","1308810","0.0-100.0","battery-v0.2","","""event"",""trial"",""time""
""fullscreenenter"",""1"",""6036""
","
","
","""event"",""trial"",""time""
""fullscreenenter"",""1"",""6036""
","
","","","-1","","","20","8548","4162","z","elianto","#3366ff99"," ","-1","0","+10","[]","0","2","","","8548","96","5","1","win","go","1"
"pit-trial","218","1312892","0.0-101.0","battery-v0.2","","""event"",""trial"",""time""
""fullscreenenter"",""1"",""6036""
","
","
","""event"",""trial"",""time""
""fullscreenenter"",""1"",""6036""
","
","","","1226.6000000238419","","","20","8548","4162","y","elianto","#f73b6a7A"," "," ","1","0","[2077.699999988079]","1","2","","","8548","97","7","3","lose","go","0"
"pit-trial","219","1317747","0.0-102.0","battery-v0.2","","""event"",""trial"",""time""
""fullscreenenter"",""1"",""6036""
","
","
","""event"",""trial"",""time""
""fullscreenenter"",""1"",""6036""
","
","","","-1","","","20","8548","4162","z","elianto","#3366ff99"," ","-1","0","0","[]","0","2","","","8548","98","5","1","win","go","0"
"pit-trial","220","1322603","0.0-103.0","battery-v0.2","","""event"",""trial"",""time""
""fullscreenenter"",""1"",""6036""
","
","
","""event"",""trial"",""time""
""fullscreenenter"",""1"",""6036""
","
","","","-1","","","20","8548","4162","h","elianto","#f73b6a7A","-1","-1","1","0","[]","0","2","","","8548","99","6","4","lose","no-go","0"
"pit-trial","221","1327457","0.0-104.0","battery-v0.2","","""event"",""trial"",""time""
""fullscreenenter"",""1"",""6036""
","
","
","""event"",""trial"",""time""
""fullscreenenter"",""1"",""6036""
","
","","","-1","","","20","8548","4162","r","elianto","#3366ff99","-1","-1","1","+10","[]","0","2","","","8548","100","8","2","win","no-go","0"
"pit-trial","222","1332311","0.0-105.0","battery-v0.2","","""event"",""trial"",""time""
""fullscreenenter"",""1"",""6036""
","
","
","""event"",""trial"",""time""
""fullscreenenter"",""1"",""6036""
","
","","","-1","","","20","8548","4162","z","elianto","#3366ff99"," ","-1","0","0","[]","0","2","","","8548","101","5","1","win","go","0"
"pit-trial","223","1337167","0.0-106.0","battery-v0.2","","""event"",""trial"",""time""
""fullscreenenter"",""1"",""6036""
","
","
","""event"",""trial"",""time""
""fullscreenenter"",""1"",""6036""
","
","","","-1","","","20","8548","4162","r","elianto","#3366ff99","-1","-1","1","+10","[]","0","2","","","8548","102","8","2","win","no-go","0"
"pit-trial","224","1341157","0.0-107.0","battery-v0.2","","""event"",""trial"",""time""
""fullscreenenter"",""1"",""6036""
","
","
","""event"",""trial"",""time""
""fullscreenenter"",""1"",""6036""
","
","","","1134.5","","","20","8548","4162","m","elianto","#3366ff99","-1"," ","0","0","[1985.699999988079]","1","2","","","8548","103","9","2","win","no-go","0"
"pit-trial","225","1346011","0.0-108.0","battery-v0.2","","""event"",""trial"",""time""
""fullscreenenter"",""1"",""6036""
","
","
","""event"",""trial"",""time""
""fullscreenenter"",""1"",""6036""
","
","","","-1","","","20","8548","4162","h","elianto","#f73b6a7A","-1","-1","1","0","[]","0","2","","","8548","104","6","4","lose","no-go","0"
"pit-trial","226","1350867","0.0-109.0","battery-v0.2","","""event"",""trial"",""time""
""fullscreenenter"",""1"",""6036""
","
","
","""event"",""trial"",""time""
""fullscreenenter"",""1"",""6036""
","
","","","-1","","","20","8548","4162","m","elianto","#3366ff99","-1","-1","1","+10","[]","0","2","","","8548","105","9","2","win","no-go","0"
"pit-trial","227","1355721","0.0-110.0","battery-v0.2","","""event"",""trial"",""time""
""fullscreenenter"",""1"",""6036""
","
","
","""event"",""trial"",""time""
""fullscreenenter"",""1"",""6036""
","
","","","-1","","","20","8548","4162","h","elianto","#f73b6a7A","-1","-1","1","0","[]","0","2","","","8548","106","6","4","lose","no-go","0"
"pit-trial","228","1360243","0.0-111.0","battery-v0.2","","""event"",""trial"",""time""
""fullscreenenter"",""1"",""6036""
","
","
","""event"",""trial"",""time""
""fullscreenenter"",""1"",""6036""
","
","","","1666.0999999642372","","","20","8548","4162","r","elianto","#3366ff99","-1"," ","0","0","[2517.900000035763]","1","2","","","8548","107","8","2","win","no-go","0"
"pit-trial","229","1365098","0.0-112.0","battery-v0.2","","""event"",""trial"",""time""
""fullscreenenter"",""1"",""6036""
","
","
","""event"",""trial"",""time""
""fullscreenenter"",""1"",""6036""
","
","","","-1","","","20","8548","4162","z","elianto","#3366ff99"," ","-1","0","0","[]","0","2","","","8548","108","5","1","win","go","0"
"pit-trial","230","1369096","0.0-113.0","battery-v0.2","","""event"",""trial"",""time""
""fullscreenenter"",""1"",""6036""
","
","
","""event"",""trial"",""time""
""fullscreenenter"",""1"",""6036""
","
","","","1142.5","","","20","8548","4162","z","elianto","#3366ff99"," "," ","1","+10","[1993.199999988079]","1","2","","","8548","109","5","1","win","go","0"
"pit-trial","231","1373951","0.0-114.0","battery-v0.2","","""event"",""trial"",""time""
""fullscreenenter"",""1"",""6036""
","
","
","""event"",""trial"",""time""
""fullscreenenter"",""1"",""6036""
","
","","","-1","","","20","8548","4162","r","elianto","#3366ff99","-1","-1","1","+10","[]","0","2","","","8548","110","8","2","win","no-go","0"
"pit-trial","232","1378806","0.0-115.0","battery-v0.2","","""event"",""trial"",""time""
""fullscreenenter"",""1"",""6036""
","
","
","""event"",""trial"",""time""
""fullscreenenter"",""1"",""6036""
","
","","","-1","","","20","8548","4162","m","elianto","#3366ff99","-1","-1","1","+10","[]","0","2","","","8548","111","9","2","win","no-go","0"
"pit-trial","233","1383661","0.0-116.0","battery-v0.2","","""event"",""trial"",""time""
""fullscreenenter"",""1"",""6036""
","
","
","""event"",""trial"",""time""
""fullscreenenter"",""1"",""6036""
","
","","","-1","","","20","8548","4162","h","elianto","#f73b6a7A","-1","-1","1","0","[]","0","2","","","8548","112","6","4","lose","no-go","0"
"pit-trial","234","1388517","0.0-117.0","battery-v0.2","","""event"",""trial"",""time""
""fullscreenenter"",""1"",""6036""
","
","
","""event"",""trial"",""time""
""fullscreenenter"",""1"",""6036""
","
","","","-1","","","20","8548","4162","m","elianto","#3366ff99","-1","-1","1","+10","[]","0","2","","","8548","113","9","2","win","no-go","0"
"pit-trial","235","1393371","0.0-118.0","battery-v0.2","","""event"",""trial"",""time""
""fullscreenenter"",""1"",""6036""
","
","
","""event"",""trial"",""time""
""fullscreenenter"",""1"",""6036""
","
","","","-1","","","20","8548","4162","r","elianto","#3366ff99","-1","-1","1","+10","[]","0","2","","","8548","114","8","2","win","no-go","0"
"pit-trial","236","1398226","0.0-119.0","battery-v0.2","","""event"",""trial"",""time""
""fullscreenenter"",""1"",""6036""
","
","
","""event"",""trial"",""time""
""fullscreenenter"",""1"",""6036""
","
","","","-1","","","20","8548","4162","z","elianto","#3366ff99"," ","-1","0","0","[]","0","2","","","8548","115","5","1","win","go","0"
"pit-trial","237","1402216","0.0-120.0","battery-v0.2","","""event"",""trial"",""time""
""fullscreenenter"",""1"",""6036""
","
","
","""event"",""trial"",""time""
""fullscreenenter"",""1"",""6036""
","
","","","1131.6000000238419","","","20","8548","4162","y","elianto","#f73b6a7A"," "," ","1","0","[1985]","1","2","","","8548","116","7","3","lose","go","0"
"pit-trial","238","1407070","0.0-121.0","battery-v0.2","","""event"",""trial"",""time""
""fullscreenenter"",""1"",""6036""
","
","
","""event"",""trial"",""time""
""fullscreenenter"",""1"",""6036""
","
","","","-1","","","20","8548","4162","h","elianto","#f73b6a7A","-1","-1","1","0","[]","0","2","","","8548","117","6","4","lose","no-go","0"
"pit-trial","239","1411127","0.0-122.0","battery-v0.2","","""event"",""trial"",""time""
""fullscreenenter"",""1"",""6036""
","
","
","""event"",""trial"",""time""
""fullscreenenter"",""1"",""6036""
","
","","","1202.5999999642372","","","20","8548","4162","z","elianto","#3366ff99"," "," ","1","0","[2052.7000000476837]","1","2","","","8548","118","5","1","win","go","1"
"pit-trial","240","1415983","0.0-123.0","battery-v0.2","","""event"",""trial"",""time""
""fullscreenenter"",""1"",""6036""
","
","
","""event"",""trial"",""time""
""fullscreenenter"",""1"",""6036""
","
","","","-1","","","20","8548","4162","r","elianto","#3366ff99","-1","-1","1","0","[]","0","2","","","8548","119","8","2","win","no-go","1"
"pit-trial","241","1420838","0.0-124.0","battery-v0.2","","""event"",""trial"",""time""
""fullscreenenter"",""1"",""6036""
","
","
","""event"",""trial"",""time""
""fullscreenenter"",""1"",""6036""
","
","","","-1","","","20","8548","4162","m","elianto","#3366ff99","-1","-1","1","0","[]","0","2","","","8548","120","9","2","win","no-go","1"
"pit-trial","242","1425692","0.0-125.0","battery-v0.2","","""event"",""trial"",""time""
""fullscreenenter"",""1"",""6036""
","
","
","""event"",""trial"",""time""
""fullscreenenter"",""1"",""6036""
","
","","","-1","","","20","8548","4162","z","elianto","#3366ff99"," ","-1","0","0","[]","0","2","","","8548","121","5","1","win","go","0"
"pit-trial","243","1430558","0.0-126.0","battery-v0.2","","""event"",""trial"",""time""
""fullscreenenter"",""1"",""6036""
","
","
","""event"",""trial"",""time""
""fullscreenenter"",""1"",""6036""
","
","","","-1","","","20","8548","4162","m","elianto","#3366ff99","-1","-1","1","0","[]","0","2","","","8548","122","9","2","win","no-go","1"
"pit-trial","244","1435413","0.0-127.0","battery-v0.2","","""event"",""trial"",""time""
""fullscreenenter"",""1"",""6036""
","
","
","""event"",""trial"",""time""
""fullscreenenter"",""1"",""6036""
","
","","","-1","","","20","8548","4162","y","elianto","#f73b6a7A"," ","-1","0","-10","[]","0","2","","","8548","123","7","3","lose","go","0"
"pit-trial","245","1440267","0.0-128.0","battery-v0.2","","""event"",""trial"",""time""
""fullscreenenter"",""1"",""6036""
","
","
","""event"",""trial"",""time""
""fullscreenenter"",""1"",""6036""
","
","","","-1","","","20","8548","4162","r","elianto","#3366ff99","-1","-1","1","+10","[]","0","2","","","8548","124","8","2","win","no-go","0"
"pit-trial","246","1445131","0.0-129.0","battery-v0.2","","""event"",""trial"",""time""
""fullscreenenter"",""1"",""6036""
","
","
","""event"",""trial"",""time""
""fullscreenenter"",""1"",""6036""
","
","","","-1","","","20","8548","4162","m","elianto","#3366ff99","-1","-1","1","+10","[]","0","2","","","8548","125","9","2","win","no-go","0"
"pit-trial","247","1449987","0.0-130.0","battery-v0.2","","""event"",""trial"",""time""
""fullscreenenter"",""1"",""6036""
","
","
","""event"",""trial"",""time""
""fullscreenenter"",""1"",""6036""
","
","","","-1","","","20","8548","4162","h","elianto","#f73b6a7A","-1","-1","1","0","[]","0","2","","","8548","126","6","4","lose","no-go","0"
"pit-trial","248","1454841","0.0-131.0","battery-v0.2","","""event"",""trial"",""time""
""fullscreenenter"",""1"",""6036""
","
","
","""event"",""trial"",""time""
""fullscreenenter"",""1"",""6036""
","
","","","-1","","","20","8548","4162","r","elianto","#3366ff99","-1","-1","1","+10","[]","0","2","","","8548","127","8","2","win","no-go","0"
"pit-trial","249","1458506","0.0-132.0","battery-v0.2","","""event"",""trial"",""time""
""fullscreenenter"",""1"",""6036""
","
","
","""event"",""trial"",""time""
""fullscreenenter"",""1"",""6036""
","
","","","811.4000000357628","","","20","8548","4162","y","elianto","#f73b6a7A"," "," ","1","-10","[1661.3999999761581]","1","2","","","8548","128","7","3","lose","go","1"
"pit-trial","250","1463361","0.0-133.0","battery-v0.2","","""event"",""trial"",""time""
""fullscreenenter"",""1"",""6036""
","
","
","""event"",""trial"",""time""
""fullscreenenter"",""1"",""6036""
","
","","","-1","","","20","8548","4162","h","elianto","#f73b6a7A","-1","-1","1","0","[]","0","2","","","8548","129","6","4","lose","no-go","0"
"pit-trial","251","1468216","0.0-134.0","battery-v0.2","","""event"",""trial"",""time""
""fullscreenenter"",""1"",""6036""
","
","
","""event"",""trial"",""time""
""fullscreenenter"",""1"",""6036""
","
","","","-1","","","20","8548","4162","m","elianto","#3366ff99","-1","-1","1","+10","[]","0","2","","","8548","130","9","2","win","no-go","0"
"pit-trial","252","1473071","0.0-135.0","battery-v0.2","","""event"",""trial"",""time""
""fullscreenenter"",""1"",""6036""
","
","
","""event"",""trial"",""time""
""fullscreenenter"",""1"",""6036""
","
","","","-1","","","20","8548","4162","y","elianto","#f73b6a7A"," ","-1","0","-10","[]","0","2","","","8548","131","7","3","lose","go","0"
"pit-trial","253","1477926","0.0-136.0","battery-v0.2","","""event"",""trial"",""time""
""fullscreenenter"",""1"",""6036""
","
","
","""event"",""trial"",""time""
""fullscreenenter"",""1"",""6036""
","
","","","-1","","","20","8548","4162","r","elianto","#3366ff99","-1","-1","1","0","[]","0","2","","","8548","132","8","2","win","no-go","1"
"pit-trial","254","1481923","0.0-137.0","battery-v0.2","","""event"",""trial"",""time""
""fullscreenenter"",""1"",""6036""
","
","
","""event"",""trial"",""time""
""fullscreenenter"",""1"",""6036""
","
","","","1143","","","20","8548","4162","r","elianto","#3366ff99","-1"," ","0","0","[1994]","1","2","","","8548","133","8","2","win","no-go","0"
"pit-trial","255","1485941","0.0-138.0","battery-v0.2","","""event"",""trial"",""time""
""fullscreenenter"",""1"",""6036""
","
","
","""event"",""trial"",""time""
""fullscreenenter"",""1"",""6036""
","
","","","1163.2000000476837","","","20","8548","4162","y","elianto","#f73b6a7A"," "," ","1","0","[2014]","1","2","","","8548","134","7","3","lose","go","0"
"pit-trial","256","1490797","0.0-139.0","battery-v0.2","","""event"",""trial"",""time""
""fullscreenenter"",""1"",""6036""
","
","
","""event"",""trial"",""time""
""fullscreenenter"",""1"",""6036""
","
","","","-1","","","20","8548","4162","h","elianto","#f73b6a7A","-1","-1","1","0","[]","0","2","","","8548","135","6","4","lose","no-go","0"
"pit-trial","257","1495652","0.0-140.0","battery-v0.2","","""event"",""trial"",""time""
""fullscreenenter"",""1"",""6036""
","
","
","""event"",""trial"",""time""
""fullscreenenter"",""1"",""6036""
","
","","","-1","","","20","8548","4162","m","elianto","#3366ff99","-1","-1","1","+10","[]","0","2","","","8548","136","9","2","win","no-go","0"
"pit-trial","258","1500507","0.0-141.0","battery-v0.2","","""event"",""trial"",""time""
""fullscreenenter"",""1"",""6036""
","
","
","""event"",""trial"",""time""
""fullscreenenter"",""1"",""6036""
","
","","","-1","","","20","8548","4162","m","elianto","#3366ff99","-1","-1","1","+10","[]","0","2","","","8548","137","9","2","win","no-go","0"
"pit-trial","259","1505363","0.0-142.0","battery-v0.2","","""event"",""trial"",""time""
""fullscreenenter"",""1"",""6036""
","
","
","""event"",""trial"",""time""
""fullscreenenter"",""1"",""6036""
","
","","","-1","","","20","8548","4162","r","elianto","#3366ff99","-1","-1","1","+10","[]","0","2","","","8548","138","8","2","win","no-go","0"
"pit-trial","260","1510218","0.0-143.0","battery-v0.2","","""event"",""trial"",""time""
""fullscreenenter"",""1"",""6036""
","
","
","""event"",""trial"",""time""
""fullscreenenter"",""1"",""6036""
","
","","","-1","","","20","8548","4162","h","elianto","#f73b6a7A","-1","-1","1","0","[]","0","2","","","8548","139","6","4","lose","no-go","0"
"pit-trial","261","1513839","0.0-144.0","battery-v0.2","","""event"",""trial"",""time""
""fullscreenenter"",""1"",""6036""
","
","
","""event"",""trial"",""time""
""fullscreenenter"",""1"",""6036""
","
","","","766.3000000119209","","","20","8548","4162","y","elianto","#f73b6a7A"," "," ","1","-10","[1617.8999999761581]","1","2","","","8548","140","7","3","lose","go","1"
"pit-instructions","262","1879315","0.0-145.0","battery-v0.2","","""event"",""trial"",""time""
""fullscreenenter"",""1"",""6036""
","
","
","""event"",""trial"",""time""
""fullscreenenter"",""1"",""6036""
","
","","[{""page_index"":0,""viewing_time"":357397.89999997616},{""page_index"":1,""viewing_time"":8074}]","365472.6999999881","","","","","","","","","","","","","","","","","","","","","","","",""
"pit-trial","263","1883369","0.0-146.0","battery-v0.2","","""event"",""trial"",""time""
""fullscreenenter"",""1"",""6036""
","
","
","""event"",""trial"",""time""
""fullscreenenter"",""1"",""6036""
","
","","","1196.3999999761581","","","20","8548","4162","j","elianto","#f73b6a7A"," "," ","1","0","[2047.7999999523163]","1","3","","","8548","141","0","3","lose","go","0"
"pit-trial","264","1887215","0.0-147.0","battery-v0.2","","""event"",""trial"",""time""
""fullscreenenter"",""1"",""6036""
","
","
","""event"",""trial"",""time""
""fullscreenenter"",""1"",""6036""
","
","","","990","","","20","8548","4162","d","elianto","#3366ff99","-1"," ","0","0","[1840.1000000238419]","1","3","","","8548","142","1","2","win","no-go","0"
"pit-trial","265","1891343","0.0-148.0","battery-v0.2","","""event"",""trial"",""time""
""fullscreenenter"",""1"",""6036""
","
","
","""event"",""trial"",""time""
""fullscreenenter"",""1"",""6036""
","
","","","1272.2000000476837","","","20","8548","4162","e","elianto","#f73b6a7A"," "," ","1","0","[2122.600000023842]","1","3","","","8548","143","2","3","lose","go","0"
"pit-trial","266","1895028","0.0-149.0","battery-v0.2","","""event"",""trial"",""time""
""fullscreenenter"",""1"",""6036""
","
","
","""event"",""trial"",""time""
""fullscreenenter"",""1"",""6036""
","
","","","830.0999999642372","","","20","8548","4162","w","elianto","#f73b6a7A","-1"," ","0","-10","[1681]","1","3","","","8548","144","3","4","lose","no-go","0"
"pit-trial","267","1899885","0.0-150.0","battery-v0.2","","""event"",""trial"",""time""
""fullscreenenter"",""1"",""6036""
","
","
","""event"",""trial"",""time""
