"trial_type","trial_index","time_elapsed","internal_node_id","task_version","subject_id","interactions","blur_events","focus_events","fullscreenenter_events","fullscreenexit_events","success","view_history","rt","responses","num_errors","age","subject","participantId","rune","rune_set","hex","correct","choice","accuracy","outcome","keys","total_keys","block","practice","value","sub","trial","stimulus","robot","valence","action","sham"
"pavlovia","0","11","0.0-0.0","battery-v0.2","","""event"",""trial"",""time""
""focus"",""0"",""3""
""fullscreenenter"",""1"",""3398""
","
","""event"",""trial"",""time""
""focus"",""0"",""3""
","""event"",""trial"",""time""
""fullscreenenter"",""1"",""3398""
","
","","","","","","","","","","","","","","","","","","","","","","","","","","",""
"fullscreen","1","4392","0.0-1.0","battery-v0.2","","""event"",""trial"",""time""
""focus"",""0"",""3""
""fullscreenenter"",""1"",""3398""
","
","""event"",""trial"",""time""
""focus"",""0"",""3""
","""event"",""trial"",""time""
""fullscreenenter"",""1"",""3398""
","
","true","","","","","","","","","","","","","","","","","","","","","","","","","",""
"pit-instructions","2","9247","0.0-2.0-0.0","battery-v0.2","","""event"",""trial"",""time""
""focus"",""0"",""3""
""fullscreenenter"",""1"",""3398""
","
","""event"",""trial"",""time""
""focus"",""0"",""3""
","""event"",""trial"",""time""
""fullscreenenter"",""1"",""3398""
","
","","[{""page_index"":0,""viewing_time"":4840}]","4840","","","","","","","","","","","","","","","","","","","","","","","",""
"pit-comprehension","3","13037","0.0-2.0-1.0-0.0","battery-v0.2","","""event"",""trial"",""time""
""focus"",""0"",""3""
""fullscreenenter"",""1"",""3398""
","
","""event"",""trial"",""time""
""focus"",""0"",""3""
","""event"",""trial"",""time""
""fullscreenenter"",""1"",""3398""
","
","","","3781","[""shark""]","0","25","7809","3913","","","","","","","","","","","","","","","","","","",""
"pit-instructions","4","15623","0.0-2.0-1.0-1.0","battery-v0.2","","""event"",""trial"",""time""
""focus"",""0"",""3""
""fullscreenenter"",""1"",""3398""
","
","""event"",""trial"",""time""
""focus"",""0"",""3""
","""event"",""trial"",""time""
""fullscreenenter"",""1"",""3398""
","
","","[{""page_index"":0,""viewing_time"":2580}]","2580","","","","","","","","","","","","","","","","","","","","","","","",""
"pit-comprehension","5","18416","0.0-2.0-2.0-0.0","battery-v0.2","","""event"",""trial"",""time""
""focus"",""0"",""3""
""fullscreenenter"",""1"",""3398""
","
","""event"",""trial"",""time""
""focus"",""0"",""3""
","""event"",""trial"",""time""
""fullscreenenter"",""1"",""3398""
","
","","","2787","[""tiger""]","0","25","7809","3913","","","","","","","","","","","","","","","","","","",""
"pit-instructions","6","19343","0.0-2.0-2.0-1.0","battery-v0.2","","""event"",""trial"",""time""
""focus"",""0"",""3""
""fullscreenenter"",""1"",""3398""
","
","""event"",""trial"",""time""
""focus"",""0"",""3""
","""event"",""trial"",""time""
""fullscreenenter"",""1"",""3398""
","
","","[{""page_index"":0,""viewing_time"":922}]","924","","","","","","","","","","","","","","","","","","","","","","","",""
"pit-instructions","7","126876","0.0-2.0-3.0","battery-v0.2","","""event"",""trial"",""time""
""focus"",""0"",""3""
""fullscreenenter"",""1"",""3398""
","
","""event"",""trial"",""time""
""focus"",""0"",""3""
","""event"",""trial"",""time""
""fullscreenenter"",""1"",""3398""
","
","","[{""page_index"":0,""viewing_time"":10683},{""page_index"":1,""viewing_time"":6601},{""page_index"":2,""viewing_time"":7560},{""page_index"":3,""viewing_time"":5055},{""page_index"":4,""viewing_time"":5793},{""page_index"":5,""viewing_time"":5671},{""page_index"":6,""viewing_time"":7001},{""page_index"":7,""viewing_time"":9264},{""page_index"":8,""viewing_time"":8248},{""page_index"":9,""viewing_time"":8632},{""page_index"":10,""viewing_time"":9320},{""page_index"":11,""viewing_time"":7583},{""page_index"":12,""viewing_time"":10073},{""page_index"":13,""viewing_time"":6040}]","107524","","","","","","","","","","","","","","","","","","","","","","","",""
"pit-trial","8","130754","0.0-2.0-4.0-0.0","battery-v0.2","","""event"",""trial"",""time""
""focus"",""0"",""3""
""fullscreenenter"",""1"",""3398""
","
","""event"",""trial"",""time""
""focus"",""0"",""3""
","""event"",""trial"",""time""
""fullscreenenter"",""1"",""3398""
","
","","","1013","","","25","7809","3913","&#9784;","elianto","#FFFFF080"," "," ","1","&#10004","[1867]","1","0","0","","","","","","","",""
"pit-trial","9","134532","0.0-2.0-4.1-0.1","battery-v0.2","","""event"",""trial"",""time""
""focus"",""0"",""3""
""fullscreenenter"",""1"",""3398""
","
","""event"",""trial"",""time""
""focus"",""0"",""3""
","""event"",""trial"",""time""
""fullscreenenter"",""1"",""3398""
","
","","","918","","","25","7809","3913","&#9784;","elianto","#FFFFF080"," "," ","1","&#10004","[1771]","1","0","0","","","","","","","",""
"pit-trial","10","138335","0.0-2.0-4.2-0.2","battery-v0.2","","""event"",""trial"",""time""
""focus"",""0"",""3""
""fullscreenenter"",""1"",""3398""
","
","""event"",""trial"",""time""
""focus"",""0"",""3""
","""event"",""trial"",""time""
""fullscreenenter"",""1"",""3398""
","
","","","944","","","25","7809","3913","&#9784;","elianto","#FFFFF080"," "," ","1","&#10004","[1793]","1","0","0","","","","","","","",""
"pit-trial","11","142117","0.0-2.0-4.3-0.3","battery-v0.2","","""event"",""trial"",""time""
""focus"",""0"",""3""
""fullscreenenter"",""1"",""3398""
","
","""event"",""trial"",""time""
""focus"",""0"",""3""
","""event"",""trial"",""time""
""fullscreenenter"",""1"",""3398""
","
","","","919","","","25","7809","3913","&#9784;","elianto","#FFFFF080"," "," ","1","&#10004","[1773]","1","0","0","","","","","","","",""
"pit-trial","12","145695","0.0-2.0-4.4-0.4","battery-v0.2","","""event"",""trial"",""time""
""focus"",""0"",""3""
""fullscreenenter"",""1"",""3398""
","
","""event"",""trial"",""time""
""focus"",""0"",""3""
","""event"",""trial"",""time""
""fullscreenenter"",""1"",""3398""
","
","","","714","","","25","7809","3913","&#9784;","elianto","#FFFFF080"," "," ","1","&#10004","[1569]","1","0","0","","","","","","","",""
"pit-instructions","13","169694","0.0-2.0-5.0","battery-v0.2","","""event"",""trial"",""time""
""focus"",""0"",""3""
""fullscreenenter"",""1"",""3398""
","
","""event"",""trial"",""time""
""focus"",""0"",""3""
","""event"",""trial"",""time""
""fullscreenenter"",""1"",""3398""
","
","","[{""page_index"":0,""viewing_time"":6464},{""page_index"":1,""viewing_time"":6191},{""page_index"":2,""viewing_time"":5976},{""page_index"":3,""viewing_time"":5361}]","23992","","","","","","","","","","","","","","","","","","","","","","","",""
"pit-trial","14","174551","0.0-2.0-6.0-0.0","battery-v0.2","","""event"",""trial"",""time""
""focus"",""0"",""3""
""fullscreenenter"",""1"",""3398""
","
","""event"",""trial"",""time""
""focus"",""0"",""3""
","""event"",""trial"",""time""
""fullscreenenter"",""1"",""3398""
","
","","","-1","","","25","7809","3913","&#9854;","elianto","#FFFFF080","-1","-1","1","&#10004","[]","0","0","1","","","","","","","",""
"pit-trial","15","179413","0.0-2.0-6.1-0.1","battery-v0.2","","""event"",""trial"",""time""
""focus"",""0"",""3""
""fullscreenenter"",""1"",""3398""
","
","""event"",""trial"",""time""
""focus"",""0"",""3""
","""event"",""trial"",""time""
""fullscreenenter"",""1"",""3398""
","
","","","-1","","","25","7809","3913","&#9854;","elianto","#FFFFF080","-1","-1","1","&#10004","[]","0","0","1","","","","","","","",""
"pit-trial","16","184269","0.0-2.0-6.2-0.2","battery-v0.2","","""event"",""trial"",""time""
""focus"",""0"",""3""
""fullscreenenter"",""1"",""3398""
","
","""event"",""trial"",""time""
""focus"",""0"",""3""
","""event"",""trial"",""time""
""fullscreenenter"",""1"",""3398""
","
","","","-1","","","25","7809","3913","&#9854;","elianto","#FFFFF080","-1","-1","1","&#10004","[]","0","0","1","","","","","","","",""
"pit-trial","17","189129","0.0-2.0-6.3-0.3","battery-v0.2","","""event"",""trial"",""time""
""focus"",""0"",""3""
""fullscreenenter"",""1"",""3398""
","
","""event"",""trial"",""time""
""focus"",""0"",""3""
","""event"",""trial"",""time""
""fullscreenenter"",""1"",""3398""
","
","","","-1","","","25","7809","3913","&#9854;","elianto","#FFFFF080","-1","-1","1","&#10004","[]","0","0","1","","","","","","","",""
"pit-trial","18","193988","0.0-2.0-6.4-0.4","battery-v0.2","","""event"",""trial"",""time""
""focus"",""0"",""3""
""fullscreenenter"",""1"",""3398""
","
","""event"",""trial"",""time""
""focus"",""0"",""3""
","""event"",""trial"",""time""
""fullscreenenter"",""1"",""3398""
","
","","","-1","","","25","7809","3913","&#9854;","elianto","#FFFFF080","-1","-1","1","&#10004","[]","0","0","1","","","","","","","",""
"pit-instructions","19","317013","0.0-2.0-7.0","battery-v0.2","","""event"",""trial"",""time""
""focus"",""0"",""3""
""fullscreenenter"",""1"",""3398""
","
","""event"",""trial"",""time""
""focus"",""0"",""3""
","""event"",""trial"",""time""
""fullscreenenter"",""1"",""3398""
","
","","[{""page_index"":0,""viewing_time"":6982},{""page_index"":1,""viewing_time"":7527},{""page_index"":2,""viewing_time"":6257},{""page_index"":3,""viewing_time"":6799},{""page_index"":4,""viewing_time"":6073},{""page_index"":5,""viewing_time"":5776},{""page_index"":6,""viewing_time"":4992},{""page_index"":7,""viewing_time"":8128},{""page_index"":8,""viewing_time"":7072},{""page_index"":9,""viewing_time"":6047},{""page_index"":10,""viewing_time"":7105},{""page_index"":11,""viewing_time"":4783},{""page_index"":12,""viewing_time"":6608},{""page_index"":13,""viewing_time"":8009},{""page_index"":14,""viewing_time"":7064},{""page_index"":15,""viewing_time"":6784},{""page_index"":16,""viewing_time"":8512},{""page_index"":17,""viewing_time"":8496}]","123014","","","","","","","","","","","","","","","","","","","","","","","",""
"pit-trial","20","320837","0.0-2.0-8.0-0.0","battery-v0.2","","""event"",""trial"",""time""
""focus"",""0"",""3""
""fullscreenenter"",""1"",""3398""
","
","""event"",""trial"",""time""
""focus"",""0"",""3""
","""event"",""trial"",""time""
""fullscreenenter"",""1"",""3398""
","
","","","963","","","25","7809","3913","&#9776;","elianto","#3366ff99"," "," ","1","+10","[1816]","1","0","1","","","","","","","",""
"pit-trial","21","325055","0.0-2.0-8.0-1.0","battery-v0.2","","""event"",""trial"",""time""
""focus"",""0"",""3""
""fullscreenenter"",""1"",""3398""
","
","""event"",""trial"",""time""
""focus"",""0"",""3""
","""event"",""trial"",""time""
""fullscreenenter"",""1"",""3398""
","
","","","1360","","","25","7809","3913","&#9776;","elianto","#3366ff99"," "," ","1","+10","[2210]","1","0","1","","","","","","","",""
"pit-trial","22","328573","0.0-2.0-8.0-2.0","battery-v0.2","","""event"",""trial"",""time""
""focus"",""0"",""3""
""fullscreenenter"",""1"",""3398""
","
","""event"",""trial"",""time""
""focus"",""0"",""3""
","""event"",""trial"",""time""
""fullscreenenter"",""1"",""3398""
","
","","","663","","","25","7809","3913","&#9776;","elianto","#3366ff99"," "," ","1","+10","[1514]","1","0","1","","","","","","","",""
"pit-trial","23","331970","0.0-2.0-8.0-3.0","battery-v0.2","","""event"",""trial"",""time""
""focus"",""0"",""3""
""fullscreenenter"",""1"",""3398""
","
","""event"",""trial"",""time""
""focus"",""0"",""3""
","""event"",""trial"",""time""
""fullscreenenter"",""1"",""3398""
","
","","","539","","","25","7809","3913","&#9776;","elianto","#3366ff99"," "," ","1","0","[1393]","1","0","1","","","","","","","",""
"pit-trial","24","335538","0.0-2.0-8.0-4.0","battery-v0.2","","""event"",""trial"",""time""
""focus"",""0"",""3""
""fullscreenenter"",""1"",""3398""
","
","""event"",""trial"",""time""
""focus"",""0"",""3""
","""event"",""trial"",""time""
""fullscreenenter"",""1"",""3398""
","
","","","713","","","25","7809","3913","&#9776;","elianto","#3366ff99"," "," ","1","+10","[1564]","1","0","1","","","","","","","",""
"pit-trial","25","339229","0.0-2.0-8.1-0.1","battery-v0.2","","""event"",""trial"",""time""
""focus"",""0"",""3""
""fullscreenenter"",""1"",""3398""
","
","""event"",""trial"",""time""
""focus"",""0"",""3""
","""event"",""trial"",""time""
""fullscreenenter"",""1"",""3398""
","
","","","833","","","25","7809","3913","&#9776;","elianto","#3366ff99"," "," ","1","+10","[1684]","1","0","1","","","","","","","",""
"pit-trial","26","342377","0.0-2.0-8.1-1.1","battery-v0.2","","""event"",""trial"",""time""
""focus"",""0"",""3""
""fullscreenenter"",""1"",""3398""
","
","""event"",""trial"",""time""
""focus"",""0"",""3""
","""event"",""trial"",""time""
""fullscreenenter"",""1"",""3398""
","
","","","290","","","25","7809","3913","&#9776;","elianto","#3366ff99"," "," ","1","+10","[1144]","1","0","1","","","","","","","",""
"pit-trial","27","345889","0.0-2.0-8.1-2.1","battery-v0.2","","""event"",""trial"",""time""
""focus"",""0"",""3""
""fullscreenenter"",""1"",""3398""
","
","""event"",""trial"",""time""
""focus"",""0"",""3""
","""event"",""trial"",""time""
""fullscreenenter"",""1"",""3398""
","
","","","652","","","25","7809","3913","&#9776;","elianto","#3366ff99"," "," ","1","+10","[1506]","1","0","1","","","","","","","",""
"pit-trial","28","349331","0.0-2.0-8.1-3.1","battery-v0.2","","""event"",""trial"",""time""
""focus"",""0"",""3""
""fullscreenenter"",""1"",""3398""
","
","""event"",""trial"",""time""
""focus"",""0"",""3""
","""event"",""trial"",""time""
""fullscreenenter"",""1"",""3398""
","
","","","584","","","25","7809","3913","&#9776;","elianto","#3366ff99"," "," ","1","0","[1436]","1","0","1","","","","","","","",""
"pit-trial","29","352874","0.0-2.0-8.1-4.1","battery-v0.2","","""event"",""trial"",""time""
""focus"",""0"",""3""
""fullscreenenter"",""1"",""3398""
","
","""event"",""trial"",""time""
""focus"",""0"",""3""
","""event"",""trial"",""time""
""fullscreenenter"",""1"",""3398""
","
","","","684","","","25","7809","3913","&#9776;","elianto","#3366ff99"," "," ","1","+10","[1537]","1","0","1","","","","","","","",""
"pit-trial","30","356826","0.0-2.0-8.2-0.2","battery-v0.2","","""event"",""trial"",""time""
""focus"",""0"",""3""
""fullscreenenter"",""1"",""3398""
","
","""event"",""trial"",""time""
""focus"",""0"",""3""
","""event"",""trial"",""time""
""fullscreenenter"",""1"",""3398""
","
","","","1093","","","25","7809","3913","&#9776;","elianto","#3366ff99"," "," ","1","+10","[1943]","1","0","1","","","","","","","",""
"pit-trial","31","360534","0.0-2.0-8.2-1.2","battery-v0.2","","""event"",""trial"",""time""
""focus"",""0"",""3""
""fullscreenenter"",""1"",""3398""
","
","""event"",""trial"",""time""
""focus"",""0"",""3""
","""event"",""trial"",""time""
""fullscreenenter"",""1"",""3398""
","
","","","855","","","25","7809","3913","&#9776;","elianto","#3366ff99"," "," ","1","+10","[1705]","1","0","1","","","","","","","",""
"pit-trial","32","363909","0.0-2.0-8.2-2.2","battery-v0.2","","""event"",""trial"",""time""
""focus"",""0"",""3""
""fullscreenenter"",""1"",""3398""
","
","""event"",""trial"",""time""
""focus"",""0"",""3""
","""event"",""trial"",""time""
""fullscreenenter"",""1"",""3398""
","
","","","519","","","25","7809","3913","&#9776;","elianto","#3366ff99"," "," ","1","+10","[1372]","1","0","1","","","","","","","",""
"pit-trial","33","367918","0.0-2.0-8.2-3.2","battery-v0.2","","""event"",""trial"",""time""
""focus"",""0"",""3""
""fullscreenenter"",""1"",""3398""
","
","""event"",""trial"",""time""
""focus"",""0"",""3""
","""event"",""trial"",""time""
""fullscreenenter"",""1"",""3398""
","
","","","1151","","","25","7809","3913","&#9776;","elianto","#3366ff99"," "," ","1","0","[2002]","1","0","1","","","","","","","",""
"pit-trial","34","371461","0.0-2.0-8.2-4.2","battery-v0.2","","""event"",""trial"",""time""
""focus"",""0"",""3""
""fullscreenenter"",""1"",""3398""
","
","""event"",""trial"",""time""
""focus"",""0"",""3""
","""event"",""trial"",""time""
""fullscreenenter"",""1"",""3398""
","
","","","682","","","25","7809","3913","&#9776;","elianto","#3366ff99"," "," ","1","+10","[1535]","1","0","1","","","","","","","",""
"call-function","35","371462","0.0-2.0-9.0","battery-v0.2","","""event"",""trial"",""time""
""focus"",""0"",""3""
""fullscreenenter"",""1"",""3398""
","
","""event"",""trial"",""time""
""focus"",""0"",""3""
","""event"",""trial"",""time""
""fullscreenenter"",""1"",""3398""
","
","","","","","","","","","","","","","","","","","","","","","","","","","","",""
"pit-instructions","36","411034","0.0-2.0-10.0","battery-v0.2","","""event"",""trial"",""time""
""focus"",""0"",""3""
""fullscreenenter"",""1"",""3398""
","
","""event"",""trial"",""time""
""focus"",""0"",""3""
","""event"",""trial"",""time""
""fullscreenenter"",""1"",""3398""
","
","","[{""page_index"":0,""viewing_time"":6241},{""page_index"":1,""viewing_time"":7056},{""page_index"":2,""viewing_time"":9727},{""page_index"":3,""viewing_time"":8920},{""page_index"":4,""viewing_time"":7625}]","39569","","","","","","","","","","","","","","","","","","","","","","","",""
"pit-trial","37","414831","0.0-2.0-11.0-0.0","battery-v0.2","","""event"",""trial"",""time""
""focus"",""0"",""3""
""fullscreenenter"",""1"",""3398""
","
","""event"",""trial"",""time""
""focus"",""0"",""3""
","""event"",""trial"",""time""
""fullscreenenter"",""1"",""3398""
","
","","","937","","","25","7809","3913","&#9761;","elianto","#3366ff99","-1"," ","0","0","[1791]","1","0","2","","","","","","","",""
"pit-trial","38","418619","0.0-2.0-11.0-1.0","battery-v0.2","","""event"",""trial"",""time""
""focus"",""0"",""3""
""fullscreenenter"",""1"",""3398""
","
","""event"",""trial"",""time""
""focus"",""0"",""3""
","""event"",""trial"",""time""
""fullscreenenter"",""1"",""3398""
","
","","","931","","","25","7809","3913","&#9761;","elianto","#3366ff99","-1"," ","0","0","[1784]","1","0","2","","","","","","","",""
"pit-trial","39","422703","0.0-2.0-11.0-2.0","battery-v0.2","","""event"",""trial"",""time""
""focus"",""0"",""3""
""fullscreenenter"",""1"",""3398""
","
","""event"",""trial"",""time""
""focus"",""0"",""3""
","""event"",""trial"",""time""
""fullscreenenter"",""1"",""3398""
","
","","","1226","","","25","7809","3913","&#9761;","elianto","#3366ff99","-1"," ","0","0","[2080]","1","0","2","","","","","","","",""
"pit-trial","40","427560","0.0-2.0-11.0-3.0","battery-v0.2","","""event"",""trial"",""time""
""focus"",""0"",""3""
""fullscreenenter"",""1"",""3398""
","
","""event"",""trial"",""time""
""focus"",""0"",""3""
","""event"",""trial"",""time""
""fullscreenenter"",""1"",""3398""
","
","","","-1","","","25","7809","3913","&#9761;","elianto","#3366ff99","-1","-1","1","0","[]","0","0","2","","","","","","","",""
"pit-trial","41","432420","0.0-2.0-11.0-4.0","battery-v0.2","","""event"",""trial"",""time""
""focus"",""0"",""3""
""fullscreenenter"",""1"",""3398""
","
","""event"",""trial"",""time""
""focus"",""0"",""3""
","""event"",""trial"",""time""
""fullscreenenter"",""1"",""3398""
","
","","","-1","","","25","7809","3913","&#9761;","elianto","#3366ff99","-1","-1","1","+10","[]","0","0","2","","","","","","","",""
"pit-trial","42","437279","0.0-2.0-11.1-0.1","battery-v0.2","","""event"",""trial"",""time""
""focus"",""0"",""3""
""fullscreenenter"",""1"",""3398""
","
","""event"",""trial"",""time""
""focus"",""0"",""3""
","""event"",""trial"",""time""
""fullscreenenter"",""1"",""3398""
","
","","","-1","","","25","7809","3913","&#9761;","elianto","#3366ff99","-1","-1","1","+10","[]","0","0","2","","","","","","","",""
"pit-trial","43","442135","0.0-2.0-11.1-1.1","battery-v0.2","","""event"",""trial"",""time""
""focus"",""0"",""3""
""fullscreenenter"",""1"",""3398""
","
","""event"",""trial"",""time""
""focus"",""0"",""3""
","""event"",""trial"",""time""
""fullscreenenter"",""1"",""3398""
","
","","","-1","","","25","7809","3913","&#9761;","elianto","#3366ff99","-1","-1","1","+10","[]","0","0","2","","","","","","","",""
"pit-trial","44","446996","0.0-2.0-11.1-2.1","battery-v0.2","","""event"",""trial"",""time""
""focus"",""0"",""3""
""fullscreenenter"",""1"",""3398""
","
","""event"",""trial"",""time""
""focus"",""0"",""3""
","""event"",""trial"",""time""
""fullscreenenter"",""1"",""3398""
","
","","","-1","","","25","7809","3913","&#9761;","elianto","#3366ff99","-1","-1","1","+10","[]","0","0","2","","","","","","","",""
"pit-trial","45","451855","0.0-2.0-11.1-3.1","battery-v0.2","","""event"",""trial"",""time""
""focus"",""0"",""3""
""fullscreenenter"",""1"",""3398""
","
","""event"",""trial"",""time""
""focus"",""0"",""3""
","""event"",""trial"",""time""
""fullscreenenter"",""1"",""3398""
","
","","","-1","","","25","7809","3913","&#9761;","elianto","#3366ff99","-1","-1","1","0","[]","0","0","2","","","","","","","",""
"pit-trial","46","456713","0.0-2.0-11.1-4.1","battery-v0.2","","""event"",""trial"",""time""
""focus"",""0"",""3""
""fullscreenenter"",""1"",""3398""
","
","""event"",""trial"",""time""
""focus"",""0"",""3""
","""event"",""trial"",""time""
""fullscreenenter"",""1"",""3398""
","
","","","-1","","","25","7809","3913","&#9761;","elianto","#3366ff99","-1","-1","1","+10","[]","0","0","2","","","","","","","",""
"pit-trial","47","461574","0.0-2.0-11.2-0.2","battery-v0.2","","""event"",""trial"",""time""
""focus"",""0"",""3""
""fullscreenenter"",""1"",""3398""
","
","""event"",""trial"",""time""
""focus"",""0"",""3""
","""event"",""trial"",""time""
""fullscreenenter"",""1"",""3398""
","
","","","-1","","","25","7809","3913","&#9761;","elianto","#3366ff99","-1","-1","1","+10","[]","0","0","2","","","","","","","",""
"pit-trial","48","466431","0.0-2.0-11.2-1.2","battery-v0.2","","""event"",""trial"",""time""
""focus"",""0"",""3""
""fullscreenenter"",""1"",""3398""
","
","""event"",""trial"",""time""
""focus"",""0"",""3""
","""event"",""trial"",""time""
""fullscreenenter"",""1"",""3398""
","
","","","-1","","","25","7809","3913","&#9761;","elianto","#3366ff99","-1","-1","1","+10","[]","0","0","2","","","","","","","",""
"pit-trial","49","471291","0.0-2.0-11.2-2.2","battery-v0.2","","""event"",""trial"",""time""
""focus"",""0"",""3""
""fullscreenenter"",""1"",""3398""
","
","""event"",""trial"",""time""
""focus"",""0"",""3""
","""event"",""trial"",""time""
""fullscreenenter"",""1"",""3398""
","
","","","-1","","","25","7809","3913","&#9761;","elianto","#3366ff99","-1","-1","1","+10","[]","0","0","2","","","","","","","",""
"pit-trial","50","476149","0.0-2.0-11.2-3.2","battery-v0.2","","""event"",""trial"",""time""
""focus"",""0"",""3""
""fullscreenenter"",""1"",""3398""
","
","""event"",""trial"",""time""
""focus"",""0"",""3""
","""event"",""trial"",""time""
""fullscreenenter"",""1"",""3398""
","
","","","-1","","","25","7809","3913","&#9761;","elianto","#3366ff99","-1","-1","1","0","[]","0","0","2","","","","","","","",""
"pit-trial","51","481008","0.0-2.0-11.2-4.2","battery-v0.2","","""event"",""trial"",""time""
""focus"",""0"",""3""
""fullscreenenter"",""1"",""3398""
","
","""event"",""trial"",""time""
""focus"",""0"",""3""
","""event"",""trial"",""time""
""fullscreenenter"",""1"",""3398""
","
","","","-1","","","25","7809","3913","&#9761;","elianto","#3366ff99","-1","-1","1","+10","[]","0","0","2","","","","","","","",""
"pit-trial","52","485866","0.0-2.0-11.3-0.3","battery-v0.2","","""event"",""trial"",""time""
""focus"",""0"",""3""
""fullscreenenter"",""1"",""3398""
","
","""event"",""trial"",""time""
""focus"",""0"",""3""
","""event"",""trial"",""time""
""fullscreenenter"",""1"",""3398""
","
","","","-1","","","25","7809","3913","&#9761;","elianto","#3366ff99","-1","-1","1","+10","[]","0","0","2","","","","","","","",""
"pit-trial","53","490726","0.0-2.0-11.3-1.3","battery-v0.2","","""event"",""trial"",""time""
""focus"",""0"",""3""
""fullscreenenter"",""1"",""3398""
","
","""event"",""trial"",""time""
""focus"",""0"",""3""
","""event"",""trial"",""time""
""fullscreenenter"",""1"",""3398""
","
","","","-1","","","25","7809","3913","&#9761;","elianto","#3366ff99","-1","-1","1","+10","[]","0","0","2","","","","","","","",""
"pit-trial","54","495583","0.0-2.0-11.3-2.3","battery-v0.2","","""event"",""trial"",""time""
""focus"",""0"",""3""
""fullscreenenter"",""1"",""3398""
","
","""event"",""trial"",""time""
""focus"",""0"",""3""
","""event"",""trial"",""time""
""fullscreenenter"",""1"",""3398""
","
","","","-1","","","25","7809","3913","&#9761;","elianto","#3366ff99","-1","-1","1","+10","[]","0","0","2","","","","","","","",""
"pit-trial","55","500444","0.0-2.0-11.3-3.3","battery-v0.2","","""event"",""trial"",""time""
""focus"",""0"",""3""
""fullscreenenter"",""1"",""3398""
","
","""event"",""trial"",""time""
""focus"",""0"",""3""
","""event"",""trial"",""time""
""fullscreenenter"",""1"",""3398""
","
","","","-1","","","25","7809","3913","&#9761;","elianto","#3366ff99","-1","-1","1","0","[]","0","0","2","","","","","","","",""
"pit-trial","56","505303","0.0-2.0-11.3-4.3","battery-v0.2","","""event"",""trial"",""time""
""focus"",""0"",""3""
""fullscreenenter"",""1"",""3398""
","
","""event"",""trial"",""time""
""focus"",""0"",""3""
","""event"",""trial"",""time""
""fullscreenenter"",""1"",""3398""
","
","","","-1","","","25","7809","3913","&#9761;","elianto","#3366ff99","-1","-1","1","+10","[]","0","0","2","","","","","","","",""
"call-function","57","505305","0.0-2.0-12.0","battery-v0.2","","""event"",""trial"",""time""
""focus"",""0"",""3""
""fullscreenenter"",""1"",""3398""
","
","""event"",""trial"",""time""
""focus"",""0"",""3""
","""event"",""trial"",""time""
""fullscreenenter"",""1"",""3398""
","
","","","","","","","","","","","","","","","","","","","","","","","","","","",""
"pit-instructions","58","539257","0.0-2.0-13.0","battery-v0.2","","""event"",""trial"",""time""
""focus"",""0"",""3""
""fullscreenenter"",""1"",""3398""
","
","""event"",""trial"",""time""
""focus"",""0"",""3""
","""event"",""trial"",""time""
""fullscreenenter"",""1"",""3398""
","
","","[{""page_index"":0,""viewing_time"":5397},{""page_index"":1,""viewing_time"":7504},{""page_index"":2,""viewing_time"":4344},{""page_index"":3,""viewing_time"":10615},{""page_index"":4,""viewing_time"":6089}]","33949","","","","","","","","","","","","","","","","","","","","","","","",""
"pit-trial","59","543486","0.0-2.0-14.0-0.0","battery-v0.2","","""event"",""trial"",""time""
""focus"",""0"",""3""
""fullscreenenter"",""1"",""3398""
","
","""event"",""trial"",""time""
""focus"",""0"",""3""
","""event"",""trial"",""time""
""fullscreenenter"",""1"",""3398""
","
","","","1372","","","25","7809","3913","&#9826;","elianto","#f73b6a7A","-1"," ","0","-10","[2223]","1","0","3","","","","","","","",""
"pit-trial","60","548340","0.0-2.0-14.0-1.0","battery-v0.2","","""event"",""trial"",""time""
""focus"",""0"",""3""
""fullscreenenter"",""1"",""3398""
","
","""event"",""trial"",""time""
""focus"",""0"",""3""
","""event"",""trial"",""time""
""fullscreenenter"",""1"",""3398""
","
","","","-1","","","25","7809","3913","&#9826;","elianto","#f73b6a7A","-1","-1","1","0","[]","0","0","3","","","","","","","",""
"pit-trial","61","553201","0.0-2.0-14.0-2.0","battery-v0.2","","""event"",""trial"",""time""
""focus"",""0"",""3""
""fullscreenenter"",""1"",""3398""
","
","""event"",""trial"",""time""
""focus"",""0"",""3""
","""event"",""trial"",""time""
""fullscreenenter"",""1"",""3398""
","
","","","-1","","","25","7809","3913","&#9826;","elianto","#f73b6a7A","-1","-1","1","0","[]","0","0","3","","","","","","","",""
"pit-trial","62","558058","0.0-2.0-14.0-3.0","battery-v0.2","","""event"",""trial"",""time""
""focus"",""0"",""3""
""fullscreenenter"",""1"",""3398""
","
","""event"",""trial"",""time""
""focus"",""0"",""3""
","""event"",""trial"",""time""
""fullscreenenter"",""1"",""3398""
","
","","","-1","","","25","7809","3913","&#9826;","elianto","#f73b6a7A","-1","-1","1","-10","[]","0","0","3","","","","","","","",""
"pit-trial","63","562919","0.0-2.0-14.0-4.0","battery-v0.2","","""event"",""trial"",""time""
""focus"",""0"",""3""
""fullscreenenter"",""1"",""3398""
","
","""event"",""trial"",""time""
""focus"",""0"",""3""
","""event"",""trial"",""time""
""fullscreenenter"",""1"",""3398""
","
","","","-1","","","25","7809","3913","&#9826;","elianto","#f73b6a7A","-1","-1","1","0","[]","0","0","3","","","","","","","",""
"pit-trial","64","567776","0.0-2.0-14.1-0.1","battery-v0.2","","""event"",""trial"",""time""
""focus"",""0"",""3""
""fullscreenenter"",""1"",""3398""
","
","""event"",""trial"",""time""
""focus"",""0"",""3""
","""event"",""trial"",""time""
""fullscreenenter"",""1"",""3398""
","
","","","-1","","","25","7809","3913","&#9826;","elianto","#f73b6a7A","-1","-1","1","0","[]","0","0","3","","","","","","","",""
"pit-trial","65","572631","0.0-2.0-14.1-1.1","battery-v0.2","","""event"",""trial"",""time""
""focus"",""0"",""3""
""fullscreenenter"",""1"",""3398""
","
","""event"",""trial"",""time""
""focus"",""0"",""3""
","""event"",""trial"",""time""
""fullscreenenter"",""1"",""3398""
","
","","","-1","","","25","7809","3913","&#9826;","elianto","#f73b6a7A","-1","-1","1","0","[]","0","0","3","","","","","","","",""
"pit-trial","66","577489","0.0-2.0-14.1-2.1","battery-v0.2","","""event"",""trial"",""time""
""focus"",""0"",""3""
""fullscreenenter"",""1"",""3398""
","
","""event"",""trial"",""time""
""focus"",""0"",""3""
","""event"",""trial"",""time""
""fullscreenenter"",""1"",""3398""
","
","","","-1","","","25","7809","3913","&#9826;","elianto","#f73b6a7A","-1","-1","1","0","[]","0","0","3","","","","","","","",""
"pit-trial","67","582347","0.0-2.0-14.1-3.1","battery-v0.2","","""event"",""trial"",""time""
""focus"",""0"",""3""
""fullscreenenter"",""1"",""3398""
","
","""event"",""trial"",""time""
""focus"",""0"",""3""
","""event"",""trial"",""time""
""fullscreenenter"",""1"",""3398""
","
","","","-1","","","25","7809","3913","&#9826;","elianto","#f73b6a7A","-1","-1","1","-10","[]","0","0","3","","","","","","","",""
"pit-trial","68","587201","0.0-2.0-14.1-4.1","battery-v0.2","","""event"",""trial"",""time""
""focus"",""0"",""3""
""fullscreenenter"",""1"",""3398""
","
","""event"",""trial"",""time""
""focus"",""0"",""3""
","""event"",""trial"",""time""
""fullscreenenter"",""1"",""3398""
","
","","","-1","","","25","7809","3913","&#9826;","elianto","#f73b6a7A","-1","-1","1","0","[]","0","0","3","","","","","","","",""
"pit-trial","69","592060","0.0-2.0-14.2-0.2","battery-v0.2","","""event"",""trial"",""time""
""focus"",""0"",""3""
""fullscreenenter"",""1"",""3398""
","
","""event"",""trial"",""time""
""focus"",""0"",""3""
","""event"",""trial"",""time""
""fullscreenenter"",""1"",""3398""
","
","","","-1","","","25","7809","3913","&#9826;","elianto","#f73b6a7A","-1","-1","1","0","[]","0","0","3","","","","","","","",""
"pit-trial","70","596918","0.0-2.0-14.2-1.2","battery-v0.2","","""event"",""trial"",""time""
""focus"",""0"",""3""
""fullscreenenter"",""1"",""3398""
","
","""event"",""trial"",""time""
""focus"",""0"",""3""
","""event"",""trial"",""time""
""fullscreenenter"",""1"",""3398""
","
","","","-1","","","25","7809","3913","&#9826;","elianto","#f73b6a7A","-1","-1","1","0","[]","0","0","3","","","","","","","",""
"pit-trial","71","601778","0.0-2.0-14.2-2.2","battery-v0.2","","""event"",""trial"",""time""
""focus"",""0"",""3""
""fullscreenenter"",""1"",""3398""
","
","""event"",""trial"",""time""
""focus"",""0"",""3""
","""event"",""trial"",""time""
""fullscreenenter"",""1"",""3398""
","
","","","-1","","","25","7809","3913","&#9826;","elianto","#f73b6a7A","-1","-1","1","0","[]","0","0","3","","","","","","","",""
"pit-trial","72","606634","0.0-2.0-14.2-3.2","battery-v0.2","","""event"",""trial"",""time""
""focus"",""0"",""3""
""fullscreenenter"",""1"",""3398""
","
","""event"",""trial"",""time""
""focus"",""0"",""3""
","""event"",""trial"",""time""
""fullscreenenter"",""1"",""3398""
","
","","","-1","","","25","7809","3913","&#9826;","elianto","#f73b6a7A","-1","-1","1","-10","[]","0","0","3","","","","","","","",""
"pit-trial","73","611489","0.0-2.0-14.2-4.2","battery-v0.2","","""event"",""trial"",""time""
""focus"",""0"",""3""
""fullscreenenter"",""1"",""3398""
","
","""event"",""trial"",""time""
""focus"",""0"",""3""
","""event"",""trial"",""time""
""fullscreenenter"",""1"",""3398""
","
","","","-1","","","25","7809","3913","&#9826;","elianto","#f73b6a7A","-1","-1","1","0","[]","0","0","3","","","","","","","",""
"pit-trial","74","616349","0.0-2.0-14.3-0.3","battery-v0.2","","""event"",""trial"",""time""
""focus"",""0"",""3""
""fullscreenenter"",""1"",""3398""
","
","""event"",""trial"",""time""
""focus"",""0"",""3""
","""event"",""trial"",""time""
""fullscreenenter"",""1"",""3398""
","
","","","-1","","","25","7809","3913","&#9826;","elianto","#f73b6a7A","-1","-1","1","0","[]","0","0","3","","","","","","","",""
"pit-trial","75","621206","0.0-2.0-14.3-1.3","battery-v0.2","","""event"",""trial"",""time""
""focus"",""0"",""3""
""fullscreenenter"",""1"",""3398""
","
","""event"",""trial"",""time""
""focus"",""0"",""3""
","""event"",""trial"",""time""
""fullscreenenter"",""1"",""3398""
","
","","","-1","","","25","7809","3913","&#9826;","elianto","#f73b6a7A","-1","-1","1","0","[]","0","0","3","","","","","","","",""
"pit-trial","76","626067","0.0-2.0-14.3-2.3","battery-v0.2","","""event"",""trial"",""time""
""focus"",""0"",""3""
""fullscreenenter"",""1"",""3398""
","
","""event"",""trial"",""time""
""focus"",""0"",""3""
","""event"",""trial"",""time""
""fullscreenenter"",""1"",""3398""
","
","","","-1","","","25","7809","3913","&#9826;","elianto","#f73b6a7A","-1","-1","1","0","[]","0","0","3","","","","","","","",""
"pit-trial","77","630925","0.0-2.0-14.3-3.3","battery-v0.2","","""event"",""trial"",""time""
""focus"",""0"",""3""
""fullscreenenter"",""1"",""3398""
","
","""event"",""trial"",""time""
""focus"",""0"",""3""
","""event"",""trial"",""time""
""fullscreenenter"",""1"",""3398""
","
","","","-1","","","25","7809","3913","&#9826;","elianto","#f73b6a7A","-1","-1","1","-10","[]","0","0","3","","","","","","","",""
"pit-trial","78","635781","0.0-2.0-14.3-4.3","battery-v0.2","","""event"",""trial"",""time""
""focus"",""0"",""3""
""fullscreenenter"",""1"",""3398""
","
","""event"",""trial"",""time""
""focus"",""0"",""3""
","""event"",""trial"",""time""
""fullscreenenter"",""1"",""3398""
","
","","","-1","","","25","7809","3913","&#9826;","elianto","#f73b6a7A","-1","-1","1","0","[]","0","0","3","","","","","","","",""
"call-function","79","635784","0.0-2.0-15.0","battery-v0.2","","""event"",""trial"",""time""
""focus"",""0"",""3""
""fullscreenenter"",""1"",""3398""
","
","""event"",""trial"",""time""
""focus"",""0"",""3""
","""event"",""trial"",""time""
""fullscreenenter"",""1"",""3398""
","
","","","","","","","","","","","","","","","","","","","","","","","","","","",""
"pit-instructions","80","664591","0.0-2.0-16.0","battery-v0.2","","""event"",""trial"",""time""
""focus"",""0"",""3""
""fullscreenenter"",""1"",""3398""
","
","""event"",""trial"",""time""
""focus"",""0"",""3""
","""event"",""trial"",""time""
""fullscreenenter"",""1"",""3398""
","
","","[{""page_index"":0,""viewing_time"":8917},{""page_index"":1,""viewing_time"":8408},{""page_index"":2,""viewing_time"":4807},{""page_index"":3,""viewing_time"":6672}]","28806","","","","","","","","","","","","","","","","","","","","","","","",""
"pit-trial","81","667956","0.0-2.0-17.0-0.0","battery-v0.2","","""event"",""trial"",""time""
""focus"",""0"",""3""
""fullscreenenter"",""1"",""3398""
","
","""event"",""trial"",""time""
""focus"",""0"",""3""
","""event"",""trial"",""time""
""fullscreenenter"",""1"",""3398""
","
","","","505","","","25","7809","3913","&#9789;","elianto","#f73b6a7A"," "," ","1","0","[1360]","1","0","4","","","","","","","",""
"pit-trial","82","671277","0.0-2.0-17.0-1.0","battery-v0.2","","""event"",""trial"",""time""
""focus"",""0"",""3""
""fullscreenenter"",""1"",""3398""
","
","""event"",""trial"",""time""
""focus"",""0"",""3""
","""event"",""trial"",""time""
""fullscreenenter"",""1"",""3398""
","
","","","461","","","25","7809","3913","&#9789;","elianto","#f73b6a7A"," "," ","1","0","[1313]","1","0","4","","","","","","","",""
"pit-trial","83","676135","0.0-2.0-17.0-2.0","battery-v0.2","","""event"",""trial"",""time""
""focus"",""0"",""3""
""fullscreenenter"",""1"",""3398""
","
","""event"",""trial"",""time""
""focus"",""0"",""3""
","""event"",""trial"",""time""
""fullscreenenter"",""1"",""3398""
","
","","","-1","","","25","7809","3913","&#9789;","elianto","#f73b6a7A"," ","-1","0","-10","[]","0","0","4","","","","","","","",""
"pit-trial","84","680994","0.0-2.0-17.0-3.0","battery-v0.2","","""event"",""trial"",""time""
""focus"",""0"",""3""
""fullscreenenter"",""1"",""3398""
","
","""event"",""trial"",""time""
""focus"",""0"",""3""
","""event"",""trial"",""time""
""fullscreenenter"",""1"",""3398""
","
","","","-1","","","25","7809","3913","&#9789;","elianto","#f73b6a7A"," ","-1","0","0","[]","0","0","4","","","","","","","",""
"pit-trial","85","685853","0.0-2.0-17.0-4.0","battery-v0.2","","""event"",""trial"",""time""
""focus"",""0"",""3""
""fullscreenenter"",""1"",""3398""
","
","""event"",""trial"",""time""
""focus"",""0"",""3""
","""event"",""trial"",""time""
""fullscreenenter"",""1"",""3398""
","
","","","-1","","","25","7809","3913","&#9789;","elianto","#f73b6a7A"," ","-1","0","-10","[]","0","0","4","","","","","","","",""
"pit-trial","86","689589","0.0-2.0-17.1-0.1","battery-v0.2","","""event"",""trial"",""time""
""focus"",""0"",""3""
""fullscreenenter"",""1"",""3398""
","
","""event"",""trial"",""time""
""focus"",""0"",""3""
","""event"",""trial"",""time""
""fullscreenenter"",""1"",""3398""
","
","","","880","","","25","7809","3913","&#9789;","elianto","#f73b6a7A"," "," ","1","0","[1733]","1","0","4","","","","","","","",""
"pit-trial","87","694450","0.0-2.0-17.1-1.1","battery-v0.2","","""event"",""trial"",""time""
""focus"",""0"",""3""
""fullscreenenter"",""1"",""3398""
","
","""event"",""trial"",""time""
""focus"",""0"",""3""
","""event"",""trial"",""time""
""fullscreenenter"",""1"",""3398""
","
","","","-1","","","25","7809","3913","&#9789;","elianto","#f73b6a7A"," ","-1","0","-10","[]","0","0","4","","","","","","","",""
"pit-trial","88","699310","0.0-2.0-17.1-2.1","battery-v0.2","","""event"",""trial"",""time""
""focus"",""0"",""3""
""fullscreenenter"",""1"",""3398""
","
","""event"",""trial"",""time""
""focus"",""0"",""3""
","""event"",""trial"",""time""
""fullscreenenter"",""1"",""3398""
","
","","","-1","","","25","7809","3913","&#9789;","elianto","#f73b6a7A"," ","-1","0","-10","[]","0","0","4","","","","","","","",""
"pit-trial","89","702583","0.0-2.0-17.1-3.1","battery-v0.2","","""event"",""trial"",""time""
""focus"",""0"",""3""
""fullscreenenter"",""1"",""3398""
","
","""event"",""trial"",""time""
""focus"",""0"",""3""
","""event"",""trial"",""time""
""fullscreenenter"",""1"",""3398""
","
","","","418","","","25","7809","3913","&#9789;","elianto","#f73b6a7A"," "," ","1","-10","[1268]","1","0","4","","","","","","","",""
"pit-trial","90","706002","0.0-2.0-17.1-4.1","battery-v0.2","","""event"",""trial"",""time""
""focus"",""0"",""3""
""fullscreenenter"",""1"",""3398""
","
","""event"",""trial"",""time""
""focus"",""0"",""3""
","""event"",""trial"",""time""
""fullscreenenter"",""1"",""3398""
","
","","","563","","","25","7809","3913","&#9789;","elianto","#f73b6a7A"," "," ","1","0","[1417]","1","0","4","","","","","","","",""
"pit-trial","91","709085","0.0-2.0-17.2-0.2","battery-v0.2","","""event"",""trial"",""time""
""focus"",""0"",""3""
""fullscreenenter"",""1"",""3398""
","
","""event"",""trial"",""time""
""focus"",""0"",""3""
","""event"",""trial"",""time""
""fullscreenenter"",""1"",""3398""
","
","","","229","","","25","7809","3913","&#9789;","elianto","#f73b6a7A"," "," ","1","0","[1079]","1","0","4","","","","","","","",""
"pit-trial","92","712172","0.0-2.0-17.2-1.2","battery-v0.2","","""event"",""trial"",""time""
""focus"",""0"",""3""
""fullscreenenter"",""1"",""3398""
","
","""event"",""trial"",""time""
""focus"",""0"",""3""
","""event"",""trial"",""time""
""fullscreenenter"",""1"",""3398""
","
","","","227","","","25","7809","3913","&#9789;","elianto","#f73b6a7A"," "," ","1","0","[1079]","1","0","4","","","","","","","",""
"pit-trial","93","715266","0.0-2.0-17.2-2.2","battery-v0.2","","""event"",""trial"",""time""
""focus"",""0"",""3""
""fullscreenenter"",""1"",""3398""
","
","""event"",""trial"",""time""
""focus"",""0"",""3""
","""event"",""trial"",""time""
""fullscreenenter"",""1"",""3398""
","
","","","233","","","25","7809","3913","&#9789;","elianto","#f73b6a7A"," "," ","1","0","[1086]","1","0","4","","","","","","","",""
"pit-trial","94","718245","0.0-2.0-17.2-3.2","battery-v0.2","","""event"",""trial"",""time""
""focus"",""0"",""3""
""fullscreenenter"",""1"",""3398""
","
","""event"",""trial"",""time""
""focus"",""0"",""3""
","""event"",""trial"",""time""
""fullscreenenter"",""1"",""3398""
","
","","","121","","","25","7809","3913","&#9789;","elianto","#f73b6a7A"," "," ","1","-10","[974]","1","0","4","","","","","","","",""
"pit-trial","95","721372","0.0-2.0-17.2-4.2","battery-v0.2","","""event"",""trial"",""time""
""focus"",""0"",""3""
""fullscreenenter"",""1"",""3398""
","
","""event"",""trial"",""time""
""focus"",""0"",""3""
","""event"",""trial"",""time""
""fullscreenenter"",""1"",""3398""
","
","","","271","","","25","7809","3913","&#9789;","elianto","#f73b6a7A"," "," ","1","0","[1122]","1","0","4","","","","","","","",""
"pit-trial","96","724411","0.0-2.0-17.3-0.3","battery-v0.2","","""event"",""trial"",""time""
""focus"",""0"",""3""
""fullscreenenter"",""1"",""3398""
","
","""event"",""trial"",""time""
""focus"",""0"",""3""
","""event"",""trial"",""time""
""fullscreenenter"",""1"",""3398""
","
","","","181","","","25","7809","3913","&#9789;","elianto","#f73b6a7A"," "," ","1","0","[1032]","1","0","4","","","","","","","",""
"pit-trial","97","727673","0.0-2.0-17.3-1.3","battery-v0.2","","""event"",""trial"",""time""
""focus"",""0"",""3""
""fullscreenenter"",""1"",""3398""
","
","""event"",""trial"",""time""
""focus"",""0"",""3""
","""event"",""trial"",""time""
""fullscreenenter"",""1"",""3398""
","
","","","406","","","25","7809","3913","&#9789;","elianto","#f73b6a7A"," "," ","1","0","[1257]","1","0","4","","","","","","","",""
"pit-trial","98","730923","0.0-2.0-17.3-2.3","battery-v0.2","","""event"",""trial"",""time""
""focus"",""0"",""3""
""fullscreenenter"",""1"",""3398""
","
","""event"",""trial"",""time""
""focus"",""0"",""3""
","""event"",""trial"",""time""
""fullscreenenter"",""1"",""3398""
","
","","","393","","","25","7809","3913","&#9789;","elianto","#f73b6a7A"," "," ","1","0","[1245]","1","0","4","","","","","","","",""
"pit-trial","99","734222","0.0-2.0-17.3-3.3","battery-v0.2","","""event"",""trial"",""time""
""focus"",""0"",""3""
""fullscreenenter"",""1"",""3398""
","
","""event"",""trial"",""time""
""focus"",""0"",""3""
","""event"",""trial"",""time""
""fullscreenenter"",""1"",""3398""
","
","","","440","","","25","7809","3913","&#9789;","elianto","#f73b6a7A"," "," ","1","-10","[1290]","1","0","4","","","","","","","",""
"pit-trial","100","737361","0.0-2.0-17.3-4.3","battery-v0.2","","""event"",""trial"",""time""
""focus"",""0"",""3""
""fullscreenenter"",""1"",""3398""
","
","""event"",""trial"",""time""
""focus"",""0"",""3""
","""event"",""trial"",""time""
""fullscreenenter"",""1"",""3398""
","
","","","279","","","25","7809","3913","&#9789;","elianto","#f73b6a7A"," "," ","1","0","[1131]","1","0","4","","","","","","","",""
"call-function","101","737364","0.0-2.0-18.0","battery-v0.2","","""event"",""trial"",""time""
""focus"",""0"",""3""
""fullscreenenter"",""1"",""3398""
","
","""event"",""trial"",""time""
""focus"",""0"",""3""
","""event"",""trial"",""time""
""fullscreenenter"",""1"",""3398""
","
","","","","","","","","","","","","","","","","","","","","","","","","","","",""
"pit-instructions","102","803615","0.0-2.0-19.0","battery-v0.2","","""event"",""trial"",""time""
""focus"",""0"",""3""
""fullscreenenter"",""1"",""3398""
","
","""event"",""trial"",""time""
""focus"",""0"",""3""
","""event"",""trial"",""time""
""fullscreenenter"",""1"",""3398""
","
","","[{""page_index"":0,""viewing_time"":6566},{""page_index"":1,""viewing_time"":5705},{""page_index"":2,""viewing_time"":9072},{""page_index"":3,""viewing_time"":7528},{""page_index"":4,""viewing_time"":8456},{""page_index"":5,""viewing_time"":9360},{""page_index"":6,""viewing_time"":9000},{""page_index"":7,""viewing_time"":6223},{""page_index"":8,""viewing_time"":4336}]","66247","","","","","","","","","","","","","","","","","","","","","","","",""
"pit-comprehension","103","808258","0.0-2.0-20.0-0.0","battery-v0.2","","""event"",""trial"",""time""
""focus"",""0"",""3""
""fullscreenenter"",""1"",""3398""
","
","""event"",""trial"",""time""
""focus"",""0"",""3""
","""event"",""trial"",""time""
""fullscreenenter"",""1"",""3398""
","
","","","4638","[""SPACE""]","0","25","7809","3913","","","","","","","","","","","","","","","","","","",""
"pit-instructions","104","813095","0.0-2.0-20.0-1.0","battery-v0.2","","""event"",""trial"",""time""
""focus"",""0"",""3""
""fullscreenenter"",""1"",""3398""
","
","""event"",""trial"",""time""
""focus"",""0"",""3""
","""event"",""trial"",""time""
""fullscreenenter"",""1"",""3398""
","
","","[{""page_index"":0,""viewing_time"":4834}]","4834","","","","","","","","","","","","","","","","","","","","","","","",""
"pit-comprehension","105","819378","0.0-2.0-21.0-0.0","battery-v0.2","","""event"",""trial"",""time""
""focus"",""0"",""3""
""fullscreenenter"",""1"",""3398""
","
","""event"",""trial"",""time""
""focus"",""0"",""3""
","""event"",""trial"",""time""
""fullscreenenter"",""1"",""3398""
","
","","","6278","[""10""]","0","25","7809","3913","","","","","","","","","","","","","","","","","","",""
"pit-instructions","106","821303","0.0-2.0-21.0-1.0","battery-v0.2","","""event"",""trial"",""time""
""focus"",""0"",""3""
""fullscreenenter"",""1"",""3398""
","
","""event"",""trial"",""time""
""focus"",""0"",""3""
","""event"",""trial"",""time""
""fullscreenenter"",""1"",""3398""
","
","","[{""page_index"":0,""viewing_time"":1922}]","1922","","","","","","","","","","","","","","","","","","","","","","","",""
"pit-comprehension","107","830129","0.0-2.0-22.0-0.0","battery-v0.2","","""event"",""trial"",""time""
""focus"",""0"",""3""
""fullscreenenter"",""1"",""3398""
","
","""event"",""trial"",""time""
""focus"",""0"",""3""
","""event"",""trial"",""time""
""fullscreenenter"",""1"",""3398""
","
","","","8821","[""0""]","0","25","7809","3913","","","","","","","","","","","","","","","","","","",""
"pit-instructions","108","832279","0.0-2.0-22.0-1.0","battery-v0.2","","""event"",""trial"",""time""
""focus"",""0"",""3""
""fullscreenenter"",""1"",""3398""
","
","""event"",""trial"",""time""
""focus"",""0"",""3""
","""event"",""trial"",""time""
""fullscreenenter"",""1"",""3398""
","
","","[{""page_index"":0,""viewing_time"":2146}]","2146","","","","","","","","","","","","","","","","","","","","","","","",""
"pit-comprehension","109","841265","0.0-2.0-23.0-0.0","battery-v0.2","","""event"",""trial"",""time""
""focus"",""0"",""3""
""fullscreenenter"",""1"",""3398""
","
","""event"",""trial"",""time""
""focus"",""0"",""3""
","""event"",""trial"",""time""
""fullscreenenter"",""1"",""3398""
","
","","","8982","[""True""]","0","25","7809","3913","","","","","","","","","","","","","","","","","","",""
"pit-instructions","110","843128","0.0-2.0-23.0-1.0","battery-v0.2","","""event"",""trial"",""time""
""focus"",""0"",""3""
""fullscreenenter"",""1"",""3398""
","
","""event"",""trial"",""time""
""focus"",""0"",""3""
","""event"",""trial"",""time""
""fullscreenenter"",""1"",""3398""
","
","","[{""page_index"":0,""viewing_time"":1860}]","1860","","","","","","","","","","","","","","","","","","","","","","","",""
"pit-comprehension","111","851082","0.0-2.0-24.0-0.0","battery-v0.2","","""event"",""trial"",""time""
""focus"",""0"",""3""
""fullscreenenter"",""1"",""3398""
","
","""event"",""trial"",""time""
""focus"",""0"",""3""
","""event"",""trial"",""time""
""fullscreenenter"",""1"",""3398""
","
","","","7950","[""True""]","0","25","7809","3913","","","","","","","","","","","","","","","","","","",""
"pit-instructions","112","854345","0.0-2.0-24.0-1.0","battery-v0.2","","""event"",""trial"",""time""
""focus"",""0"",""3""
""fullscreenenter"",""1"",""3398""
","
","""event"",""trial"",""time""
""focus"",""0"",""3""
","""event"",""trial"",""time""
""fullscreenenter"",""1"",""3398""
","
","","[{""page_index"":0,""viewing_time"":3259}]","3260","","","","","","","","","","","","","","","","","","","","","","","",""
"pit-comprehension","113","862219","0.0-2.0-25.0-0.0","battery-v0.2","","""event"",""trial"",""time""
""focus"",""0"",""3""
""fullscreenenter"",""1"",""3398""
","
","""event"",""trial"",""time""
""focus"",""0"",""3""
","""event"",""trial"",""time""
""fullscreenenter"",""1"",""3398""
","
","","","7870","[""True""]","0","25","7809","3913","","","","","","","","","","","","","","","","","","",""
"pit-instructions","114","864016","0.0-2.0-25.0-1.0","battery-v0.2","","""event"",""trial"",""time""
""focus"",""0"",""3""
""fullscreenenter"",""1"",""3398""
","
","""event"",""trial"",""time""
""focus"",""0"",""3""
","""event"",""trial"",""time""
""fullscreenenter"",""1"",""3398""
","
","","[{""page_index"":0,""viewing_time"":1795}]","1795","","","","","","","","","","","","","","","","","","","","","","","",""
"pit-comprehension","115","869284","0.0-2.0-26.0-0.0","battery-v0.2","","""event"",""trial"",""time""
""focus"",""0"",""3""
""fullscreenenter"",""1"",""3398""
","
","""event"",""trial"",""time""
""focus"",""0"",""3""
","""event"",""trial"",""time""
""fullscreenenter"",""1"",""3398""
","
","","","5263","[""False""]","0","25","7809","3913","","","","","","","","","","","","","","","","","","",""
"pit-instructions","116","871458","0.0-2.0-26.0-1.0","battery-v0.2","","""event"",""trial"",""time""
""focus"",""0"",""3""
""fullscreenenter"",""1"",""3398""
","
","""event"",""trial"",""time""
""focus"",""0"",""3""
","""event"",""trial"",""time""
""fullscreenenter"",""1"",""3398""
","
","","[{""page_index"":0,""viewing_time"":2171}]","2171","","","","","","","","","","","","","","","","","","","","","","","",""
"pit-instructions","117","889267","0.0-3.0","battery-v0.2","","""event"",""trial"",""time""
""focus"",""0"",""3""
""fullscreenenter"",""1"",""3398""
","
","""event"",""trial"",""time""
""focus"",""0"",""3""
","""event"",""trial"",""time""
""fullscreenenter"",""1"",""3398""
","
","","[{""page_index"":0,""viewing_time"":4283},{""page_index"":1,""viewing_time"":5305},{""page_index"":2,""viewing_time"":8215}]","17804","","","","","","","","","","","","","","","","","","","","","","","",""
"pit-trial","118","893047","0.0-4.0","battery-v0.2","","""event"",""trial"",""time""
""focus"",""0"",""3""
""fullscreenenter"",""1"",""3398""
","
","""event"",""trial"",""time""
""focus"",""0"",""3""
","""event"",""trial"",""time""
""fullscreenenter"",""1"",""3398""
","
","","","926","","","25","7809","3913","&#9752;","elianto","#f73b6a7A"," "," ","1","0","[1775]","1","1","","","7809","1","3","3","lose","go","0"
"pit-trial","119","896943","0.0-5.0","battery-v0.2","","""event"",""trial"",""time""
""focus"",""0"",""3""
""fullscreenenter"",""1"",""3398""
","
","""event"",""trial"",""time""
""focus"",""0"",""3""
","""event"",""trial"",""time""
""fullscreenenter"",""1"",""3398""
","
","","","1036","","","25","7809","3913","&#9730;","elianto","#3366ff99"," "," ","1","+10","[1889]","1","1","","","7809","2","1","1","win","go","0"
"pit-trial","120","900891","0.0-6.0","battery-v0.2","","""event"",""trial"",""time""
""focus"",""0"",""3""
""fullscreenenter"",""1"",""3398""
","
","""event"",""trial"",""time""
""focus"",""0"",""3""
","""event"",""trial"",""time""
""fullscreenenter"",""1"",""3398""
","
","","","1086","","","25","7809","3913","&#9733;","elianto","#3366ff99","-1"," ","0","0","[1941]","1","1","","","7809","3","2","2","win","no-go","0"
"pit-trial","121","905750","0.0-7.0","battery-v0.2","","""event"",""trial"",""time""
""focus"",""0"",""3""
""fullscreenenter"",""1"",""3398""
","
","""event"",""trial"",""time""
""focus"",""0"",""3""
","""event"",""trial"",""time""
""fullscreenenter"",""1"",""3398""
","
","","","-1","","","25","7809","3913","&#9728;","elianto","#f73b6a7A","-1","-1","1","0","[]","0","1","","","7809","4","0","4","lose","no-go","0"
"pit-trial","122","910608","0.0-8.0","battery-v0.2","","""event"",""trial"",""time""
""focus"",""0"",""3""
""fullscreenenter"",""1"",""3398""
","
","""event"",""trial"",""time""
""focus"",""0"",""3""
","""event"",""trial"",""time""
""fullscreenenter"",""1"",""3398""
","
","","","-1","","","25","7809","3913","&#9728;","elianto","#f73b6a7A","-1","-1","1","0","[]","0","1","","","7809","5","0","4","lose","no-go","0"
"pit-trial","123","914324","0.0-9.0","battery-v0.2","","""event"",""trial"",""time""
""focus"",""0"",""3""
""fullscreenenter"",""1"",""3398""
","
","""event"",""trial"",""time""
""focus"",""0"",""3""
","""event"",""trial"",""time""
""fullscreenenter"",""1"",""3398""
","
","","","859","","","25","7809","3913","&#9752;","elianto","#f73b6a7A"," "," ","1","0","[1709]","1","1","","","7809","6","3","3","lose","go","0"
"pit-trial","124","918365","0.0-10.0","battery-v0.2","","""event"",""trial"",""time""
""focus"",""0"",""3""
""fullscreenenter"",""1"",""3398""
","
","""event"",""trial"",""time""
""focus"",""0"",""3""
","""event"",""trial"",""time""
""fullscreenenter"",""1"",""3398""
","
","","","1180","","","25","7809","3913","&#9733;","elianto","#3366ff99","-1"," ","0","0","[2032]","1","1","","","7809","7","2","2","win","no-go","0"
"pit-trial","125","922399","0.0-11.0","battery-v0.2","","""event"",""trial"",""time""
""focus"",""0"",""3""
""fullscreenenter"",""1"",""3398""
","
","""event"",""trial"",""time""
""focus"",""0"",""3""
","""event"",""trial"",""time""
""fullscreenenter"",""1"",""3398""
","
","","","1176","","","25","7809","3913","&#9730;","elianto","#3366ff99"," "," ","1","+10","[2031]","1","1","","","7809","8","1","1","win","go","0"
"pit-trial","126","927257","0.0-12.0","battery-v0.2","","""event"",""trial"",""time""
""focus"",""0"",""3""
""fullscreenenter"",""1"",""3398""
","
","""event"",""trial"",""time""
""focus"",""0"",""3""
","""event"",""trial"",""time""
""fullscreenenter"",""1"",""3398""
","
","","","-1","","","25","7809","3913","&#9752;","elianto","#f73b6a7A"," ","-1","0","0","[]","0","1","","","7809","9","3","3","lose","go","1"
"pit-trial","127","931477","0.0-13.0","battery-v0.2","","""event"",""trial"",""time""
""focus"",""0"",""3""
""fullscreenenter"",""1"",""3398""
","
","""event"",""trial"",""time""
""focus"",""0"",""3""
","""event"",""trial"",""time""
""fullscreenenter"",""1"",""3398""
","
","","","1364","","","25","7809","3913","&#9730;","elianto","#3366ff99"," "," ","1","+10","[2217]","1","1","","","7809","10","1","1","win","go","0"
"pit-trial","128","936337","0.0-14.0","battery-v0.2","","""event"",""trial"",""time""
""focus"",""0"",""3""
""fullscreenenter"",""1"",""3398""
","
","""event"",""trial"",""time""
""focus"",""0"",""3""
","""event"",""trial"",""time""
""fullscreenenter"",""1"",""3398""
","
","","","-1","","","25","7809","3913","&#9728;","elianto","#f73b6a7A","-1","-1","1","0","[]","0","1","","","7809","11","0","4","lose","no-go","0"
"pit-trial","129","940447","0.0-15.0","battery-v0.2","","""event"",""trial"",""time""
""focus"",""0"",""3""
""fullscreenenter"",""1"",""3398""
","
","""event"",""trial"",""time""
""focus"",""0"",""3""
","""event"",""trial"",""time""
""fullscreenenter"",""1"",""3398""
","
","","","1253","","","25","7809","3913","&#9733;","elianto","#3366ff99","-1"," ","0","0","[2104]","1","1","","","7809","12","2","2","win","no-go","0"
"pit-trial","130","945305","0.0-16.0","battery-v0.2","","""event"",""trial"",""time""
""focus"",""0"",""3""
""fullscreenenter"",""1"",""3398""
","
","""event"",""trial"",""time""
""focus"",""0"",""3""
","""event"",""trial"",""time""
""fullscreenenter"",""1"",""3398""
","
","","","-1","","","25","7809","3913","&#9728;","elianto","#f73b6a7A","-1","-1","1","0","[]","0","1","","","7809","13","0","4","lose","no-go","0"
"pit-trial","131","949073","0.0-17.0","battery-v0.2","","""event"",""trial"",""time""
""focus"",""0"",""3""
""fullscreenenter"",""1"",""3398""
","
","""event"",""trial"",""time""
""focus"",""0"",""3""
","""event"",""trial"",""time""
""fullscreenenter"",""1"",""3398""
","
","","","913","","","25","7809","3913","&#9730;","elianto","#3366ff99"," "," ","1","+10","[1763]","1","1","","","7809","14","1","1","win","go","0"
"pit-trial","132","953392","0.0-18.0","battery-v0.2","","""event"",""trial"",""time""
""focus"",""0"",""3""
""fullscreenenter"",""1"",""3398""
","
","""event"",""trial"",""time""
""focus"",""0"",""3""
","""event"",""trial"",""time""
""fullscreenenter"",""1"",""3398""
","
","","","1463","","","25","7809","3913","&#9752;","elianto","#f73b6a7A"," "," ","1","0","[2316]","1","1","","","7809","15","3","3","lose","go","0"
"pit-trial","133","957645","0.0-19.0","battery-v0.2","","""event"",""trial"",""time""
""focus"",""0"",""3""
""fullscreenenter"",""1"",""3398""
","
","""event"",""trial"",""time""
""focus"",""0"",""3""
","""event"",""trial"",""time""
""fullscreenenter"",""1"",""3398""
","
","","","1393","","","25","7809","3913","&#9733;","elianto","#3366ff99","-1"," ","0","0","[2249]","1","1","","","7809","16","2","2","win","no-go","0"
"pit-trial","134","961698","0.0-20.0","battery-v0.2","","""event"",""trial"",""time""
""focus"",""0"",""3""
""fullscreenenter"",""1"",""3398""
","
","""event"",""trial"",""time""
""focus"",""0"",""3""
","""event"",""trial"",""time""
""fullscreenenter"",""1"",""3398""
","
","","","1194","","","25","7809","3913","&#9730;","elianto","#3366ff99"," "," ","1","+10","[2047]","1","1","","","7809","17","1","1","win","go","0"
"pit-trial","135","965465","0.0-21.0","battery-v0.2","","""event"",""trial"",""time""
""focus"",""0"",""3""
""fullscreenenter"",""1"",""3398""
","
","""event"",""trial"",""time""
""focus"",""0"",""3""
","""event"",""trial"",""time""
""fullscreenenter"",""1"",""3398""
","
","","","910","","","25","7809","3913","&#9733;","elianto","#3366ff99","-1"," ","0","0","[1763]","1","1","","","7809","18","2","2","win","no-go","0"
"pit-trial","136","969495","0.0-22.0","battery-v0.2","","""event"",""trial"",""time""
""focus"",""0"",""3""
""fullscreenenter"",""1"",""3398""
","
","""event"",""trial"",""time""
""focus"",""0"",""3""
","""event"",""trial"",""time""
""fullscreenenter"",""1"",""3398""
","
","","","1172","","","25","7809","3913","&#9752;","elianto","#f73b6a7A"," "," ","1","0","[2022]","1","1","","","7809","19","3","3","lose","go","0"
"pit-trial","137","974352","0.0-23.0","battery-v0.2","","""event"",""trial"",""time""
""focus"",""0"",""3""
""fullscreenenter"",""1"",""3398""
","
","""event"",""trial"",""time""
""focus"",""0"",""3""
","""event"",""trial"",""time""
""fullscreenenter"",""1"",""3398""
","
","","","-1","","","25","7809","3913","&#9728;","elianto","#f73b6a7A","-1","-1","1","0","[]","0","1","","","7809","20","0","4","lose","no-go","0"
"pit-instructions","138","987168","0.0-24.0","battery-v0.2","","""event"",""trial"",""time""
""focus"",""0"",""3""
""fullscreenenter"",""1"",""3398""
","
","""event"",""trial"",""time""
""focus"",""0"",""3""
","""event"",""trial"",""time""
""fullscreenenter"",""1"",""3398""
","
","","[{""page_index"":0,""viewing_time"":5868},{""page_index"":1,""viewing_time"":6945}]","12813","","","","","","","","","","","","","","","","","","","","","","","",""
"pit-trial","139","991137","0.0-25.0","battery-v0.2","","""event"",""trial"",""time""
""focus"",""0"",""3""
""fullscreenenter"",""1"",""3398""
","
","""event"",""trial"",""time""
""focus"",""0"",""3""
","""event"",""trial"",""time""
""fullscreenenter"",""1"",""3398""
","
","","","1110","","","25","7809","3913","f","elianto","#3366ff99","-1"," ","0","0","[1963]","1","2","","","7809","21","1","2","win","no-go","0"
"pit-trial","140","994840","0.0-26.0","battery-v0.2","","""event"",""trial"",""time""
""focus"",""0"",""3""
""fullscreenenter"",""1"",""3398""
","
","""event"",""trial"",""time""
""focus"",""0"",""3""
","""event"",""trial"",""time""
""fullscreenenter"",""1"",""3398""
","
","","","848","","","25","7809","3913","b","elianto","#f73b6a7A","-1"," ","0","0","[1698]","1","2","","","7809","22","3","4","lose","no-go","1"
"pit-trial","141","999082","0.0-27.0","battery-v0.2","","""event"",""trial"",""time""
""focus"",""0"",""3""
""fullscreenenter"",""1"",""3398""
","
","""event"",""trial"",""time""
""focus"",""0"",""3""
","""event"",""trial"",""time""
""fullscreenenter"",""1"",""3398""
","
","","","1385","","","25","7809","3913","n","elianto","#f73b6a7A"," "," ","1","0","[2235]","1","2","","","7809","23","0","3","lose","go","0"
"pit-trial","142","1002949","0.0-28.0","battery-v0.2","","""event"",""trial"",""time""
""focus"",""0"",""3""
""fullscreenenter"",""1"",""3398""
","
","""event"",""trial"",""time""
""focus"",""0"",""3""
","""event"",""trial"",""time""
""fullscreenenter"",""1"",""3398""
","
","","","1011","","","25","7809","3913","t","elianto","#f73b6a7A"," "," ","1","0","[1863]","1","2","","","7809","24","2","3","lose","go","0"
"pit-trial","143","1006698","0.0-29.0","battery-v0.2","","""event"",""trial"",""time""
""focus"",""0"",""3""
""fullscreenenter"",""1"",""3398""
","
","""event"",""trial"",""time""
""focus"",""0"",""3""
","""event"",""trial"",""time""
""fullscreenenter"",""1"",""3398""
","
","","","891","","","25","7809","3913","b","elianto","#f73b6a7A","-1"," ","0","0","[1744]","1","2","","","7809","25","3","4","lose","no-go","1"
"pit-trial","144","1010363","0.0-30.0","battery-v0.2","","""event"",""trial"",""time""
""focus"",""0"",""3""
""fullscreenenter"",""1"",""3398""
","
","""event"",""trial"",""time""
""focus"",""0"",""3""
","""event"",""trial"",""time""
""fullscreenenter"",""1"",""3398""
","
","","","808","","","25","7809","3913","n","elianto","#f73b6a7A"," "," ","1","0","[1661]","1","2","","","7809","26","0","3","lose","go","0"
"pit-trial","145","1013990","0.0-31.0","battery-v0.2","","""event"",""trial"",""time""
""focus"",""0"",""3""
""fullscreenenter"",""1"",""3398""
","
","""event"",""trial"",""time""
""focus"",""0"",""3""
","""event"",""trial"",""time""
""fullscreenenter"",""1"",""3398""
","
","","","768","","","25","7809","3913","f","elianto","#3366ff99","-1"," ","0","0","[1618]","1","2","","","7809","27","1","2","win","no-go","0"
"pit-trial","146","1017724","0.0-32.0","battery-v0.2","","""event"",""trial"",""time""
""focus"",""0"",""3""
""fullscreenenter"",""1"",""3398""
","
","""event"",""trial"",""time""
""focus"",""0"",""3""
","""event"",""trial"",""time""
""fullscreenenter"",""1"",""3398""
","
","","","876","","","25","7809","3913","t","elianto","#f73b6a7A"," "," ","1","0","[1729]","1","2","","","7809","28","2","3","lose","go","0"
"pit-trial","147","1021625","0.0-33.0","battery-v0.2","","""event"",""trial"",""time""
""focus"",""0"",""3""
""fullscreenenter"",""1"",""3398""
","
","""event"",""trial"",""time""
""focus"",""0"",""3""
","""event"",""trial"",""time""
""fullscreenenter"",""1"",""3398""
","
","","","1041","","","25","7809","3913","f","elianto","#3366ff99","-1"," ","0","0","[1896]","1","2","","","7809","29","1","2","win","no-go","0"
"pit-trial","148","1025712","0.0-34.0","battery-v0.2","","""event"",""trial"",""time""
""focus"",""0"",""3""
""fullscreenenter"",""1"",""3398""
","
","""event"",""trial"",""time""
""focus"",""0"",""3""
","""event"",""trial"",""time""
""fullscreenenter"",""1"",""3398""
","
","","","1225","","","25","7809","3913","t","elianto","#f73b6a7A"," "," ","1","0","[2079]","1","2","","","7809","30","2","3","lose","go","0"
"pit-trial","149","1030569","0.0-35.0","battery-v0.2","","""event"",""trial"",""time""
""focus"",""0"",""3""
""fullscreenenter"",""1"",""3398""
","
","""event"",""trial"",""time""
""focus"",""0"",""3""
","""event"",""trial"",""time""
""fullscreenenter"",""1"",""3398""
","
","","","-1","","","25","7809","3913","b","elianto","#f73b6a7A","-1","-1","1","0","[]","0","2","","","7809","31","3","4","lose","no-go","0"
"pit-trial","150","1034577","0.0-36.0","battery-v0.2","","""event"",""trial"",""time""
""focus"",""0"",""3""
""fullscreenenter"",""1"",""3398""
","
","""event"",""trial"",""time""
""focus"",""0"",""3""
","""event"",""trial"",""time""
""fullscreenenter"",""1"",""3398""
","
","","","1150","","","25","7809","3913","n","elianto","#f73b6a7A"," "," ","1","0","[2000]","1","2","","","7809","32","0","3","lose","go","0"
"pit-trial","151","1038425","0.0-37.0","battery-v0.2","","""event"",""trial"",""time""
""focus"",""0"",""3""
""fullscreenenter"",""1"",""3398""
","
","""event"",""trial"",""time""
""focus"",""0"",""3""
","""event"",""trial"",""time""
""fullscreenenter"",""1"",""3398""
","
","","","988","","","25","7809","3913","b","elianto","#f73b6a7A","-1"," ","0","-10","[1841]","1","2","","","7809","33","3","4","lose","no-go","0"
"pit-trial","152","1042347","0.0-38.0","battery-v0.2","","""event"",""trial"",""time""
""focus"",""0"",""3""
""fullscreenenter"",""1"",""3398""
","
","""event"",""trial"",""time""
""focus"",""0"",""3""
","""event"",""trial"",""time""
""fullscreenenter"",""1"",""3398""
","
","","","1068","","","25","7809","3913","t","elianto","#f73b6a7A"," "," ","1","-10","[1918]","1","2","","","7809","34","2","3","lose","go","1"
"pit-trial","153","1046175","0.0-39.0","battery-v0.2","","""event"",""trial"",""time""
""focus"",""0"",""3""
""fullscreenenter"",""1"",""3398""
","
","""event"",""trial"",""time""
""focus"",""0"",""3""
","""event"",""trial"",""time""
""fullscreenenter"",""1"",""3398""
","
","","","970","","","25","7809","3913","n","elianto","#f73b6a7A"," "," ","1","0","[1822]","1","2","","","7809","35","0","3","lose","go","0"
"pit-trial","154","1049716","0.0-40.0","battery-v0.2","","""event"",""trial"",""time""
""focus"",""0"",""3""
""fullscreenenter"",""1"",""3398""
","
","""event"",""trial"",""time""
""focus"",""0"",""3""
","""event"",""trial"",""time""
""fullscreenenter"",""1"",""3398""
","
","","","687","","","25","7809","3913","f","elianto","#3366ff99","-1"," ","0","+10","[1537]","1","2","","","7809","36","1","2","win","no-go","1"
"pit-trial","155","1053857","0.0-41.0","battery-v0.2","","""event"",""trial"",""time""
""focus"",""0"",""3""
""fullscreenenter"",""1"",""3398""
","
","""event"",""trial"",""time""
""focus"",""0"",""3""
","""event"",""trial"",""time""
""fullscreenenter"",""1"",""3398""
","
","","","1284","","","25","7809","3913","t","elianto","#f73b6a7A"," "," ","1","0","[2136]","1","2","","","7809","37","2","3","lose","go","0"
"pit-trial","156","1057582","0.0-42.0","battery-v0.2","","""event"",""trial"",""time""
""focus"",""0"",""3""
""fullscreenenter"",""1"",""3398""
","
","""event"",""trial"",""time""
""focus"",""0"",""3""
","""event"",""trial"",""time""
""fullscreenenter"",""1"",""3398""
","
","","","864","","","25","7809","3913","f","elianto","#3366ff99","-1"," ","0","0","[1720]","1","2","","","7809","38","1","2","win","no-go","0"
"pit-trial","157","1061855","0.0-43.0","battery-v0.2","","""event"",""trial"",""time""
""focus"",""0"",""3""
""fullscreenenter"",""1"",""3398""
","
","""event"",""trial"",""time""
""focus"",""0"",""3""
","""event"",""trial"",""time""
""fullscreenenter"",""1"",""3398""
","
","","","1416","","","25","7809","3913","n","elianto","#f73b6a7A"," "," ","1","0","[2270]","1","2","","","7809","39","0","3","lose","go","0"
"pit-trial","158","1066710","0.0-44.0","battery-v0.2","","""event"",""trial"",""time""
""focus"",""0"",""3""
""fullscreenenter"",""1"",""3398""
","
","""event"",""trial"",""time""
""focus"",""0"",""3""
","""event"",""trial"",""time""
""fullscreenenter"",""1"",""3398""
","
","","","-1","","","25","7809","3913","b","elianto","#f73b6a7A","-1","-1","1","-10","[]","0","2","","","7809","40","3","4","lose","no-go","1"
"pit-trial","159","1070789","0.0-45.0","battery-v0.2","","""event"",""trial"",""time""
""focus"",""0"",""3""
""fullscreenenter"",""1"",""3398""
","
","""event"",""trial"",""time""
""focus"",""0"",""3""
","""event"",""trial"",""time""
""fullscreenenter"",""1"",""3398""
","
","","","1221","","","25","7809","3913","n","elianto","#f73b6a7A"," "," ","1","-10","[2075]","1","2","","","7809","41","0","3","lose","go","1"
"pit-trial","160","1074335","0.0-46.0","battery-v0.2","","""event"",""trial"",""time""
""focus"",""0"",""3""
""fullscreenenter"",""1"",""3398""
","
","""event"",""trial"",""time""
""focus"",""0"",""3""
","""event"",""trial"",""time""
""fullscreenenter"",""1"",""3398""
","
","","","689","","","25","7809","3913","f","elianto","#3366ff99","-1"," ","0","0","[1539]","1","2","","","7809","42","1","2","win","no-go","0"
"pit-trial","161","1079193","0.0-47.0","battery-v0.2","","""event"",""trial"",""time""
""focus"",""0"",""3""
""fullscreenenter"",""1"",""3398""
","
","""event"",""trial"",""time""
""focus"",""0"",""3""
","""event"",""trial"",""time""
""fullscreenenter"",""1"",""3398""
","
","","","-1","","","25","7809","3913","t","elianto","#f73b6a7A"," ","-1","0","-10","[]","0","2","","","7809","43","2","3","lose","go","0"
"pit-trial","162","1083466","0.0-48.0","battery-v0.2","","""event"",""trial"",""time""
""focus"",""0"",""3""
""fullscreenenter"",""1"",""3398""
","
","""event"",""trial"",""time""
""focus"",""0"",""3""
","""event"",""trial"",""time""
""fullscreenenter"",""1"",""3398""
","
","","","1418","","","25","7809","3913","b","elianto","#f73b6a7A","-1"," ","0","-10","[2270]","1","2","","","7809","44","3","4","lose","no-go","0"
"pit-trial","163","1087779","0.0-49.0","battery-v0.2","","""event"",""trial"",""time""
""focus"",""0"",""3""
""fullscreenenter"",""1"",""3398""
","
","""event"",""trial"",""time""
""focus"",""0"",""3""
","""event"",""trial"",""time""
""fullscreenenter"",""1"",""3398""
","
","","","1454","","","25","7809","3913","n","elianto","#f73b6a7A"," "," ","1","0","[2306]","1","2","","","7809","45","0","3","lose","go","0"
"pit-trial","164","1091817","0.0-50.0","battery-v0.2","","""event"",""trial"",""time""
""focus"",""0"",""3""
""fullscreenenter"",""1"",""3398""
","
","""event"",""trial"",""time""
""focus"",""0"",""3""
","""event"",""trial"",""time""
""fullscreenenter"",""1"",""3398""
","
","","","1178","","","25","7809","3913","b","elianto","#f73b6a7A","-1"," ","0","-10","[2032]","1","2","","","7809","46","3","4","lose","no-go","0"
"pit-trial","165","1095923","0.0-51.0","battery-v0.2","","""event"",""trial"",""time""
""focus"",""0"",""3""
""fullscreenenter"",""1"",""3398""
","
","""event"",""trial"",""time""
""focus"",""0"",""3""
","""event"",""trial"",""time""
""fullscreenenter"",""1"",""3398""
","
","","","1249","","","25","7809","3913","f","elianto","#3366ff99","-1"," ","0","0","[2100]","1","2","","","7809","47","1","2","win","no-go","0"
"pit-trial","166","1100098","0.0-52.0","battery-v0.2","","""event"",""trial"",""time""
""focus"",""0"",""3""
""fullscreenenter"",""1"",""3398""
","
","""event"",""trial"",""time""
""focus"",""0"",""3""
","""event"",""trial"",""time""
""fullscreenenter"",""1"",""3398""
","
","","","1314","","","25","7809","3913","t","elianto","#f73b6a7A"," "," ","1","0","[2167]","1","2","","","7809","48","2","3","lose","go","0"
"pit-trial","167","1104956","0.0-53.0","battery-v0.2","","""event"",""trial"",""time""
""focus"",""0"",""3""
""fullscreenenter"",""1"",""3398""
","
","""event"",""trial"",""time""
""focus"",""0"",""3""
","""event"",""trial"",""time""
""fullscreenenter"",""1"",""3398""
","
","","","-1","","","25","7809","3913","f","elianto","#3366ff99","-1","-1","1","0","[]","0","2","","","7809","49","1","2","win","no-go","1"
"pit-trial","168","1109322","0.0-54.0","battery-v0.2","","""event"",""trial"",""time""
""focus"",""0"",""3""
""fullscreenenter"",""1"",""3398""
","
","""event"",""trial"",""time""
""focus"",""0"",""3""
","""event"",""trial"",""time""
""fullscreenenter"",""1"",""3398""
","
","","","1505","","","25","7809","3913","n","elianto","#f73b6a7A"," "," ","1","-10","[2359]","1","2","","","7809","50","0","3","lose","go","1"
"pit-trial","169","1114181","0.0-55.0","battery-v0.2","","""event"",""trial"",""time""
""focus"",""0"",""3""
""fullscreenenter"",""1"",""3398""
","
","""event"",""trial"",""time""
""focus"",""0"",""3""
","""event"",""trial"",""time""
""fullscreenenter"",""1"",""3398""
","
","","","-1","","","25","7809","3913","b","elianto","#f73b6a7A","-1","-1","1","0","[2886]","1","2","","","7809","51","3","4","lose","no-go","0"
"pit-trial","170","1118152","0.0-56.0","battery-v0.2","","""event"",""trial"",""time""
""focus"",""0"",""3""
""fullscreenenter"",""1"",""3398""
","
","""event"",""trial"",""time""
""focus"",""0"",""3""
","""event"",""trial"",""time""
""fullscreenenter"",""1"",""3398""
","
","","","1116","","","25","7809","3913","t","elianto","#f73b6a7A"," "," ","1","0","[1965]","1","2","","","7809","52","2","3","lose","go","0"
"pit-trial","171","1123011","0.0-57.0","battery-v0.2","","""event"",""trial"",""time""
""focus"",""0"",""3""
""fullscreenenter"",""1"",""3398""
","
","""event"",""trial"",""time""
""focus"",""0"",""3""
","""event"",""trial"",""time""
""fullscreenenter"",""1"",""3398""
","
","","","-1","","","25","7809","3913","f","elianto","#3366ff99","-1","-1","1","+10","[]","0","2","","","7809","53","1","2","win","no-go","0"
"pit-trial","172","1127869","0.0-58.0","battery-v0.2","","""event"",""trial"",""time""
""focus"",""0"",""3""
""fullscreenenter"",""1"",""3398""
","
","""event"",""trial"",""time""
""focus"",""0"",""3""
","""event"",""trial"",""time""
""fullscreenenter"",""1"",""3398""
","
","","","-1","","","25","7809","3913","b","elianto","#f73b6a7A","-1","-1","1","0","[]","0","2","","","7809","54","3","4","lose","no-go","0"
"pit-trial","173","1131992","0.0-59.0","battery-v0.2","","""event"",""trial"",""time""
""focus"",""0"",""3""
""fullscreenenter"",""1"",""3398""
","
","""event"",""trial"",""time""
""focus"",""0"",""3""
","""event"",""trial"",""time""
""fullscreenenter"",""1"",""3398""
","
","","","1261","","","25","7809","3913","n","elianto","#f73b6a7A"," "," ","1","0","[2115]","1","2","","","7809","55","0","3","lose","go","0"
"pit-trial","174","1136848","0.0-60.0","battery-v0.2","","""event"",""trial"",""time""
""focus"",""0"",""3""
""fullscreenenter"",""1"",""3398""
","
","""event"",""trial"",""time""
""focus"",""0"",""3""
","""event"",""trial"",""time""
""fullscreenenter"",""1"",""3398""
","
","","","-1","","","25","7809","3913","t","elianto","#f73b6a7A"," ","-1","0","-10","[3021]","1","2","","","7809","56","2","3","lose","go","0"
"pit-trial","175","1140734","0.0-61.0","battery-v0.2","","""event"",""trial"",""time""
""focus"",""0"",""3""
""fullscreenenter"",""1"",""3398""
","
","""event"",""trial"",""time""
""focus"",""0"",""3""
","""event"",""trial"",""time""
""fullscreenenter"",""1"",""3398""
","
","","","1026","","","25","7809","3913","b","elianto","#f73b6a7A","-1"," ","0","0","[1878]","1","2","","","7809","57","3","4","lose","no-go","1"
"pit-trial","176","1144872","0.0-62.0","battery-v0.2","","""event"",""trial"",""time""
""focus"",""0"",""3""
""fullscreenenter"",""1"",""3398""
","
","""event"",""trial"",""time""
""focus"",""0"",""3""
","""event"",""trial"",""time""
""fullscreenenter"",""1"",""3398""
","
","","","1283","","","25","7809","3913","n","elianto","#f73b6a7A"," "," ","1","0","[2132]","1","2","","","7809","58","0","3","lose","go","0"
"pit-trial","177","1148865","0.0-63.0","battery-v0.2","","""event"",""trial"",""time""
""focus"",""0"",""3""
""fullscreenenter"",""1"",""3398""
","
","""event"",""trial"",""time""
""focus"",""0"",""3""
","""event"",""trial"",""time""
""fullscreenenter"",""1"",""3398""
","
","","","1135","","","25","7809","3913","t","elianto","#f73b6a7A"," "," ","1","0","[1988]","1","2","","","7809","59","2","3","lose","go","0"
"pit-trial","178","1153075","0.0-64.0","battery-v0.2","","""event"",""trial"",""time""
""focus"",""0"",""3""
""fullscreenenter"",""1"",""3398""
","
","""event"",""trial"",""time""
""focus"",""0"",""3""
","""event"",""trial"",""time""
""fullscreenenter"",""1"",""3398""
","
","","","1350","","","25","7809","3913","c","elianto","#3366ff99"," "," ","1","+10","[2203]","1","2","","","7809","60","4","1","win","go","0"
"pit-trial","179","1156720","0.0-65.0","battery-v0.2","","""event"",""trial"",""time""
""focus"",""0"",""3""
""fullscreenenter"",""1"",""3398""
","
","""event"",""trial"",""time""
""focus"",""0"",""3""
","""event"",""trial"",""time""
""fullscreenenter"",""1"",""3398""
","
","","","785","","","25","7809","3913","c","elianto","#3366ff99"," "," ","1","+10","[1638]","1","2","","","7809","61","4","1","win","go","0"
"pit-trial","180","1160959","0.0-66.0","battery-v0.2","","""event"",""trial"",""time""
""focus"",""0"",""3""
""fullscreenenter"",""1"",""3398""
","
","""event"",""trial"",""time""
""focus"",""0"",""3""
","""event"",""trial"",""time""
""fullscreenenter"",""1"",""3398""
","
","","","1381","","","25","7809","3913","t","elianto","#f73b6a7A"," "," ","1","0","[2232]","1","2","","","7809","62","2","3","lose","go","0"
"pit-trial","181","1165581","0.0-67.0","battery-v0.2","","""event"",""trial"",""time""
""focus"",""0"",""3""
""fullscreenenter"",""1"",""3398""
","
","""event"",""trial"",""time""
""focus"",""0"",""3""
","""event"",""trial"",""time""
""fullscreenenter"",""1"",""3398""
","
","","","1762","","","25","7809","3913","b","elianto","#f73b6a7A","-1"," ","0","0","[2617]","1","2","","","7809","63","3","4","lose","no-go","1"
"pit-trial","182","1170437","0.0-68.0","battery-v0.2","","""event"",""trial"",""time""
""focus"",""0"",""3""
""fullscreenenter"",""1"",""3398""
","
","""event"",""trial"",""time""
""focus"",""0"",""3""
","""event"",""trial"",""time""
""fullscreenenter"",""1"",""3398""
","
","","","-1","","","25","7809","3913","f","elianto","#3366ff99","-1","-1","1","+10","[]","0","2","","","7809","64","1","2","win","no-go","0"
"pit-trial","183","1174426","0.0-69.0","battery-v0.2","","""event"",""trial"",""time""
""focus"",""0"",""3""
""fullscreenenter"",""1"",""3398""
","
","""event"",""trial"",""time""
""focus"",""0"",""3""
","""event"",""trial"",""time""
""fullscreenenter"",""1"",""3398""
","
","","","1131","","","25","7809","3913","b","elianto","#f73b6a7A","-1"," ","0","-10","[1983]","1","2","","","7809","65","3","4","lose","no-go","0"
"pit-trial","184","1178443","0.0-70.0","battery-v0.2","","""event"",""trial"",""time""
""focus"",""0"",""3""
""fullscreenenter"",""1"",""3398""
","
","""event"",""trial"",""time""
""focus"",""0"",""3""
","""event"",""trial"",""time""
""fullscreenenter"",""1"",""3398""
","
","","","1160","","","25","7809","3913","z","elianto","#3366ff99","-1"," ","0","0","[2010]","1","2","","","7809","66","5","2","win","no-go","0"
"pit-trial","185","1182414","0.0-71.0","battery-v0.2","","""event"",""trial"",""time""
""focus"",""0"",""3""
""fullscreenenter"",""1"",""3398""
","
","""event"",""trial"",""time""
""focus"",""0"",""3""
","""event"",""trial"",""time""
""fullscreenenter"",""1"",""3398""
","
","","","1113","","","25","7809","3913","f","elianto","#3366ff99","-1"," ","0","0","[1964]","1","2","","","7809","67","1","2","win","no-go","0"
"pit-trial","186","1186260","0.0-72.0","battery-v0.2","","""event"",""trial"",""time""
""focus"",""0"",""3""
""fullscreenenter"",""1"",""3398""
","
","""event"",""trial"",""time""
""focus"",""0"",""3""
","""event"",""trial"",""time""
""fullscreenenter"",""1"",""3398""
","
","","","990","","","25","7809","3913","c","elianto","#3366ff99"," "," ","1","+10","[1841]","1","2","","","7809","68","4","1","win","go","0"
"pit-trial","187","1190309","0.0-73.0","battery-v0.2","","""event"",""trial"",""time""
""focus"",""0"",""3""
""fullscreenenter"",""1"",""3398""
","
","""event"",""trial"",""time""
""focus"",""0"",""3""
","""event"",""trial"",""time""
""fullscreenenter"",""1"",""3398""
","
","","","1190","","","25","7809","3913","z","elianto","#3366ff99","-1"," ","0","0","[2044]","1","2","","","7809","69","5","2","win","no-go","0"
"pit-trial","188","1195166","0.0-74.0","battery-v0.2","","""event"",""trial"",""time""
""focus"",""0"",""3""
""fullscreenenter"",""1"",""3398""
","
","""event"",""trial"",""time""
""focus"",""0"",""3""
","""event"",""trial"",""time""
""fullscreenenter"",""1"",""3398""
","
","","","-1","","","25","7809","3913","f","elianto","#3366ff99","-1","-1","1","0","[]","0","2","","","7809","70","1","2","win","no-go","1"
"pit-trial","189","1198883","0.0-75.0","battery-v0.2","","""event"",""trial"",""time""
""focus"",""0"",""3""
""fullscreenenter"",""1"",""3398""
","
","""event"",""trial"",""time""
""focus"",""0"",""3""
","""event"",""trial"",""time""
""fullscreenenter"",""1"",""3398""
","
","","","861","","","25","7809","3913","c","elianto","#3366ff99"," "," ","1","+10","[1712]","1","2","","","7809","71","4","1","win","go","0"
"pit-trial","190","1202946","0.0-76.0","battery-v0.2","","""event"",""trial"",""time""
""focus"",""0"",""3""
""fullscreenenter"",""1"",""3398""
","
","""event"",""trial"",""time""
""focus"",""0"",""3""
","""event"",""trial"",""time""
""fullscreenenter"",""1"",""3398""
","
","","","1206","","","25","7809","3913","t","elianto","#f73b6a7A"," "," ","1","-10","[2056]","1","2","","","7809","72","2","3","lose","go","1"
"pit-trial","191","1207253","0.0-77.0","battery-v0.2","","""event"",""trial"",""time""
""focus"",""0"",""3""
""fullscreenenter"",""1"",""3398""
","
","""event"",""trial"",""time""
""focus"",""0"",""3""
","""event"",""trial"",""time""
""fullscreenenter"",""1"",""3398""
","
","","","1451","","","25","7809","3913","f","elianto","#3366ff99","-1"," ","0","0","[2302]","1","2","","","7809","73","1","2","win","no-go","0"
"pit-trial","192","1211045","0.0-78.0","battery-v0.2","","""event"",""trial"",""time""
""focus"",""0"",""3""
""fullscreenenter"",""1"",""3398""
","
","""event"",""trial"",""time""
""focus"",""0"",""3""
","""event"",""trial"",""time""
""fullscreenenter"",""1"",""3398""
","
","","","934","","","25","7809","3913","z","elianto","#3366ff99","-1"," ","0","0","[1786]","1","2","","","7809","74","5","2","win","no-go","0"
"pit-trial","193","1215689","0.0-79.0","battery-v0.2","","""event"",""trial"",""time""
""focus"",""0"",""3""
""fullscreenenter"",""1"",""3398""
","
","""event"",""trial"",""time""
""focus"",""0"",""3""
","""event"",""trial"",""time""
""fullscreenenter"",""1"",""3398""
","
","","","1789","","","25","7809","3913","c","elianto","#3366ff99"," "," ","1","+10","[2640]","1","2","","","7809","75","4","1","win","go","0"
"pit-trial","194","1219484","0.0-80.0","battery-v0.2","","""event"",""trial"",""time""
""focus"",""0"",""3""
""fullscreenenter"",""1"",""3398""
","
","""event"",""trial"",""time""
""focus"",""0"",""3""
","""event"",""trial"",""time""
""fullscreenenter"",""1"",""3398""
","
","","","934","","","25","7809","3913","b","elianto","#f73b6a7A","-1"," ","0","-10","[1788]","1","2","","","7809","76","3","4","lose","no-go","0"
"pit-trial","195","1223317","0.0-81.0","battery-v0.2","","""event"",""trial"",""time""
""focus"",""0"",""3""
""fullscreenenter"",""1"",""3398""
","
","""event"",""trial"",""time""
""focus"",""0"",""3""
","""event"",""trial"",""time""
""fullscreenenter"",""1"",""3398""
","
","","","976","","","25","7809","3913","c","elianto","#3366ff99"," "," ","1","+10","[1828]","1","2","","","7809","77","4","1","win","go","0"
"pit-trial","196","1227133","0.0-82.0","battery-v0.2","","""event"",""trial"",""time""
""focus"",""0"",""3""
""fullscreenenter"",""1"",""3398""
","
","""event"",""trial"",""time""
""focus"",""0"",""3""
","""event"",""trial"",""time""
""fullscreenenter"",""1"",""3398""
","
","","","960","","","25","7809","3913","z","elianto","#3366ff99","-1"," ","0","+10","[1810]","1","2","","","7809","78","5","2","win","no-go","1"
"pit-trial","197","1231259","0.0-83.0","battery-v0.2","","""event"",""trial"",""time""
""focus"",""0"",""3""
""fullscreenenter"",""1"",""3398""
","
","""event"",""trial"",""time""
""focus"",""0"",""3""
","""event"",""trial"",""time""
""fullscreenenter"",""1"",""3398""
","
","","","1272","","","25","7809","3913","b","elianto","#f73b6a7A","-1"," ","0","-10","[2122]","1","2","","","7809","79","3","4","lose","no-go","0"
"pit-trial","198","1235380","0.0-84.0","battery-v0.2","","""event"",""trial"",""time""
""focus"",""0"",""3""
""fullscreenenter"",""1"",""3398""
","
","""event"",""trial"",""time""
""focus"",""0"",""3""
","""event"",""trial"",""time""
""fullscreenenter"",""1"",""3398""
","
","","","1264","","","25","7809","3913","c","elianto","#3366ff99"," "," ","1","+10","[2114]","1","2","","","7809","80","4","1","win","go","0"
"pit-trial","199","1239363","0.0-85.0","battery-v0.2","","""event"",""trial"",""time""
""focus"",""0"",""3""
""fullscreenenter"",""1"",""3398""
","
","""event"",""trial"",""time""
""focus"",""0"",""3""
","""event"",""trial"",""time""
""fullscreenenter"",""1"",""3398""
","
","","","1125","","","25","7809","3913","y","elianto","#f73b6a7A","-1"," ","0","-10","[1976]","1","2","","","7809","81","7","4","lose","no-go","0"
"pit-trial","200","1243117","0.0-86.0","battery-v0.2","","""event"",""trial"",""time""
""focus"",""0"",""3""
""fullscreenenter"",""1"",""3398""
","
","""event"",""trial"",""time""
""focus"",""0"",""3""
","""event"",""trial"",""time""
""fullscreenenter"",""1"",""3398""
","
","","","902","","","25","7809","3913","c","elianto","#3366ff99"," "," ","1","+10","[1751]","1","2","","","7809","82","4","1","win","go","0"
"pit-trial","201","1247971","0.0-87.0","battery-v0.2","","""event"",""trial"",""time""
""focus"",""0"",""3""
""fullscreenenter"",""1"",""3398""
","
","""event"",""trial"",""time""
""focus"",""0"",""3""
","""event"",""trial"",""time""
""fullscreenenter"",""1"",""3398""
","
","","","-1","","","25","7809","3913","z","elianto","#3366ff99","-1","-1","1","+10","[]","0","2","","","7809","83","5","2","win","no-go","0"
"pit-trial","202","1252424","0.0-88.0","battery-v0.2","","""event"",""trial"",""time""
""focus"",""0"",""3""
""fullscreenenter"",""1"",""3398""
","
","""event"",""trial"",""time""
""focus"",""0"",""3""
","""event"",""trial"",""time""
""fullscreenenter"",""1"",""3398""
","
","","","1594","","","25","7809","3913","b","elianto","#f73b6a7A","-1"," ","0","-10","[2446]","1","2","","","7809","84","3","4","lose","no-go","0"
"pit-trial","203","1256156","0.0-89.0","battery-v0.2","","""event"",""trial"",""time""
""focus"",""0"",""3""
""fullscreenenter"",""1"",""3398""
","
","""event"",""trial"",""time""
""focus"",""0"",""3""
","""event"",""trial"",""time""
""fullscreenenter"",""1"",""3398""
","
","","","875","","","25","7809","3913","c","elianto","#3366ff99"," "," ","1","+10","[1728]","1","2","","","7809","85","4","1","win","go","0"
"pit-trial","204","1261015","0.0-90.0","battery-v0.2","","""event"",""trial"",""time""
""focus"",""0"",""3""
""fullscreenenter"",""1"",""3398""
","
","""event"",""trial"",""time""
""focus"",""0"",""3""
","""event"",""trial"",""time""
""fullscreenenter"",""1"",""3398""
","
","","","-1","","","25","7809","3913","y","elianto","#f73b6a7A","-1","-1","1","0","[]","0","2","","","7809","86","7","4","lose","no-go","0"
"pit-trial","205","1264842","0.0-91.0","battery-v0.2","","""event"",""trial"",""time""
""focus"",""0"",""3""
""fullscreenenter"",""1"",""3398""
","
","""event"",""trial"",""time""
""focus"",""0"",""3""
","""event"",""trial"",""time""
""fullscreenenter"",""1"",""3398""
","
","","","970","","","25","7809","3913","z","elianto","#3366ff99","-1"," ","0","+10","[1823]","1","2","","","7809","87","5","2","win","no-go","1"
"pit-trial","206","1268770","0.0-92.0","battery-v0.2","","""event"",""trial"",""time""
""focus"",""0"",""3""
""fullscreenenter"",""1"",""3398""
","
","""event"",""trial"",""time""
""focus"",""0"",""3""
","""event"",""trial"",""time""
""fullscreenenter"",""1"",""3398""
","
","","","1069","","","25","7809","3913","h","elianto","#f73b6a7A"," "," ","1","0","[1921]","1","2","","","7809","88","6","3","lose","go","0"
"pit-trial","207","1272765","0.0-93.0","battery-v0.2","","""event"",""trial"",""time""
""focus"",""0"",""3""
""fullscreenenter"",""1"",""3398""
","
","""event"",""trial"",""time""
""focus"",""0"",""3""
","""event"",""trial"",""time""
""fullscreenenter"",""1"",""3398""
","
","","","1136","","","25","7809","3913","y","elianto","#f73b6a7A","-1"," ","0","0","[1987]","1","2","","","7809","89","7","4","lose","no-go","1"
"pit-trial","208","1276643","0.0-94.0","battery-v0.2","","""event"",""trial"",""time""
""focus"",""0"",""3""
""fullscreenenter"",""1"",""3398""
","
","""event"",""trial"",""time""
""focus"",""0"",""3""
","""event"",""trial"",""time""
""fullscreenenter"",""1"",""3398""
","
","","","1020","","","25","7809","3913","z","elianto","#3366ff99","-1"," ","0","0","[1874]","1","2","","","7809","90","5","2","win","no-go","0"
"pit-trial","209","1280525","0.0-95.0","battery-v0.2","","""event"",""trial"",""time""
""focus"",""0"",""3""
""fullscreenenter"",""1"",""3398""
","
","""event"",""trial"",""time""
""focus"",""0"",""3""
","""event"",""trial"",""time""
""fullscreenenter"",""1"",""3398""
","
","","","1025","","","25","7809","3913","c","elianto","#3366ff99"," "," ","1","0","[1878]","1","2","","","7809","91","4","1","win","go","1"
"pit-trial","210","1284427","0.0-96.0","battery-v0.2","","""event"",""trial"",""time""
""focus"",""0"",""3""
""fullscreenenter"",""1"",""3398""
","
","""event"",""trial"",""time""
""focus"",""0"",""3""
","""event"",""trial"",""time""
""fullscreenenter"",""1"",""3398""
","
","","","1045","","","25","7809","3913","h","elianto","#f73b6a7A"," "," ","1","0","[1899]","1","2","","","7809","92","6","3","lose","go","0"
"pit-trial","211","1288209","0.0-97.0","battery-v0.2","","""event"",""trial"",""time""
""focus"",""0"",""3""
""fullscreenenter"",""1"",""3398""
","
","""event"",""trial"",""time""
""focus"",""0"",""3""
","""event"",""trial"",""time""
""fullscreenenter"",""1"",""3398""
","
","","","926","","","25","7809","3913","r","elianto","#3366ff99"," "," ","1","+10","[1778]","1","2","","","7809","93","8","1","win","go","0"
"pit-trial","212","1292745","0.0-98.0","battery-v0.2","","""event"",""trial"",""time""
""focus"",""0"",""3""
""fullscreenenter"",""1"",""3398""
","
","""event"",""trial"",""time""
""focus"",""0"",""3""
","""event"",""trial"",""time""
""fullscreenenter"",""1"",""3398""
","
","","","1676","","","25","7809","3913","h","elianto","#f73b6a7A"," "," ","1","0","[2527]","1","2","","","7809","94","6","3","lose","go","0"
"pit-trial","213","1296716","0.0-99.0","battery-v0.2","","""event"",""trial"",""time""
""focus"",""0"",""3""
""fullscreenenter"",""1"",""3398""
","
","""event"",""trial"",""time""
""focus"",""0"",""3""
","""event"",""trial"",""time""
""fullscreenenter"",""1"",""3398""
","
","","","1112","","","25","7809","3913","y","elianto","#f73b6a7A","-1"," ","0","0","[1964]","1","2","","","7809","95","7","4","lose","no-go","1"
"pit-trial","214","1301576","0.0-100.0","battery-v0.2","","""event"",""trial"",""time""
""focus"",""0"",""3""
""fullscreenenter"",""1"",""3398""
","
","""event"",""trial"",""time""
""focus"",""0"",""3""
","""event"",""trial"",""time""
""fullscreenenter"",""1"",""3398""
","
","","","-1","","","25","7809","3913","z","elianto","#3366ff99","-1","-1","1","+10","[]","0","2","","","7809","96","5","2","win","no-go","0"
"pit-trial","215","1305319","0.0-101.0","battery-v0.2","","""event"",""trial"",""time""
""focus"",""0"",""3""
""fullscreenenter"",""1"",""3398""
","
","""event"",""trial"",""time""
""focus"",""0"",""3""
","""event"",""trial"",""time""
""fullscreenenter"",""1"",""3398""
","
","","","887","","","25","7809","3913","r","elianto","#3366ff99"," "," ","1","+10","[1740]","1","2","","","7809","97","8","1","win","go","0"
"pit-trial","216","1309069","0.0-102.0","battery-v0.2","","""event"",""trial"",""time""
""focus"",""0"",""3""
""fullscreenenter"",""1"",""3398""
","
","""event"",""trial"",""time""
""focus"",""0"",""3""
","""event"",""trial"",""time""
""fullscreenenter"",""1"",""3398""
","
","","","891","","","25","7809","3913","y","elianto","#f73b6a7A","-1"," ","0","-10","[1742]","1","2","","","7809","98","7","4","lose","no-go","0"
"pit-trial","217","1313498","0.0-103.0","battery-v0.2","","""event"",""trial"",""time""
""focus"",""0"",""3""
""fullscreenenter"",""1"",""3398""
","
","""event"",""trial"",""time""
""focus"",""0"",""3""
","""event"",""trial"",""time""
""fullscreenenter"",""1"",""3398""
","
","","","1574","","","25","7809","3913","h","elianto","#f73b6a7A"," "," ","1","0","[2425]","1","2","","","7809","99","6","3","lose","go","0"
"pit-trial","218","1317503","0.0-104.0","battery-v0.2","","""event"",""trial"",""time""
""focus"",""0"",""3""
""fullscreenenter"",""1"",""3398""
","
","""event"",""trial"",""time""
""focus"",""0"",""3""
","""event"",""trial"",""time""
""fullscreenenter"",""1"",""3398""
","
","","","1147","","","25","7809","3913","z","elianto","#3366ff99","-1"," ","0","+10","[2001]","1","2","","","7809","100","5","2","win","no-go","1"
"pit-trial","219","1321260","0.0-105.0","battery-v0.2","","""event"",""trial"",""time""
""focus"",""0"",""3""
""fullscreenenter"",""1"",""3398""
","
","""event"",""trial"",""time""
""focus"",""0"",""3""
","""event"",""trial"",""time""
""fullscreenenter"",""1"",""3398""
","
","","","900","","","25","7809","3913","y","elianto","#f73b6a7A","-1"," ","0","-10","[1754]","1","2","","","7809","101","7","4","lose","no-go","0"
"pit-trial","220","1325201","0.0-106.0","battery-v0.2","","""event"",""trial"",""time""
""focus"",""0"",""3""
""fullscreenenter"",""1"",""3398""
","
","""event"",""trial"",""time""
""focus"",""0"",""3""
","""event"",""trial"",""time""
""fullscreenenter"",""1"",""3398""
","
","","","1080","","","25","7809","3913","r","elianto","#3366ff99"," "," ","1","+10","[1934]","1","2","","","7809","102","8","1","win","go","0"
"pit-trial","221","1329048","0.0-107.0","battery-v0.2","","""event"",""trial"",""time""
""focus"",""0"",""3""
""fullscreenenter"",""1"",""3398""
","
","""event"",""trial"",""time""
""focus"",""0"",""3""
","""event"",""trial"",""time""
""fullscreenenter"",""1"",""3398""
","
","","","985","","","25","7809","3913","z","elianto","#3366ff99","-1"," ","0","+10","[1839]","1","2","","","7809","103","5","2","win","no-go","1"
"pit-trial","222","1332818","0.0-108.0","battery-v0.2","","""event"",""trial"",""time""
""focus"",""0"",""3""
""fullscreenenter"",""1"",""3398""
","
","""event"",""trial"",""time""
""focus"",""0"",""3""
","""event"",""trial"",""time""
""fullscreenenter"",""1"",""3398""
","
","","","908","","","25","7809","3913","m","elianto","#3366ff99"," "," ","1","0","[1762]","1","2","","","7809","104","9","1","win","go","1"
"pit-trial","223","1336539","0.0-109.0","battery-v0.2","","""event"",""trial"",""time""
""focus"",""0"",""3""
""fullscreenenter"",""1"",""3398""
","
","""event"",""trial"",""time""
""focus"",""0"",""3""
","""event"",""trial"",""time""
""fullscreenenter"",""1"",""3398""
","
","","","866","","","25","7809","3913","m","elianto","#3366ff99"," "," ","1","+10","[1716]","1","2","","","7809","105","9","1","win","go","0"
"pit-trial","224","1341400","0.0-110.0","battery-v0.2","","""event"",""trial"",""time""
""focus"",""0"",""3""
""fullscreenenter"",""1"",""3398""
","
","""event"",""trial"",""time""
""focus"",""0"",""3""
","""event"",""trial"",""time""
""fullscreenenter"",""1"",""3398""
","
","","","-1","","","25","7809","3913","r","elianto","#3366ff99"," ","-1","0","0","[]","0","2","","","7809","106","8","1","win","go","0"
"pit-trial","225","1345066","0.0-111.0","battery-v0.2","","""event"",""trial"",""time""
""focus"",""0"",""3""
""fullscreenenter"",""1"",""3398""
","
","""event"",""trial"",""time""
""focus"",""0"",""3""
","""event"",""trial"",""time""
""fullscreenenter"",""1"",""3398""
","
","","","809","","","25","7809","3913","c","elianto","#3366ff99"," "," ","1","+10","[1662]","1","2","","","7809","107","4","1","win","go","0"
"pit-trial","226","1348904","0.0-112.0","battery-v0.2","","""event"",""trial"",""time""
""focus"",""0"",""3""
""fullscreenenter"",""1"",""3398""
","
","""event"",""trial"",""time""
""focus"",""0"",""3""
","""event"",""trial"",""time""
""fullscreenenter"",""1"",""3398""
","
","","","980","","","25","7809","3913","h","elianto","#f73b6a7A"," "," ","1","0","[1831]","1","2","","","7809","108","6","3","lose","go","0"
"pit-trial","227","1352647","0.0-113.0","battery-v0.2","","""event"",""trial"",""time""
""focus"",""0"",""3""
""fullscreenenter"",""1"",""3398""
","
","""event"",""trial"",""time""
""focus"",""0"",""3""
","""event"",""trial"",""time""
""fullscreenenter"",""1"",""3398""
","
","","","886","","","25","7809","3913","h","elianto","#f73b6a7A"," "," ","1","0","[1739]","1","2","","","7809","109","6","3","lose","go","0"
"pit-trial","228","1356230","0.0-114.0","battery-v0.2","","""event"",""trial"",""time""
""focus"",""0"",""3""
""fullscreenenter"",""1"",""3398""
","
","""event"",""trial"",""time""
""focus"",""0"",""3""
","""event"",""trial"",""time""
""fullscreenenter"",""1"",""3398""
","
","","","722","","","25","7809","3913","m","elianto","#3366ff99"," "," ","1","0","[1573]","1","2","","","7809","110","9","1","win","go","1"
"pit-trial","229","1360009","0.0-115.0","battery-v0.2","","""event"",""trial"",""time""
""focus"",""0"",""3""
""fullscreenenter"",""1"",""3398""
","
","""event"",""trial"",""time""
""focus"",""0"",""3""
","""event"",""trial"",""time""
""fullscreenenter"",""1"",""3398""
","
","","","920","","","25","7809","3913","z","elianto","#3366ff99","-1"," ","0","0","[1771]","1","2","","","7809","111","5","2","win","no-go","0"
"pit-trial","230","1363653","0.0-116.0","battery-v0.2","","""event"",""trial"",""time""
""focus"",""0"",""3""
""fullscreenenter"",""1"",""3398""
","
","""event"",""trial"",""time""
""focus"",""0"",""3""
","""event"",""trial"",""time""
""fullscreenenter"",""1"",""3398""
","
