"trial_type","trial_index","time_elapsed","internal_node_id","task_version","subject_id","interactions","blur_events","focus_events","fullscreenenter_events","fullscreenexit_events","success","view_history","rt","responses","num_errors","age","subject","participantId","rune","rune_set","hex","correct","choice","accuracy","outcome","keys","total_keys","block","practice","value"
"pavlovia","0","21","0.0-0.0","battery-v0.2","","""event"",""trial"",""time""
""blur"",""1"",""5301""
""focus"",""1"",""5306""
""fullscreenenter"",""1"",""6594""
","""event"",""trial"",""time""
""blur"",""1"",""5301""
","""event"",""trial"",""time""
""focus"",""1"",""5306""
","""event"",""trial"",""time""
""fullscreenenter"",""1"",""6594""
","
","","","","","","","","","","","","","","","","","","","",""
"fullscreen","1","7586","0.0-1.0","battery-v0.2","","""event"",""trial"",""time""
""blur"",""1"",""5301""
""focus"",""1"",""5306""
""fullscreenenter"",""1"",""6594""
","""event"",""trial"",""time""
""blur"",""1"",""5301""
","""event"",""trial"",""time""
""focus"",""1"",""5306""
","""event"",""trial"",""time""
""fullscreenenter"",""1"",""6594""
","
","true","","","","","","","","","","","","","","","","","","",""
"pit-instructions","2","13556","0.0-2.0-0.0","battery-v0.2","","""event"",""trial"",""time""
""blur"",""1"",""5301""
""focus"",""1"",""5306""
""fullscreenenter"",""1"",""6594""
","""event"",""trial"",""time""
""blur"",""1"",""5301""
","""event"",""trial"",""time""
""focus"",""1"",""5306""
","""event"",""trial"",""time""
""fullscreenenter"",""1"",""6594""
","
","","[{""page_index"":0,""viewing_time"":5964.600000023842}]","5965.400000035763","","","","","","","","","","","","","","","","",""
"pit-comprehension","3","18783","0.0-2.0-1.0-0.0","battery-v0.2","","""event"",""trial"",""time""
""blur"",""1"",""5301""
""focus"",""1"",""5306""
""fullscreenenter"",""1"",""6594""
","""event"",""trial"",""time""
""blur"",""1"",""5301""
","""event"",""trial"",""time""
""focus"",""1"",""5306""
","""event"",""trial"",""time""
""fullscreenenter"",""1"",""6594""
","
","","","5222.899999976158","[""shark""]","0","16","3165","1443","","","","","","","","","","","",""
"pit-instructions","4","23680","0.0-2.0-1.0-1.0","battery-v0.2","","""event"",""trial"",""time""
""blur"",""1"",""5301""
""focus"",""1"",""5306""
""fullscreenenter"",""1"",""6594""
","""event"",""trial"",""time""
""blur"",""1"",""5301""
","""event"",""trial"",""time""
""focus"",""1"",""5306""
","""event"",""trial"",""time""
""fullscreenenter"",""1"",""6594""
","
","","[{""page_index"":0,""viewing_time"":4889.799999952316}]","4890.099999964237","","","","","","","","","","","","","","","","",""
"pit-comprehension","5","29521","0.0-2.0-2.0-0.0","battery-v0.2","","""event"",""trial"",""time""
""blur"",""1"",""5301""
""focus"",""1"",""5306""
""fullscreenenter"",""1"",""6594""
","""event"",""trial"",""time""
""blur"",""1"",""5301""
","""event"",""trial"",""time""
""focus"",""1"",""5306""
","""event"",""trial"",""time""
""fullscreenenter"",""1"",""6594""
","
","","","5837.5","[""tiger""]","0","16","3165","1443","","","","","","","","","","","",""
"pit-instructions","6","31338","0.0-2.0-2.0-1.0","battery-v0.2","","""event"",""trial"",""time""
""blur"",""1"",""5301""
""focus"",""1"",""5306""
""fullscreenenter"",""1"",""6594""
","""event"",""trial"",""time""
""blur"",""1"",""5301""
","""event"",""trial"",""time""
""focus"",""1"",""5306""
","""event"",""trial"",""time""
""fullscreenenter"",""1"",""6594""
","
","","[{""page_index"":0,""viewing_time"":1813.9000000357628}]","1814.5","","","","","","","","","","","","","","","","",""
"pit-instructions","7","153337","0.0-2.0-3.0","battery-v0.2","","""event"",""trial"",""time""
""blur"",""1"",""5301""
""focus"",""1"",""5306""
""fullscreenenter"",""1"",""6594""
","""event"",""trial"",""time""
""blur"",""1"",""5301""
","""event"",""trial"",""time""
""focus"",""1"",""5306""
","""event"",""trial"",""time""
""fullscreenenter"",""1"",""6594""
","
","","[{""page_index"":0,""viewing_time"":8915.599999964237},{""page_index"":1,""viewing_time"":6356.600000023842},{""page_index"":2,""viewing_time"":26405.30000001192},{""page_index"":3,""viewing_time"":5136.800000011921},{""page_index"":4,""viewing_time"":6430.599999964237},{""page_index"":5,""viewing_time"":6155.100000023842},{""page_index"":6,""viewing_time"":10483.099999964237},{""page_index"":7,""viewing_time"":6494.300000011921},{""page_index"":8,""viewing_time"":6008.800000011921},{""page_index"":9,""viewing_time"":9450.600000023842},{""page_index"":10,""viewing_time"":10010.699999988079},{""page_index"":11,""viewing_time"":7022.199999988079},{""page_index"":12,""viewing_time"":7224.399999976158},{""page_index"":13,""viewing_time"":5898.800000011921}]","121993.5","","","","","","","","","","","","","","","","",""
"pit-trial","8","156888","0.0-2.0-4.0-0.0","battery-v0.2","","""event"",""trial"",""time""
""blur"",""1"",""5301""
""focus"",""1"",""5306""
""fullscreenenter"",""1"",""6594""
","""event"",""trial"",""time""
""blur"",""1"",""5301""
","""event"",""trial"",""time""
""focus"",""1"",""5306""
","""event"",""trial"",""time""
""fullscreenenter"",""1"",""6594""
","
","","","691.5","","","16","3165","1443","&#9784;","elianto","#FFFFF080"," "," ","1","&#10004","[1542.199999988079]","1","0","0",""
"pit-trial","9","160554","0.0-2.0-4.1-0.1","battery-v0.2","","""event"",""trial"",""time""
""blur"",""1"",""5301""
""focus"",""1"",""5306""
""fullscreenenter"",""1"",""6594""
","""event"",""trial"",""time""
""blur"",""1"",""5301""
","""event"",""trial"",""time""
""focus"",""1"",""5306""
","""event"",""trial"",""time""
""fullscreenenter"",""1"",""6594""
","
","","","807.1000000238419","","","16","3165","1443","&#9784;","elianto","#FFFFF080"," "," ","1","&#10004","[171.5,1659.9000000357628]","2","0","0",""
"pit-trial","10","163924","0.0-2.0-4.2-0.2","battery-v0.2","","""event"",""trial"",""time""
""blur"",""1"",""5301""
""focus"",""1"",""5306""
""fullscreenenter"",""1"",""6594""
","""event"",""trial"",""time""
""blur"",""1"",""5301""
","""event"",""trial"",""time""
""focus"",""1"",""5306""
","""event"",""trial"",""time""
""fullscreenenter"",""1"",""6594""
","
","","","511.39999997615814","","","16","3165","1443","&#9784;","elianto","#FFFFF080"," "," ","1","&#10004","[1364.699999988079]","1","0","0",""
"pit-trial","11","167464","0.0-2.0-4.3-0.3","battery-v0.2","","""event"",""trial"",""time""
""blur"",""1"",""5301""
""focus"",""1"",""5306""
""fullscreenenter"",""1"",""6594""
","""event"",""trial"",""time""
""blur"",""1"",""5301""
","""event"",""trial"",""time""
""focus"",""1"",""5306""
","""event"",""trial"",""time""
""fullscreenenter"",""1"",""6594""
","
","","","686.1999999880791","","","16","3165","1443","&#9784;","elianto","#FFFFF080"," "," ","1","&#10004","[1536.300000011921]","1","0","0",""
"pit-trial","12","170861","0.0-2.0-4.4-0.4","battery-v0.2","","""event"",""trial"",""time""
""blur"",""1"",""5301""
""focus"",""1"",""5306""
""fullscreenenter"",""1"",""6594""
","""event"",""trial"",""time""
""blur"",""1"",""5301""
","""event"",""trial"",""time""
""focus"",""1"",""5306""
","""event"",""trial"",""time""
""fullscreenenter"",""1"",""6594""
","
","","","537.1000000238419","","","16","3165","1443","&#9784;","elianto","#FFFFF080"," "," ","1","&#10004","[1392.1000000238419]","1","0","0",""
"pit-instructions","13","193639","0.0-2.0-5.0","battery-v0.2","","""event"",""trial"",""time""
""blur"",""1"",""5301""
""focus"",""1"",""5306""
""fullscreenenter"",""1"",""6594""
","""event"",""trial"",""time""
""blur"",""1"",""5301""
","""event"",""trial"",""time""
""focus"",""1"",""5306""
","""event"",""trial"",""time""
""fullscreenenter"",""1"",""6594""
","
","","[{""page_index"":0,""viewing_time"":4659.799999952316},{""page_index"":1,""viewing_time"":7118.5},{""page_index"":2,""viewing_time"":5528.5},{""page_index"":3,""viewing_time"":5467.900000035763}]","22775.19999998808","","","","","","","","","","","","","","","","",""
"pit-trial","14","198498","0.0-2.0-6.0-0.0","battery-v0.2","","""event"",""trial"",""time""
""blur"",""1"",""5301""
""focus"",""1"",""5306""
""fullscreenenter"",""1"",""6594""
","""event"",""trial"",""time""
""blur"",""1"",""5301""
","""event"",""trial"",""time""
""focus"",""1"",""5306""
","""event"",""trial"",""time""
""fullscreenenter"",""1"",""6594""
","
","","","-1","","","16","3165","1443","&#9854;","elianto","#FFFFF080","-1","-1","1","&#10004","[]","0","0","1",""
"pit-trial","15","203357","0.0-2.0-6.1-0.1","battery-v0.2","","""event"",""trial"",""time""
""blur"",""1"",""5301""
""focus"",""1"",""5306""
""fullscreenenter"",""1"",""6594""
","""event"",""trial"",""time""
""blur"",""1"",""5301""
","""event"",""trial"",""time""
""focus"",""1"",""5306""
","""event"",""trial"",""time""
""fullscreenenter"",""1"",""6594""
","
","","","-1","","","16","3165","1443","&#9854;","elianto","#FFFFF080","-1","-1","1","&#10004","[]","0","0","1",""
"pit-trial","16","208216","0.0-2.0-6.2-0.2","battery-v0.2","","""event"",""trial"",""time""
""blur"",""1"",""5301""
""focus"",""1"",""5306""
""fullscreenenter"",""1"",""6594""
","""event"",""trial"",""time""
""blur"",""1"",""5301""
","""event"",""trial"",""time""
""focus"",""1"",""5306""
","""event"",""trial"",""time""
""fullscreenenter"",""1"",""6594""
","
","","","-1","","","16","3165","1443","&#9854;","elianto","#FFFFF080","-1","-1","1","&#10004","[]","0","0","1",""
"pit-trial","17","213075","0.0-2.0-6.3-0.3","battery-v0.2","","""event"",""trial"",""time""
""blur"",""1"",""5301""
""focus"",""1"",""5306""
""fullscreenenter"",""1"",""6594""
","""event"",""trial"",""time""
""blur"",""1"",""5301""
","""event"",""trial"",""time""
""focus"",""1"",""5306""
","""event"",""trial"",""time""
""fullscreenenter"",""1"",""6594""
","
","","","-1","","","16","3165","1443","&#9854;","elianto","#FFFFF080","-1","-1","1","&#10004","[]","0","0","1",""
"pit-trial","18","217934","0.0-2.0-6.4-0.4","battery-v0.2","","""event"",""trial"",""time""
""blur"",""1"",""5301""
""focus"",""1"",""5306""
""fullscreenenter"",""1"",""6594""
","""event"",""trial"",""time""
""blur"",""1"",""5301""
","""event"",""trial"",""time""
""focus"",""1"",""5306""
","""event"",""trial"",""time""
""fullscreenenter"",""1"",""6594""
","
","","","-1","","","16","3165","1443","&#9854;","elianto","#FFFFF080","-1","-1","1","&#10004","[]","0","0","1",""
"pit-instructions","19","327327","0.0-2.0-7.0","battery-v0.2","","""event"",""trial"",""time""
""blur"",""1"",""5301""
""focus"",""1"",""5306""
""fullscreenenter"",""1"",""6594""
","""event"",""trial"",""time""
""blur"",""1"",""5301""
","""event"",""trial"",""time""
""focus"",""1"",""5306""
","""event"",""trial"",""time""
""fullscreenenter"",""1"",""6594""
","
","","[{""page_index"":0,""viewing_time"":5737.100000023842},{""page_index"":1,""viewing_time"":6642.799999952316},{""page_index"":2,""viewing_time"":5481.900000035763},{""page_index"":3,""viewing_time"":6107.399999976158},{""page_index"":4,""viewing_time"":5166.900000035763},{""page_index"":5,""viewing_time"":5250.599999964237},{""page_index"":6,""viewing_time"":4731.300000011921},{""page_index"":7,""viewing_time"":7470.800000011921},{""page_index"":8,""viewing_time"":6158},{""page_index"":9,""viewing_time"":6105.699999988079},{""page_index"":10,""viewing_time"":6166.300000011921},{""page_index"":11,""viewing_time"":4259.800000011921},{""page_index"":12,""viewing_time"":6498.199999988079},{""page_index"":13,""viewing_time"":7097.399999976158},{""page_index"":14,""viewing_time"":6701.600000023842},{""page_index"":15,""viewing_time"":6087.5},{""page_index"":16,""viewing_time"":6262.899999976158},{""page_index"":17,""viewing_time"":7461.300000011921}]","109388","","","","","","","","","","","","","","","","",""
"pit-trial","20","330973","0.0-2.0-8.0-0.0","battery-v0.2","","""event"",""trial"",""time""
""blur"",""1"",""5301""
""focus"",""1"",""5306""
""fullscreenenter"",""1"",""6594""
","""event"",""trial"",""time""
""blur"",""1"",""5301""
","""event"",""trial"",""time""
""focus"",""1"",""5306""
","""event"",""trial"",""time""
""fullscreenenter"",""1"",""6594""
","
","","","789.8000000119209","","","16","3165","1443","&#9776;","elianto","#3366ff99"," "," ","1","+10","[1640.8999999761581]","1","0","1",""
"pit-trial","21","334476","0.0-2.0-8.0-1.0","battery-v0.2","","""event"",""trial"",""time""
""blur"",""1"",""5301""
""focus"",""1"",""5306""
""fullscreenenter"",""1"",""6594""
","""event"",""trial"",""time""
""blur"",""1"",""5301""
","""event"",""trial"",""time""
""focus"",""1"",""5306""
","""event"",""trial"",""time""
""fullscreenenter"",""1"",""6594""
","
","","","644.3000000119209","","","16","3165","1443","&#9776;","elianto","#3366ff99"," "," ","1","+10","[1499.1000000238419]","1","0","1",""
"pit-trial","22","337994","0.0-2.0-8.0-2.0","battery-v0.2","","""event"",""trial"",""time""
""blur"",""1"",""5301""
""focus"",""1"",""5306""
""fullscreenenter"",""1"",""6594""
","""event"",""trial"",""time""
""blur"",""1"",""5301""
","""event"",""trial"",""time""
""focus"",""1"",""5306""
","""event"",""trial"",""time""
""fullscreenenter"",""1"",""6594""
","
","","","660.5","","","16","3165","1443","&#9776;","elianto","#3366ff99"," "," ","1","+10","[1511.199999988079]","1","0","1",""
"pit-trial","23","341594","0.0-2.0-8.0-3.0","battery-v0.2","","""event"",""trial"",""time""
""blur"",""1"",""5301""
""focus"",""1"",""5306""
""fullscreenenter"",""1"",""6594""
","""event"",""trial"",""time""
""blur"",""1"",""5301""
","""event"",""trial"",""time""
""focus"",""1"",""5306""
","""event"",""trial"",""time""
""fullscreenenter"",""1"",""6594""
","
","","","741.3000000119209","","","16","3165","1443","&#9776;","elianto","#3366ff99"," "," ","1","0","[1593.7000000476837]","1","0","1",""
"pit-trial","24","345123","0.0-2.0-8.0-4.0","battery-v0.2","","""event"",""trial"",""time""
""blur"",""1"",""5301""
""focus"",""1"",""5306""
""fullscreenenter"",""1"",""6594""
","""event"",""trial"",""time""
""blur"",""1"",""5301""
","""event"",""trial"",""time""
""focus"",""1"",""5306""
","""event"",""trial"",""time""
""fullscreenenter"",""1"",""6594""
","
","","","677.3000000119209","","","16","3165","1443","&#9776;","elianto","#3366ff99"," "," ","1","+10","[1527.199999988079]","1","0","1",""
"call-function","25","345125","0.0-2.0-9.0","battery-v0.2","","""event"",""trial"",""time""
""blur"",""1"",""5301""
""focus"",""1"",""5306""
""fullscreenenter"",""1"",""6594""
","""event"",""trial"",""time""
""blur"",""1"",""5301""
","""event"",""trial"",""time""
""focus"",""1"",""5306""
","""event"",""trial"",""time""
""fullscreenenter"",""1"",""6594""
","
","","","","","","","","","","","","","","","","","","","",""
"pit-instructions","26","384007","0.0-2.0-10.0","battery-v0.2","","""event"",""trial"",""time""
""blur"",""1"",""5301""
""focus"",""1"",""5306""
""fullscreenenter"",""1"",""6594""
","""event"",""trial"",""time""
""blur"",""1"",""5301""
","""event"",""trial"",""time""
""focus"",""1"",""5306""
","""event"",""trial"",""time""
""fullscreenenter"",""1"",""6594""
","
","","[{""page_index"":0,""viewing_time"":5889.799999952316},{""page_index"":1,""viewing_time"":6909.200000047684},{""page_index"":2,""viewing_time"":9335.5},{""page_index"":3,""viewing_time"":9229},{""page_index"":4,""viewing_time"":7516.899999976158}]","38880.799999952316","","","","","","","","","","","","","","","","",""
"pit-trial","27","387667","0.0-2.0-11.0-0.0","battery-v0.2","","""event"",""trial"",""time""
""blur"",""1"",""5301""
""focus"",""1"",""5306""
""fullscreenenter"",""1"",""6594""
","""event"",""trial"",""time""
""blur"",""1"",""5301""
","""event"",""trial"",""time""
""focus"",""1"",""5306""
","""event"",""trial"",""time""
""fullscreenenter"",""1"",""6594""
","
","","","798.3000000119209","","","16","3165","1443","&#9761;","elianto","#3366ff99","-1"," ","0","0","[1654]","1","0","2",""
"pit-trial","28","391269","0.0-2.0-11.0-1.0","battery-v0.2","","""event"",""trial"",""time""
""blur"",""1"",""5301""
""focus"",""1"",""5306""
""fullscreenenter"",""1"",""6594""
","""event"",""trial"",""time""
""blur"",""1"",""5301""
","""event"",""trial"",""time""
""focus"",""1"",""5306""
","""event"",""trial"",""time""
""fullscreenenter"",""1"",""6594""
","
","","","745.3999999761581","","","16","3165","1443","&#9761;","elianto","#3366ff99","-1"," ","0","0","[1598.1000000238419]","1","0","2",""
"pit-trial","29","396126","0.0-2.0-11.0-2.0","battery-v0.2","","""event"",""trial"",""time""
""blur"",""1"",""5301""
""focus"",""1"",""5306""
""fullscreenenter"",""1"",""6594""
","""event"",""trial"",""time""
""blur"",""1"",""5301""
","""event"",""trial"",""time""
""focus"",""1"",""5306""
","""event"",""trial"",""time""
""fullscreenenter"",""1"",""6594""
","
","","","-1","","","16","3165","1443","&#9761;","elianto","#3366ff99","-1","-1","1","+10","[]","0","0","2",""
"pit-trial","30","399627","0.0-2.0-11.0-3.0","battery-v0.2","","""event"",""trial"",""time""
""blur"",""1"",""5301""
""focus"",""1"",""5306""
""fullscreenenter"",""1"",""6594""
","""event"",""trial"",""time""
""blur"",""1"",""5301""
","""event"",""trial"",""time""
""focus"",""1"",""5306""
","""event"",""trial"",""time""
""fullscreenenter"",""1"",""6594""
","
","","","644.0999999642372","","","16","3165","1443","&#9761;","elianto","#3366ff99","-1"," ","0","+10","[1496.300000011921]","1","0","2",""
"pit-trial","31","403162","0.0-2.0-11.0-4.0","battery-v0.2","","""event"",""trial"",""time""
""blur"",""1"",""5301""
""focus"",""1"",""5306""
""fullscreenenter"",""1"",""6594""
","""event"",""trial"",""time""
""blur"",""1"",""5301""
","""event"",""trial"",""time""
""focus"",""1"",""5306""
","""event"",""trial"",""time""
""fullscreenenter"",""1"",""6594""
","
","","","676.7999999523163","","","16","3165","1443","&#9761;","elianto","#3366ff99","-1"," ","0","0","[1528.5999999642372]","1","0","2",""
"pit-trial","32","406712","0.0-2.0-11.1-0.1","battery-v0.2","","""event"",""trial"",""time""
""blur"",""1"",""5301""
""focus"",""1"",""5306""
""fullscreenenter"",""1"",""6594""
","""event"",""trial"",""time""
""blur"",""1"",""5301""
","""event"",""trial"",""time""
""focus"",""1"",""5306""
","""event"",""trial"",""time""
""fullscreenenter"",""1"",""6594""
","
","","","691.8000000119209","","","16","3165","1443","&#9761;","elianto","#3366ff99","-1"," ","0","0","[1542.699999988079]","1","0","2",""
"pit-trial","33","410228","0.0-2.0-11.1-1.1","battery-v0.2","","""event"",""trial"",""time""
""blur"",""1"",""5301""
""focus"",""1"",""5306""
""fullscreenenter"",""1"",""6594""
","""event"",""trial"",""time""
""blur"",""1"",""5301""
","""event"",""trial"",""time""
""focus"",""1"",""5306""
","""event"",""trial"",""time""
""fullscreenenter"",""1"",""6594""
","
","","","656.1000000238419","","","16","3165","1443","&#9761;","elianto","#3366ff99","-1"," ","0","0","[1510.300000011921]","1","0","2",""
"pit-trial","34","413815","0.0-2.0-11.1-2.1","battery-v0.2","","""event"",""trial"",""time""
""blur"",""1"",""5301""
""focus"",""1"",""5306""
""fullscreenenter"",""1"",""6594""
","""event"",""trial"",""time""
""blur"",""1"",""5301""
","""event"",""trial"",""time""
""focus"",""1"",""5306""
","""event"",""trial"",""time""
""fullscreenenter"",""1"",""6594""
","
","","","734.1000000238419","","","16","3165","1443","&#9761;","elianto","#3366ff99","-1"," ","0","0","[1584.800000011921]","1","0","2",""
"pit-trial","35","417640","0.0-2.0-11.1-3.1","battery-v0.2","","""event"",""trial"",""time""
""blur"",""1"",""5301""
""focus"",""1"",""5306""
""fullscreenenter"",""1"",""6594""
","""event"",""trial"",""time""
""blur"",""1"",""5301""
","""event"",""trial"",""time""
""focus"",""1"",""5306""
","""event"",""trial"",""time""
""fullscreenenter"",""1"",""6594""
","
","","","970.1000000238419","","","16","3165","1443","&#9761;","elianto","#3366ff99","-1"," ","0","+10","[1821.300000011921]","1","0","2",""
"pit-trial","36","422214","0.0-2.0-11.1-4.1","battery-v0.2","","""event"",""trial"",""time""
""blur"",""1"",""5301""
""focus"",""1"",""5306""
""fullscreenenter"",""1"",""6594""
","""event"",""trial"",""time""
""blur"",""1"",""5301""
","""event"",""trial"",""time""
""focus"",""1"",""5306""
","""event"",""trial"",""time""
""fullscreenenter"",""1"",""6594""
","
","","","1715.9000000357628","","","16","3165","1443","&#9761;","elianto","#3366ff99","-1"," ","0","0","[2567.400000035763]","1","0","2",""
"pit-trial","37","425773","0.0-2.0-11.2-0.2","battery-v0.2","","""event"",""trial"",""time""
""blur"",""1"",""5301""
""focus"",""1"",""5306""
""fullscreenenter"",""1"",""6594""
","""event"",""trial"",""time""
""blur"",""1"",""5301""
","""event"",""trial"",""time""
""focus"",""1"",""5306""
","""event"",""trial"",""time""
""fullscreenenter"",""1"",""6594""
","
","","","700.3999999761581","","","16","3165","1443","&#9761;","elianto","#3366ff99","-1"," ","0","0","[1554.8999999761581]","1","0","2",""
"pit-trial","38","429285","0.0-2.0-11.2-1.2","battery-v0.2","","""event"",""trial"",""time""
""blur"",""1"",""5301""
""focus"",""1"",""5306""
""fullscreenenter"",""1"",""6594""
","""event"",""trial"",""time""
""blur"",""1"",""5301""
","""event"",""trial"",""time""
""focus"",""1"",""5306""
","""event"",""trial"",""time""
""fullscreenenter"",""1"",""6594""
","
","","","655.7999999523163","","","16","3165","1443","&#9761;","elianto","#3366ff99","-1"," ","0","0","[1506.5]","1","0","2",""
"pit-trial","39","432840","0.0-2.0-11.2-2.2","battery-v0.2","","""event"",""trial"",""time""
""blur"",""1"",""5301""
""focus"",""1"",""5306""
""fullscreenenter"",""1"",""6594""
","""event"",""trial"",""time""
""blur"",""1"",""5301""
","""event"",""trial"",""time""
""focus"",""1"",""5306""
","""event"",""trial"",""time""
""fullscreenenter"",""1"",""6594""
","
","","","699.4000000357628","","","16","3165","1443","&#9761;","elianto","#3366ff99","-1"," ","0","0","[1551.0999999642372]","1","0","2",""
"pit-trial","40","436508","0.0-2.0-11.2-3.2","battery-v0.2","","""event"",""trial"",""time""
""blur"",""1"",""5301""
""focus"",""1"",""5306""
""fullscreenenter"",""1"",""6594""
","""event"",""trial"",""time""
""blur"",""1"",""5301""
","""event"",""trial"",""time""
""focus"",""1"",""5306""
","""event"",""trial"",""time""
""fullscreenenter"",""1"",""6594""
","
","","","812.0999999642372","","","16","3165","1443","&#9761;","elianto","#3366ff99","-1"," ","0","+10","[1664.300000011921]","1","0","2",""
"pit-trial","41","441365","0.0-2.0-11.2-4.2","battery-v0.2","","""event"",""trial"",""time""
""blur"",""1"",""5301""
""focus"",""1"",""5306""
""fullscreenenter"",""1"",""6594""
","""event"",""trial"",""time""
""blur"",""1"",""5301""
","""event"",""trial"",""time""
""focus"",""1"",""5306""
","""event"",""trial"",""time""
""fullscreenenter"",""1"",""6594""
","
","","","-1","","","16","3165","1443","&#9761;","elianto","#3366ff99","-1","-1","1","+10","[]","0","0","2",""
"pit-trial","42","446224","0.0-2.0-11.3-0.3","battery-v0.2","","""event"",""trial"",""time""
""blur"",""1"",""5301""
""focus"",""1"",""5306""
""fullscreenenter"",""1"",""6594""
","""event"",""trial"",""time""
""blur"",""1"",""5301""
","""event"",""trial"",""time""
""focus"",""1"",""5306""
","""event"",""trial"",""time""
""fullscreenenter"",""1"",""6594""
","
","","","-1","","","16","3165","1443","&#9761;","elianto","#3366ff99","-1","-1","1","+10","[]","0","0","2",""
"pit-trial","43","450108","0.0-2.0-11.3-1.3","battery-v0.2","","""event"",""trial"",""time""
""blur"",""1"",""5301""
""focus"",""1"",""5306""
""fullscreenenter"",""1"",""6594""
","""event"",""trial"",""time""
""blur"",""1"",""5301""
","""event"",""trial"",""time""
""focus"",""1"",""5306""
","""event"",""trial"",""time""
""fullscreenenter"",""1"",""6594""
","
","","","1028","","","16","3165","1443","&#9761;","elianto","#3366ff99","-1"," ","0","0","[1879.0999999642372]","1","0","2",""
"pit-trial","44","453718","0.0-2.0-11.3-2.3","battery-v0.2","","""event"",""trial"",""time""
""blur"",""1"",""5301""
""focus"",""1"",""5306""
""fullscreenenter"",""1"",""6594""
","""event"",""trial"",""time""
""blur"",""1"",""5301""
","""event"",""trial"",""time""
""focus"",""1"",""5306""
","""event"",""trial"",""time""
""fullscreenenter"",""1"",""6594""
","
","","","751.8000000119209","","","16","3165","1443","&#9761;","elianto","#3366ff99","-1"," ","0","0","[1608.3999999761581]","1","0","2",""
"pit-trial","45","457353","0.0-2.0-11.3-3.3","battery-v0.2","","""event"",""trial"",""time""
""blur"",""1"",""5301""
""focus"",""1"",""5306""
""fullscreenenter"",""1"",""6594""
","""event"",""trial"",""time""
""blur"",""1"",""5301""
","""event"",""trial"",""time""
""focus"",""1"",""5306""
","""event"",""trial"",""time""
""fullscreenenter"",""1"",""6594""
","
","","","778.1999999880791","","","16","3165","1443","&#9761;","elianto","#3366ff99","-1"," ","0","+10","[1628.5999999642372]","1","0","2",""
"pit-trial","46","461132","0.0-2.0-11.3-4.3","battery-v0.2","","""event"",""trial"",""time""
""blur"",""1"",""5301""
""focus"",""1"",""5306""
""fullscreenenter"",""1"",""6594""
","""event"",""trial"",""time""
""blur"",""1"",""5301""
","""event"",""trial"",""time""
""focus"",""1"",""5306""
","""event"",""trial"",""time""
""fullscreenenter"",""1"",""6594""
","
","","","920.6000000238419","","","16","3165","1443","&#9761;","elianto","#3366ff99","-1"," ","0","0","[1772.199999988079]","1","0","2",""
"pit-trial","47","465989","0.0-2.0-11.4-0.4","battery-v0.2","","""event"",""trial"",""time""
""blur"",""1"",""5301""
""focus"",""1"",""5306""
""fullscreenenter"",""1"",""6594""
","""event"",""trial"",""time""
""blur"",""1"",""5301""
","""event"",""trial"",""time""
""focus"",""1"",""5306""
","""event"",""trial"",""time""
""fullscreenenter"",""1"",""6594""
","
","","","-1","","","16","3165","1443","&#9761;","elianto","#3366ff99","-1","-1","1","+10","[3386.800000011921]","1","0","2",""
"pit-trial","48","469822","0.0-2.0-11.4-1.4","battery-v0.2","","""event"",""trial"",""time""
""blur"",""1"",""5301""
""focus"",""1"",""5306""
""fullscreenenter"",""1"",""6594""
","""event"",""trial"",""time""
""blur"",""1"",""5301""
","""event"",""trial"",""time""
""focus"",""1"",""5306""
","""event"",""trial"",""time""
""fullscreenenter"",""1"",""6594""
","
","","","973.1999999880791","","","16","3165","1443","&#9761;","elianto","#3366ff99","-1"," ","0","0","[1826.9000000357628]","1","0","2",""
"pit-trial","49","473543","0.0-2.0-11.4-2.4","battery-v0.2","","""event"",""trial"",""time""
""blur"",""1"",""5301""
""focus"",""1"",""5306""
""fullscreenenter"",""1"",""6594""
","""event"",""trial"",""time""
""blur"",""1"",""5301""
","""event"",""trial"",""time""
""focus"",""1"",""5306""
","""event"",""trial"",""time""
""fullscreenenter"",""1"",""6594""
","
","","","862.7999999523163","","","16","3165","1443","&#9761;","elianto","#3366ff99","-1"," ","0","0","[1715]","1","0","2",""
"pit-trial","50","476844","0.0-2.0-11.4-3.4","battery-v0.2","","""event"",""trial"",""time""
""blur"",""1"",""5301""
""focus"",""1"",""5306""
""fullscreenenter"",""1"",""6594""
","""event"",""trial"",""time""
""blur"",""1"",""5301""
","""event"",""trial"",""time""
""focus"",""1"",""5306""
","""event"",""trial"",""time""
""fullscreenenter"",""1"",""6594""
","
","","","443.69999998807907","","","16","3165","1443","&#9761;","elianto","#3366ff99","-1"," ","0","+10","[1295.300000011921]","1","0","2",""
"pit-trial","51","480413","0.0-2.0-11.4-4.4","battery-v0.2","","""event"",""trial"",""time""
""blur"",""1"",""5301""
""focus"",""1"",""5306""
""fullscreenenter"",""1"",""6594""
","""event"",""trial"",""time""
""blur"",""1"",""5301""
","""event"",""trial"",""time""
""focus"",""1"",""5306""
","""event"",""trial"",""time""
""fullscreenenter"",""1"",""6594""
","
","","","708.8000000119209","","","16","3165","1443","&#9761;","elianto","#3366ff99","-1"," ","0","0","[1562.0999999642372]","1","0","2",""
"pit-instructions","52","502737","0.0-2.0-11.4-5.4-0.4","battery-v0.2","","""event"",""trial"",""time""
""blur"",""1"",""5301""
""focus"",""1"",""5306""
""fullscreenenter"",""1"",""6594""
","""event"",""trial"",""time""
""blur"",""1"",""5301""
","""event"",""trial"",""time""
""focus"",""1"",""5306""
","""event"",""trial"",""time""
""fullscreenenter"",""1"",""6594""
","
","","[{""page_index"":0,""viewing_time"":6591.300000011921},{""page_index"":1,""viewing_time"":6172.099999964237},{""page_index"":2,""viewing_time"":9558.5}]","22322.19999998808","","","","","","","","","","","","","","","","",""
"pit-trial","53","506255","0.0-2.0-11.5-0.5","battery-v0.2","","""event"",""trial"",""time""
""blur"",""1"",""5301""
""focus"",""1"",""5306""
""fullscreenenter"",""1"",""6594""
","""event"",""trial"",""time""
""blur"",""1"",""5301""
","""event"",""trial"",""time""
""focus"",""1"",""5306""
","""event"",""trial"",""time""
""fullscreenenter"",""1"",""6594""
","
","","","658.4000000357628","","","16","3165","1443","&#9761;","elianto","#3366ff99","-1"," ","0","0","[1511.9000000357628]","1","0","2",""
"pit-trial","54","509594","0.0-2.0-11.5-1.5","battery-v0.2","","""event"",""trial"",""time""
""blur"",""1"",""5301""
""focus"",""1"",""5306""
""fullscreenenter"",""1"",""6594""
","""event"",""trial"",""time""
""blur"",""1"",""5301""
","""event"",""trial"",""time""
""focus"",""1"",""5306""
","""event"",""trial"",""time""
""fullscreenenter"",""1"",""6594""
","
","","","482.19999998807907","","","16","3165","1443","&#9761;","elianto","#3366ff99","-1"," ","0","0","[1333.2999999523163]","1","0","2",""
"pit-trial","55","513018","0.0-2.0-11.5-2.5","battery-v0.2","","""event"",""trial"",""time""
""blur"",""1"",""5301""
""focus"",""1"",""5306""
""fullscreenenter"",""1"",""6594""
","""event"",""trial"",""time""
""blur"",""1"",""5301""
","""event"",""trial"",""time""
""focus"",""1"",""5306""
","""event"",""trial"",""time""
""fullscreenenter"",""1"",""6594""
","
","","","569.5","","","16","3165","1443","&#9761;","elianto","#3366ff99","-1"," ","0","0","[1420.199999988079]","1","0","2",""
"pit-trial","56","516431","0.0-2.0-11.5-3.5","battery-v0.2","","""event"",""trial"",""time""
""blur"",""1"",""5301""
""focus"",""1"",""5306""
""fullscreenenter"",""1"",""6594""
","""event"",""trial"",""time""
""blur"",""1"",""5301""
","""event"",""trial"",""time""
""focus"",""1"",""5306""
","""event"",""trial"",""time""
""fullscreenenter"",""1"",""6594""
","
","","","557.0999999642372","","","16","3165","1443","&#9761;","elianto","#3366ff99","-1"," ","0","+10","[1408.9000000357628]","1","0","2",""
"pit-trial","57","519895","0.0-2.0-11.5-4.5","battery-v0.2","","""event"",""trial"",""time""
""blur"",""1"",""5301""
""focus"",""1"",""5306""
""fullscreenenter"",""1"",""6594""
","""event"",""trial"",""time""
""blur"",""1"",""5301""
","""event"",""trial"",""time""
""focus"",""1"",""5306""
","""event"",""trial"",""time""
""fullscreenenter"",""1"",""6594""
","
","","","606.6999999880791","","","16","3165","1443","&#9761;","elianto","#3366ff99","-1"," ","0","0","[1459.1000000238419]","1","0","2",""
"pit-trial","58","523347","0.0-2.0-11.6-0.6","battery-v0.2","","""event"",""trial"",""time""
""blur"",""1"",""5301""
""focus"",""1"",""5306""
""fullscreenenter"",""1"",""6594""
","""event"",""trial"",""time""
""blur"",""1"",""5301""
","""event"",""trial"",""time""
""focus"",""1"",""5306""
","""event"",""trial"",""time""
""fullscreenenter"",""1"",""6594""
","
","","","593.9000000357628","","","16","3165","1443","&#9761;","elianto","#3366ff99","-1"," ","0","0","[1447]","1","0","2",""
"pit-trial","59","526794","0.0-2.0-11.6-1.6","battery-v0.2","","""event"",""trial"",""time""
""blur"",""1"",""5301""
""focus"",""1"",""5306""
""fullscreenenter"",""1"",""6594""
","""event"",""trial"",""time""
""blur"",""1"",""5301""
","""event"",""trial"",""time""
""focus"",""1"",""5306""
","""event"",""trial"",""time""
""fullscreenenter"",""1"",""6594""
","
","","","592.5","","","16","3165","1443","&#9761;","elianto","#3366ff99","-1"," ","0","0","[1443.9000000357628]","1","0","2",""
"pit-trial","60","530249","0.0-2.0-11.6-2.6","battery-v0.2","","""event"",""trial"",""time""
""blur"",""1"",""5301""
""focus"",""1"",""5306""
""fullscreenenter"",""1"",""6594""
","""event"",""trial"",""time""
""blur"",""1"",""5301""
","""event"",""trial"",""time""
""focus"",""1"",""5306""
","""event"",""trial"",""time""
""fullscreenenter"",""1"",""6594""
","
","","","601","","","16","3165","1443","&#9761;","elianto","#3366ff99","-1"," ","0","0","[1452]","1","0","2",""
"pit-trial","61","533812","0.0-2.0-11.6-3.6","battery-v0.2","","""event"",""trial"",""time""
""blur"",""1"",""5301""
""focus"",""1"",""5306""
""fullscreenenter"",""1"",""6594""
","""event"",""trial"",""time""
""blur"",""1"",""5301""
","""event"",""trial"",""time""
""focus"",""1"",""5306""
","""event"",""trial"",""time""
""fullscreenenter"",""1"",""6594""
","
","","","703.5999999642372","","","16","3165","1443","&#9761;","elianto","#3366ff99","-1"," ","0","+10","[1557.5]","1","0","2",""
"pit-trial","62","537361","0.0-2.0-11.6-4.6","battery-v0.2","","""event"",""trial"",""time""
""blur"",""1"",""5301""
""focus"",""1"",""5306""
""fullscreenenter"",""1"",""6594""
","""event"",""trial"",""time""
""blur"",""1"",""5301""
","""event"",""trial"",""time""
""focus"",""1"",""5306""
","""event"",""trial"",""time""
""fullscreenenter"",""1"",""6594""
","
","","","692.8000000119209","","","16","3165","1443","&#9761;","elianto","#3366ff99","-1"," ","0","0","[1544.5999999642372]","1","0","2",""
"pit-trial","63","540975","0.0-2.0-11.7-0.7","battery-v0.2","","""event"",""trial"",""time""
""blur"",""1"",""5301""
""focus"",""1"",""5306""
""fullscreenenter"",""1"",""6594""
","""event"",""trial"",""time""
""blur"",""1"",""5301""
","""event"",""trial"",""time""
""focus"",""1"",""5306""
","""event"",""trial"",""time""
""fullscreenenter"",""1"",""6594""
","
","","","756.5999999642372","","","16","3165","1443","&#9761;","elianto","#3366ff99","-1"," ","0","0","[1606.8999999761581]","1","0","2",""
"pit-trial","64","544481","0.0-2.0-11.7-1.7","battery-v0.2","","""event"",""trial"",""time""
""blur"",""1"",""5301""
""focus"",""1"",""5306""
""fullscreenenter"",""1"",""6594""
","""event"",""trial"",""time""
""blur"",""1"",""5301""
","""event"",""trial"",""time""
""focus"",""1"",""5306""
","""event"",""trial"",""time""
""fullscreenenter"",""1"",""6594""
","
","","","645.5","","","16","3165","1443","&#9761;","elianto","#3366ff99","-1"," ","0","0","[1500.300000011921]","1","0","2",""
"pit-trial","65","547953","0.0-2.0-11.7-2.7","battery-v0.2","","""event"",""trial"",""time""
""blur"",""1"",""5301""
""focus"",""1"",""5306""
""fullscreenenter"",""1"",""6594""
","""event"",""trial"",""time""
""blur"",""1"",""5301""
","""event"",""trial"",""time""
""focus"",""1"",""5306""
","""event"",""trial"",""time""
""fullscreenenter"",""1"",""6594""
","
","","","614.1999999880791","","","16","3165","1443","&#9761;","elianto","#3366ff99","-1"," ","0","0","[1464.800000011921]","1","0","2",""
"pit-trial","66","551495","0.0-2.0-11.7-3.7","battery-v0.2","","""event"",""trial"",""time""
""blur"",""1"",""5301""
""focus"",""1"",""5306""
""fullscreenenter"",""1"",""6594""
","""event"",""trial"",""time""
""blur"",""1"",""5301""
","""event"",""trial"",""time""
""focus"",""1"",""5306""
","""event"",""trial"",""time""
""fullscreenenter"",""1"",""6594""
","
","","","686.3000000119209","","","16","3165","1443","&#9761;","elianto","#3366ff99","-1"," ","0","+10","[1536.800000011921]","1","0","2",""
"pit-trial","67","555045","0.0-2.0-11.7-4.7","battery-v0.2","","""event"",""trial"",""time""
""blur"",""1"",""5301""
""focus"",""1"",""5306""
""fullscreenenter"",""1"",""6594""
","""event"",""trial"",""time""
""blur"",""1"",""5301""
","""event"",""trial"",""time""
""focus"",""1"",""5306""
","""event"",""trial"",""time""
""fullscreenenter"",""1"",""6594""
","
","","","692","","","16","3165","1443","&#9761;","elianto","#3366ff99","-1"," ","0","0","[1543.3999999761581]","1","0","2",""
"pit-trial","68","558655","0.0-2.0-11.8-0.8","battery-v0.2","","""event"",""trial"",""time""
""blur"",""1"",""5301""
""focus"",""1"",""5306""
""fullscreenenter"",""1"",""6594""
","""event"",""trial"",""time""
""blur"",""1"",""5301""
","""event"",""trial"",""time""
""focus"",""1"",""5306""
","""event"",""trial"",""time""
""fullscreenenter"",""1"",""6594""
","
","","","748.1999999880791","","","16","3165","1443","&#9761;","elianto","#3366ff99","-1"," ","0","0","[1602.300000011921]","1","0","2",""
"pit-trial","69","562178","0.0-2.0-11.8-1.8","battery-v0.2","","""event"",""trial"",""time""
""blur"",""1"",""5301""
""focus"",""1"",""5306""
""fullscreenenter"",""1"",""6594""
","""event"",""trial"",""time""
""blur"",""1"",""5301""
","""event"",""trial"",""time""
""focus"",""1"",""5306""
","""event"",""trial"",""time""
""fullscreenenter"",""1"",""6594""
","
","","","667.3999999761581","","","16","3165","1443","&#9761;","elianto","#3366ff99","-1"," ","0","0","[1519.3999999761581]","1","0","2",""
"pit-trial","70","565690","0.0-2.0-11.8-2.8","battery-v0.2","","""event"",""trial"",""time""
""blur"",""1"",""5301""
""focus"",""1"",""5306""
""fullscreenenter"",""1"",""6594""
","""event"",""trial"",""time""
""blur"",""1"",""5301""
","""event"",""trial"",""time""
""focus"",""1"",""5306""
","""event"",""trial"",""time""
""fullscreenenter"",""1"",""6594""
","
","","","653.4000000357628","","","16","3165","1443","&#9761;","elianto","#3366ff99","-1"," ","0","0","[1507.800000011921]","1","0","2",""
"pit-trial","71","569147","0.0-2.0-11.8-3.8","battery-v0.2","","""event"",""trial"",""time""
""blur"",""1"",""5301""
""focus"",""1"",""5306""
""fullscreenenter"",""1"",""6594""
","""event"",""trial"",""time""
""blur"",""1"",""5301""
","""event"",""trial"",""time""
""focus"",""1"",""5306""
","""event"",""trial"",""time""
""fullscreenenter"",""1"",""6594""
","
","","","598.1999999880791","","","16","3165","1443","&#9761;","elianto","#3366ff99","-1"," ","0","+10","[1452.800000011921]","1","0","2",""
"pit-trial","72","572616","0.0-2.0-11.8-4.8","battery-v0.2","","""event"",""trial"",""time""
""blur"",""1"",""5301""
""focus"",""1"",""5306""
""fullscreenenter"",""1"",""6594""
","""event"",""trial"",""time""
""blur"",""1"",""5301""
","""event"",""trial"",""time""
""focus"",""1"",""5306""
","""event"",""trial"",""time""
""fullscreenenter"",""1"",""6594""
","
","","","612.5","","","16","3165","1443","&#9761;","elianto","#3366ff99","-1"," ","0","0","[1462.800000011921]","1","0","2",""
"pit-trial","73","576099","0.0-2.0-11.9-0.9","battery-v0.2","","""event"",""trial"",""time""
""blur"",""1"",""5301""
""focus"",""1"",""5306""
""fullscreenenter"",""1"",""6594""
","""event"",""trial"",""time""
""blur"",""1"",""5301""
","""event"",""trial"",""time""
""focus"",""1"",""5306""
","""event"",""trial"",""time""
""fullscreenenter"",""1"",""6594""
","
","","","623.3000000119209","","","16","3165","1443","&#9761;","elianto","#3366ff99","-1"," ","0","0","[1477.2999999523163]","1","0","2",""
"pit-trial","74","579521","0.0-2.0-11.9-1.9","battery-v0.2","","""event"",""trial"",""time""
""blur"",""1"",""5301""
""focus"",""1"",""5306""
""fullscreenenter"",""1"",""6594""
","""event"",""trial"",""time""
""blur"",""1"",""5301""
","""event"",""trial"",""time""
""focus"",""1"",""5306""
","""event"",""trial"",""time""
""fullscreenenter"",""1"",""6594""
","
","","","562.3999999761581","","","16","3165","1443","&#9761;","elianto","#3366ff99","-1"," ","0","0","[1416.5]","1","0","2",""
"pit-trial","75","582984","0.0-2.0-11.9-2.9","battery-v0.2","","""event"",""trial"",""time""
""blur"",""1"",""5301""
""focus"",""1"",""5306""
""fullscreenenter"",""1"",""6594""
","""event"",""trial"",""time""
""blur"",""1"",""5301""
","""event"",""trial"",""time""
""focus"",""1"",""5306""
","""event"",""trial"",""time""
""fullscreenenter"",""1"",""6594""
","
","","","604.8999999761581","","","16","3165","1443","&#9761;","elianto","#3366ff99","-1"," ","0","0","[1457.199999988079]","1","0","2",""
"pit-trial","76","586394","0.0-2.0-11.9-3.9","battery-v0.2","","""event"",""trial"",""time""
""blur"",""1"",""5301""
""focus"",""1"",""5306""
""fullscreenenter"",""1"",""6594""
","""event"",""trial"",""time""
""blur"",""1"",""5301""
","""event"",""trial"",""time""
""focus"",""1"",""5306""
","""event"",""trial"",""time""
""fullscreenenter"",""1"",""6594""
","
","","","549.5","","","16","3165","1443","&#9761;","elianto","#3366ff99","-1"," ","0","+10","[1404]","1","0","2",""
"pit-trial","77","590051","0.0-2.0-11.9-4.9","battery-v0.2","","""event"",""trial"",""time""
""blur"",""1"",""5301""
""focus"",""1"",""5306""
""fullscreenenter"",""1"",""6594""
","""event"",""trial"",""time""
""blur"",""1"",""5301""
","""event"",""trial"",""time""
""focus"",""1"",""5306""
","""event"",""trial"",""time""
""fullscreenenter"",""1"",""6594""
","
","","","798","","","16","3165","1443","&#9761;","elianto","#3366ff99","-1"," ","0","0","[1653.1000000238419]","1","0","2",""
"pit-trial","78","593963","0.0-2.0-11.10-0.10","battery-v0.2","","""event"",""trial"",""time""
""blur"",""1"",""5301""
""focus"",""1"",""5306""
""fullscreenenter"",""1"",""6594""
","""event"",""trial"",""time""
""blur"",""1"",""5301""
","""event"",""trial"",""time""
""focus"",""1"",""5306""
","""event"",""trial"",""time""
""fullscreenenter"",""1"",""6594""
","
","","","1050.7999999523163","","","16","3165","1443","&#9761;","elianto","#3366ff99","-1"," ","0","0","[1905.2999999523163]","1","0","2",""
"pit-trial","79","597502","0.0-2.0-11.10-1.10","battery-v0.2","","""event"",""trial"",""time""
""blur"",""1"",""5301""
""focus"",""1"",""5306""
""fullscreenenter"",""1"",""6594""
","""event"",""trial"",""time""
""blur"",""1"",""5301""
","""event"",""trial"",""time""
""focus"",""1"",""5306""
","""event"",""trial"",""time""
""fullscreenenter"",""1"",""6594""
","
","","","680.3999999761581","","","16","3165","1443","&#9761;","elianto","#3366ff99","-1"," ","0","0","[1532.6000000238419]","1","0","2",""
"pit-trial","80","601034","0.0-2.0-11.10-2.10","battery-v0.2","","""event"",""trial"",""time""
""blur"",""1"",""5301""
""focus"",""1"",""5306""
""fullscreenenter"",""1"",""6594""
","""event"",""trial"",""time""
""blur"",""1"",""5301""
","""event"",""trial"",""time""
""focus"",""1"",""5306""
","""event"",""trial"",""time""
""fullscreenenter"",""1"",""6594""
","
","","","676.1000000238419","","","16","3165","1443","&#9761;","elianto","#3366ff99","-1"," ","0","0","[1528.699999988079]","1","0","2",""
"pit-trial","81","604496","0.0-2.0-11.10-3.10","battery-v0.2","","""event"",""trial"",""time""
""blur"",""1"",""5301""
""focus"",""1"",""5306""
""fullscreenenter"",""1"",""6594""
","""event"",""trial"",""time""
""blur"",""1"",""5301""
","""event"",""trial"",""time""
""focus"",""1"",""5306""
","""event"",""trial"",""time""
""fullscreenenter"",""1"",""6594""
","
","","","603.1999999880791","","","16","3165","1443","&#9761;","elianto","#3366ff99","-1"," ","0","+10","[1455.3999999761581]","1","0","2",""
"pit-trial","82","607884","0.0-2.0-11.10-4.10","battery-v0.2","","""event"",""trial"",""time""
""blur"",""1"",""5301""
""focus"",""1"",""5306""
""fullscreenenter"",""1"",""6594""
","""event"",""trial"",""time""
""blur"",""1"",""5301""
","""event"",""trial"",""time""
""focus"",""1"",""5306""
","""event"",""trial"",""time""
""fullscreenenter"",""1"",""6594""
","
","","","529.1000000238419","","","16","3165","1443","&#9761;","elianto","#3366ff99","-1"," ","0","0","[1382.1000000238419]","1","0","2",""
"pit-trial","83","611304","0.0-2.0-11.11-0.11","battery-v0.2","","""event"",""trial"",""time""
""blur"",""1"",""5301""
""focus"",""1"",""5306""
""fullscreenenter"",""1"",""6594""
","""event"",""trial"",""time""
""blur"",""1"",""5301""
","""event"",""trial"",""time""
""focus"",""1"",""5306""
","""event"",""trial"",""time""
""fullscreenenter"",""1"",""6594""
","
","","","562.3999999761581","","","16","3165","1443","&#9761;","elianto","#3366ff99","-1"," ","0","0","[1414]","1","0","2",""
"pit-trial","84","614729","0.0-2.0-11.11-1.11","battery-v0.2","","""event"",""trial"",""time""
""blur"",""1"",""5301""
""focus"",""1"",""5306""
""fullscreenenter"",""1"",""6594""
","""event"",""trial"",""time""
""blur"",""1"",""5301""
","""event"",""trial"",""time""
""focus"",""1"",""5306""
","""event"",""trial"",""time""
""fullscreenenter"",""1"",""6594""
","
","","","568.8999999761581","","","16","3165","1443","&#9761;","elianto","#3366ff99","-1"," ","0","0","[1420.5999999642372]","1","0","2",""
"pit-trial","85","618202","0.0-2.0-11.11-2.11","battery-v0.2","","""event"",""trial"",""time""
""blur"",""1"",""5301""
""focus"",""1"",""5306""
""fullscreenenter"",""1"",""6594""
","""event"",""trial"",""time""
""blur"",""1"",""5301""
","""event"",""trial"",""time""
""focus"",""1"",""5306""
","""event"",""trial"",""time""
""fullscreenenter"",""1"",""6594""
","
","","","612","","","16","3165","1443","&#9761;","elianto","#3366ff99","-1"," ","0","0","[1466.800000011921]","1","0","2",""
"pit-trial","86","621715","0.0-2.0-11.11-3.11","battery-v0.2","","""event"",""trial"",""time""
""blur"",""1"",""5301""
""focus"",""1"",""5306""
""fullscreenenter"",""1"",""6594""
","""event"",""trial"",""time""
""blur"",""1"",""5301""
","""event"",""trial"",""time""
""focus"",""1"",""5306""
","""event"",""trial"",""time""
""fullscreenenter"",""1"",""6594""
","
","","","653.6999999880791","","","16","3165","1443","&#9761;","elianto","#3366ff99","-1"," ","0","+10","[1507.5]","1","0","2",""
"pit-trial","87","625021","0.0-2.0-11.11-4.11","battery-v0.2","","""event"",""trial"",""time""
""blur"",""1"",""5301""
""focus"",""1"",""5306""
""fullscreenenter"",""1"",""6594""
","""event"",""trial"",""time""
""blur"",""1"",""5301""
","""event"",""trial"",""time""
""focus"",""1"",""5306""
","""event"",""trial"",""time""
""fullscreenenter"",""1"",""6594""
","
","","","445.19999998807907","","","16","3165","1443","&#9761;","elianto","#3366ff99","-1"," ","0","0","[1300.1000000238419]","1","0","2",""
"pit-trial","88","628448","0.0-2.0-11.12-0.12","battery-v0.2","","""event"",""trial"",""time""
""blur"",""1"",""5301""
""focus"",""1"",""5306""
""fullscreenenter"",""1"",""6594""
","""event"",""trial"",""time""
""blur"",""1"",""5301""
","""event"",""trial"",""time""
""focus"",""1"",""5306""
","""event"",""trial"",""time""
""fullscreenenter"",""1"",""6594""
","
","","","566.0999999642372","","","16","3165","1443","&#9761;","elianto","#3366ff99","-1"," ","0","0","[1420.1000000238419]","1","0","2",""
"pit-trial","89","631575","0.0-2.0-11.12-1.12","battery-v0.2","","""event"",""trial"",""time""
""blur"",""1"",""5301""
""focus"",""1"",""5306""
""fullscreenenter"",""1"",""6594""
","""event"",""trial"",""time""
""blur"",""1"",""5301""
","""event"",""trial"",""time""
""focus"",""1"",""5306""
","""event"",""trial"",""time""
""fullscreenenter"",""1"",""6594""
","
","","","270.0999999642372","","","16","3165","1443","&#9761;","elianto","#3366ff99","-1"," ","0","0","[1123.3999999761581]","1","0","2",""
"pit-trial","90","634765","0.0-2.0-11.12-2.12","battery-v0.2","","""event"",""trial"",""time""
""blur"",""1"",""5301""
""focus"",""1"",""5306""
""fullscreenenter"",""1"",""6594""
","""event"",""trial"",""time""
""blur"",""1"",""5301""
","""event"",""trial"",""time""
""focus"",""1"",""5306""
","""event"",""trial"",""time""
""fullscreenenter"",""1"",""6594""
","
","","","330.10000002384186","","","16","3165","1443","&#9761;","elianto","#3366ff99","-1"," ","0","0","[1185]","1","0","2",""
"pit-trial","91","638178","0.0-2.0-11.12-3.12","battery-v0.2","","""event"",""trial"",""time""
""blur"",""1"",""5301""
""focus"",""1"",""5306""
""fullscreenenter"",""1"",""6594""
","""event"",""trial"",""time""
""blur"",""1"",""5301""
","""event"",""trial"",""time""
""focus"",""1"",""5306""
","""event"",""trial"",""time""
""fullscreenenter"",""1"",""6594""
","
","","","553.0999999642372","","","16","3165","1443","&#9761;","elianto","#3366ff99","-1"," ","0","+10","[1407.6000000238419]","1","0","2",""
"pit-trial","92","641603","0.0-2.0-11.12-4.12","battery-v0.2","","""event"",""trial"",""time""
""blur"",""1"",""5301""
""focus"",""1"",""5306""
""fullscreenenter"",""1"",""6594""
","""event"",""trial"",""time""
""blur"",""1"",""5301""
","""event"",""trial"",""time""
""focus"",""1"",""5306""
","""event"",""trial"",""time""
""fullscreenenter"",""1"",""6594""
","
","","","565.8000000119209","","","16","3165","1443","&#9761;","elianto","#3366ff99","-1"," ","0","0","[1420.5]","1","0","2",""
"pit-trial","93","645020","0.0-2.0-11.13-0.13","battery-v0.2","","""event"",""trial"",""time""
""blur"",""1"",""5301""
""focus"",""1"",""5306""
""fullscreenenter"",""1"",""6594""
","""event"",""trial"",""time""
""blur"",""1"",""5301""
","""event"",""trial"",""time""
""focus"",""1"",""5306""
","""event"",""trial"",""time""
""fullscreenenter"",""1"",""6594""
","
","","","556.5","","","16","3165","1443","&#9761;","elianto","#3366ff99","-1"," ","0","0","[1410.5]","1","0","2",""
"pit-trial","94","648262","0.0-2.0-11.13-1.13","battery-v0.2","","""event"",""trial"",""time""
""blur"",""1"",""5301""
""focus"",""1"",""5306""
""fullscreenenter"",""1"",""6594""
","""event"",""trial"",""time""
""blur"",""1"",""5301""
","""event"",""trial"",""time""
""focus"",""1"",""5306""
","""event"",""trial"",""time""
""fullscreenenter"",""1"",""6594""
","
","","","383.10000002384186","","","16","3165","1443","&#9761;","elianto","#3366ff99","-1"," ","0","0","[1237.9000000357628]","1","0","2",""
"pit-trial","95","651478","0.0-2.0-11.13-2.13","battery-v0.2","","""event"",""trial"",""time""
""blur"",""1"",""5301""
""focus"",""1"",""5306""
""fullscreenenter"",""1"",""6594""
","""event"",""trial"",""time""
""blur"",""1"",""5301""
","""event"",""trial"",""time""
""focus"",""1"",""5306""
","""event"",""trial"",""time""
""fullscreenenter"",""1"",""6594""
","
","","","355","","","16","3165","1443","&#9761;","elianto","#3366ff99","-1"," ","0","0","[1209.7000000476837]","1","0","2",""
"pit-trial","96","655054","0.0-2.0-11.13-3.13","battery-v0.2","","""event"",""trial"",""time""
""blur"",""1"",""5301""
""focus"",""1"",""5306""
""fullscreenenter"",""1"",""6594""
","""event"",""trial"",""time""
""blur"",""1"",""5301""
","""event"",""trial"",""time""
""focus"",""1"",""5306""
","""event"",""trial"",""time""
""fullscreenenter"",""1"",""6594""
","
","","","719.3000000119209","","","16","3165","1443","&#9761;","elianto","#3366ff99","-1"," ","0","+10","[1571.199999988079]","1","0","2",""
"pit-trial","97","658412","0.0-2.0-11.13-4.13","battery-v0.2","","""event"",""trial"",""time""
""blur"",""1"",""5301""
""focus"",""1"",""5306""
""fullscreenenter"",""1"",""6594""
","""event"",""trial"",""time""
""blur"",""1"",""5301""
","""event"",""trial"",""time""
""focus"",""1"",""5306""
","""event"",""trial"",""time""
""fullscreenenter"",""1"",""6594""
","
","","","498.69999998807907","","","16","3165","1443","&#9761;","elianto","#3366ff99","-1"," ","0","0","[1353.199999988079]","1","0","2",""
"pit-trial","98","661825","0.0-2.0-11.14-0.14","battery-v0.2","","""event"",""trial"",""time""
""blur"",""1"",""5301""
""focus"",""1"",""5306""
""fullscreenenter"",""1"",""6594""
","""event"",""trial"",""time""
""blur"",""1"",""5301""
","""event"",""trial"",""time""
""focus"",""1"",""5306""
","""event"",""trial"",""time""
""fullscreenenter"",""1"",""6594""
","
","","","558.1999999880791","","","16","3165","1443","&#9761;","elianto","#3366ff99","-1"," ","0","0","[1408.8999999761581]","1","0","2",""
"pit-trial","99","665317","0.0-2.0-11.14-1.14","battery-v0.2","","""event"",""trial"",""time""
""blur"",""1"",""5301""
""focus"",""1"",""5306""
""fullscreenenter"",""1"",""6594""
","""event"",""trial"",""time""
""blur"",""1"",""5301""
","""event"",""trial"",""time""
""focus"",""1"",""5306""
","""event"",""trial"",""time""
""fullscreenenter"",""1"",""6594""
","
","","","630.4000000357628","","","16","3165","1443","&#9761;","elianto","#3366ff99","-1"," ","0","0","[1485.6000000238419]","1","0","2",""
"pit-trial","100","668742","0.0-2.0-11.14-2.14","battery-v0.2","","""event"",""trial"",""time""
""blur"",""1"",""5301""
""focus"",""1"",""5306""
""fullscreenenter"",""1"",""6594""
","""event"",""trial"",""time""
""blur"",""1"",""5301""
","""event"",""trial"",""time""
""focus"",""1"",""5306""
","""event"",""trial"",""time""
""fullscreenenter"",""1"",""6594""
","
","","","569.9000000357628","","","16","3165","1443","&#9761;","elianto","#3366ff99","-1"," ","0","0","[1420.4000000357628]","1","0","2",""
"pit-trial","101","672211","0.0-2.0-11.14-3.14","battery-v0.2","","""event"",""trial"",""time""
""blur"",""1"",""5301""
""focus"",""1"",""5306""
""fullscreenenter"",""1"",""6594""
","""event"",""trial"",""time""
""blur"",""1"",""5301""
","""event"",""trial"",""time""
""focus"",""1"",""5306""
","""event"",""trial"",""time""
""fullscreenenter"",""1"",""6594""
","
","","","609.7000000476837","","","16","3165","1443","&#9761;","elianto","#3366ff99","-1"," ","0","+10","[1464.1000000238419]","1","0","2",""
"pit-trial","102","675722","0.0-2.0-11.14-4.14","battery-v0.2","","""event"",""trial"",""time""
""blur"",""1"",""5301""
""focus"",""1"",""5306""
""fullscreenenter"",""1"",""6594""
","""event"",""trial"",""time""
""blur"",""1"",""5301""
","""event"",""trial"",""time""
""focus"",""1"",""5306""
","""event"",""trial"",""time""
""fullscreenenter"",""1"",""6594""
","
","","","654.8000000119209","","","16","3165","1443","&#9761;","elianto","#3366ff99","-1"," ","0","0","[1506.8999999761581]","1","0","2",""
"pit-trial","103","679174","0.0-2.0-11.15-0.15","battery-v0.2","","""event"",""trial"",""time""
""blur"",""1"",""5301""
""focus"",""1"",""5306""
""fullscreenenter"",""1"",""6594""
","""event"",""trial"",""time""
""blur"",""1"",""5301""
","""event"",""trial"",""time""
""focus"",""1"",""5306""
","""event"",""trial"",""time""
""fullscreenenter"",""1"",""6594""
","
","","","590.6999999880791","","","16","3165","1443","&#9761;","elianto","#3366ff99","-1"," ","0","0","[1445.5999999642372]","1","0","2",""
"pit-trial","104","682605","0.0-2.0-11.15-1.15","battery-v0.2","","""event"",""trial"",""time""
""blur"",""1"",""5301""
""focus"",""1"",""5306""
""fullscreenenter"",""1"",""6594""
","""event"",""trial"",""time""
""blur"",""1"",""5301""
","""event"",""trial"",""time""
""focus"",""1"",""5306""
","""event"",""trial"",""time""
""fullscreenenter"",""1"",""6594""
","
","","","570.8999999761581","","","16","3165","1443","&#9761;","elianto","#3366ff99","-1"," ","0","0","[1425.5]","1","0","2",""
"pit-trial","105","686003","0.0-2.0-11.15-2.15","battery-v0.2","","""event"",""trial"",""time""
""blur"",""1"",""5301""
""focus"",""1"",""5306""
""fullscreenenter"",""1"",""6594""
","""event"",""trial"",""time""
""blur"",""1"",""5301""
","""event"",""trial"",""time""
""focus"",""1"",""5306""
","""event"",""trial"",""time""
""fullscreenenter"",""1"",""6594""
","
","","","541.4000000357628","","","16","3165","1443","&#9761;","elianto","#3366ff99","-1"," ","0","0","[1393.699999988079]","1","0","2",""
"pit-trial","106","689504","0.0-2.0-11.15-3.15","battery-v0.2","","""event"",""trial"",""time""
""blur"",""1"",""5301""
""focus"",""1"",""5306""
""fullscreenenter"",""1"",""6594""
","""event"",""trial"",""time""
""blur"",""1"",""5301""
","""event"",""trial"",""time""
""focus"",""1"",""5306""
","""event"",""trial"",""time""
""fullscreenenter"",""1"",""6594""
","
","","","640.5","","","16","3165","1443","&#9761;","elianto","#3366ff99","-1"," ","0","+10","[1495.5999999642372]","1","0","2",""
"pit-trial","107","693067","0.0-2.0-11.15-4.15","battery-v0.2","","""event"",""trial"",""time""
""blur"",""1"",""5301""
""focus"",""1"",""5306""
""fullscreenenter"",""1"",""6594""
","""event"",""trial"",""time""
""blur"",""1"",""5301""
","""event"",""trial"",""time""
""focus"",""1"",""5306""
","""event"",""trial"",""time""
""fullscreenenter"",""1"",""6594""
","
","","","700.6000000238419","","","16","3165","1443","&#9761;","elianto","#3366ff99","-1"," ","0","0","[1556.699999988079]","1","0","2",""
"pit-trial","108","696488","0.0-2.0-11.16-0.16","battery-v0.2","","""event"",""trial"",""time""
""blur"",""1"",""5301""
""focus"",""1"",""5306""
""fullscreenenter"",""1"",""6594""
","""event"",""trial"",""time""
""blur"",""1"",""5301""
","""event"",""trial"",""time""
""focus"",""1"",""5306""
","""event"",""trial"",""time""
""fullscreenenter"",""1"",""6594""
","
","","","563.2000000476837","","","16","3165","1443","&#9761;","elianto","#3366ff99","-1"," ","0","0","[1415.6000000238419]","1","0","2",""
"pit-trial","109","699927","0.0-2.0-11.16-1.16","battery-v0.2","","""event"",""trial"",""time""
""blur"",""1"",""5301""
""focus"",""1"",""5306""
""fullscreenenter"",""1"",""6594""
","""event"",""trial"",""time""
""blur"",""1"",""5301""
","""event"",""trial"",""time""
""focus"",""1"",""5306""
","""event"",""trial"",""time""
""fullscreenenter"",""1"",""6594""
","
","","","580.1000000238419","","","16","3165","1443","&#9761;","elianto","#3366ff99","-1"," ","0","0","[1434.800000011921]","1","0","2",""
"pit-trial","110","703387","0.0-2.0-11.16-2.16","battery-v0.2","","""event"",""trial"",""time""
""blur"",""1"",""5301""
""focus"",""1"",""5306""
""fullscreenenter"",""1"",""6594""
","""event"",""trial"",""time""
""blur"",""1"",""5301""
","""event"",""trial"",""time""
""focus"",""1"",""5306""
","""event"",""trial"",""time""
""fullscreenenter"",""1"",""6594""
","
","","","600.1999999880791","","","16","3165","1443","&#9761;","elianto","#3366ff99","-1"," ","0","0","[1454.8999999761581]","1","0","2",""
"pit-trial","111","706652","0.0-2.0-11.16-3.16","battery-v0.2","","""event"",""trial"",""time""
""blur"",""1"",""5301""
""focus"",""1"",""5306""
""fullscreenenter"",""1"",""6594""
","""event"",""trial"",""time""
""blur"",""1"",""5301""
","""event"",""trial"",""time""
""focus"",""1"",""5306""
","""event"",""trial"",""time""
""fullscreenenter"",""1"",""6594""
","
","","","408.89999997615814","","","16","3165","1443","&#9761;","elianto","#3366ff99","-1"," ","0","+10","[1259.699999988079]","1","0","2",""
"pit-trial","112","710214","0.0-2.0-11.16-4.16","battery-v0.2","","""event"",""trial"",""time""
""blur"",""1"",""5301""
""focus"",""1"",""5306""
""fullscreenenter"",""1"",""6594""
","""event"",""trial"",""time""
""blur"",""1"",""5301""
","""event"",""trial"",""time""
""focus"",""1"",""5306""
","""event"",""trial"",""time""
""fullscreenenter"",""1"",""6594""
","
","","","701.8000000119209","","","16","3165","1443","&#9761;","elianto","#3366ff99","-1"," ","0","0","[1555.699999988079]","1","0","2",""
"pit-trial","113","713607","0.0-2.0-11.17-0.17","battery-v0.2","","""event"",""trial"",""time""
""blur"",""1"",""5301""
""focus"",""1"",""5306""
""fullscreenenter"",""1"",""6594""
","""event"",""trial"",""time""
""blur"",""1"",""5301""
","""event"",""trial"",""time""
""focus"",""1"",""5306""
","""event"",""trial"",""time""
""fullscreenenter"",""1"",""6594""
","
","","","536.8999999761581","","","16","3165","1443","&#9761;","elianto","#3366ff99","-1"," ","0","0","[1387.5999999642372]","1","0","2",""
"pit-trial","114","717020","0.0-2.0-11.17-1.17","battery-v0.2","","""event"",""trial"",""time""
""blur"",""1"",""5301""
""focus"",""1"",""5306""
""fullscreenenter"",""1"",""6594""
","""event"",""trial"",""time""
""blur"",""1"",""5301""
","""event"",""trial"",""time""
""focus"",""1"",""5306""
","""event"",""trial"",""time""
""fullscreenenter"",""1"",""6594""
","
","","","553.3999999761581","","","16","3165","1443","&#9761;","elianto","#3366ff99","-1"," ","0","0","[1408.2999999523163]","1","0","2",""
"pit-trial","115","720390","0.0-2.0-11.17-2.17","battery-v0.2","","""event"",""trial"",""time""
""blur"",""1"",""5301""
""focus"",""1"",""5306""
""fullscreenenter"",""1"",""6594""
","""event"",""trial"",""time""
""blur"",""1"",""5301""
","""event"",""trial"",""time""
""focus"",""1"",""5306""
","""event"",""trial"",""time""
""fullscreenenter"",""1"",""6594""
","
","","","510.69999998807907","","","16","3165","1443","&#9761;","elianto","#3366ff99","-1"," ","0","0","[1365.199999988079]","1","0","2",""
"pit-trial","116","723866","0.0-2.0-11.17-3.17","battery-v0.2","","""event"",""trial"",""time""
""blur"",""1"",""5301""
""focus"",""1"",""5306""
""fullscreenenter"",""1"",""6594""
","""event"",""trial"",""time""
""blur"",""1"",""5301""
","""event"",""trial"",""time""
""focus"",""1"",""5306""
","""event"",""trial"",""time""
""fullscreenenter"",""1"",""6594""
","
","","","614.5","","","16","3165","1443","&#9761;","elianto","#3366ff99","-1"," ","0","+10","[1469]","1","0","2",""
"pit-trial","117","727318","0.0-2.0-11.17-4.17","battery-v0.2","","""event"",""trial"",""time""
""blur"",""1"",""5301""
""focus"",""1"",""5306""
""fullscreenenter"",""1"",""6594""
","""event"",""trial"",""time""
""blur"",""1"",""5301""
","""event"",""trial"",""time""
""focus"",""1"",""5306""
","""event"",""trial"",""time""
""fullscreenenter"",""1"",""6594""
","
","","","596","","","16","3165","1443","&#9761;","elianto","#3366ff99","-1"," ","0","0","[1446.300000011921]","1","0","2",""
"pit-trial","118","730845","0.0-2.0-11.18-0.18","battery-v0.2","","""event"",""trial"",""time""
""blur"",""1"",""5301""
""focus"",""1"",""5306""
""fullscreenenter"",""1"",""6594""
","""event"",""trial"",""time""
""blur"",""1"",""5301""
","""event"",""trial"",""time""
""focus"",""1"",""5306""
","""event"",""trial"",""time""
""fullscreenenter"",""1"",""6594""
","
","","","668.1999999880791","","","16","3165","1443","&#9761;","elianto","#3366ff99","-1"," ","0","0","[1523.0999999642372]","1","0","2",""
"pit-trial","119","734357","0.0-2.0-11.18-1.18","battery-v0.2","","""event"",""trial"",""time""
""blur"",""1"",""5301""
""focus"",""1"",""5306""
""fullscreenenter"",""1"",""6594""
","""event"",""trial"",""time""
""blur"",""1"",""5301""
","""event"",""trial"",""time""
""focus"",""1"",""5306""
","""event"",""trial"",""time""
""fullscreenenter"",""1"",""6594""
","
","","","655.1000000238419","","","16","3165","1443","&#9761;","elianto","#3366ff99","-1"," ","0","0","[1506.699999988079]","1","0","2",""
"pit-trial","120","737829","0.0-2.0-11.18-2.18","battery-v0.2","","""event"",""trial"",""time""
""blur"",""1"",""5301""
""focus"",""1"",""5306""
""fullscreenenter"",""1"",""6594""
","""event"",""trial"",""time""
""blur"",""1"",""5301""
","""event"",""trial"",""time""
""focus"",""1"",""5306""
","""event"",""trial"",""time""
""fullscreenenter"",""1"",""6594""
","
","","","614.8999999761581","","","16","3165","1443","&#9761;","elianto","#3366ff99","-1"," ","0","0","[1467.6000000238419]","1","0","2",""
"pit-trial","121","741274","0.0-2.0-11.18-3.18","battery-v0.2","","""event"",""trial"",""time""
""blur"",""1"",""5301""
""focus"",""1"",""5306""
""fullscreenenter"",""1"",""6594""
","""event"",""trial"",""time""
""blur"",""1"",""5301""
","""event"",""trial"",""time""
""focus"",""1"",""5306""
","""event"",""trial"",""time""
""fullscreenenter"",""1"",""6594""
","
","","","586.2000000476837","","","16","3165","1443","&#9761;","elianto","#3366ff99","-1"," ","0","+10","[1440.5]","1","0","2",""
"pit-trial","122","744757","0.0-2.0-11.18-4.18","battery-v0.2","","""event"",""trial"",""time""
""blur"",""1"",""5301""
""focus"",""1"",""5306""
""fullscreenenter"",""1"",""6594""
""blur"",""123"",""752523""
""fullscreenexit"",""123"",""752527""
""focus"",""123"",""752530""
""blur"",""123"",""754763""
""focus"",""123"",""754766""
","""event"",""trial"",""time""
""blur"",""1"",""5301""
""blur"",""123"",""752523""
""blur"",""123"",""754763""
","""event"",""trial"",""time""
""focus"",""1"",""5306""
""focus"",""123"",""752530""
""focus"",""123"",""754766""
","""event"",""trial"",""time""
""fullscreenenter"",""1"",""6594""
","""event"",""trial"",""time""
""fullscreenexit"",""123"",""752527""
","","","626.0999999642372","","","16","3165","1443","&#9761;","elianto","#3366ff99","-1"," ","0","0","[1476.199999988079]","1","0","2",""
