"trial_type","trial_index","time_elapsed","internal_node_id","task_version","subject_id","interactions","blur_events","focus_events","fullscreenenter_events","fullscreenexit_events","success","view_history","rt","responses","num_errors","age","subject","participantId","rune","rune_set","hex","correct","choice","accuracy","outcome","keys","total_keys","block","practice","value","sub","trial","stimulus","robot","valence","action","sham"
"pavlovia","0","6","0.0-0.0","battery-v0.2","","""event"",""trial"",""time""
""fullscreenenter"",""1"",""2348""
","
","
","""event"",""trial"",""time""
""fullscreenenter"",""1"",""2348""
","
","","","","","","","","","","","","","","","","","","","","","","","","","","",""
"fullscreen","1","3324","0.0-1.0","battery-v0.2","","""event"",""trial"",""time""
""fullscreenenter"",""1"",""2348""
","
","
","""event"",""trial"",""time""
""fullscreenenter"",""1"",""2348""
","
","true","","","","","","","","","","","","","","","","","","","","","","","","","",""
"pit-instructions","2","8839","0.0-2.0-0.0","battery-v0.2","","""event"",""trial"",""time""
""fullscreenenter"",""1"",""2348""
","
","
","""event"",""trial"",""time""
""fullscreenenter"",""1"",""2348""
","
","","[{""page_index"":0,""viewing_time"":5510.699999988079}]","5511.199999988079","","","","","","","","","","","","","","","","","","","","","","","",""
"pit-comprehension","3","12138","0.0-2.0-1.0-0.0","battery-v0.2","","""event"",""trial"",""time""
""fullscreenenter"",""1"",""2348""
","
","
","""event"",""trial"",""time""
""fullscreenenter"",""1"",""2348""
","
","","","3293.2000000178814","[""shark""]","0","18","12596","5371","","","","","","","","","","","","","","","","","","",""
"pit-instructions","4","13919","0.0-2.0-1.0-1.0","battery-v0.2","","""event"",""trial"",""time""
""fullscreenenter"",""1"",""2348""
","
","
","""event"",""trial"",""time""
""fullscreenenter"",""1"",""2348""
","
","","[{""page_index"":0,""viewing_time"":1769.2999999821186}]","1769.8999999761581","","","","","","","","","","","","","","","","","","","","","","","",""
"pit-comprehension","5","16475","0.0-2.0-2.0-0.0","battery-v0.2","","""event"",""trial"",""time""
""fullscreenenter"",""1"",""2348""
","
","
","""event"",""trial"",""time""
""fullscreenenter"",""1"",""2348""
","
","","","2551.0999999940395","[""tiger""]","0","18","12596","5371","","","","","","","","","","","","","","","","","","",""
"pit-instructions","6","17218","0.0-2.0-2.0-1.0","battery-v0.2","","""event"",""trial"",""time""
""fullscreenenter"",""1"",""2348""
","
","
","""event"",""trial"",""time""
""fullscreenenter"",""1"",""2348""
","
","","[{""page_index"":0,""viewing_time"":740.2999999821186}]","740.7999999821186","","","","","","","","","","","","","","","","","","","","","","","",""
"pit-instructions","7","116868","0.0-2.0-3.0","battery-v0.2","","""event"",""trial"",""time""
""fullscreenenter"",""1"",""2348""
","
","
","""event"",""trial"",""time""
""fullscreenenter"",""1"",""2348""
","
","","[{""page_index"":0,""viewing_time"":7829.199999988079},{""page_index"":1,""viewing_time"":6766.9000000059605},{""page_index"":2,""viewing_time"":6433.5},{""page_index"":3,""viewing_time"":6582.300000011921},{""page_index"":4,""viewing_time"":6266.799999982119},{""page_index"":5,""viewing_time"":6351},{""page_index"":6,""viewing_time"":7250.200000017881},{""page_index"":7,""viewing_time"":6868.0999999940395},{""page_index"":8,""viewing_time"":6781.4000000059605},{""page_index"":9,""viewing_time"":8318.299999982119},{""page_index"":10,""viewing_time"":8888.40000000596},{""page_index"":11,""viewing_time"":8927.300000011921},{""page_index"":12,""viewing_time"":6583.399999976158},{""page_index"":13,""viewing_time"":5800}]","99647.79999998212","","","","","","","","","","","","","","","","","","","","","","","",""
"pit-trial","8","120278","0.0-2.0-4.0-0.0","battery-v0.2","","""event"",""trial"",""time""
""fullscreenenter"",""1"",""2348""
","
","
","""event"",""trial"",""time""
""fullscreenenter"",""1"",""2348""
","
","","","547.1999999880791","","","18","12596","5371","&#9784;","elianto","#FFFFF080"," "," ","1","&#10004","[1398.300000011921]","1","0","0","","","","","","","",""
"pit-trial","9","123639","0.0-2.0-4.1-0.1","battery-v0.2","","""event"",""trial"",""time""
""fullscreenenter"",""1"",""2348""
","
","
","""event"",""trial"",""time""
""fullscreenenter"",""1"",""2348""
","
","","","496.2999999821186","","","18","12596","5371","&#9784;","elianto","#FFFFF080"," "," ","1","&#10004","[1348.0999999940395]","1","0","0","","","","","","","",""
"pit-trial","10","127076","0.0-2.0-4.2-0.2","battery-v0.2","","""event"",""trial"",""time""
""fullscreenenter"",""1"",""2348""
","
","
","""event"",""trial"",""time""
""fullscreenenter"",""1"",""2348""
","
","","","573.3000000119209","","","18","12596","5371","&#9784;","elianto","#FFFFF080"," "," ","1","&#10004","[1426.2999999821186]","1","0","0","","","","","","","",""
"pit-trial","11","130570","0.0-2.0-4.3-0.3","battery-v0.2","","""event"",""trial"",""time""
""fullscreenenter"",""1"",""2348""
","
","
","""event"",""trial"",""time""
""fullscreenenter"",""1"",""2348""
","
","","","629.8999999761581","","","18","12596","5371","&#9784;","elianto","#FFFFF080"," "," ","1","&#10004","[1483.9000000059605]","1","0","0","","","","","","","",""
"pit-trial","12","133598","0.0-2.0-4.4-0.4","battery-v0.2","","""event"",""trial"",""time""
""fullscreenenter"",""1"",""2348""
","
","
","""event"",""trial"",""time""
""fullscreenenter"",""1"",""2348""
","
","","","169.80000001192093","","","18","12596","5371","&#9784;","elianto","#FFFFF080"," "," ","1","&#10004","[1021.5999999940395]","1","0","0","","","","","","","",""
"pit-instructions","13","155934","0.0-2.0-5.0","battery-v0.2","","""event"",""trial"",""time""
""fullscreenenter"",""1"",""2348""
","
","
","""event"",""trial"",""time""
""fullscreenenter"",""1"",""2348""
","
","","[{""page_index"":0,""viewing_time"":4780.800000011921},{""page_index"":1,""viewing_time"":5749.5999999940395},{""page_index"":2,""viewing_time"":4967.5},{""page_index"":3,""viewing_time"":6832.5}]","22331","","","","","","","","","","","","","","","","","","","","","","","",""
"pit-trial","14","160799","0.0-2.0-6.0-0.0","battery-v0.2","","""event"",""trial"",""time""
""fullscreenenter"",""1"",""2348""
","
","
","""event"",""trial"",""time""
""fullscreenenter"",""1"",""2348""
","
","","","-1","","","18","12596","5371","&#9854;","elianto","#FFFFF080","-1","-1","1","&#10004","[]","0","0","1","","","","","","","",""
"pit-trial","15","165666","0.0-2.0-6.1-0.1","battery-v0.2","","""event"",""trial"",""time""
""fullscreenenter"",""1"",""2348""
","
","
","""event"",""trial"",""time""
""fullscreenenter"",""1"",""2348""
","
","","","-1","","","18","12596","5371","&#9854;","elianto","#FFFFF080","-1","-1","1","&#10004","[]","0","0","1","","","","","","","",""
"pit-trial","16","170532","0.0-2.0-6.2-0.2","battery-v0.2","","""event"",""trial"",""time""
""fullscreenenter"",""1"",""2348""
","
","
","""event"",""trial"",""time""
""fullscreenenter"",""1"",""2348""
","
","","","-1","","","18","12596","5371","&#9854;","elianto","#FFFFF080","-1","-1","1","&#10004","[]","0","0","1","","","","","","","",""
"pit-trial","17","175398","0.0-2.0-6.3-0.3","battery-v0.2","","""event"",""trial"",""time""
""fullscreenenter"",""1"",""2348""
","
","
","""event"",""trial"",""time""
""fullscreenenter"",""1"",""2348""
","
","","","-1","","","18","12596","5371","&#9854;","elianto","#FFFFF080","-1","-1","1","&#10004","[]","0","0","1","","","","","","","",""
"pit-trial","18","180265","0.0-2.0-6.4-0.4","battery-v0.2","","""event"",""trial"",""time""
""fullscreenenter"",""1"",""2348""
","
","
","""event"",""trial"",""time""
""fullscreenenter"",""1"",""2348""
","
","","","-1","","","18","12596","5371","&#9854;","elianto","#FFFFF080","-1","-1","1","&#10004","[]","0","0","1","","","","","","","",""
"pit-instructions","19","298301","0.0-2.0-7.0","battery-v0.2","","""event"",""trial"",""time""
""fullscreenenter"",""1"",""2348""
","
","
","""event"",""trial"",""time""
""fullscreenenter"",""1"",""2348""
","
","","[{""page_index"":0,""viewing_time"":6630.199999988079},{""page_index"":1,""viewing_time"":7084.200000017881},{""page_index"":2,""viewing_time"":5967.4000000059605},{""page_index"":3,""viewing_time"":6966.5},{""page_index"":4,""viewing_time"":5133.299999982119},{""page_index"":5,""viewing_time"":5117.300000011921},{""page_index"":6,""viewing_time"":4751.299999982119},{""page_index"":7,""viewing_time"":7531.200000017881},{""page_index"":8,""viewing_time"":6651.5999999940395},{""page_index"":9,""viewing_time"":6215.5999999940395},{""page_index"":10,""viewing_time"":6916.9000000059605},{""page_index"":11,""viewing_time"":4551},{""page_index"":12,""viewing_time"":7917},{""page_index"":13,""viewing_time"":7116.5999999940395},{""page_index"":14,""viewing_time"":7100.4000000059605},{""page_index"":15,""viewing_time"":7166.0999999940395},{""page_index"":16,""viewing_time"":7934.0999999940395},{""page_index"":17,""viewing_time"":7282.600000023842}]","118034.90000000596","","","","","","","","","","","","","","","","","","","","","","","",""
"pit-trial","20","303163","0.0-2.0-8.0-0.0","battery-v0.2","","""event"",""trial"",""time""
""fullscreenenter"",""1"",""2348""
","
","
","""event"",""trial"",""time""
""fullscreenenter"",""1"",""2348""
","
","","","-1","","","18","12596","5371","&#9776;","elianto","#3366ff99"," ","-1","0","0","[]","0","0","1","","","","","","","",""
"pit-trial","21","306643","0.0-2.0-8.0-1.0","battery-v0.2","","""event"",""trial"",""time""
""fullscreenenter"",""1"",""2348""
","
","
","""event"",""trial"",""time""
""fullscreenenter"",""1"",""2348""
","
","","","620.2000000178814","","","18","12596","5371","&#9776;","elianto","#3366ff99"," "," ","1","+10","[1470.5]","1","0","1","","","","","","","",""
"pit-trial","22","309909","0.0-2.0-8.0-2.0","battery-v0.2","","""event"",""trial"",""time""
""fullscreenenter"",""1"",""2348""
","
","
","""event"",""trial"",""time""
""fullscreenenter"",""1"",""2348""
","
","","","404.5","","","18","12596","5371","&#9776;","elianto","#3366ff99"," "," ","1","+10","[1256.699999988079]","1","0","1","","","","","","","",""
"pit-trial","23","313189","0.0-2.0-8.0-3.0","battery-v0.2","","""event"",""trial"",""time""
""fullscreenenter"",""1"",""2348""
","
","
","""event"",""trial"",""time""
""fullscreenenter"",""1"",""2348""
","
","","","419.2999999821186","","","18","12596","5371","&#9776;","elianto","#3366ff99"," "," ","1","0","[1270.0999999940395]","1","0","1","","","","","","","",""
"pit-trial","24","316277","0.0-2.0-8.0-4.0","battery-v0.2","","""event"",""trial"",""time""
""fullscreenenter"",""1"",""2348""
","
","
","""event"",""trial"",""time""
""fullscreenenter"",""1"",""2348""
","
","","","225","","","18","12596","5371","&#9776;","elianto","#3366ff99"," "," ","1","+10","[1078.300000011921]","1","0","1","","","","","","","",""
"pit-trial","25","319623","0.0-2.0-8.1-0.1","battery-v0.2","","""event"",""trial"",""time""
""fullscreenenter"",""1"",""2348""
","
","
","""event"",""trial"",""time""
""fullscreenenter"",""1"",""2348""
","
","","","483.80000001192093","","","18","12596","5371","&#9776;","elianto","#3366ff99"," "," ","1","+10","[1335.5999999940395]","1","0","1","","","","","","","",""
"pit-trial","26","322673","0.0-2.0-8.1-1.1","battery-v0.2","","""event"",""trial"",""time""
""fullscreenenter"",""1"",""2348""
","
","
","""event"",""trial"",""time""
""fullscreenenter"",""1"",""2348""
","
","","","193","","","18","12596","5371","&#9776;","elianto","#3366ff99"," "," ","1","+10","[1044.9000000059605]","1","0","1","","","","","","","",""
"pit-trial","27","325852","0.0-2.0-8.1-2.1","battery-v0.2","","""event"",""trial"",""time""
""fullscreenenter"",""1"",""2348""
","
","
","""event"",""trial"",""time""
""fullscreenenter"",""1"",""2348""
","
","","","317.80000001192093","","","18","12596","5371","&#9776;","elianto","#3366ff99"," "," ","1","+10","[1169.9000000059605]","1","0","1","","","","","","","",""
"pit-trial","28","329199","0.0-2.0-8.1-3.1","battery-v0.2","","""event"",""trial"",""time""
""fullscreenenter"",""1"",""2348""
","
","
","""event"",""trial"",""time""
""fullscreenenter"",""1"",""2348""
","
","","","489.19999998807907","","","18","12596","5371","&#9776;","elianto","#3366ff99"," "," ","1","0","[1340.5999999940395]","1","0","1","","","","","","","",""
"pit-trial","29","332389","0.0-2.0-8.1-4.1","battery-v0.2","","""event"",""trial"",""time""
""fullscreenenter"",""1"",""2348""
","
","
","""event"",""trial"",""time""
""fullscreenenter"",""1"",""2348""
","
","","","329.90000000596046","","","18","12596","5371","&#9776;","elianto","#3366ff99"," "," ","1","+10","[1180.5]","1","0","1","","","","","","","",""
"pit-trial","30","335651","0.0-2.0-8.2-0.2","battery-v0.2","","""event"",""trial"",""time""
""fullscreenenter"",""1"",""2348""
","
","
","""event"",""trial"",""time""
""fullscreenenter"",""1"",""2348""
","
","","","399.89999997615814","","","18","12596","5371","&#9776;","elianto","#3366ff99"," "," ","1","+10","[1251.5]","1","0","1","","","","","","","",""
"pit-trial","31","338857","0.0-2.0-8.2-1.2","battery-v0.2","","""event"",""trial"",""time""
""fullscreenenter"",""1"",""2348""
","
","
","""event"",""trial"",""time""
""fullscreenenter"",""1"",""2348""
","
","","","346.7999999821186","","","18","12596","5371","&#9776;","elianto","#3366ff99"," "," ","1","+10","[1197.7999999821186]","1","0","1","","","","","","","",""
"pit-trial","32","342073","0.0-2.0-8.2-2.2","battery-v0.2","","""event"",""trial"",""time""
""fullscreenenter"",""1"",""2348""
","
","
","""event"",""trial"",""time""
""fullscreenenter"",""1"",""2348""
","
","","","353.7999999821186","","","18","12596","5371","&#9776;","elianto","#3366ff99"," "," ","1","+10","[1206.7999999821186]","1","0","1","","","","","","","",""
"pit-trial","33","345332","0.0-2.0-8.2-3.2","battery-v0.2","","""event"",""trial"",""time""
""fullscreenenter"",""1"",""2348""
","
","
","""event"",""trial"",""time""
""fullscreenenter"",""1"",""2348""
","
","","","398.90000000596046","","","18","12596","5371","&#9776;","elianto","#3366ff99"," "," ","1","0","[1251.9000000059605]","1","0","1","","","","","","","",""
"pit-trial","34","348523","0.0-2.0-8.2-4.2","battery-v0.2","","""event"",""trial"",""time""
""fullscreenenter"",""1"",""2348""
","
","
","""event"",""trial"",""time""
""fullscreenenter"",""1"",""2348""
","
","","","334.40000000596046","","","18","12596","5371","&#9776;","elianto","#3366ff99"," "," ","1","+10","[1184.9000000059605]","1","0","1","","","","","","","",""
"call-function","35","348527","0.0-2.0-9.0","battery-v0.2","","""event"",""trial"",""time""
""fullscreenenter"",""1"",""2348""
","
","
","""event"",""trial"",""time""
""fullscreenenter"",""1"",""2348""
","
","","","","","","","","","","","","","","","","","","","","","","","","","","",""
"pit-instructions","36","387748","0.0-2.0-10.0","battery-v0.2","","""event"",""trial"",""time""
""fullscreenenter"",""1"",""2348""
","
","
","""event"",""trial"",""time""
""fullscreenenter"",""1"",""2348""
","
","","[{""page_index"":0,""viewing_time"":6089.300000011921},{""page_index"":1,""viewing_time"":6832.5999999940395},{""page_index"":2,""viewing_time"":9834.40000000596},{""page_index"":3,""viewing_time"":9016.199999988079},{""page_index"":4,""viewing_time"":7448.9000000059605}]","39221.69999998808","","","","","","","","","","","","","","","","","","","","","","","",""
"pit-trial","37","392606","0.0-2.0-11.0-0.0","battery-v0.2","","""event"",""trial"",""time""
""fullscreenenter"",""1"",""2348""
","
","
","""event"",""trial"",""time""
""fullscreenenter"",""1"",""2348""
","
","","","-1","","","18","12596","5371","&#9761;","elianto","#3366ff99","-1","-1","1","+10","[]","0","0","2","","","","","","","",""
"pit-trial","38","397467","0.0-2.0-11.0-1.0","battery-v0.2","","""event"",""trial"",""time""
""fullscreenenter"",""1"",""2348""
","
","
","""event"",""trial"",""time""
""fullscreenenter"",""1"",""2348""
","
","","","-1","","","18","12596","5371","&#9761;","elianto","#3366ff99","-1","-1","1","+10","[]","0","0","2","","","","","","","",""
"pit-trial","39","402332","0.0-2.0-11.0-2.0","battery-v0.2","","""event"",""trial"",""time""
""fullscreenenter"",""1"",""2348""
","
","
","""event"",""trial"",""time""
""fullscreenenter"",""1"",""2348""
","
","","","-1","","","18","12596","5371","&#9761;","elianto","#3366ff99","-1","-1","1","+10","[]","0","0","2","","","","","","","",""
"pit-trial","40","407197","0.0-2.0-11.0-3.0","battery-v0.2","","""event"",""trial"",""time""
""fullscreenenter"",""1"",""2348""
","
","
","""event"",""trial"",""time""
""fullscreenenter"",""1"",""2348""
","
","","","-1","","","18","12596","5371","&#9761;","elianto","#3366ff99","-1","-1","1","0","[]","0","0","2","","","","","","","",""
"pit-trial","41","412061","0.0-2.0-11.0-4.0","battery-v0.2","","""event"",""trial"",""time""
""fullscreenenter"",""1"",""2348""
","
","
","""event"",""trial"",""time""
""fullscreenenter"",""1"",""2348""
","
","","","-1","","","18","12596","5371","&#9761;","elianto","#3366ff99","-1","-1","1","+10","[]","0","0","2","","","","","","","",""
"pit-trial","42","416928","0.0-2.0-11.1-0.1","battery-v0.2","","""event"",""trial"",""time""
""fullscreenenter"",""1"",""2348""
","
","
","""event"",""trial"",""time""
""fullscreenenter"",""1"",""2348""
","
","","","-1","","","18","12596","5371","&#9761;","elianto","#3366ff99","-1","-1","1","+10","[]","0","0","2","","","","","","","",""
"pit-trial","43","421794","0.0-2.0-11.1-1.1","battery-v0.2","","""event"",""trial"",""time""
""fullscreenenter"",""1"",""2348""
","
","
","""event"",""trial"",""time""
""fullscreenenter"",""1"",""2348""
","
","","","-1","","","18","12596","5371","&#9761;","elianto","#3366ff99","-1","-1","1","+10","[]","0","0","2","","","","","","","",""
"pit-trial","44","426656","0.0-2.0-11.1-2.1","battery-v0.2","","""event"",""trial"",""time""
""fullscreenenter"",""1"",""2348""
","
","
","""event"",""trial"",""time""
""fullscreenenter"",""1"",""2348""
","
","","","-1","","","18","12596","5371","&#9761;","elianto","#3366ff99","-1","-1","1","+10","[]","0","0","2","","","","","","","",""
"pit-trial","45","431518","0.0-2.0-11.1-3.1","battery-v0.2","","""event"",""trial"",""time""
""fullscreenenter"",""1"",""2348""
","
","
","""event"",""trial"",""time""
""fullscreenenter"",""1"",""2348""
","
","","","-1","","","18","12596","5371","&#9761;","elianto","#3366ff99","-1","-1","1","0","[]","0","0","2","","","","","","","",""
"pit-trial","46","436383","0.0-2.0-11.1-4.1","battery-v0.2","","""event"",""trial"",""time""
""fullscreenenter"",""1"",""2348""
","
","
","""event"",""trial"",""time""
""fullscreenenter"",""1"",""2348""
","
","","","-1","","","18","12596","5371","&#9761;","elianto","#3366ff99","-1","-1","1","+10","[]","0","0","2","","","","","","","",""
"pit-trial","47","441243","0.0-2.0-11.2-0.2","battery-v0.2","","""event"",""trial"",""time""
""fullscreenenter"",""1"",""2348""
","
","
","""event"",""trial"",""time""
""fullscreenenter"",""1"",""2348""
","
","","","-1","","","18","12596","5371","&#9761;","elianto","#3366ff99","-1","-1","1","+10","[]","0","0","2","","","","","","","",""
"pit-trial","48","446107","0.0-2.0-11.2-1.2","battery-v0.2","","""event"",""trial"",""time""
""fullscreenenter"",""1"",""2348""
","
","
","""event"",""trial"",""time""
""fullscreenenter"",""1"",""2348""
","
","","","-1","","","18","12596","5371","&#9761;","elianto","#3366ff99","-1","-1","1","+10","[]","0","0","2","","","","","","","",""
"pit-trial","49","450969","0.0-2.0-11.2-2.2","battery-v0.2","","""event"",""trial"",""time""
""fullscreenenter"",""1"",""2348""
","
","
","""event"",""trial"",""time""
""fullscreenenter"",""1"",""2348""
","
","","","-1","","","18","12596","5371","&#9761;","elianto","#3366ff99","-1","-1","1","+10","[]","0","0","2","","","","","","","",""
"pit-trial","50","455832","0.0-2.0-11.2-3.2","battery-v0.2","","""event"",""trial"",""time""
""fullscreenenter"",""1"",""2348""
","
","
","""event"",""trial"",""time""
""fullscreenenter"",""1"",""2348""
","
","","","-1","","","18","12596","5371","&#9761;","elianto","#3366ff99","-1","-1","1","0","[]","0","0","2","","","","","","","",""
"pit-trial","51","460696","0.0-2.0-11.2-4.2","battery-v0.2","","""event"",""trial"",""time""
""fullscreenenter"",""1"",""2348""
","
","
","""event"",""trial"",""time""
""fullscreenenter"",""1"",""2348""
","
","","","-1","","","18","12596","5371","&#9761;","elianto","#3366ff99","-1","-1","1","+10","[]","0","0","2","","","","","","","",""
"pit-trial","52","465559","0.0-2.0-11.3-0.3","battery-v0.2","","""event"",""trial"",""time""
""fullscreenenter"",""1"",""2348""
","
","
","""event"",""trial"",""time""
""fullscreenenter"",""1"",""2348""
","
","","","-1","","","18","12596","5371","&#9761;","elianto","#3366ff99","-1","-1","1","+10","[]","0","0","2","","","","","","","",""
"pit-trial","53","470419","0.0-2.0-11.3-1.3","battery-v0.2","","""event"",""trial"",""time""
""fullscreenenter"",""1"",""2348""
","
","
","""event"",""trial"",""time""
""fullscreenenter"",""1"",""2348""
","
","","","-1","","","18","12596","5371","&#9761;","elianto","#3366ff99","-1","-1","1","+10","[]","0","0","2","","","","","","","",""
"pit-trial","54","475284","0.0-2.0-11.3-2.3","battery-v0.2","","""event"",""trial"",""time""
""fullscreenenter"",""1"",""2348""
","
","
","""event"",""trial"",""time""
""fullscreenenter"",""1"",""2348""
","
","","","-1","","","18","12596","5371","&#9761;","elianto","#3366ff99","-1","-1","1","+10","[]","0","0","2","","","","","","","",""
"pit-trial","55","480148","0.0-2.0-11.3-3.3","battery-v0.2","","""event"",""trial"",""time""
""fullscreenenter"",""1"",""2348""
","
","
","""event"",""trial"",""time""
""fullscreenenter"",""1"",""2348""
","
","","","-1","","","18","12596","5371","&#9761;","elianto","#3366ff99","-1","-1","1","0","[]","0","0","2","","","","","","","",""
"pit-trial","56","485010","0.0-2.0-11.3-4.3","battery-v0.2","","""event"",""trial"",""time""
""fullscreenenter"",""1"",""2348""
","
","
","""event"",""trial"",""time""
""fullscreenenter"",""1"",""2348""
","
","","","-1","","","18","12596","5371","&#9761;","elianto","#3366ff99","-1","-1","1","+10","[]","0","0","2","","","","","","","",""
"call-function","57","485013","0.0-2.0-12.0","battery-v0.2","","""event"",""trial"",""time""
""fullscreenenter"",""1"",""2348""
","
","
","""event"",""trial"",""time""
""fullscreenenter"",""1"",""2348""
","
","","","","","","","","","","","","","","","","","","","","","","","","","","",""
"pit-instructions","58","542217","0.0-2.0-13.0","battery-v0.2","","""event"",""trial"",""time""
""fullscreenenter"",""1"",""2348""
","
","
","""event"",""trial"",""time""
""fullscreenenter"",""1"",""2348""
","
","","[{""page_index"":0,""viewing_time"":17918.69999998808},{""page_index"":1,""viewing_time"":16333},{""page_index"":2,""viewing_time"":5167.5},{""page_index"":3,""viewing_time"":12070.100000023842},{""page_index"":4,""viewing_time"":5713.899999976158}]","57204","","","","","","","","","","","","","","","","","","","","","","","",""
"pit-trial","59","545406","0.0-2.0-14.0-0.0","battery-v0.2","","""event"",""trial"",""time""
""fullscreenenter"",""1"",""2348""
","
","
","""event"",""trial"",""time""
""fullscreenenter"",""1"",""2348""
","
","","","332.19999998807907","","","18","12596","5371","&#9826;","elianto","#f73b6a7A","-1"," ","0","-10","[1182.300000011921]","1","0","3","","","","","","","",""
"pit-trial","60","548615","0.0-2.0-14.0-1.0","battery-v0.2","","""event"",""trial"",""time""
""fullscreenenter"",""1"",""2348""
","
","
","""event"",""trial"",""time""
""fullscreenenter"",""1"",""2348""
","
","","","347.69999998807907","","","18","12596","5371","&#9826;","elianto","#f73b6a7A","-1"," ","0","-10","[1199.699999988079]","1","0","3","","","","","","","",""
"pit-trial","61","553471","0.0-2.0-14.0-2.0","battery-v0.2","","""event"",""trial"",""time""
""fullscreenenter"",""1"",""2348""
","
","
","""event"",""trial"",""time""
""fullscreenenter"",""1"",""2348""
","
","","","-1","","","18","12596","5371","&#9826;","elianto","#f73b6a7A","-1","-1","1","0","[]","0","0","3","","","","","","","",""
"pit-trial","62","558332","0.0-2.0-14.0-3.0","battery-v0.2","","""event"",""trial"",""time""
""fullscreenenter"",""1"",""2348""
","
","
","""event"",""trial"",""time""
""fullscreenenter"",""1"",""2348""
","
","","","-1","","","18","12596","5371","&#9826;","elianto","#f73b6a7A","-1","-1","1","-10","[]","0","0","3","","","","","","","",""
"pit-trial","63","563196","0.0-2.0-14.0-4.0","battery-v0.2","","""event"",""trial"",""time""
""fullscreenenter"",""1"",""2348""
","
","
","""event"",""trial"",""time""
""fullscreenenter"",""1"",""2348""
","
","","","-1","","","18","12596","5371","&#9826;","elianto","#f73b6a7A","-1","-1","1","0","[]","0","0","3","","","","","","","",""
"pit-trial","64","568062","0.0-2.0-14.1-0.1","battery-v0.2","","""event"",""trial"",""time""
""fullscreenenter"",""1"",""2348""
","
","
","""event"",""trial"",""time""
""fullscreenenter"",""1"",""2348""
","
","","","-1","","","18","12596","5371","&#9826;","elianto","#f73b6a7A","-1","-1","1","0","[]","0","0","3","","","","","","","",""
"pit-trial","65","572925","0.0-2.0-14.1-1.1","battery-v0.2","","""event"",""trial"",""time""
""fullscreenenter"",""1"",""2348""
","
","
","""event"",""trial"",""time""
""fullscreenenter"",""1"",""2348""
","
","","","-1","","","18","12596","5371","&#9826;","elianto","#f73b6a7A","-1","-1","1","0","[]","0","0","3","","","","","","","",""
"pit-trial","66","577786","0.0-2.0-14.1-2.1","battery-v0.2","","""event"",""trial"",""time""
""fullscreenenter"",""1"",""2348""
","
","
","""event"",""trial"",""time""
""fullscreenenter"",""1"",""2348""
","
","","","-1","","","18","12596","5371","&#9826;","elianto","#f73b6a7A","-1","-1","1","0","[]","0","0","3","","","","","","","",""
"pit-trial","67","582644","0.0-2.0-14.1-3.1","battery-v0.2","","""event"",""trial"",""time""
""fullscreenenter"",""1"",""2348""
","
","
","""event"",""trial"",""time""
""fullscreenenter"",""1"",""2348""
","
","","","-1","","","18","12596","5371","&#9826;","elianto","#f73b6a7A","-1","-1","1","-10","[]","0","0","3","","","","","","","",""
"pit-trial","68","587509","0.0-2.0-14.1-4.1","battery-v0.2","","""event"",""trial"",""time""
""fullscreenenter"",""1"",""2348""
","
","
","""event"",""trial"",""time""
""fullscreenenter"",""1"",""2348""
","
","","","-1","","","18","12596","5371","&#9826;","elianto","#f73b6a7A","-1","-1","1","0","[]","0","0","3","","","","","","","",""
"pit-trial","69","592372","0.0-2.0-14.2-0.2","battery-v0.2","","""event"",""trial"",""time""
""fullscreenenter"",""1"",""2348""
","
","
","""event"",""trial"",""time""
""fullscreenenter"",""1"",""2348""
","
","","","-1","","","18","12596","5371","&#9826;","elianto","#f73b6a7A","-1","-1","1","0","[]","0","0","3","","","","","","","",""
"pit-trial","70","597235","0.0-2.0-14.2-1.2","battery-v0.2","","""event"",""trial"",""time""
""fullscreenenter"",""1"",""2348""
","
","
","""event"",""trial"",""time""
""fullscreenenter"",""1"",""2348""
","
","","","-1","","","18","12596","5371","&#9826;","elianto","#f73b6a7A","-1","-1","1","0","[]","0","0","3","","","","","","","",""
"pit-trial","71","602096","0.0-2.0-14.2-2.2","battery-v0.2","","""event"",""trial"",""time""
""fullscreenenter"",""1"",""2348""
","
","
","""event"",""trial"",""time""
""fullscreenenter"",""1"",""2348""
","
","","","-1","","","18","12596","5371","&#9826;","elianto","#f73b6a7A","-1","-1","1","0","[]","0","0","3","","","","","","","",""
"pit-trial","72","606961","0.0-2.0-14.2-3.2","battery-v0.2","","""event"",""trial"",""time""
""fullscreenenter"",""1"",""2348""
","
","
","""event"",""trial"",""time""
""fullscreenenter"",""1"",""2348""
","
","","","-1","","","18","12596","5371","&#9826;","elianto","#f73b6a7A","-1","-1","1","-10","[]","0","0","3","","","","","","","",""
"pit-trial","73","611822","0.0-2.0-14.2-4.2","battery-v0.2","","""event"",""trial"",""time""
""fullscreenenter"",""1"",""2348""
","
","
","""event"",""trial"",""time""
""fullscreenenter"",""1"",""2348""
","
","","","-1","","","18","12596","5371","&#9826;","elianto","#f73b6a7A","-1","-1","1","0","[]","0","0","3","","","","","","","",""
"pit-trial","74","616686","0.0-2.0-14.3-0.3","battery-v0.2","","""event"",""trial"",""time""
""fullscreenenter"",""1"",""2348""
","
","
","""event"",""trial"",""time""
""fullscreenenter"",""1"",""2348""
","
","","","-1","","","18","12596","5371","&#9826;","elianto","#f73b6a7A","-1","-1","1","0","[]","0","0","3","","","","","","","",""
"pit-trial","75","621550","0.0-2.0-14.3-1.3","battery-v0.2","","""event"",""trial"",""time""
""fullscreenenter"",""1"",""2348""
","
","
","""event"",""trial"",""time""
""fullscreenenter"",""1"",""2348""
","
","","","-1","","","18","12596","5371","&#9826;","elianto","#f73b6a7A","-1","-1","1","0","[]","0","0","3","","","","","","","",""
"pit-trial","76","626415","0.0-2.0-14.3-2.3","battery-v0.2","","""event"",""trial"",""time""
""fullscreenenter"",""1"",""2348""
","
","
","""event"",""trial"",""time""
""fullscreenenter"",""1"",""2348""
","
","","","-1","","","18","12596","5371","&#9826;","elianto","#f73b6a7A","-1","-1","1","0","[]","0","0","3","","","","","","","",""
"pit-trial","77","631280","0.0-2.0-14.3-3.3","battery-v0.2","","""event"",""trial"",""time""
""fullscreenenter"",""1"",""2348""
","
","
","""event"",""trial"",""time""
""fullscreenenter"",""1"",""2348""
","
","","","-1","","","18","12596","5371","&#9826;","elianto","#f73b6a7A","-1","-1","1","-10","[]","0","0","3","","","","","","","",""
"pit-trial","78","636145","0.0-2.0-14.3-4.3","battery-v0.2","","""event"",""trial"",""time""
""fullscreenenter"",""1"",""2348""
","
","
","""event"",""trial"",""time""
""fullscreenenter"",""1"",""2348""
","
","","","-1","","","18","12596","5371","&#9826;","elianto","#f73b6a7A","-1","-1","1","0","[]","0","0","3","","","","","","","",""
"call-function","79","636149","0.0-2.0-15.0","battery-v0.2","","""event"",""trial"",""time""
""fullscreenenter"",""1"",""2348""
","
","
","""event"",""trial"",""time""
""fullscreenenter"",""1"",""2348""
","
","","","","","","","","","","","","","","","","","","","","","","","","","","",""
"pit-instructions","80","662215","0.0-2.0-16.0","battery-v0.2","","""event"",""trial"",""time""
""fullscreenenter"",""1"",""2348""
","
","
","""event"",""trial"",""time""
""fullscreenenter"",""1"",""2348""
","
","","[{""page_index"":0,""viewing_time"":6548.700000017881},{""page_index"":1,""viewing_time"":8450.699999988079},{""page_index"":2,""viewing_time"":5423.9000000059605},{""page_index"":3,""viewing_time"":5642.5}]","26066.40000000596","","","","","","","","","","","","","","","","","","","","","","","",""
"pit-trial","81","665377","0.0-2.0-17.0-0.0","battery-v0.2","","""event"",""trial"",""time""
""fullscreenenter"",""1"",""2348""
","
","
","""event"",""trial"",""time""
""fullscreenenter"",""1"",""2348""
","
","","","301.7000000178814","","","18","12596","5371","&#9789;","elianto","#f73b6a7A"," "," ","1","0","[1153]","1","0","4","","","","","","","",""
"pit-trial","82","668970","0.0-2.0-17.0-1.0","battery-v0.2","","""event"",""trial"",""time""
""fullscreenenter"",""1"",""2348""
","
","
","""event"",""trial"",""time""
""fullscreenenter"",""1"",""2348""
","
","","","735.6999999880791","","","18","12596","5371","&#9789;","elianto","#f73b6a7A"," "," ","1","0","[1586]","1","0","4","","","","","","","",""
"pit-trial","83","672445","0.0-2.0-17.0-2.0","battery-v0.2","","""event"",""trial"",""time""
""fullscreenenter"",""1"",""2348""
","
","
","""event"",""trial"",""time""
""fullscreenenter"",""1"",""2348""
","
","","","614.2999999821186","","","18","12596","5371","&#9789;","elianto","#f73b6a7A"," "," ","1","0","[1465.9000000059605]","1","0","4","","","","","","","",""
"pit-trial","84","675627","0.0-2.0-17.0-3.0","battery-v0.2","","""event"",""trial"",""time""
""fullscreenenter"",""1"",""2348""
","
","
","""event"",""trial"",""time""
""fullscreenenter"",""1"",""2348""
","
","","","325.40000000596046","","","18","12596","5371","&#9789;","elianto","#f73b6a7A"," "," ","1","-10","[1177.5]","1","0","4","","","","","","","",""
"pit-trial","85","678683","0.0-2.0-17.0-4.0","battery-v0.2","","""event"",""trial"",""time""
""fullscreenenter"",""1"",""2348""
","
","
","""event"",""trial"",""time""
""fullscreenenter"",""1"",""2348""
","
","","","195.89999997615814","","","18","12596","5371","&#9789;","elianto","#f73b6a7A"," "," ","1","0","[1047.0999999940395]","1","0","4","","","","","","","",""
"pit-trial","86","681722","0.0-2.0-17.1-0.1","battery-v0.2","","""event"",""trial"",""time""
""fullscreenenter"",""1"",""2348""
","
","
","""event"",""trial"",""time""
""fullscreenenter"",""1"",""2348""
","
","","","180.5","","","18","12596","5371","&#9789;","elianto","#f73b6a7A"," "," ","1","0","[1032.2999999821186]","1","0","4","","","","","","","",""
"pit-trial","87","684888","0.0-2.0-17.1-1.1","battery-v0.2","","""event"",""trial"",""time""
""fullscreenenter"",""1"",""2348""
","
","
","""event"",""trial"",""time""
""fullscreenenter"",""1"",""2348""
","
","","","305.69999998807907","","","18","12596","5371","&#9789;","elianto","#f73b6a7A"," "," ","1","0","[1158]","1","0","4","","","","","","","",""
"pit-trial","88","687945","0.0-2.0-17.1-2.1","battery-v0.2","","""event"",""trial"",""time""
""fullscreenenter"",""1"",""2348""
","
","
","""event"",""trial"",""time""
""fullscreenenter"",""1"",""2348""
","
","","","198.40000000596046","","","18","12596","5371","&#9789;","elianto","#f73b6a7A"," "," ","1","0","[1051.6000000238419]","1","0","4","","","","","","","",""
"pit-trial","89","690970","0.0-2.0-17.1-3.1","battery-v0.2","","""event"",""trial"",""time""
""fullscreenenter"",""1"",""2348""
","
","
","""event"",""trial"",""time""
""fullscreenenter"",""1"",""2348""
","
","","","168.90000000596046","","","18","12596","5371","&#9789;","elianto","#f73b6a7A"," "," ","1","-10","[1020.4000000059605]","1","0","4","","","","","","","",""
"pit-trial","90","694035","0.0-2.0-17.1-4.1","battery-v0.2","","""event"",""trial"",""time""
""fullscreenenter"",""1"",""2348""
","
","
","""event"",""trial"",""time""
""fullscreenenter"",""1"",""2348""
","
","","","203.10000002384186","","","18","12596","5371","&#9789;","elianto","#f73b6a7A"," "," ","1","0","[1055.7000000178814]","1","0","4","","","","","","","",""
"pit-trial","91","696971","0.0-2.0-17.2-0.2","battery-v0.2","","""event"",""trial"",""time""
""fullscreenenter"",""1"",""2348""
","
","
","""event"",""trial"",""time""
""fullscreenenter"",""1"",""2348""
","
","","","80.2999999821186","","","18","12596","5371","&#9789;","elianto","#f73b6a7A"," "," ","1","0","[931.5999999940395]","1","0","4","","","","","","","",""
"pit-trial","92","700053","0.0-2.0-17.2-1.2","battery-v0.2","","""event"",""trial"",""time""
""fullscreenenter"",""1"",""2348""
","
","
","""event"",""trial"",""time""
""fullscreenenter"",""1"",""2348""
","
","","","225.30000001192093","","","18","12596","5371","&#9789;","elianto","#f73b6a7A"," "," ","1","0","[1077.800000011921]","1","0","4","","","","","","","",""
"pit-trial","93","703072","0.0-2.0-17.2-2.2","battery-v0.2","","""event"",""trial"",""time""
""fullscreenenter"",""1"",""2348""
","
","
","""event"",""trial"",""time""
""fullscreenenter"",""1"",""2348""
","
","","","161.19999998807907","","","18","12596","5371","&#9789;","elianto","#f73b6a7A"," "," ","1","0","[1013.5]","1","0","4","","","","","","","",""
"pit-trial","94","706374","0.0-2.0-17.2-3.2","battery-v0.2","","""event"",""trial"",""time""
""fullscreenenter"",""1"",""2348""
","
","
","""event"",""trial"",""time""
""fullscreenenter"",""1"",""2348""
","
","","","439.40000000596046","","","18","12596","5371","&#9789;","elianto","#f73b6a7A"," "," ","1","-10","[1292.5]","1","0","4","","","","","","","",""
"pit-trial","95","709651","0.0-2.0-17.2-4.2","battery-v0.2","","""event"",""trial"",""time""
""fullscreenenter"",""1"",""2348""
","
","
","""event"",""trial"",""time""
""fullscreenenter"",""1"",""2348""
","
","","","414.2999999821186","","","18","12596","5371","&#9789;","elianto","#f73b6a7A"," "," ","1","0","[1267.800000011921]","1","0","4","","","","","","","",""
"pit-trial","96","712754","0.0-2.0-17.3-0.3","battery-v0.2","","""event"",""trial"",""time""
""fullscreenenter"",""1"",""2348""
","
","
","""event"",""trial"",""time""
""fullscreenenter"",""1"",""2348""
","
","","","240.09999999403954","","","18","12596","5371","&#9789;","elianto","#f73b6a7A"," "," ","1","0","[1093.199999988079]","1","0","4","","","","","","","",""
"pit-trial","97","716302","0.0-2.0-17.3-1.3","battery-v0.2","","""event"",""trial"",""time""
""fullscreenenter"",""1"",""2348""
","
","
","""event"",""trial"",""time""
""fullscreenenter"",""1"",""2348""
","
","","","689.1999999880791","","","18","12596","5371","&#9789;","elianto","#f73b6a7A"," "," ","1","0","[1539.5]","1","0","4","","","","","","","",""
"pit-trial","98","719470","0.0-2.0-17.3-2.3","battery-v0.2","","""event"",""trial"",""time""
""fullscreenenter"",""1"",""2348""
","
","
","""event"",""trial"",""time""
""fullscreenenter"",""1"",""2348""
","
","","","309.5","","","18","12596","5371","&#9789;","elianto","#f73b6a7A"," "," ","1","0","[1162.0999999940395]","1","0","4","","","","","","","",""
"pit-trial","99","722670","0.0-2.0-17.3-3.3","battery-v0.2","","""event"",""trial"",""time""
""fullscreenenter"",""1"",""2348""
","
","
","""event"",""trial"",""time""
""fullscreenenter"",""1"",""2348""
","
","","","341.30000001192093","","","18","12596","5371","&#9789;","elianto","#f73b6a7A"," "," ","1","-10","[1193.5999999940395]","1","0","4","","","","","","","",""
"pit-trial","100","725800","0.0-2.0-17.3-4.3","battery-v0.2","","""event"",""trial"",""time""
""fullscreenenter"",""1"",""2348""
","
","
","""event"",""trial"",""time""
""fullscreenenter"",""1"",""2348""
","
","","","272.90000000596046","","","18","12596","5371","&#9789;","elianto","#f73b6a7A"," "," ","1","0","[1125.5]","1","0","4","","","","","","","",""
"call-function","101","725804","0.0-2.0-18.0","battery-v0.2","","""event"",""trial"",""time""
""fullscreenenter"",""1"",""2348""
","
","
","""event"",""trial"",""time""
""fullscreenenter"",""1"",""2348""
","
","","","","","","","","","","","","","","","","","","","","","","","","","","",""
"pit-instructions","102","821232","0.0-2.0-19.0","battery-v0.2","","""event"",""trial"",""time""
""fullscreenenter"",""1"",""2348""
","
","
","""event"",""trial"",""time""
""fullscreenenter"",""1"",""2348""
","
","","[{""page_index"":0,""viewing_time"":6660.800000011921},{""page_index"":1,""viewing_time"":6399.299999982119},{""page_index"":2,""viewing_time"":29485.09999999404},{""page_index"":3,""viewing_time"":16068.100000023842},{""page_index"":4,""viewing_time"":9181.899999976158},{""page_index"":5,""viewing_time"":8216.600000023842},{""page_index"":6,""viewing_time"":8150.699999988079},{""page_index"":7,""viewing_time"":6549.5999999940395},{""page_index"":8,""viewing_time"":4717.200000017881}]","95430.40000000596","","","","","","","","","","","","","","","","","","","","","","","",""
"pit-comprehension","103","826000","0.0-2.0-20.0-0.0","battery-v0.2","","""event"",""trial"",""time""
""fullscreenenter"",""1"",""2348""
","
","
","""event"",""trial"",""time""
""fullscreenenter"",""1"",""2348""
","
","","","4762","[""SPACE""]","0","18","12596","5371","","","","","","","","","","","","","","","","","","",""
"pit-instructions","104","828798","0.0-2.0-20.0-1.0","battery-v0.2","","""event"",""trial"",""time""
""fullscreenenter"",""1"",""2348""
","
","
","""event"",""trial"",""time""
""fullscreenenter"",""1"",""2348""
","
","","[{""page_index"":0,""viewing_time"":2769.2000000178814}]","2769.7000000178814","","","","","","","","","","","","","","","","","","","","","","","",""
"pit-comprehension","105","833712","0.0-2.0-21.0-0.0","battery-v0.2","","""event"",""trial"",""time""
""fullscreenenter"",""1"",""2348""
","
","
","""event"",""trial"",""time""
""fullscreenenter"",""1"",""2348""
","
","","","4911.0999999940395","[""10""]","0","18","12596","5371","","","","","","","","","","","","","","","","","","",""
"pit-instructions","106","835498","0.0-2.0-21.0-1.0","battery-v0.2","","""event"",""trial"",""time""
""fullscreenenter"",""1"",""2348""
","
","
","""event"",""trial"",""time""
""fullscreenenter"",""1"",""2348""
","
","","[{""page_index"":0,""viewing_time"":1760.300000011921}]","1760.9000000059605","","","","","","","","","","","","","","","","","","","","","","","",""
"pit-comprehension","107","842049","0.0-2.0-22.0-0.0","battery-v0.2","","""event"",""trial"",""time""
""fullscreenenter"",""1"",""2348""
","
","
","""event"",""trial"",""time""
""fullscreenenter"",""1"",""2348""
","
","","","6545.9000000059605","[""-10""]","1","18","12596","5371","","","","","","","","","","","","","","","","","","",""
"pit-instructions","108","846715","0.0-2.0-22.0-1.0","battery-v0.2","","""event"",""trial"",""time""
""fullscreenenter"",""1"",""2348""
","
","
","""event"",""trial"",""time""
""fullscreenenter"",""1"",""2348""
","
","","[{""page_index"":0,""viewing_time"":4640.800000011921}]","4641.4000000059605","","","","","","","","","","","","","","","","","","","","","","","",""
"pit-instructions","109","849630","0.0-2.0-22.0-2.0-0.0","battery-v0.2","","""event"",""trial"",""time""
""fullscreenenter"",""1"",""2348""
","
","
","""event"",""trial"",""time""
""fullscreenenter"",""1"",""2348""
","
","","[{""page_index"":0,""viewing_time"":2911.5}]","2912","","","","","","","","","","","","","","","","","","","","","","","",""
"pit-comprehension","110","856082","0.0-2.0-22.1-0.1","battery-v0.2","","""event"",""trial"",""time""
""fullscreenenter"",""1"",""2348""
","
","
","""event"",""trial"",""time""
""fullscreenenter"",""1"",""2348""
","
","","","6447.4000000059605","[""0""]","0","18","12596","5371","","","","","","","","","","","","","","","","","","",""
"pit-instructions","111","859831","0.0-2.0-22.1-1.1","battery-v0.2","","""event"",""trial"",""time""
""fullscreenenter"",""1"",""2348""
","
","
","""event"",""trial"",""time""
""fullscreenenter"",""1"",""2348""
","
","","[{""page_index"":0,""viewing_time"":3719.5}]","3720","","","","","","","","","","","","","","","","","","","","","","","",""
"pit-comprehension","112","868767","0.0-2.0-23.0-0.0","battery-v0.2","","""event"",""trial"",""time""
""fullscreenenter"",""1"",""2348""
","
","
","""event"",""trial"",""time""
""fullscreenenter"",""1"",""2348""
","
","","","8930.799999982119","[""True""]","0","18","12596","5371","","","","","","","","","","","","","","","","","","",""
"pit-instructions","113","872132","0.0-2.0-23.0-1.0","battery-v0.2","","""event"",""trial"",""time""
""fullscreenenter"",""1"",""2348""
","
","
","""event"",""trial"",""time""
""fullscreenenter"",""1"",""2348""
","
","","[{""page_index"":0,""viewing_time"":3335.0999999940395}]","3335.699999988079","","","","","","","","","","","","","","","","","","","","","","","",""
"pit-comprehension","114","879584","0.0-2.0-24.0-0.0","battery-v0.2","","""event"",""trial"",""time""
""fullscreenenter"",""1"",""2348""
","
","
","""event"",""trial"",""time""
""fullscreenenter"",""1"",""2348""
","
","","","7446.800000011921","[""True""]","0","18","12596","5371","","","","","","","","","","","","","","","","","","",""
"pit-instructions","115","881514","0.0-2.0-24.0-1.0","battery-v0.2","","""event"",""trial"",""time""
""fullscreenenter"",""1"",""2348""
","
","
","""event"",""trial"",""time""
""fullscreenenter"",""1"",""2348""
","
","","[{""page_index"":0,""viewing_time"":1904.300000011921}]","1904.800000011921","","","","","","","","","","","","","","","","","","","","","","","",""
"pit-comprehension","116","887917","0.0-2.0-25.0-0.0","battery-v0.2","","""event"",""trial"",""time""
""fullscreenenter"",""1"",""2348""
","
","
","""event"",""trial"",""time""
""fullscreenenter"",""1"",""2348""
","
","","","6397.800000011921","[""True""]","0","18","12596","5371","","","","","","","","","","","","","","","","","","",""
"pit-instructions","117","892148","0.0-2.0-25.0-1.0","battery-v0.2","","""event"",""trial"",""time""
""fullscreenenter"",""1"",""2348""
","
","
","""event"",""trial"",""time""
""fullscreenenter"",""1"",""2348""
","
","","[{""page_index"":0,""viewing_time"":4199.899999976158}]","4200.399999976158","","","","","","","","","","","","","","","","","","","","","","","",""
"pit-comprehension","118","896749","0.0-2.0-26.0-0.0","battery-v0.2","","""event"",""trial"",""time""
""fullscreenenter"",""1"",""2348""
","
","
","""event"",""trial"",""time""
""fullscreenenter"",""1"",""2348""
","
","","","4595.9000000059605","[""False""]","0","18","12596","5371","","","","","","","","","","","","","","","","","","",""
"pit-instructions","119","898864","0.0-2.0-26.0-1.0","battery-v0.2","","""event"",""trial"",""time""
""fullscreenenter"",""1"",""2348""
","
","
","""event"",""trial"",""time""
""fullscreenenter"",""1"",""2348""
","
","","[{""page_index"":0,""viewing_time"":2082.800000011921}]","2083.4000000059605","","","","","","","","","","","","","","","","","","","","","","","",""
"pit-instructions","120","915014","0.0-3.0","battery-v0.2","","""event"",""trial"",""time""
""fullscreenenter"",""1"",""2348""
","
","
","""event"",""trial"",""time""
""fullscreenenter"",""1"",""2348""
","
","","[{""page_index"":0,""viewing_time"":4046.2999999821186},{""page_index"":1,""viewing_time"":5882},{""page_index"":2,""viewing_time"":6217.4000000059605}]","16146.5","","","","","","","","","","","","","","","","","","","","","","","",""
"pit-trial","121","918490","0.0-4.0","battery-v0.2","","""event"",""trial"",""time""
""fullscreenenter"",""1"",""2348""
","
","
","""event"",""trial"",""time""
""fullscreenenter"",""1"",""2348""
","
","","","608.4000000059605","","","18","12596","5371","&#9728;","elianto","#f73b6a7A","-1"," ","0","0","[1460.6000000238419]","1","1","","","12596","1","0","4","lose","no-go","1"
"pit-trial","122","921959","0.0-5.0","battery-v0.2","","""event"",""trial"",""time""
""fullscreenenter"",""1"",""2348""
","
","
","""event"",""trial"",""time""
""fullscreenenter"",""1"",""2348""
","
","","","607.6000000238419","","","18","12596","5371","&#9733;","elianto","#3366ff99","-1"," ","0","0","[1459.5]","1","1","","","12596","2","2","2","win","no-go","0"
"pit-trial","123","925565","0.0-6.0","battery-v0.2","","""event"",""trial"",""time""
""fullscreenenter"",""1"",""2348""
","
","
","""event"",""trial"",""time""
""fullscreenenter"",""1"",""2348""
","
","","","745.6999999880791","","","18","12596","5371","&#9752;","elianto","#f73b6a7A"," "," ","1","0","[1596.5]","1","1","","","12596","3","3","3","lose","go","0"
"pit-trial","124","928961","0.0-7.0","battery-v0.2","","""event"",""trial"",""time""
""fullscreenenter"",""1"",""2348""
","
","
","""event"",""trial"",""time""
""fullscreenenter"",""1"",""2348""
","
","","","537.5","","","18","12596","5371","&#9730;","elianto","#3366ff99"," "," ","1","+10","[1390.300000011921]","1","1","","","12596","4","1","1","win","go","0"
"pit-trial","125","932354","0.0-8.0","battery-v0.2","","""event"",""trial"",""time""
""fullscreenenter"",""1"",""2348""
","
","
","""event"",""trial"",""time""
""fullscreenenter"",""1"",""2348""
","
","","","538.0999999940395","","","18","12596","5371","&#9730;","elianto","#3366ff99"," "," ","1","+10","[1388.0999999940395]","1","1","","","12596","5","1","1","win","go","0"
"pit-trial","126","935707","0.0-9.0","battery-v0.2","","""event"",""trial"",""time""
""fullscreenenter"",""1"",""2348""
","
","
","""event"",""trial"",""time""
""fullscreenenter"",""1"",""2348""
","
","","","489.59999999403954","","","18","12596","5371","&#9733;","elianto","#3366ff99","-1"," ","0","0","[1343.0999999940395]","1","1","","","12596","6","2","2","win","no-go","0"
"pit-trial","127","939017","0.0-10.0","battery-v0.2","","""event"",""trial"",""time""
""fullscreenenter"",""1"",""2348""
","
","
","""event"",""trial"",""time""
""fullscreenenter"",""1"",""2348""
","
","","","446.5","","","18","12596","5371","&#9752;","elianto","#f73b6a7A"," "," ","1","0","[1300.7999999821186]","1","1","","","12596","7","3","3","lose","go","0"
"pit-trial","128","942252","0.0-11.0","battery-v0.2","","""event"",""trial"",""time""
""fullscreenenter"",""1"",""2348""
","
","
","""event"",""trial"",""time""
""fullscreenenter"",""1"",""2348""
","
","","","373.5","","","18","12596","5371","&#9728;","elianto","#f73b6a7A","-1"," ","0","-10","[1225.199999988079]","1","1","","","12596","8","0","4","lose","no-go","0"
"pit-trial","129","945256","0.0-12.0","battery-v0.2","","""event"",""trial"",""time""
""fullscreenenter"",""1"",""2348""
","
","
","""event"",""trial"",""time""
""fullscreenenter"",""1"",""2348""
","
","","","141.2000000178814","","","18","12596","5371","&#9730;","elianto","#3366ff99"," "," ","1","0","[994.2000000178814]","1","1","","","12596","9","1","1","win","go","1"
"pit-trial","130","948480","0.0-13.0","battery-v0.2","","""event"",""trial"",""time""
""fullscreenenter"",""1"",""2348""
","
","
","""event"",""trial"",""time""
""fullscreenenter"",""1"",""2348""
","
","","","363.30000001192093","","","18","12596","5371","&#9752;","elianto","#f73b6a7A"," "," ","1","-10","[1214.5999999940395]","1","1","","","12596","10","3","3","lose","go","1"
"pit-trial","131","951644","0.0-14.0","battery-v0.2","","""event"",""trial"",""time""
""fullscreenenter"",""1"",""2348""
","
","
","""event"",""trial"",""time""
""fullscreenenter"",""1"",""2348""
","
","","","306.5","","","18","12596","5371","&#9733;","elianto","#3366ff99","-1"," ","0","0","[1157.7000000178814]","1","1","","","12596","11","2","2","win","no-go","0"
"pit-trial","132","954849","0.0-15.0","battery-v0.2","","""event"",""trial"",""time""
""fullscreenenter"",""1"",""2348""
","
","
","""event"",""trial"",""time""
""fullscreenenter"",""1"",""2348""
","
","","","347.19999998807907","","","18","12596","5371","&#9728;","elianto","#f73b6a7A","-1"," ","0","0","[1198.5]","1","1","","","12596","12","0","4","lose","no-go","1"
"pit-trial","133","957824","0.0-16.0","battery-v0.2","","""event"",""trial"",""time""
""fullscreenenter"",""1"",""2348""
","
","
","""event"",""trial"",""time""
""fullscreenenter"",""1"",""2348""
","
","","","116.89999997615814","","","18","12596","5371","&#9752;","elianto","#f73b6a7A"," "," ","1","0","[968]","1","1","","","12596","13","3","3","lose","go","0"
"pit-trial","134","961003","0.0-17.0","battery-v0.2","","""event"",""trial"",""time""
""fullscreenenter"",""1"",""2348""
","
","
","""event"",""trial"",""time""
""fullscreenenter"",""1"",""2348""
","
","","","318.2000000178814","","","18","12596","5371","&#9728;","elianto","#f73b6a7A","-1"," ","0","-10","[1169.2999999821186]","1","1","","","12596","14","0","4","lose","no-go","0"
"pit-trial","135","964283","0.0-18.0","battery-v0.2","","""event"",""trial"",""time""
""fullscreenenter"",""1"",""2348""
","
","
","""event"",""trial"",""time""
""fullscreenenter"",""1"",""2348""
","
","","","418.90000000596046","","","18","12596","5371","&#9733;","elianto","#3366ff99","-1"," ","0","+10","[1271]","1","1","","","12596","15","2","2","win","no-go","1"
"pit-trial","136","967505","0.0-19.0","battery-v0.2","","""event"",""trial"",""time""
""fullscreenenter"",""1"",""2348""
","
","
","""event"",""trial"",""time""
""fullscreenenter"",""1"",""2348""
","
","","","361.09999999403954","","","18","12596","5371","&#9730;","elianto","#3366ff99"," "," ","1","+10","[1212.1000000238419]","1","1","","","12596","16","1","1","win","go","0"
"pit-trial","137","972371","0.0-20.0","battery-v0.2","","""event"",""trial"",""time""
""fullscreenenter"",""1"",""2348""
","
","
","""event"",""trial"",""time""
""fullscreenenter"",""1"",""2348""
","
","","","-1","","","18","12596","5371","&#9728;","elianto","#f73b6a7A","-1","-1","1","0","[]","0","1","","","12596","17","0","4","lose","no-go","0"
"pit-trial","138","975846","0.0-21.0","battery-v0.2","","""event"",""trial"",""time""
""fullscreenenter"",""1"",""2348""
","
","
","""event"",""trial"",""time""
""fullscreenenter"",""1"",""2348""
","
","","","613","","","18","12596","5371","&#9730;","elianto","#3366ff99"," "," ","1","+10","[1465.4000000059605]","1","1","","","12596","18","1","1","win","go","0"
"pit-trial","139","979233","0.0-22.0","battery-v0.2","","""event"",""trial"",""time""
""fullscreenenter"",""1"",""2348""
","
","
","""event"",""trial"",""time""
""fullscreenenter"",""1"",""2348""
","
","","","526.2999999821186","","","18","12596","5371","&#9733;","elianto","#3366ff99","-1"," ","0","+10","[1377.8999999761581]","1","1","","","12596","19","2","2","win","no-go","1"
"pit-trial","140","984095","0.0-23.0","battery-v0.2","","""event"",""trial"",""time""
""fullscreenenter"",""1"",""2348""
","
","
","""event"",""trial"",""time""
""fullscreenenter"",""1"",""2348""
","
","","","-1","","","18","12596","5371","&#9752;","elianto","#f73b6a7A"," ","-1","0","-10","[]","0","1","","","12596","20","3","3","lose","go","0"
"pit-instructions","141","996880","0.0-24.0","battery-v0.2","","""event"",""trial"",""time""
""fullscreenenter"",""1"",""2348""
","
","
","""event"",""trial"",""time""
""fullscreenenter"",""1"",""2348""
","
","","[{""page_index"":0,""viewing_time"":6000.5},{""page_index"":1,""viewing_time"":6783.0999999940395}]","12784.299999982119","","","","","","","","","","","","","","","","","","","","","","","",""
"pit-trial","142","1000665","0.0-25.0","battery-v0.2","","""event"",""trial"",""time""
""fullscreenenter"",""1"",""2348""
","
","
","""event"",""trial"",""time""
""fullscreenenter"",""1"",""2348""
","
","","","921.2999999821186","","","18","12596","5371","m","elianto","#f73b6a7A"," "," ","1","0","[1773]","1","2","","","12596","21","0","3","lose","go","0"
"pit-trial","143","1004025","0.0-26.0","battery-v0.2","","""event"",""trial"",""time""
""fullscreenenter"",""1"",""2348""
","
","
","""event"",""trial"",""time""
""fullscreenenter"",""1"",""2348""
","
","","","499.2000000178814","","","18","12596","5371","y","elianto","#f73b6a7A"," "," ","1","0","[1350.300000011921]","1","2","","","12596","22","2","3","lose","go","0"
"pit-trial","144","1007577","0.0-27.0","battery-v0.2","","""event"",""trial"",""time""
""fullscreenenter"",""1"",""2348""
","
","
","""event"",""trial"",""time""
""fullscreenenter"",""1"",""2348""
","
","","","691.3000000119209","","","18","12596","5371","h","elianto","#f73b6a7A","-1"," ","0","-10","[1543]","1","2","","","12596","23","3","4","lose","no-go","0"
"pit-trial","145","1010786","0.0-28.0","battery-v0.2","","""event"",""trial"",""time""
""fullscreenenter"",""1"",""2348""
","
","
","""event"",""trial"",""time""
""fullscreenenter"",""1"",""2348""
","
","","","348","","","18","12596","5371","r","elianto","#3366ff99","-1"," ","0","+10","[1199.0999999940395]","1","2","","","12596","24","1","2","win","no-go","1"
"pit-trial","146","1014174","0.0-29.0","battery-v0.2","","""event"",""trial"",""time""
""fullscreenenter"",""1"",""2348""
","
","
","""event"",""trial"",""time""
""fullscreenenter"",""1"",""2348""
","
","","","524.6999999880791","","","18","12596","5371","m","elianto","#f73b6a7A"," "," ","1","0","[1378]","1","2","","","12596","25","0","3","lose","go","0"
"pit-trial","147","1017690","0.0-30.0","battery-v0.2","","""event"",""trial"",""time""
""fullscreenenter"",""1"",""2348""
","
","
","""event"",""trial"",""time""
""fullscreenenter"",""1"",""2348""
","
","","","657","","","18","12596","5371","h","elianto","#f73b6a7A","-1"," ","0","0","[1509.5]","1","2","","","12596","26","3","4","lose","no-go","1"
"pit-trial","148","1021022","0.0-31.0","battery-v0.2","","""event"",""trial"",""time""
""fullscreenenter"",""1"",""2348""
","
","
","""event"",""trial"",""time""
""fullscreenenter"",""1"",""2348""
","
","","","469.5","","","18","12596","5371","y","elianto","#f73b6a7A"," "," ","1","0","[1321.699999988079]","1","2","","","12596","27","2","3","lose","go","0"
"pit-trial","149","1024342","0.0-32.0","battery-v0.2","","""event"",""trial"",""time""
""fullscreenenter"",""1"",""2348""
","
","
","""event"",""trial"",""time""
""fullscreenenter"",""1"",""2348""
","
","","","456.80000001192093","","","18","12596","5371","r","elianto","#3366ff99","-1"," ","0","0","[1310.4000000059605]","1","2","","","12596","28","1","2","win","no-go","0"
"pit-trial","150","1027641","0.0-33.0","battery-v0.2","","""event"",""trial"",""time""
""fullscreenenter"",""1"",""2348""
","
","
","""event"",""trial"",""time""
""fullscreenenter"",""1"",""2348""
","
","","","438.5","","","18","12596","5371","y","elianto","#f73b6a7A"," "," ","1","0","[1289.0999999940395]","1","2","","","12596","29","2","3","lose","go","0"
"pit-trial","151","1031047","0.0-34.0","battery-v0.2","","""event"",""trial"",""time""
""fullscreenenter"",""1"",""2348""
","
","
","""event"",""trial"",""time""
""fullscreenenter"",""1"",""2348""
","
","","","546.2000000178814","","","18","12596","5371","r","elianto","#3366ff99","-1"," ","0","0","[1397.9000000059605]","1","2","","","12596","30","1","2","win","no-go","0"
"pit-trial","152","1034383","0.0-35.0","battery-v0.2","","""event"",""trial"",""time""
""fullscreenenter"",""1"",""2348""
","
","
","""event"",""trial"",""time""
""fullscreenenter"",""1"",""2348""
","
","","","474.80000001192093","","","18","12596","5371","h","elianto","#f73b6a7A","-1"," ","0","0","[1326]","1","2","","","12596","31","3","4","lose","no-go","1"
"pit-trial","153","1037826","0.0-36.0","battery-v0.2","","""event"",""trial"",""time""
""fullscreenenter"",""1"",""2348""
","
","
","""event"",""trial"",""time""
""fullscreenenter"",""1"",""2348""
","
","","","582.4000000059605","","","18","12596","5371","m","elianto","#f73b6a7A"," "," ","1","0","[1434.2000000178814]","1","2","","","12596","32","0","3","lose","go","0"
"pit-trial","154","1041460","0.0-37.0","battery-v0.2","","""event"",""trial"",""time""
""fullscreenenter"",""1"",""2348""
","
","
","""event"",""trial"",""time""
""fullscreenenter"",""1"",""2348""
","
","","","774.2999999821186","","","18","12596","5371","h","elianto","#f73b6a7A","-1"," ","0","-10","[1624.4000000059605]","1","2","","","12596","33","3","4","lose","no-go","0"
"pit-trial","155","1044871","0.0-38.0","battery-v0.2","","""event"",""trial"",""time""
""fullscreenenter"",""1"",""2348""
","
","
","""event"",""trial"",""time""
""fullscreenenter"",""1"",""2348""
","
","","","552.6999999880791","","","18","12596","5371","y","elianto","#f73b6a7A"," "," ","1","0","[1404.0999999940395]","1","2","","","12596","34","2","3","lose","go","0"
"pit-trial","156","1049735","0.0-39.0","battery-v0.2","","""event"",""trial"",""time""
""fullscreenenter"",""1"",""2348""
","
","
","""event"",""trial"",""time""
""fullscreenenter"",""1"",""2348""
","
","","","-1","","","18","12596","5371","r","elianto","#3366ff99","-1","-1","1","+10","[]","0","2","","","12596","35","1","2","win","no-go","0"
"pit-trial","157","1053149","0.0-40.0","battery-v0.2","","""event"",""trial"",""time""
""fullscreenenter"",""1"",""2348""
","
","
","""event"",""trial"",""time""
""fullscreenenter"",""1"",""2348""
","
","","","553.9000000059605","","","18","12596","5371","m","elianto","#f73b6a7A"," "," ","1","0","[1405.7000000178814]","1","2","","","12596","36","0","3","lose","go","0"
"pit-trial","158","1058012","0.0-41.0","battery-v0.2","","""event"",""trial"",""time""
""fullscreenenter"",""1"",""2348""
","
","
","""event"",""trial"",""time""
""fullscreenenter"",""1"",""2348""
","
","","","-1","","","18","12596","5371","r","elianto","#3366ff99","-1","-1","1","+10","[]","0","2","","","12596","37","1","2","win","no-go","0"
"pit-trial","159","1061753","0.0-42.0","battery-v0.2","","""event"",""trial"",""time""
""fullscreenenter"",""1"",""2348""
","
","
","""event"",""trial"",""time""
""fullscreenenter"",""1"",""2348""
","
","","","880.7999999821186","","","18","12596","5371","y","elianto","#f73b6a7A"," "," ","1","-10","[1731.4000000059605]","1","2","","","12596","38","2","3","lose","go","1"
"pit-trial","160","1066610","0.0-43.0","battery-v0.2","","""event"",""trial"",""time""
""fullscreenenter"",""1"",""2348""
","
","
","""event"",""trial"",""time""
""fullscreenenter"",""1"",""2348""
","
","","","-1","","","18","12596","5371","h","elianto","#f73b6a7A","-1","-1","1","0","[]","0","2","","","12596","39","3","4","lose","no-go","0"
"pit-trial","161","1070086","0.0-44.0","battery-v0.2","","""event"",""trial"",""time""
""fullscreenenter"",""1"",""2348""
","
","
","""event"",""trial"",""time""
""fullscreenenter"",""1"",""2348""
","
","","","616","","","18","12596","5371","m","elianto","#f73b6a7A"," "," ","1","-10","[1467.0999999940395]","1","2","","","12596","40","0","3","lose","go","1"
"pit-trial","162","1073686","0.0-45.0","battery-v0.2","","""event"",""trial"",""time""
""fullscreenenter"",""1"",""2348""
","
","
","""event"",""trial"",""time""
""fullscreenenter"",""1"",""2348""
","
","","","737.5","","","18","12596","5371","h","elianto","#f73b6a7A","-1"," ","0","-10","[1590.2999999821186]","1","2","","","12596","41","3","4","lose","no-go","0"
"pit-trial","163","1077321","0.0-46.0","battery-v0.2","","""event"",""trial"",""time""
""fullscreenenter"",""1"",""2348""
","
","
","""event"",""trial"",""time""
""fullscreenenter"",""1"",""2348""
","
","","","772.0999999940395","","","18","12596","5371","m","elianto","#f73b6a7A"," "," ","1","0","[1625.300000011921]","1","2","","","12596","42","0","3","lose","go","0"
"pit-trial","164","1080665","0.0-47.0","battery-v0.2","","""event"",""trial"",""time""
""fullscreenenter"",""1"",""2348""
","
","
","""event"",""trial"",""time""
""fullscreenenter"",""1"",""2348""
","
","","","482","","","18","12596","5371","r","elianto","#3366ff99","-1"," ","0","0","[1334.699999988079]","1","2","","","12596","43","1","2","win","no-go","0"
"pit-trial","165","1084214","0.0-48.0","battery-v0.2","","""event"",""trial"",""time""
""fullscreenenter"",""1"",""2348""
","
","
","""event"",""trial"",""time""
""fullscreenenter"",""1"",""2348""
","
","","","689.1999999880791","","","18","12596","5371","y","elianto","#f73b6a7A"," "," ","1","0","[1540.800000011921]","1","2","","","12596","44","2","3","lose","go","0"
"pit-trial","166","1089077","0.0-49.0","battery-v0.2","","""event"",""trial"",""time""
""fullscreenenter"",""1"",""2348""
","
","
","""event"",""trial"",""time""
""fullscreenenter"",""1"",""2348""
","
","","","-1","","","18","12596","5371","h","elianto","#f73b6a7A","-1","-1","1","0","[]","0","2","","","12596","45","3","4","lose","no-go","0"
"pit-trial","167","1092841","0.0-50.0","battery-v0.2","","""event"",""trial"",""time""
""fullscreenenter"",""1"",""2348""
","
","
","""event"",""trial"",""time""
""fullscreenenter"",""1"",""2348""
","
","","","904.1999999880791","","","18","12596","5371","m","elianto","#f73b6a7A"," "," ","1","0","[1754.5]","1","2","","","12596","46","0","3","lose","go","0"
"pit-trial","168","1096553","0.0-51.0","battery-v0.2","","""event"",""trial"",""time""
""fullscreenenter"",""1"",""2348""
","
","
","""event"",""trial"",""time""
""fullscreenenter"",""1"",""2348""
","
","","","855.7000000178814","","","18","12596","5371","y","elianto","#f73b6a7A"," "," ","1","0","[1706]","1","2","","","12596","47","2","3","lose","go","0"
"pit-trial","169","1101416","0.0-52.0","battery-v0.2","","""event"",""trial"",""time""
""fullscreenenter"",""1"",""2348""
","
","
","""event"",""trial"",""time""
""fullscreenenter"",""1"",""2348""
","
","","","-1","","","18","12596","5371","r","elianto","#3366ff99","-1","-1","1","+10","[]","0","2","","","12596","48","1","2","win","no-go","0"
"pit-trial","170","1104859","0.0-53.0","battery-v0.2","","""event"",""trial"",""time""
""fullscreenenter"",""1"",""2348""
","
","
","""event"",""trial"",""time""
""fullscreenenter"",""1"",""2348""
","
","","","579.3000000119209","","","18","12596","5371","m","elianto","#f73b6a7A"," "," ","1","0","[1432.7000000178814]","1","2","","","12596","49","0","3","lose","go","0"
"pit-trial","171","1109714","0.0-54.0","battery-v0.2","","""event"",""trial"",""time""
""fullscreenenter"",""1"",""2348""
","
","
","""event"",""trial"",""time""
""fullscreenenter"",""1"",""2348""
","
","","","-1","","","18","12596","5371","r","elianto","#3366ff99","-1","-1","1","+10","[]","0","2","","","12596","50","1","2","win","no-go","0"
"pit-trial","172","1113209","0.0-55.0","battery-v0.2","","""event"",""trial"",""time""
""fullscreenenter"",""1"",""2348""
","
","
","""event"",""trial"",""time""
""fullscreenenter"",""1"",""2348""
","
","","","640.2000000178814","","","18","12596","5371","y","elianto","#f73b6a7A"," "," ","1","0","[1491.2999999821186]","1","2","","","12596","51","2","3","lose","go","0"
"pit-trial","173","1118074","0.0-56.0","battery-v0.2","","""event"",""trial"",""time""
""fullscreenenter"",""1"",""2348""
","
","
","""event"",""trial"",""time""
""fullscreenenter"",""1"",""2348""
","
","","","-1","","","18","12596","5371","h","elianto","#f73b6a7A","-1","-1","1","-10","[]","0","2","","","12596","52","3","4","lose","no-go","1"
"pit-trial","174","1121822","0.0-57.0","battery-v0.2","","""event"",""trial"",""time""
""fullscreenenter"",""1"",""2348""
","
","
","""event"",""trial"",""time""
""fullscreenenter"",""1"",""2348""
","
","","","888.3000000119209","","","18","12596","5371","y","elianto","#f73b6a7A"," "," ","1","0","[1739]","1","2","","","12596","53","2","3","lose","go","0"
"pit-trial","175","1125405","0.0-58.0","battery-v0.2","","""event"",""trial"",""time""
""fullscreenenter"",""1"",""2348""
","
","
","""event"",""trial"",""time""
""fullscreenenter"",""1"",""2348""
","
","","","722.7000000178814","","","18","12596","5371","m","elianto","#f73b6a7A"," "," ","1","0","[1573.5]","1","2","","","12596","54","0","3","lose","go","0"
"pit-trial","176","1130265","0.0-59.0","battery-v0.2","","""event"",""trial"",""time""
""fullscreenenter"",""1"",""2348""
","
","
","""event"",""trial"",""time""
""fullscreenenter"",""1"",""2348""
","
","","","-1","","","18","12596","5371","h","elianto","#f73b6a7A","-1","-1","1","-10","[]","0","2","","","12596","55","3","4","lose","no-go","1"
"pit-trial","177","1135124","0.0-60.0","battery-v0.2","","""event"",""trial"",""time""
""fullscreenenter"",""1"",""2348""
","
","
","""event"",""trial"",""time""
""fullscreenenter"",""1"",""2348""
","
","","","-1","","","18","12596","5371","r","elianto","#3366ff99","-1","-1","1","+10","[]","0","2","","","12596","56","1","2","win","no-go","0"
"pit-trial","178","1138973","0.0-61.0","battery-v0.2","","""event"",""trial"",""time""
""fullscreenenter"",""1"",""2348""
","
","
","""event"",""trial"",""time""
""fullscreenenter"",""1"",""2348""
","
","","","989.5999999940395","","","18","12596","5371","z","elianto","#3366ff99"," "," ","1","+10","[1840]","1","2","","","12596","57","4","1","win","go","0"
"pit-trial","179","1142693","0.0-62.0","battery-v0.2","","""event"",""trial"",""time""
""fullscreenenter"",""1"",""2348""
","
","
","""event"",""trial"",""time""
""fullscreenenter"",""1"",""2348""
","
","","","859","","","18","12596","5371","y","elianto","#f73b6a7A"," "," ","1","0","[1709.8999999761581]","1","2","","","12596","58","2","3","lose","go","0"
"pit-trial","180","1146282","0.0-63.0","battery-v0.2","","""event"",""trial"",""time""
""fullscreenenter"",""1"",""2348""
","
","
","""event"",""trial"",""time""
""fullscreenenter"",""1"",""2348""
","
","","","729.5999999940395","","","18","12596","5371","m","elianto","#f73b6a7A"," "," ","1","0","[1581]","1","2","","","12596","59","0","3","lose","go","0"
"pit-trial","181","1151141","0.0-64.0","battery-v0.2","","""event"",""trial"",""time""
""fullscreenenter"",""1"",""2348""
","
","
","""event"",""trial"",""time""
""fullscreenenter"",""1"",""2348""
","
","","","-1","","","18","12596","5371","h","elianto","#f73b6a7A","-1","-1","1","0","[]","0","2","","","12596","60","3","4","lose","no-go","0"
"pit-trial","182","1156006","0.0-65.0","battery-v0.2","","""event"",""trial"",""time""
""fullscreenenter"",""1"",""2348""
","
","
","""event"",""trial"",""time""
""fullscreenenter"",""1"",""2348""
","
","","","-1","","","18","12596","5371","h","elianto","#f73b6a7A","-1","-1","1","0","[]","0","2","","","12596","61","3","4","lose","no-go","0"
"pit-trial","183","1160868","0.0-66.0","battery-v0.2","","""event"",""trial"",""time""
""fullscreenenter"",""1"",""2348""
","
","
","""event"",""trial"",""time""
""fullscreenenter"",""1"",""2348""
","
","","","-1","","","18","12596","5371","r","elianto","#3366ff99","-1","-1","1","0","[]","0","2","","","12596","62","1","2","win","no-go","1"
"pit-trial","184","1165311","0.0-67.0","battery-v0.2","","""event"",""trial"",""time""
""fullscreenenter"",""1"",""2348""
","
","
","""event"",""trial"",""time""
""fullscreenenter"",""1"",""2348""
","
","","","1582.699999988079","","","18","12596","5371","y","elianto","#f73b6a7A"," "," ","1","0","[2434.300000011921]","1","2","","","12596","63","2","3","lose","go","0"
"pit-trial","185","1168949","0.0-68.0","battery-v0.2","","""event"",""trial"",""time""
""fullscreenenter"",""1"",""2348""
","
","
","""event"",""trial"",""time""
""fullscreenenter"",""1"",""2348""
","
","","","780.5","","","18","12596","5371","z","elianto","#3366ff99"," "," ","1","0","[1633.0999999940395]","1","2","","","12596","64","4","1","win","go","1"
"pit-trial","186","1172403","0.0-69.0","battery-v0.2","","""event"",""trial"",""time""
""fullscreenenter"",""1"",""2348""
","
","
","""event"",""trial"",""time""
""fullscreenenter"",""1"",""2348""
","
","","","591.1999999880791","","","18","12596","5371","z","elianto","#3366ff99"," "," ","1","+10","[1443.9000000059605]","1","2","","","12596","65","4","1","win","go","0"
"pit-trial","187","1177263","0.0-70.0","battery-v0.2","","""event"",""trial"",""time""
""fullscreenenter"",""1"",""2348""
","
","
","""event"",""trial"",""time""
""fullscreenenter"",""1"",""2348""
","
","","","-1","","","18","12596","5371","h","elianto","#f73b6a7A","-1","-1","1","0","[]","0","2","","","12596","66","3","4","lose","no-go","0"
"pit-trial","188","1182121","0.0-71.0","battery-v0.2","","""event"",""trial"",""time""
""fullscreenenter"",""1"",""2348""
","
","
","""event"",""trial"",""time""
""fullscreenenter"",""1"",""2348""
","
","","","-1","","","18","12596","5371","r","elianto","#3366ff99","-1","-1","1","+10","[]","0","2","","","12596","67","1","2","win","no-go","0"
"pit-trial","189","1185630","0.0-72.0","battery-v0.2","","""event"",""trial"",""time""
""fullscreenenter"",""1"",""2348""
","
","
","""event"",""trial"",""time""
""fullscreenenter"",""1"",""2348""
","
","","","654.7000000178814","","","18","12596","5371","c","elianto","#3366ff99","-1"," ","0","0","[1504.800000011921]","1","2","","","12596","68","5","2","win","no-go","0"
"pit-trial","190","1189287","0.0-73.0","battery-v0.2","","""event"",""trial"",""time""
""fullscreenenter"",""1"",""2348""
","
","
","""event"",""trial"",""time""
""fullscreenenter"",""1"",""2348""
","
","","","794.5999999940395","","","18","12596","5371","y","elianto","#f73b6a7A"," "," ","1","-10","[1646.9000000059605]","1","2","","","12596","69","2","3","lose","go","1"
"pit-trial","191","1192785","0.0-74.0","battery-v0.2","","""event"",""trial"",""time""
""fullscreenenter"",""1"",""2348""
","
","
","""event"",""trial"",""time""
""fullscreenenter"",""1"",""2348""
","
","","","640.8000000119209","","","18","12596","5371","z","elianto","#3366ff99"," "," ","1","+10","[1492.300000011921]","1","2","","","12596","70","4","1","win","go","0"
"pit-trial","192","1196606","0.0-75.0","battery-v0.2","","""event"",""trial"",""time""
""fullscreenenter"",""1"",""2348""
","
","
","""event"",""trial"",""time""
""fullscreenenter"",""1"",""2348""
","
","","","963.4000000059605","","","18","12596","5371","c","elianto","#3366ff99","-1"," ","0","+10","[1814.5999999940395]","1","2","","","12596","71","5","2","win","no-go","1"
"pit-trial","193","1201471","0.0-76.0","battery-v0.2","","""event"",""trial"",""time""
""fullscreenenter"",""1"",""2348""
","
","
","""event"",""trial"",""time""
""fullscreenenter"",""1"",""2348""
","
","","","-1","","","18","12596","5371","r","elianto","#3366ff99","-1","-1","1","+10","[]","0","2","","","12596","72","1","2","win","no-go","0"
"pit-trial","194","1206336","0.0-77.0","battery-v0.2","","""event"",""trial"",""time""
""fullscreenenter"",""1"",""2348""
","
","
","""event"",""trial"",""time""
""fullscreenenter"",""1"",""2348""
","
","","","-1","","","18","12596","5371","r","elianto","#3366ff99","-1","-1","1","+10","[]","0","2","","","12596","73","1","2","win","no-go","0"
"pit-trial","195","1209817","0.0-78.0","battery-v0.2","","""event"",""trial"",""time""
""fullscreenenter"",""1"",""2348""
","
","
","""event"",""trial"",""time""
""fullscreenenter"",""1"",""2348""
","
","","","623.4000000059605","","","18","12596","5371","z","elianto","#3366ff99"," "," ","1","+10","[1474.699999988079]","1","2","","","12596","74","4","1","win","go","0"
"pit-trial","196","1214683","0.0-79.0","battery-v0.2","","""event"",""trial"",""time""
""fullscreenenter"",""1"",""2348""
","
","
","""event"",""trial"",""time""
""fullscreenenter"",""1"",""2348""
","
","","","-1","","","18","12596","5371","h","elianto","#f73b6a7A","-1","-1","1","0","[]","0","2","","","12596","75","3","4","lose","no-go","0"
"pit-trial","197","1218136","0.0-80.0","battery-v0.2","","""event"",""trial"",""time""
""fullscreenenter"",""1"",""2348""
","
","
","""event"",""trial"",""time""
""fullscreenenter"",""1"",""2348""
","
","","","594.3000000119209","","","18","12596","5371","c","elianto","#3366ff99","-1"," ","0","0","[1447]","1","2","","","12596","76","5","2","win","no-go","0"
"pit-trial","198","1221672","0.0-81.0","battery-v0.2","","""event"",""trial"",""time""
""fullscreenenter"",""1"",""2348""
","
","
","""event"",""trial"",""time""
""fullscreenenter"",""1"",""2348""
","
","","","675.0999999940395","","","18","12596","5371","z","elianto","#3366ff99"," "," ","1","+10","[1526.800000011921]","1","2","","","12596","77","4","1","win","go","0"
"pit-trial","199","1226535","0.0-82.0","battery-v0.2","","""event"",""trial"",""time""
""fullscreenenter"",""1"",""2348""
","
","
","""event"",""trial"",""time""
""fullscreenenter"",""1"",""2348""
","
","","","-1","","","18","12596","5371","h","elianto","#f73b6a7A","-1","-1","1","-10","[]","0","2","","","12596","78","3","4","lose","no-go","1"
"pit-trial","200","1229928","0.0-83.0","battery-v0.2","","""event"",""trial"",""time""
""fullscreenenter"",""1"",""2348""
","
","
","""event"",""trial"",""time""
""fullscreenenter"",""1"",""2348""
","
","","","535.6999999880791","","","18","12596","5371","z","elianto","#3366ff99"," "," ","1","0","[1387.2999999821186]","1","2","","","12596","79","4","1","win","go","1"
"pit-trial","201","1233479","0.0-84.0","battery-v0.2","","""event"",""trial"",""time""
""fullscreenenter"",""1"",""2348""
","
","
","""event"",""trial"",""time""
""fullscreenenter"",""1"",""2348""
","
","","","691.5999999940395","","","18","12596","5371","c","elianto","#3366ff99","-1"," ","0","0","[1542.4000000059605]","1","2","","","12596","80","5","2","win","no-go","0"
"pit-trial","202","1237223","0.0-85.0","battery-v0.2","","""event"",""trial"",""time""
""fullscreenenter"",""1"",""2348""
","
","
","""event"",""trial"",""time""
""fullscreenenter"",""1"",""2348""
","
","","","879.7999999821186","","","18","12596","5371","t","elianto","#f73b6a7A","-1"," ","0","-10","[1733.2999999821186]","1","2","","","12596","81","7","4","lose","no-go","0"
"pit-trial","203","1242087","0.0-86.0","battery-v0.2","","""event"",""trial"",""time""
""fullscreenenter"",""1"",""2348""
","
","
","""event"",""trial"",""time""
""fullscreenenter"",""1"",""2348""
","
","","","-1","","","18","12596","5371","h","elianto","#f73b6a7A","-1","-1","1","0","[]","0","2","","","12596","82","3","4","lose","no-go","0"
"pit-trial","204","1245816","0.0-87.0","battery-v0.2","","""event"",""trial"",""time""
""fullscreenenter"",""1"",""2348""
","
","
","""event"",""trial"",""time""
""fullscreenenter"",""1"",""2348""
","
","","","870.0999999940395","","","18","12596","5371","z","elianto","#3366ff99"," "," ","1","+10","[1722.2000000178814,1815.7000000178814]","2","2","","","12596","83","4","1","win","go","0"
"pit-trial","205","1250679","0.0-88.0","battery-v0.2","","""event"",""trial"",""time""
""fullscreenenter"",""1"",""2348""
","
","
","""event"",""trial"",""time""
""fullscreenenter"",""1"",""2348""
","
","","","-1","","","18","12596","5371","c","elianto","#3366ff99","-1","-1","1","+10","[]","0","2","","","12596","84","5","2","win","no-go","0"
"pit-trial","206","1255539","0.0-89.0","battery-v0.2","","""event"",""trial"",""time""
""fullscreenenter"",""1"",""2348""
","
","
","""event"",""trial"",""time""
""fullscreenenter"",""1"",""2348""
","
","","","-1","","","18","12596","5371","c","elianto","#3366ff99","-1","-1","1","+10","[]","0","2","","","12596","85","5","2","win","no-go","0"
"pit-trial","207","1259324","0.0-90.0","battery-v0.2","","""event"",""trial"",""time""
""fullscreenenter"",""1"",""2348""
","
","
","""event"",""trial"",""time""
""fullscreenenter"",""1"",""2348""
","
","","","927.5999999940395","","","18","12596","5371","t","elianto","#f73b6a7A","-1"," ","0","-10","[1778]","1","2","","","12596","86","7","4","lose","no-go","0"
"pit-trial","208","1262941","0.0-91.0","battery-v0.2","","""event"",""trial"",""time""
""fullscreenenter"",""1"",""2348""
","
","
","""event"",""trial"",""time""
""fullscreenenter"",""1"",""2348""
","
","","","759.2000000178814","","","18","12596","5371","b","elianto","#f73b6a7A"," "," ","1","0","[1609.5]","1","2","","","12596","87","6","3","lose","go","0"
"pit-trial","209","1266675","0.0-92.0","battery-v0.2","","""event"",""trial"",""time""
""fullscreenenter"",""1"",""2348""
","
","
","""event"",""trial"",""time""
""fullscreenenter"",""1"",""2348""
","
","","","872.1999999880791","","","18","12596","5371","z","elianto","#3366ff99"," "," ","1","0","[1723.5999999940395]","1","2","","","12596","88","4","1","win","go","1"
"pit-trial","210","1271541","0.0-93.0","battery-v0.2","","""event"",""trial"",""time""
""fullscreenenter"",""1"",""2348""
","
","
","""event"",""trial"",""time""
""fullscreenenter"",""1"",""2348""
","
","","","-1","","","18","12596","5371","c","elianto","#3366ff99","-1","-1","1","0","[]","0","2","","","12596","89","5","2","win","no-go","1"
"pit-trial","211","1276407","0.0-94.0","battery-v0.2","","""event"",""trial"",""time""
""fullscreenenter"",""1"",""2348""
","
","
","""event"",""trial"",""time""
""fullscreenenter"",""1"",""2348""
","
","","","-1","","","18","12596","5371","t","elianto","#f73b6a7A","-1","-1","1","0","[]","0","2","","","12596","90","7","4","lose","no-go","0"
"pit-trial","212","1280059","0.0-95.0","battery-v0.2","","""event"",""trial"",""time""
""fullscreenenter"",""1"",""2348""
","
","
","""event"",""trial"",""time""
""fullscreenenter"",""1"",""2348""
","
","","","791.5999999940395","","","18","12596","5371","z","elianto","#3366ff99"," "," ","1","+10","[1642.5999999940395]","1","2","","","12596","91","4","1","win","go","0"
"pit-trial","213","1283774","0.0-96.0","battery-v0.2","","""event"",""trial"",""time""
""fullscreenenter"",""1"",""2348""
","
","
","""event"",""trial"",""time""
""fullscreenenter"",""1"",""2348""
","
","","","853.6999999880791","","","18","12596","5371","b","elianto","#f73b6a7A"," "," ","1","0","[1705]","1","2","","","12596","92","6","3","lose","go","0"
"pit-trial","214","1287329","0.0-97.0","battery-v0.2","","""event"",""trial"",""time""
""fullscreenenter"",""1"",""2348""
","
","
","""event"",""trial"",""time""
""fullscreenenter"",""1"",""2348""
","
","","","695.6999999880791","","","18","12596","5371","b","elianto","#f73b6a7A"," "," ","1","0","[1545.7999999821186]","1","2","","","12596","93","6","3","lose","go","0"
"pit-trial","215","1292192","0.0-98.0","battery-v0.2","","""event"",""trial"",""time""
""fullscreenenter"",""1"",""2348""
","
","
","""event"",""trial"",""time""
""fullscreenenter"",""1"",""2348""
","
","","","-1","","","18","12596","5371","t","elianto","#f73b6a7A","-1","-1","1","0","[]","0","2","","","12596","94","7","4","lose","no-go","0"
"pit-trial","216","1295924","0.0-99.0","battery-v0.2","","""event"",""trial"",""time""
""fullscreenenter"",""1"",""2348""
","
","
","""event"",""trial"",""time""
""fullscreenenter"",""1"",""2348""
","
","","","870.1999999880791","","","18","12596","5371","f","elianto","#3366ff99"," "," ","1","+10","[1721.9000000059605]","1","2","","","12596","95","8","1","win","go","0"
"pit-trial","217","1300782","0.0-100.0","battery-v0.2","","""event"",""trial"",""time""
""fullscreenenter"",""1"",""2348""
","
","
","""event"",""trial"",""time""
""fullscreenenter"",""1"",""2348""
","
","","","-1","","","18","12596","5371","c","elianto","#3366ff99","-1","-1","1","+10","[]","0","2","","","12596","96","5","2","win","no-go","0"
"pit-trial","218","1304468","0.0-101.0","battery-v0.2","","""event"",""trial"",""time""
""fullscreenenter"",""1"",""2348""
","
","
","""event"",""trial"",""time""
""fullscreenenter"",""1"",""2348""
","
","","","823.4000000059605","","","18","12596","5371","b","elianto","#f73b6a7A"," "," ","1","0","[1676.9000000059605]","1","2","","","12596","97","6","3","lose","go","0"
"pit-trial","219","1309327","0.0-102.0","battery-v0.2","","""event"",""trial"",""time""
""fullscreenenter"",""1"",""2348""
","
","
","""event"",""trial"",""time""
""fullscreenenter"",""1"",""2348""
","
","","","-1","","","18","12596","5371","t","elianto","#f73b6a7A","-1","-1","1","0","[]","0","2","","","12596","98","7","4","lose","no-go","0"
"pit-trial","220","1314188","0.0-103.0","battery-v0.2","","""event"",""trial"",""time""
""fullscreenenter"",""1"",""2348""
","
","
","""event"",""trial"",""time""
""fullscreenenter"",""1"",""2348""
","
","","","-1","","","18","12596","5371","c","elianto","#3366ff99","-1","-1","1","+10","[]","0","2","","","12596","99","5","2","win","no-go","0"
"pit-trial","221","1318218","0.0-104.0","battery-v0.2","","""event"",""trial"",""time""
""fullscreenenter"",""1"",""2348""
","
","
","""event"",""trial"",""time""
""fullscreenenter"",""1"",""2348""
","
","","","1172.4000000059605","","","18","12596","5371","f","elianto","#3366ff99"," "," ","1","+10","[2023.4000000059605]","1","2","","","12596","100","8","1","win","go","0"
"pit-trial","222","1323083","0.0-105.0","battery-v0.2","","""event"",""trial"",""time""
""fullscreenenter"",""1"",""2348""
","
","
","""event"",""trial"",""time""
""fullscreenenter"",""1"",""2348""
","
","","","-1","","","18","12596","5371","c","elianto","#3366ff99","-1","-1","1","+10","[]","0","2","","","12596","101","5","2","win","no-go","0"
"pit-trial","223","1327944","0.0-106.0","battery-v0.2","","""event"",""trial"",""time""
""fullscreenenter"",""1"",""2348""
","
","
","""event"",""trial"",""time""
""fullscreenenter"",""1"",""2348""
","
","","","-1","","","18","12596","5371","t","elianto","#f73b6a7A","-1","-1","1","0","[]","0","2","","","12596","102","7","4","lose","no-go","0"
"pit-trial","224","1331571","0.0-107.0","battery-v0.2","","""event"",""trial"",""time""
""fullscreenenter"",""1"",""2348""
","
","
","""event"",""trial"",""time""
""fullscreenenter"",""1"",""2348""
","
","","","767.3999999761581","","","18","12596","5371","f","elianto","#3366ff99"," "," ","1","0","[1618.7999999821186]","1","2","","","12596","103","8","1","win","go","1"
"pit-trial","225","1335168","0.0-108.0","battery-v0.2","","""event"",""trial"",""time""
""fullscreenenter"",""1"",""2348""
","
","
","""event"",""trial"",""time""
""fullscreenenter"",""1"",""2348""
","
","","","740.4000000059605","","","18","12596","5371","n","elianto","#3366ff99"," "," ","1","0","[1591.199999988079]","1","2","","","12596","104","9","1","win","go","1"
"pit-trial","226","1338579","0.0-109.0","battery-v0.2","","""event"",""trial"",""time""
""fullscreenenter"",""1"",""2348""
","
","
","""event"",""trial"",""time""
""fullscreenenter"",""1"",""2348""
","
","","","552.1999999880791","","","18","12596","5371","n","elianto","#3366ff99"," "," ","1","0","[1404.5]","1","2","","","12596","105","9","1","win","go","1"
"pit-trial","227","1342125","0.0-110.0","battery-v0.2","","""event"",""trial"",""time""
""fullscreenenter"",""1"",""2348""
","
","
","""event"",""trial"",""time""
""fullscreenenter"",""1"",""2348""
","
","","","686.4000000059605","","","18","12596","5371","f","elianto","#3366ff99"," "," ","1","+10","[1539]","1","2","","","12596","106","8","1","win","go","0"
"pit-trial","228","1346312","0.0-111.0","battery-v0.2","","""event"",""trial"",""time""
""fullscreenenter"",""1"",""2348""
","
","
","""event"",""trial"",""time""
""fullscreenenter"",""1"",""2348""
","
","","","1325.6000000238419","","","18","12596","5371","b","elianto","#f73b6a7A"," "," ","1","0","[2176.699999988079]","1","2","","","12596","107","6","3","lose","go","0"
"pit-trial","229","1350094","0.0-112.0","battery-v0.2","","""event"",""trial"",""time""
""fullscreenenter"",""1"",""2348""
","
","
","""event"",""trial"",""time""
""fullscreenenter"",""1"",""2348""
","
","","","922.5999999940395","","","18","12596","5371","z","elianto","#3366ff99"," "," ","1","+10","[1775.2000000178814]","1","2","","","12596","108","4","1","win","go","0"
"pit-trial","230","1354954","0.0-113.0","battery-v0.2","","""event"",""trial"",""time""
""fullscreenenter"",""1"",""2348""
","
","
","""event"",""trial"",""time""
""fullscreenenter"",""1"",""2348""
","
","","","-1","","","18","12596","5371","n","elianto","#3366ff99"," ","-1","0","0","[]","0","2","","","12596","109","9","1","win","go","0"
"pit-trial","231","1358500","0.0-114.0","battery-v0.2","","""event"",""trial"",""time""
""fullscreenenter"",""1"",""2348""
","
","
","""event"",""trial"",""time""
""fullscreenenter"",""1"",""2348""
","
","","","685.2000000178814","","","18","12596","5371","f","elianto","#3366ff99"," "," ","1","+10","[1536.9000000059605]","1","2","","","12596","110","8","1","win","go","0"
"pit-trial","232","1363363","0.0-115.0","battery-v0.2","","""event"",""trial"",""time""
""fullscreenenter"",""1"",""2348""
","
","
","""event"",""trial"",""time""
""fullscreenenter"",""1"",""2348""
","
","","","-1","","","18","12596","5371","c","elianto","#3366ff99","-1","-1","1","+10","[]","0","2","","","12596","111","5","2","win","no-go","0"
"pit-trial","233","1367436","0.0-116.0","battery-v0.2","","""event"",""trial"",""time""
""fullscreenenter"",""1"",""2348""
","
","
","""event"",""trial"",""time""
""fullscreenenter"",""1"",""2348""
","
","","","1211","","","18","12596","5371","b","elianto","#f73b6a7A"," "," ","1","0","[2063.2999999821186]","1","2","","","12596","112","6","3","lose","go","0"
"pit-trial","234","1370852","0.0-117.0","battery-v0.2","","""event"",""trial"",""time""
""fullscreenenter"",""1"",""2348""
","
","
","""event"",""trial"",""time""
""fullscreenenter"",""1"",""2348""
","
","","","557.4000000059605","","","18","12596","5371","b","elianto","#f73b6a7A"," "," ","1","0","[1409.199999988079]","1","2","","","12596","113","6","3","lose","go","0"
"pit-trial","235","1375718","0.0-118.0","battery-v0.2","","""event"",""trial"",""time""
""fullscreenenter"",""1"",""2348""
","
","
","""event"",""trial"",""time""
""fullscreenenter"",""1"",""2348""
","
","","","-1","","","18","12596","5371","c","elianto","#3366ff99","-1","-1","1","+10","[]","0","2","","","12596","114","5","2","win","no-go","0"
"pit-trial","236","1380573","0.0-119.0","battery-v0.2","","""event"",""trial"",""time""
""fullscreenenter"",""1"",""2348""
","
","
","""event"",""trial"",""time""
""fullscreenenter"",""1"",""2348""
","
","","","-1","","","18","12596","5371","n","elianto","#3366ff99"," ","-1","0","0","[]","0","2","","","12596","115","9","1","win","go","0"
"pit-trial","237","1384066","0.0-120.0","battery-v0.2","","""event"",""trial"",""time""
""fullscreenenter"",""1"",""2348""
","
","
","""event"",""trial"",""time""
""fullscreenenter"",""1"",""2348""
","
","","","634.2000000178814","","","18","12596","5371","f","elianto","#3366ff99"," "," ","1","+10","[1485.2000000178814]","1","2","","","12596","116","8","1","win","go","0"
"pit-trial","238","1387616","0.0-121.0","battery-v0.2","","""event"",""trial"",""time""
""fullscreenenter"",""1"",""2348""
","
","
","""event"",""trial"",""time""
""fullscreenenter"",""1"",""2348""
","
","","","689.4000000059605","","","18","12596","5371","f","elianto","#3366ff99"," "," ","1","+10","[1540.5999999940395]","1","2","","","12596","117","8","1","win","go","0"
"pit-trial","239","1392474","0.0-122.0","battery-v0.2","","""event"",""trial"",""time""
""fullscreenenter"",""1"",""2348""
","
","
","""event"",""trial"",""time""
""fullscreenenter"",""1"",""2348""
","
","","","-1","","","18","12596","5371","c","elianto","#3366ff99","-1","-1","1","+10","[]","0","2","","","12596","118","5","2","win","no-go","0"
"pit-trial","240","1396875","0.0-123.0","battery-v0.2","","""event"",""trial"",""time""
""fullscreenenter"",""1"",""2348""
","
","
","""event"",""trial"",""time""
""fullscreenenter"",""1"",""2348""
","
","","","1542.0999999940395","","","18","12596","5371","b","elianto","#f73b6a7A"," "," ","1","0","[2393.300000011921]","1","2","","","12596","119","6","3","lose","go","0"
"pit-trial","241","1400629","0.0-124.0","battery-v0.2","","""event"",""trial"",""time""
""fullscreenenter"",""1"",""2348""
","
","
","""event"",""trial"",""time""
""fullscreenenter"",""1"",""2348""
","
","","","897.7000000178814","","","18","12596","5371","n","elianto","#3366ff99"," "," ","1","+10","[1749]","1","2","","","12596","120","9","1","win","go","0"
"pit-trial","242","1404129","0.0-125.0","battery-v0.2","","""event"",""trial"",""time""
""fullscreenenter"",""1"",""2348""
","
","
","""event"",""trial"",""time""
""fullscreenenter"",""1"",""2348""
","
","","","640.6999999880791","","","18","12596","5371","f","elianto","#3366ff99"," "," ","1","+10","[1492.9000000059605]","1","2","","","12596","121","8","1","win","go","0"
"pit-trial","243","1408990","0.0-126.0","battery-v0.2","","""event"",""trial"",""time""
""fullscreenenter"",""1"",""2348""
","
","
","""event"",""trial"",""time""
""fullscreenenter"",""1"",""2348""
","
","","","-1","","","18","12596","5371","t","elianto","#f73b6a7A","-1","-1","1","0","[]","0","2","","","12596","122","7","4","lose","no-go","0"
"pit-trial","244","1412772","0.0-127.0","battery-v0.2","","""event"",""trial"",""time""
""fullscreenenter"",""1"",""2348""
","
","
","""event"",""trial"",""time""
""fullscreenenter"",""1"",""2348""
","
","","","925.9000000059605","","","18","12596","5371","n","elianto","#3366ff99"," "," ","1","0","[1777.300000011921]","1","2","","","12596","123","9","1","win","go","1"
"pit-trial","245","1416358","0.0-128.0","battery-v0.2","","""event"",""trial"",""time""
""fullscreenenter"",""1"",""2348""
","
","
","""event"",""trial"",""time""
""fullscreenenter"",""1"",""2348""
","
","","","727","","","18","12596","5371","b","elianto","#f73b6a7A"," "," ","1","-10","[1577.7000000178814]","1","2","","","12596","124","6","3","lose","go","1"
"pit-trial","246","1419866","0.0-129.0","battery-v0.2","","""event"",""trial"",""time""
""fullscreenenter"",""1"",""2348""
","
","
","""event"",""trial"",""time""
""fullscreenenter"",""1"",""2348""
","
","","","647.1000000238419","","","18","12596","5371","f","elianto","#3366ff99"," "," ","1","0","[1498.699999988079]","1","2","","","12596","125","8","1","win","go","1"
"pit-trial","247","1423670","0.0-130.0","battery-v0.2","","""event"",""trial"",""time""
""fullscreenenter"",""1"",""2348""
","
","
","""event"",""trial"",""time""
""fullscreenenter"",""1"",""2348""
","
","","","942.5","","","18","12596","5371","b","elianto","#f73b6a7A"," "," ","1","0","[1793.3999999761581]","1","2","","","12596","126","6","3","lose","go","0"
"pit-trial","248","1428535","0.0-131.0","battery-v0.2","","""event"",""trial"",""time""
""fullscreenenter"",""1"",""2348""
","
","
","""event"",""trial"",""time""
""fullscreenenter"",""1"",""2348""
","
","","","-1","","","18","12596","5371","t","elianto","#f73b6a7A","-1","-1","1","0","[]","0","2","","","12596","127","7","4","lose","no-go","0"
"pit-trial","249","1433400","0.0-132.0","battery-v0.2","","""event"",""trial"",""time""
""fullscreenenter"",""1"",""2348""
","
","
","""event"",""trial"",""time""
""fullscreenenter"",""1"",""2348""
","
","","","-1","","","18","12596","5371","n","elianto","#3366ff99"," ","-1","0","+10","[]","0","2","","","12596","128","9","1","win","go","1"
"pit-trial","250","1437084","0.0-133.0","battery-v0.2","","""event"",""trial"",""time""
""fullscreenenter"",""1"",""2348""
","
","
","""event"",""trial"",""time""
""fullscreenenter"",""1"",""2348""
","
","","","822.0999999940395","","","18","12596","5371","b","elianto","#f73b6a7A"," "," ","1","-10","[1674.9000000059605]","1","2","","","12596","129","6","3","lose","go","1"
"pit-trial","251","1441941","0.0-134.0","battery-v0.2","","""event"",""trial"",""time""
""fullscreenenter"",""1"",""2348""
","
","
","""event"",""trial"",""time""
""fullscreenenter"",""1"",""2348""
","
","","","-1","","","18","12596","5371","t","elianto","#f73b6a7A","-1","-1","1","0","[]","0","2","","","12596","130","7","4","lose","no-go","0"
"pit-trial","252","1445429","0.0-135.0","battery-v0.2","","""event"",""trial"",""time""
""fullscreenenter"",""1"",""2348""
","
","
","""event"",""trial"",""time""
""fullscreenenter"",""1"",""2348""
","
","","","627.6999999880791","","","18","12596","5371","f","elianto","#3366ff99"," "," ","1","0","[1479.199999988079]","1","2","","","12596","131","8","1","win","go","1"
"pit-trial","253","1450291","0.0-136.0","battery-v0.2","","""event"",""trial"",""time""
""fullscreenenter"",""1"",""2348""
","
","
","""event"",""trial"",""time""
""fullscreenenter"",""1"",""2348""
","
","","","-1","","","18","12596","5371","n","elianto","#3366ff99"," ","-1","0","0","[]","0","2","","","12596","132","9","1","win","go","0"
"pit-trial","254","1455153","0.0-137.0","battery-v0.2","","""event"",""trial"",""time""
""fullscreenenter"",""1"",""2348""
","
","
","""event"",""trial"",""time""
""fullscreenenter"",""1"",""2348""
","
","","","-1","","","18","12596","5371","t","elianto","#f73b6a7A","-1","-1","1","0","[]","0","2","","","12596","133","7","4","lose","no-go","0"
"pit-trial","255","1459096","0.0-138.0","battery-v0.2","","""event"",""trial"",""time""
""fullscreenenter"",""1"",""2348""
","
","
","""event"",""trial"",""time""
""fullscreenenter"",""1"",""2348""
","
","","","1081.4000000059605","","","18","12596","5371","b","elianto","#f73b6a7A"," "," ","1","0","[1932.5]","1","2","","","12596","134","6","3","lose","go","0"
"pit-trial","256","1463956","0.0-139.0","battery-v0.2","","""event"",""trial"",""time""
""fullscreenenter"",""1"",""2348""
","
","
","""event"",""trial"",""time""
""fullscreenenter"",""1"",""2348""
","
","","","-1","","","18","12596","5371","n","elianto","#3366ff99"," ","-1","0","0","[]","0","2","","","12596","135","9","1","win","go","0"
"pit-trial","257","1467455","0.0-140.0","battery-v0.2","","""event"",""trial"",""time""
""fullscreenenter"",""1"",""2348""
","
","
","""event"",""trial"",""time""
""fullscreenenter"",""1"",""2348""
","
","","","640.1000000238419","","","18","12596","5371","f","elianto","#3366ff99"," "," ","1","+10","[1490.699999988079]","1","2","","","12596","136","8","1","win","go","0"
"pit-trial","258","1471114","0.0-141.0","battery-v0.2","","""event"",""trial"",""time""
""fullscreenenter"",""1"",""2348""
","
","
","""event"",""trial"",""time""
""fullscreenenter"",""1"",""2348""
","
","","","801.4000000059605","","","18","12596","5371","b","elianto","#f73b6a7A"," "," ","1","0","[1652.8999999761581]","1","2","","","12596","137","6","3","lose","go","0"
"pit-trial","259","1474570","0.0-142.0","battery-v0.2","","""event"",""trial"",""time""
""fullscreenenter"",""1"",""2348""
","
","
","""event"",""trial"",""time""
""fullscreenenter"",""1"",""2348""
","
","","","595.4000000059605","","","18","12596","5371","n","elianto","#3366ff99"," "," ","1","+10","[1447.9000000059605]","1","2","","","12596","138","9","1","win","go","0"
"pit-trial","260","1478052","0.0-143.0","battery-v0.2","","""event"",""trial"",""time""
""fullscreenenter"",""1"",""2348""
","
","
","""event"",""trial"",""time""
""fullscreenenter"",""1"",""2348""
","
","","","621.2999999821186","","","18","12596","5371","f","elianto","#3366ff99"," "," ","1","+10","[1472]","1","2","","","12596","139","8","1","win","go","0"
"pit-trial","261","1482918","0.0-144.0","battery-v0.2","","""event"",""trial"",""time""
""fullscreenenter"",""1"",""2348""
","
","
","""event"",""trial"",""time""
""fullscreenenter"",""1"",""2348""
","
","","","-1","","","18","12596","5371","t","elianto","#f73b6a7A","-1","-1","1","0","[]","0","2","","","12596","140","7","4","lose","no-go","0"
"pit-instructions","262","1496624","0.0-145.0","battery-v0.2","","""event"",""trial"",""time""
""fullscreenenter"",""1"",""2348""
","
","
","""event"",""trial"",""time""
""fullscreenenter"",""1"",""2348""
","
","","[{""page_index"":0,""viewing_time"":5585.600000023842},{""page_index"":1,""viewing_time"":8116.199999988079}]","13702.5","","","","","","","","","","","","","","","","","","","","","","","",""
"pit-trial","263","1500252","0.0-146.0","battery-v0.2","","""event"",""trial"",""time""
""fullscreenenter"",""1"",""2348""
","
","
","""event"",""trial"",""time""
""fullscreenenter"",""1"",""2348""
","
","","","765.5","","","18","12596","5371","e","elianto","#f73b6a7A","-1"," ","0","-10","[1618.1000000238419]","1","3","","","12596","141","2","4","lose","no-go","0"
"pit-trial","264","1503683","0.0-147.0","battery-v0.2","","""event"",""trial"",""time""
""fullscreenenter"",""1"",""2348""
","
","
","""event"",""trial"",""time""
""fullscreenenter"",""1"",""2348""
","
","","","574.3999999761581","","","18","12596","5371","w","elianto","#f73b6a7A"," "," ","1","0","[1426.4000000059605]","1","3","","","12596","142","3","3","lose","go","0"
"pit-trial","265","1507190","0.0-148.0","battery-v0.2","","""event"",""trial"",""time""
""fullscreenenter"",""1"",""2348""
","
","
","""event"",""trial"",""time""
""fullscreenenter"",""1"",""2348""
","
","","","644.5","","","18","12596","5371","j","elianto","#f73b6a7A","-1"," ","0","0","[1497.0999999940395]","1","3","","","12596","143","0","4","lose","no-go","1"
