"trial_type","trial_index","time_elapsed","internal_node_id","task_version","subject_id","interactions","blur_events","focus_events","fullscreenenter_events","fullscreenexit_events","success","view_history","rt","responses","num_errors","age","subject","participantId","rune","rune_set","hex","correct","choice","accuracy","outcome","keys","total_keys","block","practice","value","sub","trial","stimulus","robot","valence","action","sham"
"pavlovia","0","61","0.0-0.0","battery-v0.2","","""event"",""trial"",""time""
""fullscreenenter"",""1"",""2479""
","
","
","""event"",""trial"",""time""
""fullscreenenter"",""1"",""2479""
","
","","","","","","","","","","","","","","","","","","","","","","","","","","",""
"fullscreen","1","3190","0.0-1.0","battery-v0.2","","""event"",""trial"",""time""
""fullscreenenter"",""1"",""2479""
","
","
","""event"",""trial"",""time""
""fullscreenenter"",""1"",""2479""
","
","true","","","","","","","","","","","","","","","","","","","","","","","","","",""
"pit-instructions","2","37240","0.0-2.0-0.0","battery-v0.2","","""event"",""trial"",""time""
""fullscreenenter"",""1"",""2479""
","
","
","""event"",""trial"",""time""
""fullscreenenter"",""1"",""2479""
","
","","[{""page_index"":0,""viewing_time"":34041}]","34044","","","","","","","","","","","","","","","","","","","","","","","",""
"pit-comprehension","3","39943","0.0-2.0-1.0-0.0","battery-v0.2","","""event"",""trial"",""time""
""fullscreenenter"",""1"",""2479""
","
","
","""event"",""trial"",""time""
""fullscreenenter"",""1"",""2479""
","
","","","2686","[""shark""]","0","22","18167","6820","","","","","","","","","","","","","","","","","","",""
"pit-instructions","4","41280","0.0-2.0-1.0-1.0","battery-v0.2","","""event"",""trial"",""time""
""fullscreenenter"",""1"",""2479""
","
","
","""event"",""trial"",""time""
""fullscreenenter"",""1"",""2479""
","
","","[{""page_index"":0,""viewing_time"":1325}]","1325","","","","","","","","","","","","","","","","","","","","","","","",""
"pit-comprehension","5","44013","0.0-2.0-2.0-0.0","battery-v0.2","","""event"",""trial"",""time""
""fullscreenenter"",""1"",""2479""
","
","
","""event"",""trial"",""time""
""fullscreenenter"",""1"",""2479""
","
","","","2723","[""tiger""]","0","22","18167","6820","","","","","","","","","","","","","","","","","","",""
"pit-instructions","6","46411","0.0-2.0-2.0-1.0","battery-v0.2","","""event"",""trial"",""time""
""fullscreenenter"",""1"",""2479""
","
","
","""event"",""trial"",""time""
""fullscreenenter"",""1"",""2479""
","
","","[{""page_index"":0,""viewing_time"":2391}]","2391","","","","","","","","","","","","","","","","","","","","","","","",""
"pit-instructions","7","146002","0.0-2.0-3.0","battery-v0.2","","""event"",""trial"",""time""
""fullscreenenter"",""1"",""2479""
","
","
","""event"",""trial"",""time""
""fullscreenenter"",""1"",""2479""
","
","","[{""page_index"":0,""viewing_time"":9405},{""page_index"":1,""viewing_time"":6657},{""page_index"":2,""viewing_time"":7772},{""page_index"":3,""viewing_time"":5123},{""page_index"":4,""viewing_time"":5793},{""page_index"":5,""viewing_time"":6502},{""page_index"":6,""viewing_time"":6591},{""page_index"":7,""viewing_time"":8111},{""page_index"":8,""viewing_time"":6821},{""page_index"":9,""viewing_time"":10474},{""page_index"":10,""viewing_time"":8024},{""page_index"":11,""viewing_time"":6618},{""page_index"":12,""viewing_time"":6917},{""page_index"":13,""viewing_time"":4777}]","99586","","","","","","","","","","","","","","","","","","","","","","","",""
"pit-trial","8","149598","0.0-2.0-4.0-0.0","battery-v0.2","","""event"",""trial"",""time""
""fullscreenenter"",""1"",""2479""
","
","
","""event"",""trial"",""time""
""fullscreenenter"",""1"",""2479""
","
","","","696","","","22","18167","6820","&#9784;","elianto","#FFFFF080"," "," ","1","&#10004","[1581]","1","0","0","","","","","","","",""
"pit-trial","9","153094","0.0-2.0-4.1-0.1","battery-v0.2","","""event"",""trial"",""time""
""fullscreenenter"",""1"",""2479""
","
","
","""event"",""trial"",""time""
""fullscreenenter"",""1"",""2479""
","
","","","630","","","22","18167","6820","&#9784;","elianto","#FFFFF080"," "," ","1","&#10004","[1483]","1","0","0","","","","","","","",""
"pit-trial","10","156550","0.0-2.0-4.2-0.2","battery-v0.2","","""event"",""trial"",""time""
""fullscreenenter"",""1"",""2479""
","
","
","""event"",""trial"",""time""
""fullscreenenter"",""1"",""2479""
","
","","","595","","","22","18167","6820","&#9784;","elianto","#FFFFF080"," "," ","1","&#10004","[1452]","1","0","0","","","","","","","",""
"pit-trial","11","160002","0.0-2.0-4.3-0.3","battery-v0.2","","""event"",""trial"",""time""
""fullscreenenter"",""1"",""2479""
","
","
","""event"",""trial"",""time""
""fullscreenenter"",""1"",""2479""
","
","","","585","","","22","18167","6820","&#9784;","elianto","#FFFFF080"," "," ","1","&#10004","[1445]","1","0","0","","","","","","","",""
"pit-trial","12","163339","0.0-2.0-4.4-0.4","battery-v0.2","","""event"",""trial"",""time""
""fullscreenenter"",""1"",""2479""
","
","
","""event"",""trial"",""time""
""fullscreenenter"",""1"",""2479""
","
","","","456","","","22","18167","6820","&#9784;","elianto","#FFFFF080"," "," ","1","&#10004","[1319]","1","0","0","","","","","","","",""
"pit-instructions","13","185948","0.0-2.0-5.0","battery-v0.2","","""event"",""trial"",""time""
""fullscreenenter"",""1"",""2479""
","
","
","""event"",""trial"",""time""
""fullscreenenter"",""1"",""2479""
","
","","[{""page_index"":0,""viewing_time"":5104},{""page_index"":1,""viewing_time"":5210},{""page_index"":2,""viewing_time"":5927},{""page_index"":3,""viewing_time"":6363}]","22604","","","","","","","","","","","","","","","","","","","","","","","",""
"pit-trial","14","190827","0.0-2.0-6.0-0.0","battery-v0.2","","""event"",""trial"",""time""
""fullscreenenter"",""1"",""2479""
","
","
","""event"",""trial"",""time""
""fullscreenenter"",""1"",""2479""
","
","","","-1","","","22","18167","6820","&#9854;","elianto","#FFFFF080","-1","-1","1","&#10004","[]","0","0","1","","","","","","","",""
"pit-trial","15","195703","0.0-2.0-6.1-0.1","battery-v0.2","","""event"",""trial"",""time""
""fullscreenenter"",""1"",""2479""
","
","
","""event"",""trial"",""time""
""fullscreenenter"",""1"",""2479""
","
","","","-1","","","22","18167","6820","&#9854;","elianto","#FFFFF080","-1","-1","1","&#10004","[]","0","0","1","","","","","","","",""
"pit-trial","16","200576","0.0-2.0-6.2-0.2","battery-v0.2","","""event"",""trial"",""time""
""fullscreenenter"",""1"",""2479""
","
","
","""event"",""trial"",""time""
""fullscreenenter"",""1"",""2479""
","
","","","-1","","","22","18167","6820","&#9854;","elianto","#FFFFF080","-1","-1","1","&#10004","[]","0","0","1","","","","","","","",""
"pit-trial","17","205463","0.0-2.0-6.3-0.3","battery-v0.2","","""event"",""trial"",""time""
""fullscreenenter"",""1"",""2479""
","
","
","""event"",""trial"",""time""
""fullscreenenter"",""1"",""2479""
","
","","","-1","","","22","18167","6820","&#9854;","elianto","#FFFFF080","-1","-1","1","&#10004","[]","0","0","1","","","","","","","",""
"pit-trial","18","210578","0.0-2.0-6.4-0.4","battery-v0.2","","""event"",""trial"",""time""
""fullscreenenter"",""1"",""2479""
""blur"",""19"",""230770""
""focus"",""19"",""231785""
""blur"",""19"",""326873""
""focus"",""19"",""328208""
","""event"",""trial"",""time""
""blur"",""19"",""230770""
""blur"",""19"",""326873""
","""event"",""trial"",""time""
""focus"",""19"",""231785""
""focus"",""19"",""328208""
","""event"",""trial"",""time""
""fullscreenenter"",""1"",""2479""
","
","","","-1","","","22","18167","6820","&#9854;","elianto","#FFFFF080","-1","-1","1","&#10004","[]","0","0","1","","","","","","","",""
"pit-instructions","19","331103","0.0-2.0-7.0","battery-v0.2","","""event"",""trial"",""time""
""fullscreenenter"",""1"",""2479""
""blur"",""19"",""230770""
""focus"",""19"",""231785""
""blur"",""19"",""326873""
""focus"",""19"",""328208""
","""event"",""trial"",""time""
""blur"",""19"",""230770""
""blur"",""19"",""326873""
","""event"",""trial"",""time""
""focus"",""19"",""231785""
""focus"",""19"",""328208""
","""event"",""trial"",""time""
""fullscreenenter"",""1"",""2479""
","
","","[{""page_index"":0,""viewing_time"":7402},{""page_index"":1,""viewing_time"":6483},{""page_index"":2,""viewing_time"":8621},{""page_index"":3,""viewing_time"":5714},{""page_index"":4,""viewing_time"":5495},{""page_index"":5,""viewing_time"":5561},{""page_index"":6,""viewing_time"":4483},{""page_index"":7,""viewing_time"":7233},{""page_index"":8,""viewing_time"":7326},{""page_index"":9,""viewing_time"":5517},{""page_index"":10,""viewing_time"":7248},{""page_index"":11,""viewing_time"":5476},{""page_index"":12,""viewing_time"":7897},{""page_index"":13,""viewing_time"":8152},{""page_index"":14,""viewing_time"":7023},{""page_index"":15,""viewing_time"":6944},{""page_index"":16,""viewing_time"":7078},{""page_index"":17,""viewing_time"":6867}]","120521","","","","","","","","","","","","","","","","","","","","","","","",""
"pit-trial","20","334670","0.0-2.0-8.0-0.0","battery-v0.2","","""event"",""trial"",""time""
""fullscreenenter"",""1"",""2479""
""blur"",""19"",""230770""
""focus"",""19"",""231785""
""blur"",""19"",""326873""
""focus"",""19"",""328208""
","""event"",""trial"",""time""
""blur"",""19"",""230770""
""blur"",""19"",""326873""
","""event"",""trial"",""time""
""focus"",""19"",""231785""
""focus"",""19"",""328208""
","""event"",""trial"",""time""
""fullscreenenter"",""1"",""2479""
","
","","","703","","","22","18167","6820","&#9776;","elianto","#3366ff99"," "," ","1","+10","[1559]","1","0","1","","","","","","","",""
"pit-trial","21","338302","0.0-2.0-8.0-1.0","battery-v0.2","","""event"",""trial"",""time""
""fullscreenenter"",""1"",""2479""
""blur"",""19"",""230770""
""focus"",""19"",""231785""
""blur"",""19"",""326873""
""focus"",""19"",""328208""
","""event"",""trial"",""time""
""blur"",""19"",""230770""
""blur"",""19"",""326873""
","""event"",""trial"",""time""
""focus"",""19"",""231785""
""focus"",""19"",""328208""
","""event"",""trial"",""time""
""fullscreenenter"",""1"",""2479""
","
","","","620","","","22","18167","6820","&#9776;","elianto","#3366ff99"," "," ","1","+10","[1481]","1","0","1","","","","","","","",""
"pit-trial","22","341771","0.0-2.0-8.0-2.0","battery-v0.2","","""event"",""trial"",""time""
""fullscreenenter"",""1"",""2479""
""blur"",""19"",""230770""
""focus"",""19"",""231785""
""blur"",""19"",""326873""
""focus"",""19"",""328208""
","""event"",""trial"",""time""
""blur"",""19"",""230770""
""blur"",""19"",""326873""
","""event"",""trial"",""time""
""focus"",""19"",""231785""
""focus"",""19"",""328208""
","""event"",""trial"",""time""
""fullscreenenter"",""1"",""2479""
","
","","","563","","","22","18167","6820","&#9776;","elianto","#3366ff99"," "," ","1","+10","[1457]","1","0","1","","","","","","","",""
"pit-trial","23","345191","0.0-2.0-8.0-3.0","battery-v0.2","","""event"",""trial"",""time""
""fullscreenenter"",""1"",""2479""
""blur"",""19"",""230770""
""focus"",""19"",""231785""
""blur"",""19"",""326873""
""focus"",""19"",""328208""
","""event"",""trial"",""time""
""blur"",""19"",""230770""
""blur"",""19"",""326873""
","""event"",""trial"",""time""
""focus"",""19"",""231785""
""focus"",""19"",""328208""
","""event"",""trial"",""time""
""fullscreenenter"",""1"",""2479""
","
","","","518","","","22","18167","6820","&#9776;","elianto","#3366ff99"," "," ","1","0","[1408]","1","0","1","","","","","","","",""
"pit-trial","24","348553","0.0-2.0-8.0-4.0","battery-v0.2","","""event"",""trial"",""time""
""fullscreenenter"",""1"",""2479""
""blur"",""19"",""230770""
""focus"",""19"",""231785""
""blur"",""19"",""326873""
""focus"",""19"",""328208""
","""event"",""trial"",""time""
""blur"",""19"",""230770""
""blur"",""19"",""326873""
","""event"",""trial"",""time""
""focus"",""19"",""231785""
""focus"",""19"",""328208""
","""event"",""trial"",""time""
""fullscreenenter"",""1"",""2479""
","
","","","487","","","22","18167","6820","&#9776;","elianto","#3366ff99"," "," ","1","+10","[1346]","1","0","1","","","","","","","",""
"pit-trial","25","351930","0.0-2.0-8.1-0.1","battery-v0.2","","""event"",""trial"",""time""
""fullscreenenter"",""1"",""2479""
""blur"",""19"",""230770""
""focus"",""19"",""231785""
""blur"",""19"",""326873""
""focus"",""19"",""328208""
","""event"",""trial"",""time""
""blur"",""19"",""230770""
""blur"",""19"",""326873""
","""event"",""trial"",""time""
""focus"",""19"",""231785""
""focus"",""19"",""328208""
","""event"",""trial"",""time""
""fullscreenenter"",""1"",""2479""
","
","","","508","","","22","18167","6820","&#9776;","elianto","#3366ff99"," "," ","1","+10","[1370]","1","0","1","","","","","","","",""
"pit-trial","26","355260","0.0-2.0-8.1-1.1","battery-v0.2","","""event"",""trial"",""time""
""fullscreenenter"",""1"",""2479""
""blur"",""19"",""230770""
""focus"",""19"",""231785""
""blur"",""19"",""326873""
""focus"",""19"",""328208""
","""event"",""trial"",""time""
""blur"",""19"",""230770""
""blur"",""19"",""326873""
","""event"",""trial"",""time""
""focus"",""19"",""231785""
""focus"",""19"",""328208""
","""event"",""trial"",""time""
""fullscreenenter"",""1"",""2479""
","
","","","454","","","22","18167","6820","&#9776;","elianto","#3366ff99"," "," ","1","+10","[1315]","1","0","1","","","","","","","",""
"pit-trial","27","358577","0.0-2.0-8.1-2.1","battery-v0.2","","""event"",""trial"",""time""
""fullscreenenter"",""1"",""2479""
""blur"",""19"",""230770""
""focus"",""19"",""231785""
""blur"",""19"",""326873""
""focus"",""19"",""328208""
","""event"",""trial"",""time""
""blur"",""19"",""230770""
""blur"",""19"",""326873""
","""event"",""trial"",""time""
""focus"",""19"",""231785""
""focus"",""19"",""328208""
","""event"",""trial"",""time""
""fullscreenenter"",""1"",""2479""
","
","","","416","","","22","18167","6820","&#9776;","elianto","#3366ff99"," "," ","1","+10","[1302]","1","0","1","","","","","","","",""
"pit-trial","28","362045","0.0-2.0-8.1-3.1","battery-v0.2","","""event"",""trial"",""time""
""fullscreenenter"",""1"",""2479""
""blur"",""19"",""230770""
""focus"",""19"",""231785""
""blur"",""19"",""326873""
""focus"",""19"",""328208""
","""event"",""trial"",""time""
""blur"",""19"",""230770""
""blur"",""19"",""326873""
","""event"",""trial"",""time""
""focus"",""19"",""231785""
""focus"",""19"",""328208""
","""event"",""trial"",""time""
""fullscreenenter"",""1"",""2479""
","
","","","448","","","22","18167","6820","&#9776;","elianto","#3366ff99"," "," ","1","0","[1304]","1","0","1","","","","","","","",""
"pit-trial","29","365330","0.0-2.0-8.1-4.1","battery-v0.2","","""event"",""trial"",""time""
""fullscreenenter"",""1"",""2479""
""blur"",""19"",""230770""
""focus"",""19"",""231785""
""blur"",""19"",""326873""
""focus"",""19"",""328208""
","""event"",""trial"",""time""
""blur"",""19"",""230770""
""blur"",""19"",""326873""
","""event"",""trial"",""time""
""focus"",""19"",""231785""
""focus"",""19"",""328208""
","""event"",""trial"",""time""
""fullscreenenter"",""1"",""2479""
","
","","","379","","","22","18167","6820","&#9776;","elianto","#3366ff99"," "," ","1","+10","[1274]","1","0","1","","","","","","","",""
"pit-trial","30","368632","0.0-2.0-8.2-0.2","battery-v0.2","","""event"",""trial"",""time""
""fullscreenenter"",""1"",""2479""
""blur"",""19"",""230770""
""focus"",""19"",""231785""
""blur"",""19"",""326873""
""focus"",""19"",""328208""
","""event"",""trial"",""time""
""blur"",""19"",""230770""
""blur"",""19"",""326873""
","""event"",""trial"",""time""
""focus"",""19"",""231785""
""focus"",""19"",""328208""
","""event"",""trial"",""time""
""fullscreenenter"",""1"",""2479""
","
","","","406","","","22","18167","6820","&#9776;","elianto","#3366ff99"," "," ","1","+10","[1267]","1","0","1","","","","","","","",""
"pit-trial","31","372099","0.0-2.0-8.2-1.2","battery-v0.2","","""event"",""trial"",""time""
""fullscreenenter"",""1"",""2479""
""blur"",""19"",""230770""
""focus"",""19"",""231785""
""blur"",""19"",""326873""
""focus"",""19"",""328208""
","""event"",""trial"",""time""
""blur"",""19"",""230770""
""blur"",""19"",""326873""
","""event"",""trial"",""time""
""focus"",""19"",""231785""
""focus"",""19"",""328208""
","""event"",""trial"",""time""
""fullscreenenter"",""1"",""2479""
","
","","","495","","","22","18167","6820","&#9776;","elianto","#3366ff99"," "," ","1","+10","[1350]","1","0","1","","","","","","","",""
"pit-trial","32","375377","0.0-2.0-8.2-2.2","battery-v0.2","","""event"",""trial"",""time""
""fullscreenenter"",""1"",""2479""
""blur"",""19"",""230770""
""focus"",""19"",""231785""
""blur"",""19"",""326873""
""focus"",""19"",""328208""
","""event"",""trial"",""time""
""blur"",""19"",""230770""
""blur"",""19"",""326873""
","""event"",""trial"",""time""
""focus"",""19"",""231785""
""focus"",""19"",""328208""
","""event"",""trial"",""time""
""fullscreenenter"",""1"",""2479""
","
","","","409","","","22","18167","6820","&#9776;","elianto","#3366ff99"," "," ","1","+10","[1270]","1","0","1","","","","","","","",""
"pit-trial","33","378801","0.0-2.0-8.2-3.2","battery-v0.2","","""event"",""trial"",""time""
""fullscreenenter"",""1"",""2479""
""blur"",""19"",""230770""
""focus"",""19"",""231785""
""blur"",""19"",""326873""
""focus"",""19"",""328208""
","""event"",""trial"",""time""
""blur"",""19"",""230770""
""blur"",""19"",""326873""
","""event"",""trial"",""time""
""focus"",""19"",""231785""
""focus"",""19"",""328208""
","""event"",""trial"",""time""
""fullscreenenter"",""1"",""2479""
","
","","","551","","","22","18167","6820","&#9776;","elianto","#3366ff99"," "," ","1","0","[1411]","1","0","1","","","","","","","",""
"pit-trial","34","382212","0.0-2.0-8.2-4.2","battery-v0.2","","""event"",""trial"",""time""
""fullscreenenter"",""1"",""2479""
""blur"",""19"",""230770""
""focus"",""19"",""231785""
""blur"",""19"",""326873""
""focus"",""19"",""328208""
","""event"",""trial"",""time""
""blur"",""19"",""230770""
""blur"",""19"",""326873""
","""event"",""trial"",""time""
""focus"",""19"",""231785""
""focus"",""19"",""328208""
","""event"",""trial"",""time""
""fullscreenenter"",""1"",""2479""
","
","","","477","","","22","18167","6820","&#9776;","elianto","#3366ff99"," "," ","1","+10","[1369]","1","0","1","","","","","","","",""
"call-function","35","382218","0.0-2.0-9.0","battery-v0.2","","""event"",""trial"",""time""
""fullscreenenter"",""1"",""2479""
""blur"",""19"",""230770""
""focus"",""19"",""231785""
""blur"",""19"",""326873""
""focus"",""19"",""328208""
","""event"",""trial"",""time""
""blur"",""19"",""230770""
""blur"",""19"",""326873""
","""event"",""trial"",""time""
""focus"",""19"",""231785""
""focus"",""19"",""328208""
","""event"",""trial"",""time""
""fullscreenenter"",""1"",""2479""
","
","","","","","","","","","","","","","","","","","","","","","","","","","","",""
"pit-instructions","36","432895","0.0-2.0-10.0","battery-v0.2","","""event"",""trial"",""time""
""fullscreenenter"",""1"",""2479""
""blur"",""19"",""230770""
""focus"",""19"",""231785""
""blur"",""19"",""326873""
""focus"",""19"",""328208""
","""event"",""trial"",""time""
""blur"",""19"",""230770""
""blur"",""19"",""326873""
","""event"",""trial"",""time""
""focus"",""19"",""231785""
""focus"",""19"",""328208""
","""event"",""trial"",""time""
""fullscreenenter"",""1"",""2479""
","
","","[{""page_index"":0,""viewing_time"":7723},{""page_index"":1,""viewing_time"":6721},{""page_index"":2,""viewing_time"":9712},{""page_index"":3,""viewing_time"":14890},{""page_index"":4,""viewing_time"":11630}]","50677","","","","","","","","","","","","","","","","","","","","","","","",""
"pit-trial","37","436335","0.0-2.0-11.0-0.0","battery-v0.2","","""event"",""trial"",""time""
""fullscreenenter"",""1"",""2479""
""blur"",""19"",""230770""
""focus"",""19"",""231785""
""blur"",""19"",""326873""
""focus"",""19"",""328208""
","""event"",""trial"",""time""
""blur"",""19"",""230770""
""blur"",""19"",""326873""
","""event"",""trial"",""time""
""focus"",""19"",""231785""
""focus"",""19"",""328208""
","""event"",""trial"",""time""
""fullscreenenter"",""1"",""2479""
","
","","","555","","","22","18167","6820","&#9761;","elianto","#3366ff99","-1"," ","0","0","[1420]","1","0","2","","","","","","","",""
"pit-trial","38","439582","0.0-2.0-11.0-1.0","battery-v0.2","","""event"",""trial"",""time""
""fullscreenenter"",""1"",""2479""
""blur"",""19"",""230770""
""focus"",""19"",""231785""
""blur"",""19"",""326873""
""focus"",""19"",""328208""
","""event"",""trial"",""time""
""blur"",""19"",""230770""
""blur"",""19"",""326873""
","""event"",""trial"",""time""
""focus"",""19"",""231785""
""focus"",""19"",""328208""
","""event"",""trial"",""time""
""fullscreenenter"",""1"",""2479""
","
","","","346","","","22","18167","6820","&#9761;","elianto","#3366ff99","-1"," ","0","0","[1240]","1","0","2","","","","","","","",""
"pit-trial","39","442909","0.0-2.0-11.0-2.0","battery-v0.2","","""event"",""trial"",""time""
""fullscreenenter"",""1"",""2479""
""blur"",""19"",""230770""
""focus"",""19"",""231785""
""blur"",""19"",""326873""
""focus"",""19"",""328208""
","""event"",""trial"",""time""
""blur"",""19"",""230770""
""blur"",""19"",""326873""
","""event"",""trial"",""time""
""focus"",""19"",""231785""
""focus"",""19"",""328208""
","""event"",""trial"",""time""
""fullscreenenter"",""1"",""2479""
","
","","","216","","","22","18167","6820","&#9761;","elianto","#3366ff99","-1"," ","0","0","[1076]","1","0","2","","","","","","","",""
"pit-trial","40","445933","0.0-2.0-11.0-3.0","battery-v0.2","","""event"",""trial"",""time""
""fullscreenenter"",""1"",""2479""
""blur"",""19"",""230770""
""focus"",""19"",""231785""
""blur"",""19"",""326873""
""focus"",""19"",""328208""
","""event"",""trial"",""time""
""blur"",""19"",""230770""
""blur"",""19"",""326873""
","""event"",""trial"",""time""
""focus"",""19"",""231785""
""focus"",""19"",""328208""
","""event"",""trial"",""time""
""fullscreenenter"",""1"",""2479""
","
","","","127","","","22","18167","6820","&#9761;","elianto","#3366ff99","-1"," ","0","+10","[1021]","1","0","2","","","","","","","",""
"pit-trial","41","449120","0.0-2.0-11.0-4.0","battery-v0.2","","""event"",""trial"",""time""
""fullscreenenter"",""1"",""2479""
""blur"",""19"",""230770""
""focus"",""19"",""231785""
""blur"",""19"",""326873""
""focus"",""19"",""328208""
","""event"",""trial"",""time""
""blur"",""19"",""230770""
""blur"",""19"",""326873""
","""event"",""trial"",""time""
""focus"",""19"",""231785""
""focus"",""19"",""328208""
","""event"",""trial"",""time""
""fullscreenenter"",""1"",""2479""
","
","","","285","","","22","18167","6820","&#9761;","elianto","#3366ff99","-1"," ","0","0","[1172]","1","0","2","","","","","","","",""
"pit-trial","42","452378","0.0-2.0-11.1-0.1","battery-v0.2","","""event"",""trial"",""time""
""fullscreenenter"",""1"",""2479""
""blur"",""19"",""230770""
""focus"",""19"",""231785""
""blur"",""19"",""326873""
""focus"",""19"",""328208""
","""event"",""trial"",""time""
""blur"",""19"",""230770""
""blur"",""19"",""326873""
","""event"",""trial"",""time""
""focus"",""19"",""231785""
""focus"",""19"",""328208""
","""event"",""trial"",""time""
""fullscreenenter"",""1"",""2479""
","
","","","386","","","22","18167","6820","&#9761;","elianto","#3366ff99","-1"," ","0","0","[1243]","1","0","2","","","","","","","",""
"pit-trial","43","455609","0.0-2.0-11.1-1.1","battery-v0.2","","""event"",""trial"",""time""
""fullscreenenter"",""1"",""2479""
""blur"",""19"",""230770""
""focus"",""19"",""231785""
""blur"",""19"",""326873""
""focus"",""19"",""328208""
","""event"",""trial"",""time""
""blur"",""19"",""230770""
""blur"",""19"",""326873""
","""event"",""trial"",""time""
""focus"",""19"",""231785""
""focus"",""19"",""328208""
","""event"",""trial"",""time""
""fullscreenenter"",""1"",""2479""
","
","","","328","","","22","18167","6820","&#9761;","elianto","#3366ff99","-1"," ","0","0","[1217]","1","0","2","","","","","","","",""
"pit-trial","44","458900","0.0-2.0-11.1-2.1","battery-v0.2","","""event"",""trial"",""time""
""fullscreenenter"",""1"",""2479""
""blur"",""19"",""230770""
""focus"",""19"",""231785""
""blur"",""19"",""326873""
""focus"",""19"",""328208""
","""event"",""trial"",""time""
""blur"",""19"",""230770""
""blur"",""19"",""326873""
","""event"",""trial"",""time""
""focus"",""19"",""231785""
""focus"",""19"",""328208""
","""event"",""trial"",""time""
""fullscreenenter"",""1"",""2479""
","
","","","396","","","22","18167","6820","&#9761;","elianto","#3366ff99","-1"," ","0","0","[1287]","1","0","2","","","","","","","",""
"pit-trial","45","461910","0.0-2.0-11.1-3.1","battery-v0.2","","""event"",""trial"",""time""
""fullscreenenter"",""1"",""2479""
""blur"",""19"",""230770""
""focus"",""19"",""231785""
""blur"",""19"",""326873""
""focus"",""19"",""328208""
","""event"",""trial"",""time""
""blur"",""19"",""230770""
""blur"",""19"",""326873""
","""event"",""trial"",""time""
""focus"",""19"",""231785""
""focus"",""19"",""328208""
","""event"",""trial"",""time""
""fullscreenenter"",""1"",""2479""
","
","","","133","","","22","18167","6820","&#9761;","elianto","#3366ff99","-1"," ","0","+10","[990]","1","0","2","","","","","","","",""
"pit-trial","46","464884","0.0-2.0-11.1-4.1","battery-v0.2","","""event"",""trial"",""time""
""fullscreenenter"",""1"",""2479""
""blur"",""19"",""230770""
""focus"",""19"",""231785""
""blur"",""19"",""326873""
""focus"",""19"",""328208""
","""event"",""trial"",""time""
""blur"",""19"",""230770""
""blur"",""19"",""326873""
","""event"",""trial"",""time""
""focus"",""19"",""231785""
""focus"",""19"",""328208""
","""event"",""trial"",""time""
""fullscreenenter"",""1"",""2479""
","
","","","105","","","22","18167","6820","&#9761;","elianto","#3366ff99","-1"," ","0","0","[967]","1","0","2","","","","","","","",""
"pit-trial","47","468071","0.0-2.0-11.2-0.2","battery-v0.2","","""event"",""trial"",""time""
""fullscreenenter"",""1"",""2479""
""blur"",""19"",""230770""
""focus"",""19"",""231785""
""blur"",""19"",""326873""
""focus"",""19"",""328208""
","""event"",""trial"",""time""
""blur"",""19"",""230770""
""blur"",""19"",""326873""
","""event"",""trial"",""time""
""focus"",""19"",""231785""
""focus"",""19"",""328208""
","""event"",""trial"",""time""
""fullscreenenter"",""1"",""2479""
","
","","","247","","","22","18167","6820","&#9761;","elianto","#3366ff99","-1"," ","0","0","[1105]","1","0","2","","","","","","","",""
"pit-trial","48","471307","0.0-2.0-11.2-1.2","battery-v0.2","","""event"",""trial"",""time""
""fullscreenenter"",""1"",""2479""
""blur"",""19"",""230770""
""focus"",""19"",""231785""
""blur"",""19"",""326873""
""focus"",""19"",""328208""
","""event"",""trial"",""time""
""blur"",""19"",""230770""
""blur"",""19"",""326873""
","""event"",""trial"",""time""
""focus"",""19"",""231785""
""focus"",""19"",""328208""
","""event"",""trial"",""time""
""fullscreenenter"",""1"",""2479""
","
","","","218","","","22","18167","6820","&#9761;","elianto","#3366ff99","-1"," ","0","0","[1108]","1","0","2","","","","","","","",""
"pit-trial","49","474361","0.0-2.0-11.2-2.2","battery-v0.2","","""event"",""trial"",""time""
""fullscreenenter"",""1"",""2479""
""blur"",""19"",""230770""
""focus"",""19"",""231785""
""blur"",""19"",""326873""
""focus"",""19"",""328208""
","""event"",""trial"",""time""
""blur"",""19"",""230770""
""blur"",""19"",""326873""
","""event"",""trial"",""time""
""focus"",""19"",""231785""
""focus"",""19"",""328208""
","""event"",""trial"",""time""
""fullscreenenter"",""1"",""2479""
","
","","","183","","","22","18167","6820","&#9761;","elianto","#3366ff99","-1"," ","0","0","[1042]","1","0","2","","","","","","","",""
"pit-trial","50","477687","0.0-2.0-11.2-3.2","battery-v0.2","","""event"",""trial"",""time""
""fullscreenenter"",""1"",""2479""
""blur"",""19"",""230770""
""focus"",""19"",""231785""
""blur"",""19"",""326873""
""focus"",""19"",""328208""
","""event"",""trial"",""time""
""blur"",""19"",""230770""
""blur"",""19"",""326873""
","""event"",""trial"",""time""
""focus"",""19"",""231785""
""focus"",""19"",""328208""
","""event"",""trial"",""time""
""fullscreenenter"",""1"",""2479""
","
","","","453","","","22","18167","6820","&#9761;","elianto","#3366ff99","-1"," ","0","+10","[1312]","1","0","2","","","","","","","",""
"pit-trial","51","480960","0.0-2.0-11.2-4.2","battery-v0.2","","""event"",""trial"",""time""
""fullscreenenter"",""1"",""2479""
""blur"",""19"",""230770""
""focus"",""19"",""231785""
""blur"",""19"",""326873""
""focus"",""19"",""328208""
","""event"",""trial"",""time""
""blur"",""19"",""230770""
""blur"",""19"",""326873""
","""event"",""trial"",""time""
""focus"",""19"",""231785""
""focus"",""19"",""328208""
","""event"",""trial"",""time""
""fullscreenenter"",""1"",""2479""
","
","","","407","","","22","18167","6820","&#9761;","elianto","#3366ff99","-1"," ","0","0","[1263]","1","0","2","","","","","","","",""
"pit-trial","52","484171","0.0-2.0-11.3-0.3","battery-v0.2","","""event"",""trial"",""time""
""fullscreenenter"",""1"",""2479""
""blur"",""19"",""230770""
""focus"",""19"",""231785""
""blur"",""19"",""326873""
""focus"",""19"",""328208""
","""event"",""trial"",""time""
""blur"",""19"",""230770""
""blur"",""19"",""326873""
","""event"",""trial"",""time""
""focus"",""19"",""231785""
""focus"",""19"",""328208""
","""event"",""trial"",""time""
""fullscreenenter"",""1"",""2479""
","
","","","354","","","22","18167","6820","&#9761;","elianto","#3366ff99","-1"," ","0","0","[1208]","1","0","2","","","","","","","",""
"pit-trial","53","487367","0.0-2.0-11.3-1.3","battery-v0.2","","""event"",""trial"",""time""
""fullscreenenter"",""1"",""2479""
""blur"",""19"",""230770""
""focus"",""19"",""231785""
""blur"",""19"",""326873""
""focus"",""19"",""328208""
","""event"",""trial"",""time""
""blur"",""19"",""230770""
""blur"",""19"",""326873""
","""event"",""trial"",""time""
""focus"",""19"",""231785""
""focus"",""19"",""328208""
","""event"",""trial"",""time""
""fullscreenenter"",""1"",""2479""
","
","","","295","","","22","18167","6820","&#9761;","elianto","#3366ff99","-1"," ","0","0","[1186]","1","0","2","","","","","","","",""
"pit-trial","54","490643","0.0-2.0-11.3-2.3","battery-v0.2","","""event"",""trial"",""time""
""fullscreenenter"",""1"",""2479""
""blur"",""19"",""230770""
""focus"",""19"",""231785""
""blur"",""19"",""326873""
""focus"",""19"",""328208""
","""event"",""trial"",""time""
""blur"",""19"",""230770""
""blur"",""19"",""326873""
","""event"",""trial"",""time""
""focus"",""19"",""231785""
""focus"",""19"",""328208""
","""event"",""trial"",""time""
""fullscreenenter"",""1"",""2479""
","
","","","370","","","22","18167","6820","&#9761;","elianto","#3366ff99","-1"," ","0","0","[1262]","1","0","2","","","","","","","",""
"pit-trial","55","493775","0.0-2.0-11.3-3.3","battery-v0.2","","""event"",""trial"",""time""
""fullscreenenter"",""1"",""2479""
""blur"",""19"",""230770""
""focus"",""19"",""231785""
""blur"",""19"",""326873""
""focus"",""19"",""328208""
","""event"",""trial"",""time""
""blur"",""19"",""230770""
""blur"",""19"",""326873""
","""event"",""trial"",""time""
""focus"",""19"",""231785""
""focus"",""19"",""328208""
","""event"",""trial"",""time""
""fullscreenenter"",""1"",""2479""
","
","","","255","","","22","18167","6820","&#9761;","elianto","#3366ff99","-1"," ","0","+10","[1112]","1","0","2","","","","","","","",""
"pit-trial","56","496873","0.0-2.0-11.3-4.3","battery-v0.2","","""event"",""trial"",""time""
""fullscreenenter"",""1"",""2479""
""blur"",""19"",""230770""
""focus"",""19"",""231785""
""blur"",""19"",""326873""
""focus"",""19"",""328208""
","""event"",""trial"",""time""
""blur"",""19"",""230770""
""blur"",""19"",""326873""
","""event"",""trial"",""time""
""focus"",""19"",""231785""
""focus"",""19"",""328208""
","""event"",""trial"",""time""
""fullscreenenter"",""1"",""2479""
","
","","","233","","","22","18167","6820","&#9761;","elianto","#3366ff99","-1"," ","0","0","[1089]","1","0","2","","","","","","","",""
"call-function","57","496874","0.0-2.0-12.0","battery-v0.2","","""event"",""trial"",""time""
""fullscreenenter"",""1"",""2479""
""blur"",""19"",""230770""
""focus"",""19"",""231785""
""blur"",""19"",""326873""
""focus"",""19"",""328208""
","""event"",""trial"",""time""
""blur"",""19"",""230770""
""blur"",""19"",""326873""
","""event"",""trial"",""time""
""focus"",""19"",""231785""
""focus"",""19"",""328208""
","""event"",""trial"",""time""
""fullscreenenter"",""1"",""2479""
","
","","","","","","","","","","","","","","","","","","","","","","","","","","",""
"pit-instructions","58","530337","0.0-2.0-13.0","battery-v0.2","","""event"",""trial"",""time""
""fullscreenenter"",""1"",""2479""
""blur"",""19"",""230770""
""focus"",""19"",""231785""
""blur"",""19"",""326873""
""focus"",""19"",""328208""
","""event"",""trial"",""time""
""blur"",""19"",""230770""
""blur"",""19"",""326873""
","""event"",""trial"",""time""
""focus"",""19"",""231785""
""focus"",""19"",""328208""
","""event"",""trial"",""time""
""fullscreenenter"",""1"",""2479""
","
","","[{""page_index"":0,""viewing_time"":6968},{""page_index"":1,""viewing_time"":6627},{""page_index"":2,""viewing_time"":3170},{""page_index"":3,""viewing_time"":12059},{""page_index"":4,""viewing_time"":4637}]","33461","","","","","","","","","","","","","","","","","","","","","","","",""
"pit-trial","59","535206","0.0-2.0-14.0-0.0","battery-v0.2","","""event"",""trial"",""time""
""fullscreenenter"",""1"",""2479""
""blur"",""19"",""230770""
""focus"",""19"",""231785""
""blur"",""19"",""326873""
""focus"",""19"",""328208""
","""event"",""trial"",""time""
""blur"",""19"",""230770""
""blur"",""19"",""326873""
","""event"",""trial"",""time""
""focus"",""19"",""231785""
""focus"",""19"",""328208""
","""event"",""trial"",""time""
""fullscreenenter"",""1"",""2479""
","
","","","-1","","","22","18167","6820","&#9826;","elianto","#f73b6a7A","-1","-1","1","0","[]","0","0","3","","","","","","","",""
"pit-trial","60","540072","0.0-2.0-14.0-1.0","battery-v0.2","","""event"",""trial"",""time""
""fullscreenenter"",""1"",""2479""
""blur"",""19"",""230770""
""focus"",""19"",""231785""
""blur"",""19"",""326873""
""focus"",""19"",""328208""
","""event"",""trial"",""time""
""blur"",""19"",""230770""
""blur"",""19"",""326873""
","""event"",""trial"",""time""
""focus"",""19"",""231785""
""focus"",""19"",""328208""
","""event"",""trial"",""time""
""fullscreenenter"",""1"",""2479""
","
","","","-1","","","22","18167","6820","&#9826;","elianto","#f73b6a7A","-1","-1","1","0","[]","0","0","3","","","","","","","",""
"pit-trial","61","544938","0.0-2.0-14.0-2.0","battery-v0.2","","""event"",""trial"",""time""
""fullscreenenter"",""1"",""2479""
""blur"",""19"",""230770""
""focus"",""19"",""231785""
""blur"",""19"",""326873""
""focus"",""19"",""328208""
","""event"",""trial"",""time""
""blur"",""19"",""230770""
""blur"",""19"",""326873""
","""event"",""trial"",""time""
""focus"",""19"",""231785""
""focus"",""19"",""328208""
","""event"",""trial"",""time""
""fullscreenenter"",""1"",""2479""
","
","","","-1","","","22","18167","6820","&#9826;","elianto","#f73b6a7A","-1","-1","1","0","[]","0","0","3","","","","","","","",""
"pit-trial","62","549949","0.0-2.0-14.0-3.0","battery-v0.2","","""event"",""trial"",""time""
""fullscreenenter"",""1"",""2479""
""blur"",""19"",""230770""
""focus"",""19"",""231785""
""blur"",""19"",""326873""
""focus"",""19"",""328208""
","""event"",""trial"",""time""
""blur"",""19"",""230770""
""blur"",""19"",""326873""
","""event"",""trial"",""time""
""focus"",""19"",""231785""
""focus"",""19"",""328208""
","""event"",""trial"",""time""
""fullscreenenter"",""1"",""2479""
","
","","","-1","","","22","18167","6820","&#9826;","elianto","#f73b6a7A","-1","-1","1","-10","[]","0","0","3","","","","","","","",""
"pit-trial","63","555006","0.0-2.0-14.0-4.0","battery-v0.2","","""event"",""trial"",""time""
""fullscreenenter"",""1"",""2479""
""blur"",""19"",""230770""
""focus"",""19"",""231785""
""blur"",""19"",""326873""
""focus"",""19"",""328208""
","""event"",""trial"",""time""
""blur"",""19"",""230770""
""blur"",""19"",""326873""
","""event"",""trial"",""time""
""focus"",""19"",""231785""
""focus"",""19"",""328208""
","""event"",""trial"",""time""
""fullscreenenter"",""1"",""2479""
","
","","","-1","","","22","18167","6820","&#9826;","elianto","#f73b6a7A","-1","-1","1","0","[]","0","0","3","","","","","","","",""
"pit-trial","64","559881","0.0-2.0-14.1-0.1","battery-v0.2","","""event"",""trial"",""time""
""fullscreenenter"",""1"",""2479""
""blur"",""19"",""230770""
""focus"",""19"",""231785""
""blur"",""19"",""326873""
""focus"",""19"",""328208""
","""event"",""trial"",""time""
""blur"",""19"",""230770""
""blur"",""19"",""326873""
","""event"",""trial"",""time""
""focus"",""19"",""231785""
""focus"",""19"",""328208""
","""event"",""trial"",""time""
""fullscreenenter"",""1"",""2479""
","
","","","-1","","","22","18167","6820","&#9826;","elianto","#f73b6a7A","-1","-1","1","0","[]","0","0","3","","","","","","","",""
"pit-trial","65","564748","0.0-2.0-14.1-1.1","battery-v0.2","","""event"",""trial"",""time""
""fullscreenenter"",""1"",""2479""
""blur"",""19"",""230770""
""focus"",""19"",""231785""
""blur"",""19"",""326873""
""focus"",""19"",""328208""
","""event"",""trial"",""time""
""blur"",""19"",""230770""
""blur"",""19"",""326873""
","""event"",""trial"",""time""
""focus"",""19"",""231785""
""focus"",""19"",""328208""
","""event"",""trial"",""time""
""fullscreenenter"",""1"",""2479""
","
","","","-1","","","22","18167","6820","&#9826;","elianto","#f73b6a7A","-1","-1","1","0","[]","0","0","3","","","","","","","",""
"pit-trial","66","569629","0.0-2.0-14.1-2.1","battery-v0.2","","""event"",""trial"",""time""
""fullscreenenter"",""1"",""2479""
""blur"",""19"",""230770""
""focus"",""19"",""231785""
""blur"",""19"",""326873""
""focus"",""19"",""328208""
","""event"",""trial"",""time""
""blur"",""19"",""230770""
""blur"",""19"",""326873""
","""event"",""trial"",""time""
""focus"",""19"",""231785""
""focus"",""19"",""328208""
","""event"",""trial"",""time""
""fullscreenenter"",""1"",""2479""
","
","","","-1","","","22","18167","6820","&#9826;","elianto","#f73b6a7A","-1","-1","1","0","[]","0","0","3","","","","","","","",""
"pit-trial","67","574493","0.0-2.0-14.1-3.1","battery-v0.2","","""event"",""trial"",""time""
""fullscreenenter"",""1"",""2479""
""blur"",""19"",""230770""
""focus"",""19"",""231785""
""blur"",""19"",""326873""
""focus"",""19"",""328208""
","""event"",""trial"",""time""
""blur"",""19"",""230770""
""blur"",""19"",""326873""
","""event"",""trial"",""time""
""focus"",""19"",""231785""
""focus"",""19"",""328208""
","""event"",""trial"",""time""
""fullscreenenter"",""1"",""2479""
","
","","","-1","","","22","18167","6820","&#9826;","elianto","#f73b6a7A","-1","-1","1","-10","[]","0","0","3","","","","","","","",""
"pit-trial","68","579372","0.0-2.0-14.1-4.1","battery-v0.2","","""event"",""trial"",""time""
""fullscreenenter"",""1"",""2479""
""blur"",""19"",""230770""
""focus"",""19"",""231785""
""blur"",""19"",""326873""
""focus"",""19"",""328208""
","""event"",""trial"",""time""
""blur"",""19"",""230770""
""blur"",""19"",""326873""
","""event"",""trial"",""time""
""focus"",""19"",""231785""
""focus"",""19"",""328208""
","""event"",""trial"",""time""
""fullscreenenter"",""1"",""2479""
","
","","","-1","","","22","18167","6820","&#9826;","elianto","#f73b6a7A","-1","-1","1","0","[]","0","0","3","","","","","","","",""
"pit-trial","69","584249","0.0-2.0-14.2-0.2","battery-v0.2","","""event"",""trial"",""time""
""fullscreenenter"",""1"",""2479""
""blur"",""19"",""230770""
""focus"",""19"",""231785""
""blur"",""19"",""326873""
""focus"",""19"",""328208""
","""event"",""trial"",""time""
""blur"",""19"",""230770""
""blur"",""19"",""326873""
","""event"",""trial"",""time""
""focus"",""19"",""231785""
""focus"",""19"",""328208""
","""event"",""trial"",""time""
""fullscreenenter"",""1"",""2479""
","
","","","-1","","","22","18167","6820","&#9826;","elianto","#f73b6a7A","-1","-1","1","0","[]","0","0","3","","","","","","","",""
"pit-trial","70","589112","0.0-2.0-14.2-1.2","battery-v0.2","","""event"",""trial"",""time""
""fullscreenenter"",""1"",""2479""
""blur"",""19"",""230770""
""focus"",""19"",""231785""
""blur"",""19"",""326873""
""focus"",""19"",""328208""
","""event"",""trial"",""time""
""blur"",""19"",""230770""
""blur"",""19"",""326873""
","""event"",""trial"",""time""
""focus"",""19"",""231785""
""focus"",""19"",""328208""
","""event"",""trial"",""time""
""fullscreenenter"",""1"",""2479""
","
","","","-1","","","22","18167","6820","&#9826;","elianto","#f73b6a7A","-1","-1","1","0","[]","0","0","3","","","","","","","",""
"pit-trial","71","593976","0.0-2.0-14.2-2.2","battery-v0.2","","""event"",""trial"",""time""
""fullscreenenter"",""1"",""2479""
""blur"",""19"",""230770""
""focus"",""19"",""231785""
""blur"",""19"",""326873""
""focus"",""19"",""328208""
","""event"",""trial"",""time""
""blur"",""19"",""230770""
""blur"",""19"",""326873""
","""event"",""trial"",""time""
""focus"",""19"",""231785""
""focus"",""19"",""328208""
","""event"",""trial"",""time""
""fullscreenenter"",""1"",""2479""
","
","","","-1","","","22","18167","6820","&#9826;","elianto","#f73b6a7A","-1","-1","1","0","[]","0","0","3","","","","","","","",""
"pit-trial","72","598841","0.0-2.0-14.2-3.2","battery-v0.2","","""event"",""trial"",""time""
""fullscreenenter"",""1"",""2479""
""blur"",""19"",""230770""
""focus"",""19"",""231785""
""blur"",""19"",""326873""
""focus"",""19"",""328208""
","""event"",""trial"",""time""
""blur"",""19"",""230770""
""blur"",""19"",""326873""
","""event"",""trial"",""time""
""focus"",""19"",""231785""
""focus"",""19"",""328208""
","""event"",""trial"",""time""
""fullscreenenter"",""1"",""2479""
","
","","","-1","","","22","18167","6820","&#9826;","elianto","#f73b6a7A","-1","-1","1","-10","[]","0","0","3","","","","","","","",""
"pit-trial","73","603717","0.0-2.0-14.2-4.2","battery-v0.2","","""event"",""trial"",""time""
""fullscreenenter"",""1"",""2479""
""blur"",""19"",""230770""
""focus"",""19"",""231785""
""blur"",""19"",""326873""
""focus"",""19"",""328208""
","""event"",""trial"",""time""
""blur"",""19"",""230770""
""blur"",""19"",""326873""
","""event"",""trial"",""time""
""focus"",""19"",""231785""
""focus"",""19"",""328208""
","""event"",""trial"",""time""
""fullscreenenter"",""1"",""2479""
","
","","","-1","","","22","18167","6820","&#9826;","elianto","#f73b6a7A","-1","-1","1","0","[]","0","0","3","","","","","","","",""
"pit-trial","74","608580","0.0-2.0-14.3-0.3","battery-v0.2","","""event"",""trial"",""time""
""fullscreenenter"",""1"",""2479""
""blur"",""19"",""230770""
""focus"",""19"",""231785""
""blur"",""19"",""326873""
""focus"",""19"",""328208""
","""event"",""trial"",""time""
""blur"",""19"",""230770""
""blur"",""19"",""326873""
","""event"",""trial"",""time""
""focus"",""19"",""231785""
""focus"",""19"",""328208""
","""event"",""trial"",""time""
""fullscreenenter"",""1"",""2479""
","
","","","-1","","","22","18167","6820","&#9826;","elianto","#f73b6a7A","-1","-1","1","0","[]","0","0","3","","","","","","","",""
"pit-trial","75","613447","0.0-2.0-14.3-1.3","battery-v0.2","","""event"",""trial"",""time""
""fullscreenenter"",""1"",""2479""
""blur"",""19"",""230770""
""focus"",""19"",""231785""
""blur"",""19"",""326873""
""focus"",""19"",""328208""
","""event"",""trial"",""time""
""blur"",""19"",""230770""
""blur"",""19"",""326873""
","""event"",""trial"",""time""
""focus"",""19"",""231785""
""focus"",""19"",""328208""
","""event"",""trial"",""time""
""fullscreenenter"",""1"",""2479""
","
","","","-1","","","22","18167","6820","&#9826;","elianto","#f73b6a7A","-1","-1","1","0","[]","0","0","3","","","","","","","",""
"pit-trial","76","618306","0.0-2.0-14.3-2.3","battery-v0.2","","""event"",""trial"",""time""
""fullscreenenter"",""1"",""2479""
""blur"",""19"",""230770""
""focus"",""19"",""231785""
""blur"",""19"",""326873""
""focus"",""19"",""328208""
","""event"",""trial"",""time""
""blur"",""19"",""230770""
""blur"",""19"",""326873""
","""event"",""trial"",""time""
""focus"",""19"",""231785""
""focus"",""19"",""328208""
","""event"",""trial"",""time""
""fullscreenenter"",""1"",""2479""
","
","","","-1","","","22","18167","6820","&#9826;","elianto","#f73b6a7A","-1","-1","1","0","[]","0","0","3","","","","","","","",""
"pit-trial","77","623171","0.0-2.0-14.3-3.3","battery-v0.2","","""event"",""trial"",""time""
""fullscreenenter"",""1"",""2479""
""blur"",""19"",""230770""
""focus"",""19"",""231785""
""blur"",""19"",""326873""
""focus"",""19"",""328208""
","""event"",""trial"",""time""
""blur"",""19"",""230770""
""blur"",""19"",""326873""
","""event"",""trial"",""time""
""focus"",""19"",""231785""
""focus"",""19"",""328208""
","""event"",""trial"",""time""
""fullscreenenter"",""1"",""2479""
","
","","","-1","","","22","18167","6820","&#9826;","elianto","#f73b6a7A","-1","-1","1","-10","[]","0","0","3","","","","","","","",""
"pit-trial","78","628035","0.0-2.0-14.3-4.3","battery-v0.2","","""event"",""trial"",""time""
""fullscreenenter"",""1"",""2479""
""blur"",""19"",""230770""
""focus"",""19"",""231785""
""blur"",""19"",""326873""
""focus"",""19"",""328208""
","""event"",""trial"",""time""
""blur"",""19"",""230770""
""blur"",""19"",""326873""
","""event"",""trial"",""time""
""focus"",""19"",""231785""
""focus"",""19"",""328208""
","""event"",""trial"",""time""
""fullscreenenter"",""1"",""2479""
","
","","","-1","","","22","18167","6820","&#9826;","elianto","#f73b6a7A","-1","-1","1","0","[]","0","0","3","","","","","","","",""
"call-function","79","628037","0.0-2.0-15.0","battery-v0.2","","""event"",""trial"",""time""
""fullscreenenter"",""1"",""2479""
""blur"",""19"",""230770""
""focus"",""19"",""231785""
""blur"",""19"",""326873""
""focus"",""19"",""328208""
","""event"",""trial"",""time""
""blur"",""19"",""230770""
""blur"",""19"",""326873""
","""event"",""trial"",""time""
""focus"",""19"",""231785""
""focus"",""19"",""328208""
","""event"",""trial"",""time""
""fullscreenenter"",""1"",""2479""
","
","","","","","","","","","","","","","","","","","","","","","","","","","","",""
"pit-instructions","80","652295","0.0-2.0-16.0","battery-v0.2","","""event"",""trial"",""time""
""fullscreenenter"",""1"",""2479""
""blur"",""19"",""230770""
""focus"",""19"",""231785""
""blur"",""19"",""326873""
""focus"",""19"",""328208""
","""event"",""trial"",""time""
""blur"",""19"",""230770""
""blur"",""19"",""326873""
","""event"",""trial"",""time""
""focus"",""19"",""231785""
""focus"",""19"",""328208""
","""event"",""trial"",""time""
""fullscreenenter"",""1"",""2479""
","
","","[{""page_index"":0,""viewing_time"":6818},{""page_index"":1,""viewing_time"":8294},{""page_index"":2,""viewing_time"":4201},{""page_index"":3,""viewing_time"":4944}]","24258","","","","","","","","","","","","","","","","","","","","","","","",""
"pit-trial","81","657167","0.0-2.0-17.0-0.0","battery-v0.2","","""event"",""trial"",""time""
""fullscreenenter"",""1"",""2479""
""blur"",""19"",""230770""
""focus"",""19"",""231785""
""blur"",""19"",""326873""
""focus"",""19"",""328208""
","""event"",""trial"",""time""
""blur"",""19"",""230770""
""blur"",""19"",""326873""
","""event"",""trial"",""time""
""focus"",""19"",""231785""
""focus"",""19"",""328208""
","""event"",""trial"",""time""
""fullscreenenter"",""1"",""2479""
","
","","","-1","","","22","18167","6820","&#9789;","elianto","#f73b6a7A"," ","-1","0","-10","[]","0","0","4","","","","","","","",""
"pit-trial","82","662035","0.0-2.0-17.0-1.0","battery-v0.2","","""event"",""trial"",""time""
""fullscreenenter"",""1"",""2479""
""blur"",""19"",""230770""
""focus"",""19"",""231785""
""blur"",""19"",""326873""
""focus"",""19"",""328208""
","""event"",""trial"",""time""
""blur"",""19"",""230770""
""blur"",""19"",""326873""
","""event"",""trial"",""time""
""focus"",""19"",""231785""
""focus"",""19"",""328208""
","""event"",""trial"",""time""
""fullscreenenter"",""1"",""2479""
","
","","","-1","","","22","18167","6820","&#9789;","elianto","#f73b6a7A"," ","-1","0","-10","[]","0","0","4","","","","","","","",""
"pit-trial","83","666905","0.0-2.0-17.0-2.0","battery-v0.2","","""event"",""trial"",""time""
""fullscreenenter"",""1"",""2479""
""blur"",""19"",""230770""
""focus"",""19"",""231785""
""blur"",""19"",""326873""
""focus"",""19"",""328208""
","""event"",""trial"",""time""
""blur"",""19"",""230770""
""blur"",""19"",""326873""
","""event"",""trial"",""time""
""focus"",""19"",""231785""
""focus"",""19"",""328208""
","""event"",""trial"",""time""
""fullscreenenter"",""1"",""2479""
","
","","","-1","","","22","18167","6820","&#9789;","elianto","#f73b6a7A"," ","-1","0","-10","[]","0","0","4","","","","","","","",""
"pit-trial","84","671766","0.0-2.0-17.0-3.0","battery-v0.2","","""event"",""trial"",""time""
""fullscreenenter"",""1"",""2479""
""blur"",""19"",""230770""
""focus"",""19"",""231785""
""blur"",""19"",""326873""
""focus"",""19"",""328208""
","""event"",""trial"",""time""
""blur"",""19"",""230770""
""blur"",""19"",""326873""
","""event"",""trial"",""time""
""focus"",""19"",""231785""
""focus"",""19"",""328208""
","""event"",""trial"",""time""
""fullscreenenter"",""1"",""2479""
","
","","","-1","","","22","18167","6820","&#9789;","elianto","#f73b6a7A"," ","-1","0","0","[]","0","0","4","","","","","","","",""
"pit-trial","85","676634","0.0-2.0-17.0-4.0","battery-v0.2","","""event"",""trial"",""time""
""fullscreenenter"",""1"",""2479""
""blur"",""19"",""230770""
""focus"",""19"",""231785""
""blur"",""19"",""326873""
""focus"",""19"",""328208""
","""event"",""trial"",""time""
""blur"",""19"",""230770""
""blur"",""19"",""326873""
","""event"",""trial"",""time""
""focus"",""19"",""231785""
""focus"",""19"",""328208""
","""event"",""trial"",""time""
""fullscreenenter"",""1"",""2479""
","
","","","-1","","","22","18167","6820","&#9789;","elianto","#f73b6a7A"," ","-1","0","-10","[]","0","0","4","","","","","","","",""
"pit-trial","86","681506","0.0-2.0-17.1-0.1","battery-v0.2","","""event"",""trial"",""time""
""fullscreenenter"",""1"",""2479""
""blur"",""19"",""230770""
""focus"",""19"",""231785""
""blur"",""19"",""326873""
""focus"",""19"",""328208""
","""event"",""trial"",""time""
""blur"",""19"",""230770""
""blur"",""19"",""326873""
","""event"",""trial"",""time""
""focus"",""19"",""231785""
""focus"",""19"",""328208""
","""event"",""trial"",""time""
""fullscreenenter"",""1"",""2479""
","
","","","-1","","","22","18167","6820","&#9789;","elianto","#f73b6a7A"," ","-1","0","-10","[]","0","0","4","","","","","","","",""
"pit-trial","87","686376","0.0-2.0-17.1-1.1","battery-v0.2","","""event"",""trial"",""time""
""fullscreenenter"",""1"",""2479""
""blur"",""19"",""230770""
""focus"",""19"",""231785""
""blur"",""19"",""326873""
""focus"",""19"",""328208""
","""event"",""trial"",""time""
""blur"",""19"",""230770""
""blur"",""19"",""326873""
","""event"",""trial"",""time""
""focus"",""19"",""231785""
""focus"",""19"",""328208""
","""event"",""trial"",""time""
""fullscreenenter"",""1"",""2479""
","
","","","-1","","","22","18167","6820","&#9789;","elianto","#f73b6a7A"," ","-1","0","-10","[]","0","0","4","","","","","","","",""
"pit-trial","88","691244","0.0-2.0-17.1-2.1","battery-v0.2","","""event"",""trial"",""time""
""fullscreenenter"",""1"",""2479""
""blur"",""19"",""230770""
""focus"",""19"",""231785""
""blur"",""19"",""326873""
""focus"",""19"",""328208""
","""event"",""trial"",""time""
""blur"",""19"",""230770""
""blur"",""19"",""326873""
","""event"",""trial"",""time""
""focus"",""19"",""231785""
""focus"",""19"",""328208""
","""event"",""trial"",""time""
""fullscreenenter"",""1"",""2479""
","
","","","-1","","","22","18167","6820","&#9789;","elianto","#f73b6a7A"," ","-1","0","-10","[]","0","0","4","","","","","","","",""
"pit-trial","89","696104","0.0-2.0-17.1-3.1","battery-v0.2","","""event"",""trial"",""time""
""fullscreenenter"",""1"",""2479""
""blur"",""19"",""230770""
""focus"",""19"",""231785""
""blur"",""19"",""326873""
""focus"",""19"",""328208""
","""event"",""trial"",""time""
""blur"",""19"",""230770""
""blur"",""19"",""326873""
","""event"",""trial"",""time""
""focus"",""19"",""231785""
""focus"",""19"",""328208""
","""event"",""trial"",""time""
""fullscreenenter"",""1"",""2479""
","
","","","-1","","","22","18167","6820","&#9789;","elianto","#f73b6a7A"," ","-1","0","0","[]","0","0","4","","","","","","","",""
"pit-trial","90","700966","0.0-2.0-17.1-4.1","battery-v0.2","","""event"",""trial"",""time""
""fullscreenenter"",""1"",""2479""
""blur"",""19"",""230770""
""focus"",""19"",""231785""
""blur"",""19"",""326873""
""focus"",""19"",""328208""
","""event"",""trial"",""time""
""blur"",""19"",""230770""
""blur"",""19"",""326873""
","""event"",""trial"",""time""
""focus"",""19"",""231785""
""focus"",""19"",""328208""
","""event"",""trial"",""time""
""fullscreenenter"",""1"",""2479""
","
","","","-1","","","22","18167","6820","&#9789;","elianto","#f73b6a7A"," ","-1","0","-10","[]","0","0","4","","","","","","","",""
"pit-trial","91","705836","0.0-2.0-17.2-0.2","battery-v0.2","","""event"",""trial"",""time""
""fullscreenenter"",""1"",""2479""
""blur"",""19"",""230770""
""focus"",""19"",""231785""
""blur"",""19"",""326873""
""focus"",""19"",""328208""
","""event"",""trial"",""time""
""blur"",""19"",""230770""
""blur"",""19"",""326873""
","""event"",""trial"",""time""
""focus"",""19"",""231785""
""focus"",""19"",""328208""
","""event"",""trial"",""time""
""fullscreenenter"",""1"",""2479""
","
","","","-1","","","22","18167","6820","&#9789;","elianto","#f73b6a7A"," ","-1","0","-10","[]","0","0","4","","","","","","","",""
"pit-trial","92","710715","0.0-2.0-17.2-1.2","battery-v0.2","","""event"",""trial"",""time""
""fullscreenenter"",""1"",""2479""
""blur"",""19"",""230770""
""focus"",""19"",""231785""
""blur"",""19"",""326873""
""focus"",""19"",""328208""
","""event"",""trial"",""time""
""blur"",""19"",""230770""
""blur"",""19"",""326873""
","""event"",""trial"",""time""
""focus"",""19"",""231785""
""focus"",""19"",""328208""
","""event"",""trial"",""time""
""fullscreenenter"",""1"",""2479""
","
","","","-1","","","22","18167","6820","&#9789;","elianto","#f73b6a7A"," ","-1","0","-10","[]","0","0","4","","","","","","","",""
"pit-trial","93","715583","0.0-2.0-17.2-2.2","battery-v0.2","","""event"",""trial"",""time""
""fullscreenenter"",""1"",""2479""
""blur"",""19"",""230770""
""focus"",""19"",""231785""
""blur"",""19"",""326873""
""focus"",""19"",""328208""
","""event"",""trial"",""time""
""blur"",""19"",""230770""
""blur"",""19"",""326873""
","""event"",""trial"",""time""
""focus"",""19"",""231785""
""focus"",""19"",""328208""
","""event"",""trial"",""time""
""fullscreenenter"",""1"",""2479""
","
","","","-1","","","22","18167","6820","&#9789;","elianto","#f73b6a7A"," ","-1","0","-10","[]","0","0","4","","","","","","","",""
"pit-trial","94","720440","0.0-2.0-17.2-3.2","battery-v0.2","","""event"",""trial"",""time""
""fullscreenenter"",""1"",""2479""
""blur"",""19"",""230770""
""focus"",""19"",""231785""
""blur"",""19"",""326873""
""focus"",""19"",""328208""
","""event"",""trial"",""time""
""blur"",""19"",""230770""
""blur"",""19"",""326873""
","""event"",""trial"",""time""
""focus"",""19"",""231785""
""focus"",""19"",""328208""
","""event"",""trial"",""time""
""fullscreenenter"",""1"",""2479""
","
","","","-1","","","22","18167","6820","&#9789;","elianto","#f73b6a7A"," ","-1","0","0","[]","0","0","4","","","","","","","",""
"pit-trial","95","725318","0.0-2.0-17.2-4.2","battery-v0.2","","""event"",""trial"",""time""
""fullscreenenter"",""1"",""2479""
""blur"",""19"",""230770""
""focus"",""19"",""231785""
""blur"",""19"",""326873""
""focus"",""19"",""328208""
","""event"",""trial"",""time""
""blur"",""19"",""230770""
""blur"",""19"",""326873""
","""event"",""trial"",""time""
""focus"",""19"",""231785""
""focus"",""19"",""328208""
","""event"",""trial"",""time""
""fullscreenenter"",""1"",""2479""
","
","","","-1","","","22","18167","6820","&#9789;","elianto","#f73b6a7A"," ","-1","0","-10","[]","0","0","4","","","","","","","",""
"pit-trial","96","730181","0.0-2.0-17.3-0.3","battery-v0.2","","""event"",""trial"",""time""
""fullscreenenter"",""1"",""2479""
""blur"",""19"",""230770""
""focus"",""19"",""231785""
""blur"",""19"",""326873""
""focus"",""19"",""328208""
","""event"",""trial"",""time""
""blur"",""19"",""230770""
""blur"",""19"",""326873""
","""event"",""trial"",""time""
""focus"",""19"",""231785""
""focus"",""19"",""328208""
","""event"",""trial"",""time""
""fullscreenenter"",""1"",""2479""
","
","","","-1","","","22","18167","6820","&#9789;","elianto","#f73b6a7A"," ","-1","0","-10","[]","0","0","4","","","","","","","",""
"pit-trial","97","735053","0.0-2.0-17.3-1.3","battery-v0.2","","""event"",""trial"",""time""
""fullscreenenter"",""1"",""2479""
""blur"",""19"",""230770""
""focus"",""19"",""231785""
""blur"",""19"",""326873""
""focus"",""19"",""328208""
","""event"",""trial"",""time""
""blur"",""19"",""230770""
""blur"",""19"",""326873""
","""event"",""trial"",""time""
""focus"",""19"",""231785""
""focus"",""19"",""328208""
","""event"",""trial"",""time""
""fullscreenenter"",""1"",""2479""
","
","","","-1","","","22","18167","6820","&#9789;","elianto","#f73b6a7A"," ","-1","0","-10","[]","0","0","4","","","","","","","",""
"pit-trial","98","739917","0.0-2.0-17.3-2.3","battery-v0.2","","""event"",""trial"",""time""
""fullscreenenter"",""1"",""2479""
""blur"",""19"",""230770""
""focus"",""19"",""231785""
""blur"",""19"",""326873""
""focus"",""19"",""328208""
","""event"",""trial"",""time""
""blur"",""19"",""230770""
""blur"",""19"",""326873""
","""event"",""trial"",""time""
""focus"",""19"",""231785""
""focus"",""19"",""328208""
","""event"",""trial"",""time""
""fullscreenenter"",""1"",""2479""
","
","","","-1","","","22","18167","6820","&#9789;","elianto","#f73b6a7A"," ","-1","0","-10","[]","0","0","4","","","","","","","",""
"pit-trial","99","744777","0.0-2.0-17.3-3.3","battery-v0.2","","""event"",""trial"",""time""
""fullscreenenter"",""1"",""2479""
""blur"",""19"",""230770""
""focus"",""19"",""231785""
""blur"",""19"",""326873""
""focus"",""19"",""328208""
","""event"",""trial"",""time""
""blur"",""19"",""230770""
""blur"",""19"",""326873""
","""event"",""trial"",""time""
""focus"",""19"",""231785""
""focus"",""19"",""328208""
","""event"",""trial"",""time""
""fullscreenenter"",""1"",""2479""
","
","","","-1","","","22","18167","6820","&#9789;","elianto","#f73b6a7A"," ","-1","0","0","[]","0","0","4","","","","","","","",""
"pit-trial","100","749646","0.0-2.0-17.3-4.3","battery-v0.2","","""event"",""trial"",""time""
""fullscreenenter"",""1"",""2479""
""blur"",""19"",""230770""
""focus"",""19"",""231785""
""blur"",""19"",""326873""
""focus"",""19"",""328208""
","""event"",""trial"",""time""
""blur"",""19"",""230770""
""blur"",""19"",""326873""
","""event"",""trial"",""time""
""focus"",""19"",""231785""
""focus"",""19"",""328208""
","""event"",""trial"",""time""
""fullscreenenter"",""1"",""2479""
","
","","","-1","","","22","18167","6820","&#9789;","elianto","#f73b6a7A"," ","-1","0","-10","[]","0","0","4","","","","","","","",""
"call-function","101","749648","0.0-2.0-18.0","battery-v0.2","","""event"",""trial"",""time""
""fullscreenenter"",""1"",""2479""
""blur"",""19"",""230770""
""focus"",""19"",""231785""
""blur"",""19"",""326873""
""focus"",""19"",""328208""
","""event"",""trial"",""time""
""blur"",""19"",""230770""
""blur"",""19"",""326873""
","""event"",""trial"",""time""
""focus"",""19"",""231785""
""focus"",""19"",""328208""
","""event"",""trial"",""time""
""fullscreenenter"",""1"",""2479""
","
","","","","","","","","","","","","","","","","","","","","","","","","","","",""
"pit-instructions","102","821201","0.0-2.0-19.0","battery-v0.2","","""event"",""trial"",""time""
""fullscreenenter"",""1"",""2479""
""blur"",""19"",""230770""
""focus"",""19"",""231785""
""blur"",""19"",""326873""
""focus"",""19"",""328208""
","""event"",""trial"",""time""
""blur"",""19"",""230770""
""blur"",""19"",""326873""
","""event"",""trial"",""time""
""focus"",""19"",""231785""
""focus"",""19"",""328208""
","""event"",""trial"",""time""
""fullscreenenter"",""1"",""2479""
","
","","[{""page_index"":0,""viewing_time"":8324},{""page_index"":1,""viewing_time"":6094},{""page_index"":2,""viewing_time"":14191},{""page_index"":3,""viewing_time"":7450},{""page_index"":4,""viewing_time"":8241},{""page_index"":5,""viewing_time"":8790},{""page_index"":6,""viewing_time"":8071},{""page_index"":7,""viewing_time"":6222},{""page_index"":8,""viewing_time"":4168}]","71551","","","","","","","","","","","","","","","","","","","","","","","",""
"pit-comprehension","103","825973","0.0-2.0-20.0-0.0","battery-v0.2","","""event"",""trial"",""time""
""fullscreenenter"",""1"",""2479""
""blur"",""19"",""230770""
""focus"",""19"",""231785""
""blur"",""19"",""326873""
""focus"",""19"",""328208""
","""event"",""trial"",""time""
""blur"",""19"",""230770""
""blur"",""19"",""326873""
","""event"",""trial"",""time""
""focus"",""19"",""231785""
""focus"",""19"",""328208""
","""event"",""trial"",""time""
""fullscreenenter"",""1"",""2479""
","
","","","4768","[""SPACE""]","0","22","18167","6820","","","","","","","","","","","","","","","","","","",""
"pit-instructions","104","831782","0.0-2.0-20.0-1.0","battery-v0.2","","""event"",""trial"",""time""
""fullscreenenter"",""1"",""2479""
""blur"",""19"",""230770""
""focus"",""19"",""231785""
""blur"",""19"",""326873""
""focus"",""19"",""328208""
""blur"",""105"",""835718""
""focus"",""105"",""836371""
","""event"",""trial"",""time""
""blur"",""19"",""230770""
""blur"",""19"",""326873""
""blur"",""105"",""835718""
","""event"",""trial"",""time""
""focus"",""19"",""231785""
""focus"",""19"",""328208""
""focus"",""105"",""836371""
","""event"",""trial"",""time""
""fullscreenenter"",""1"",""2479""
","
","","[{""page_index"":0,""viewing_time"":5746}]","5747","","","","","","","","","","","","","","","","","","","","","","","",""
"pit-comprehension","105","838505","0.0-2.0-21.0-0.0","battery-v0.2","","""event"",""trial"",""time""
""fullscreenenter"",""1"",""2479""
""blur"",""19"",""230770""
""focus"",""19"",""231785""
""blur"",""19"",""326873""
""focus"",""19"",""328208""
""blur"",""105"",""835718""
""focus"",""105"",""836371""
","""event"",""trial"",""time""
""blur"",""19"",""230770""
""blur"",""19"",""326873""
""blur"",""105"",""835718""
","""event"",""trial"",""time""
""focus"",""19"",""231785""
""focus"",""19"",""328208""
""focus"",""105"",""836371""
","""event"",""trial"",""time""
""fullscreenenter"",""1"",""2479""
","
","","","6704","[""10""]","0","22","18167","6820","","","","","","","","","","","","","","","","","","",""
"pit-instructions","106","840316","0.0-2.0-21.0-1.0","battery-v0.2","","""event"",""trial"",""time""
""fullscreenenter"",""1"",""2479""
""blur"",""19"",""230770""
""focus"",""19"",""231785""
""blur"",""19"",""326873""
""focus"",""19"",""328208""
""blur"",""105"",""835718""
""focus"",""105"",""836371""
","""event"",""trial"",""time""
""blur"",""19"",""230770""
""blur"",""19"",""326873""
""blur"",""105"",""835718""
","""event"",""trial"",""time""
""focus"",""19"",""231785""
""focus"",""19"",""328208""
""focus"",""105"",""836371""
","""event"",""trial"",""time""
""fullscreenenter"",""1"",""2479""
","
","","[{""page_index"":0,""viewing_time"":1752}]","1752","","","","","","","","","","","","","","","","","","","","","","","",""
"pit-comprehension","107","847925","0.0-2.0-22.0-0.0","battery-v0.2","","""event"",""trial"",""time""
""fullscreenenter"",""1"",""2479""
""blur"",""19"",""230770""
""focus"",""19"",""231785""
""blur"",""19"",""326873""
""focus"",""19"",""328208""
""blur"",""105"",""835718""
""focus"",""105"",""836371""
","""event"",""trial"",""time""
""blur"",""19"",""230770""
""blur"",""19"",""326873""
""blur"",""105"",""835718""
","""event"",""trial"",""time""
""focus"",""19"",""231785""
""focus"",""19"",""328208""
""focus"",""105"",""836371""
","""event"",""trial"",""time""
""fullscreenenter"",""1"",""2479""
","
","","","7603","[""-10""]","1","22","18167","6820","","","","","","","","","","","","","","","","","","",""
"pit-instructions","108","850318","0.0-2.0-22.0-1.0","battery-v0.2","","""event"",""trial"",""time""
""fullscreenenter"",""1"",""2479""
""blur"",""19"",""230770""
""focus"",""19"",""231785""
""blur"",""19"",""326873""
""focus"",""19"",""328208""
""blur"",""105"",""835718""
""focus"",""105"",""836371""
","""event"",""trial"",""time""
""blur"",""19"",""230770""
""blur"",""19"",""326873""
""blur"",""105"",""835718""
","""event"",""trial"",""time""
""focus"",""19"",""231785""
""focus"",""19"",""328208""
""focus"",""105"",""836371""
","""event"",""trial"",""time""
""fullscreenenter"",""1"",""2479""
","
","","[{""page_index"":0,""viewing_time"":2324}]","2325","","","","","","","","","","","","","","","","","","","","","","","",""
"pit-instructions","109","852035","0.0-2.0-22.0-2.0-0.0","battery-v0.2","","""event"",""trial"",""time""
""fullscreenenter"",""1"",""2479""
""blur"",""19"",""230770""
""focus"",""19"",""231785""
""blur"",""19"",""326873""
""focus"",""19"",""328208""
""blur"",""105"",""835718""
""focus"",""105"",""836371""
","""event"",""trial"",""time""
""blur"",""19"",""230770""
""blur"",""19"",""326873""
""blur"",""105"",""835718""
","""event"",""trial"",""time""
""focus"",""19"",""231785""
""focus"",""19"",""328208""
""focus"",""105"",""836371""
","""event"",""trial"",""time""
""fullscreenenter"",""1"",""2479""
","
","","[{""page_index"":0,""viewing_time"":1714}]","1715","","","","","","","","","","","","","","","","","","","","","","","",""
"pit-comprehension","110","859101","0.0-2.0-22.1-0.1","battery-v0.2","","""event"",""trial"",""time""
""fullscreenenter"",""1"",""2479""
""blur"",""19"",""230770""
""focus"",""19"",""231785""
""blur"",""19"",""326873""
""focus"",""19"",""328208""
""blur"",""105"",""835718""
""focus"",""105"",""836371""
","""event"",""trial"",""time""
""blur"",""19"",""230770""
""blur"",""19"",""326873""
""blur"",""105"",""835718""
","""event"",""trial"",""time""
""focus"",""19"",""231785""
""focus"",""19"",""328208""
""focus"",""105"",""836371""
","""event"",""trial"",""time""
""fullscreenenter"",""1"",""2479""
","
","","","7057","[""0""]","0","22","18167","6820","","","","","","","","","","","","","","","","","","",""
"pit-instructions","111","861162","0.0-2.0-22.1-1.1","battery-v0.2","","""event"",""trial"",""time""
""fullscreenenter"",""1"",""2479""
""blur"",""19"",""230770""
""focus"",""19"",""231785""
""blur"",""19"",""326873""
""focus"",""19"",""328208""
""blur"",""105"",""835718""
""focus"",""105"",""836371""
""blur"",""112"",""862840""
""focus"",""112"",""866217""
","""event"",""trial"",""time""
""blur"",""19"",""230770""
""blur"",""19"",""326873""
""blur"",""105"",""835718""
""blur"",""112"",""862840""
","""event"",""trial"",""time""
""focus"",""19"",""231785""
""focus"",""19"",""328208""
""focus"",""105"",""836371""
""focus"",""112"",""866217""
","""event"",""trial"",""time""
""fullscreenenter"",""1"",""2479""
","
","","[{""page_index"":0,""viewing_time"":1999}]","2000","","","","","","","","","","","","","","","","","","","","","","","",""
"pit-comprehension","112","870456","0.0-2.0-23.0-0.0","battery-v0.2","","""event"",""trial"",""time""
""fullscreenenter"",""1"",""2479""
""blur"",""19"",""230770""
""focus"",""19"",""231785""
""blur"",""19"",""326873""
""focus"",""19"",""328208""
""blur"",""105"",""835718""
""focus"",""105"",""836371""
""blur"",""112"",""862840""
""focus"",""112"",""866217""
","""event"",""trial"",""time""
""blur"",""19"",""230770""
""blur"",""19"",""326873""
""blur"",""105"",""835718""
""blur"",""112"",""862840""
","""event"",""trial"",""time""
""focus"",""19"",""231785""
""focus"",""19"",""328208""
""focus"",""105"",""836371""
""focus"",""112"",""866217""
","""event"",""trial"",""time""
""fullscreenenter"",""1"",""2479""
","
","","","9291","[""True""]","0","22","18167","6820","","","","","","","","","","","","","","","","","","",""
"pit-instructions","113","872454","0.0-2.0-23.0-1.0","battery-v0.2","","""event"",""trial"",""time""
""fullscreenenter"",""1"",""2479""
""blur"",""19"",""230770""
""focus"",""19"",""231785""
""blur"",""19"",""326873""
""focus"",""19"",""328208""
""blur"",""105"",""835718""
""focus"",""105"",""836371""
""blur"",""112"",""862840""
""focus"",""112"",""866217""
","""event"",""trial"",""time""
""blur"",""19"",""230770""
""blur"",""19"",""326873""
""blur"",""105"",""835718""
""blur"",""112"",""862840""
","""event"",""trial"",""time""
""focus"",""19"",""231785""
""focus"",""19"",""328208""
""focus"",""105"",""836371""
""focus"",""112"",""866217""
","""event"",""trial"",""time""
""fullscreenenter"",""1"",""2479""
","
","","[{""page_index"":0,""viewing_time"":1928}]","1928","","","","","","","","","","","","","","","","","","","","","","","",""
"pit-comprehension","114","879970","0.0-2.0-24.0-0.0","battery-v0.2","","""event"",""trial"",""time""
""fullscreenenter"",""1"",""2479""
""blur"",""19"",""230770""
""focus"",""19"",""231785""
""blur"",""19"",""326873""
""focus"",""19"",""328208""
""blur"",""105"",""835718""
""focus"",""105"",""836371""
""blur"",""112"",""862840""
""focus"",""112"",""866217""
","""event"",""trial"",""time""
""blur"",""19"",""230770""
""blur"",""19"",""326873""
""blur"",""105"",""835718""
""blur"",""112"",""862840""
","""event"",""trial"",""time""
""focus"",""19"",""231785""
""focus"",""19"",""328208""
""focus"",""105"",""836371""
""focus"",""112"",""866217""
","""event"",""trial"",""time""
""fullscreenenter"",""1"",""2479""
","
","","","7512","[""True""]","0","22","18167","6820","","","","","","","","","","","","","","","","","","",""
"pit-instructions","115","881741","0.0-2.0-24.0-1.0","battery-v0.2","","""event"",""trial"",""time""
""fullscreenenter"",""1"",""2479""
""blur"",""19"",""230770""
""focus"",""19"",""231785""
""blur"",""19"",""326873""
""focus"",""19"",""328208""
""blur"",""105"",""835718""
""focus"",""105"",""836371""
""blur"",""112"",""862840""
""focus"",""112"",""866217""
","""event"",""trial"",""time""
""blur"",""19"",""230770""
""blur"",""19"",""326873""
""blur"",""105"",""835718""
""blur"",""112"",""862840""
","""event"",""trial"",""time""
""focus"",""19"",""231785""
""focus"",""19"",""328208""
""focus"",""105"",""836371""
""focus"",""112"",""866217""
","""event"",""trial"",""time""
""fullscreenenter"",""1"",""2479""
","
","","[{""page_index"":0,""viewing_time"":1709}]","1709","","","","","","","","","","","","","","","","","","","","","","","",""
"pit-comprehension","116","888302","0.0-2.0-25.0-0.0","battery-v0.2","","""event"",""trial"",""time""
""fullscreenenter"",""1"",""2479""
""blur"",""19"",""230770""
""focus"",""19"",""231785""
""blur"",""19"",""326873""
""focus"",""19"",""328208""
""blur"",""105"",""835718""
""focus"",""105"",""836371""
""blur"",""112"",""862840""
""focus"",""112"",""866217""
","""event"",""trial"",""time""
""blur"",""19"",""230770""
""blur"",""19"",""326873""
""blur"",""105"",""835718""
""blur"",""112"",""862840""
","""event"",""trial"",""time""
""focus"",""19"",""231785""
""focus"",""19"",""328208""
""focus"",""105"",""836371""
""focus"",""112"",""866217""
","""event"",""trial"",""time""
""fullscreenenter"",""1"",""2479""
","
","","","6555","[""True""]","0","22","18167","6820","","","","","","","","","","","","","","","","","","",""
"pit-instructions","117","894850","0.0-2.0-25.0-1.0","battery-v0.2","","""event"",""trial"",""time""
""fullscreenenter"",""1"",""2479""
""blur"",""19"",""230770""
""focus"",""19"",""231785""
""blur"",""19"",""326873""
""focus"",""19"",""328208""
""blur"",""105"",""835718""
""focus"",""105"",""836371""
""blur"",""112"",""862840""
""focus"",""112"",""866217""
","""event"",""trial"",""time""
""blur"",""19"",""230770""
""blur"",""19"",""326873""
""blur"",""105"",""835718""
""blur"",""112"",""862840""
","""event"",""trial"",""time""
""focus"",""19"",""231785""
""focus"",""19"",""328208""
""focus"",""105"",""836371""
""focus"",""112"",""866217""
","""event"",""trial"",""time""
""fullscreenenter"",""1"",""2479""
","
","","[{""page_index"":0,""viewing_time"":6485}]","6485","","","","","","","","","","","","","","","","","","","","","","","",""
"pit-comprehension","118","899579","0.0-2.0-26.0-0.0","battery-v0.2","","""event"",""trial"",""time""
""fullscreenenter"",""1"",""2479""
""blur"",""19"",""230770""
""focus"",""19"",""231785""
""blur"",""19"",""326873""
""focus"",""19"",""328208""
""blur"",""105"",""835718""
""focus"",""105"",""836371""
""blur"",""112"",""862840""
""focus"",""112"",""866217""
","""event"",""trial"",""time""
""blur"",""19"",""230770""
""blur"",""19"",""326873""
""blur"",""105"",""835718""
""blur"",""112"",""862840""
","""event"",""trial"",""time""
""focus"",""19"",""231785""
""focus"",""19"",""328208""
""focus"",""105"",""836371""
""focus"",""112"",""866217""
","""event"",""trial"",""time""
""fullscreenenter"",""1"",""2479""
","
","","","4724","[""True""]","1","22","18167","6820","","","","","","","","","","","","","","","","","","",""
"pit-instructions","119","901744","0.0-2.0-26.0-1.0","battery-v0.2","","""event"",""trial"",""time""
""fullscreenenter"",""1"",""2479""
""blur"",""19"",""230770""
""focus"",""19"",""231785""
""blur"",""19"",""326873""
""focus"",""19"",""328208""
""blur"",""105"",""835718""
""focus"",""105"",""836371""
""blur"",""112"",""862840""
""focus"",""112"",""866217""
","""event"",""trial"",""time""
""blur"",""19"",""230770""
""blur"",""19"",""326873""
""blur"",""105"",""835718""
""blur"",""112"",""862840""
","""event"",""trial"",""time""
""focus"",""19"",""231785""
""focus"",""19"",""328208""
""focus"",""105"",""836371""
""focus"",""112"",""866217""
","""event"",""trial"",""time""
""fullscreenenter"",""1"",""2479""
","
","","[{""page_index"":0,""viewing_time"":2087}]","2087","","","","","","","","","","","","","","","","","","","","","","","",""
"pit-instructions","120","904672","0.0-2.0-26.0-2.0-0.0","battery-v0.2","","""event"",""trial"",""time""
""fullscreenenter"",""1"",""2479""
""blur"",""19"",""230770""
""focus"",""19"",""231785""
""blur"",""19"",""326873""
""focus"",""19"",""328208""
""blur"",""105"",""835718""
""focus"",""105"",""836371""
""blur"",""112"",""862840""
""focus"",""112"",""866217""
","""event"",""trial"",""time""
""blur"",""19"",""230770""
""blur"",""19"",""326873""
""blur"",""105"",""835718""
""blur"",""112"",""862840""
","""event"",""trial"",""time""
""focus"",""19"",""231785""
""focus"",""19"",""328208""
""focus"",""105"",""836371""
""focus"",""112"",""866217""
","""event"",""trial"",""time""
""fullscreenenter"",""1"",""2479""
","
","","[{""page_index"":0,""viewing_time"":2925}]","2926","","","","","","","","","","","","","","","","","","","","","","","",""
"pit-comprehension","121","911994","0.0-2.0-26.1-0.1","battery-v0.2","","""event"",""trial"",""time""
""fullscreenenter"",""1"",""2479""
""blur"",""19"",""230770""
""focus"",""19"",""231785""
""blur"",""19"",""326873""
""focus"",""19"",""328208""
""blur"",""105"",""835718""
""focus"",""105"",""836371""
""blur"",""112"",""862840""
""focus"",""112"",""866217""
","""event"",""trial"",""time""
""blur"",""19"",""230770""
""blur"",""19"",""326873""
""blur"",""105"",""835718""
""blur"",""112"",""862840""
","""event"",""trial"",""time""
""focus"",""19"",""231785""
""focus"",""19"",""328208""
""focus"",""105"",""836371""
""focus"",""112"",""866217""
","""event"",""trial"",""time""
""fullscreenenter"",""1"",""2479""
","
","","","7316","[""False""]","0","22","18167","6820","","","","","","","","","","","","","","","","","","",""
"pit-instructions","122","914084","0.0-2.0-26.1-1.1","battery-v0.2","","""event"",""trial"",""time""
""fullscreenenter"",""1"",""2479""
""blur"",""19"",""230770""
""focus"",""19"",""231785""
""blur"",""19"",""326873""
""focus"",""19"",""328208""
""blur"",""105"",""835718""
""focus"",""105"",""836371""
""blur"",""112"",""862840""
""focus"",""112"",""866217""
""blur"",""123"",""916835""
""focus"",""123"",""918017""
""blur"",""123"",""920780""
""focus"",""123"",""921670""
""blur"",""123"",""922154""
""focus"",""123"",""923817""
","""event"",""trial"",""time""
""blur"",""19"",""230770""
""blur"",""19"",""326873""
""blur"",""105"",""835718""
""blur"",""112"",""862840""
""blur"",""123"",""916835""
""blur"",""123"",""920780""
""blur"",""123"",""922154""
","""event"",""trial"",""time""
""focus"",""19"",""231785""
""focus"",""19"",""328208""
""focus"",""105"",""836371""
""focus"",""112"",""866217""
""focus"",""123"",""918017""
""focus"",""123"",""921670""
""focus"",""123"",""923817""
","""event"",""trial"",""time""
""fullscreenenter"",""1"",""2479""
","
","","[{""page_index"":0,""viewing_time"":2020}]","2022","","","","","","","","","","","","","","","","","","","","","","","",""
"pit-instructions","123","932663","0.0-3.0","battery-v0.2","","""event"",""trial"",""time""
""fullscreenenter"",""1"",""2479""
""blur"",""19"",""230770""
""focus"",""19"",""231785""
""blur"",""19"",""326873""
""focus"",""19"",""328208""
""blur"",""105"",""835718""
""focus"",""105"",""836371""
""blur"",""112"",""862840""
""focus"",""112"",""866217""
""blur"",""123"",""916835""
""focus"",""123"",""918017""
""blur"",""123"",""920780""
""focus"",""123"",""921670""
""blur"",""123"",""922154""
""focus"",""123"",""923817""
","""event"",""trial"",""time""
""blur"",""19"",""230770""
""blur"",""19"",""326873""
""blur"",""105"",""835718""
""blur"",""112"",""862840""
""blur"",""123"",""916835""
""blur"",""123"",""920780""
""blur"",""123"",""922154""
","""event"",""trial"",""time""
""focus"",""19"",""231785""
""focus"",""19"",""328208""
""focus"",""105"",""836371""
""focus"",""112"",""866217""
""focus"",""123"",""918017""
""focus"",""123"",""921670""
""focus"",""123"",""923817""
","""event"",""trial"",""time""
""fullscreenenter"",""1"",""2479""
","
","","[{""page_index"":0,""viewing_time"":4864},{""page_index"":1,""viewing_time"":6775},{""page_index"":2,""viewing_time"":6933}]","18572","","","","","","","","","","","","","","","","","","","","","","","",""
"pit-trial","124","937524","0.0-4.0","battery-v0.2","","""event"",""trial"",""time""
""fullscreenenter"",""1"",""2479""
""blur"",""19"",""230770""
""focus"",""19"",""231785""
""blur"",""19"",""326873""
""focus"",""19"",""328208""
""blur"",""105"",""835718""
""focus"",""105"",""836371""
""blur"",""112"",""862840""
""focus"",""112"",""866217""
""blur"",""123"",""916835""
""focus"",""123"",""918017""
""blur"",""123"",""920780""
""focus"",""123"",""921670""
""blur"",""123"",""922154""
""focus"",""123"",""923817""
","""event"",""trial"",""time""
""blur"",""19"",""230770""
""blur"",""19"",""326873""
""blur"",""105"",""835718""
""blur"",""112"",""862840""
""blur"",""123"",""916835""
""blur"",""123"",""920780""
""blur"",""123"",""922154""
","""event"",""trial"",""time""
""focus"",""19"",""231785""
""focus"",""19"",""328208""
""focus"",""105"",""836371""
""focus"",""112"",""866217""
""focus"",""123"",""918017""
""focus"",""123"",""921670""
""focus"",""123"",""923817""
","""event"",""trial"",""time""
""fullscreenenter"",""1"",""2479""
","
","","","-1","","","22","18167","6820","&#9728;","elianto","#f73b6a7A","-1","-1","1","-10","[]","0","1","","","18167","1","0","4","lose","no-go","1"
"pit-trial","125","940996","0.0-5.0","battery-v0.2","","""event"",""trial"",""time""
""fullscreenenter"",""1"",""2479""
""blur"",""19"",""230770""
""focus"",""19"",""231785""
""blur"",""19"",""326873""
""focus"",""19"",""328208""
""blur"",""105"",""835718""
""focus"",""105"",""836371""
""blur"",""112"",""862840""
""focus"",""112"",""866217""
""blur"",""123"",""916835""
""focus"",""123"",""918017""
""blur"",""123"",""920780""
""focus"",""123"",""921670""
""blur"",""123"",""922154""
""focus"",""123"",""923817""
","""event"",""trial"",""time""
""blur"",""19"",""230770""
""blur"",""19"",""326873""
""blur"",""105"",""835718""
""blur"",""112"",""862840""
""blur"",""123"",""916835""
""blur"",""123"",""920780""
""blur"",""123"",""922154""
","""event"",""trial"",""time""
""focus"",""19"",""231785""
""focus"",""19"",""328208""
""focus"",""105"",""836371""
""focus"",""112"",""866217""
""focus"",""123"",""918017""
""focus"",""123"",""921670""
""focus"",""123"",""923817""
","""event"",""trial"",""time""
""fullscreenenter"",""1"",""2479""
","
","","","594","","","22","18167","6820","&#9733;","elianto","#3366ff99","-1"," ","0","0","[1451]","1","1","","","18167","2","2","2","win","no-go","0"
"pit-trial","126","944482","0.0-6.0","battery-v0.2","","""event"",""trial"",""time""
""fullscreenenter"",""1"",""2479""
""blur"",""19"",""230770""
""focus"",""19"",""231785""
""blur"",""19"",""326873""
""focus"",""19"",""328208""
""blur"",""105"",""835718""
""focus"",""105"",""836371""
""blur"",""112"",""862840""
""focus"",""112"",""866217""
""blur"",""123"",""916835""
""focus"",""123"",""918017""
""blur"",""123"",""920780""
""focus"",""123"",""921670""
""blur"",""123"",""922154""
""focus"",""123"",""923817""
","""event"",""trial"",""time""
""blur"",""19"",""230770""
""blur"",""19"",""326873""
""blur"",""105"",""835718""
""blur"",""112"",""862840""
""blur"",""123"",""916835""
""blur"",""123"",""920780""
""blur"",""123"",""922154""
","""event"",""trial"",""time""
""focus"",""19"",""231785""
""focus"",""19"",""328208""
""focus"",""105"",""836371""
""focus"",""112"",""866217""
""focus"",""123"",""918017""
""focus"",""123"",""921670""
""focus"",""123"",""923817""
","""event"",""trial"",""time""
""fullscreenenter"",""1"",""2479""
","
","","","613","","","22","18167","6820","&#9730;","elianto","#3366ff99"," "," ","1","+10","[1472]","1","1","","","18167","3","1","1","win","go","0"
"pit-trial","127","949345","0.0-7.0","battery-v0.2","","""event"",""trial"",""time""
""fullscreenenter"",""1"",""2479""
""blur"",""19"",""230770""
""focus"",""19"",""231785""
""blur"",""19"",""326873""
""focus"",""19"",""328208""
""blur"",""105"",""835718""
""focus"",""105"",""836371""
""blur"",""112"",""862840""
""focus"",""112"",""866217""
""blur"",""123"",""916835""
""focus"",""123"",""918017""
""blur"",""123"",""920780""
""focus"",""123"",""921670""
""blur"",""123"",""922154""
""focus"",""123"",""923817""
","""event"",""trial"",""time""
""blur"",""19"",""230770""
""blur"",""19"",""326873""
""blur"",""105"",""835718""
""blur"",""112"",""862840""
""blur"",""123"",""916835""
""blur"",""123"",""920780""
""blur"",""123"",""922154""
","""event"",""trial"",""time""
""focus"",""19"",""231785""
""focus"",""19"",""328208""
""focus"",""105"",""836371""
""focus"",""112"",""866217""
""focus"",""123"",""918017""
""focus"",""123"",""921670""
""focus"",""123"",""923817""
","""event"",""trial"",""time""
""fullscreenenter"",""1"",""2479""
","
","","","-1","","","22","18167","6820","&#9752;","elianto","#f73b6a7A"," ","-1","0","0","[]","0","1","","","18167","4","3","3","lose","go","1"
"pit-trial","128","952807","0.0-8.0","battery-v0.2","","""event"",""trial"",""time""
""fullscreenenter"",""1"",""2479""
""blur"",""19"",""230770""
""focus"",""19"",""231785""
""blur"",""19"",""326873""
""focus"",""19"",""328208""
""blur"",""105"",""835718""
""focus"",""105"",""836371""
""blur"",""112"",""862840""
""focus"",""112"",""866217""
""blur"",""123"",""916835""
""focus"",""123"",""918017""
""blur"",""123"",""920780""
""focus"",""123"",""921670""
""blur"",""123"",""922154""
""focus"",""123"",""923817""
","""event"",""trial"",""time""
""blur"",""19"",""230770""
""blur"",""19"",""326873""
""blur"",""105"",""835718""
""blur"",""112"",""862840""
""blur"",""123"",""916835""
""blur"",""123"",""920780""
""blur"",""123"",""922154""
","""event"",""trial"",""time""
""focus"",""19"",""231785""
""focus"",""19"",""328208""
""focus"",""105"",""836371""
""focus"",""112"",""866217""
""focus"",""123"",""918017""
""focus"",""123"",""921670""
""focus"",""123"",""923817""
","""event"",""trial"",""time""
""fullscreenenter"",""1"",""2479""
","
","","","572","","","22","18167","6820","&#9733;","elianto","#3366ff99","-1"," ","0","0","[1458]","1","1","","","18167","5","2","2","win","no-go","0"
"pit-trial","129","957728","0.0-9.0","battery-v0.2","","""event"",""trial"",""time""
""fullscreenenter"",""1"",""2479""
""blur"",""19"",""230770""
""focus"",""19"",""231785""
""blur"",""19"",""326873""
""focus"",""19"",""328208""
""blur"",""105"",""835718""
""focus"",""105"",""836371""
""blur"",""112"",""862840""
""focus"",""112"",""866217""
""blur"",""123"",""916835""
""focus"",""123"",""918017""
""blur"",""123"",""920780""
""focus"",""123"",""921670""
""blur"",""123"",""922154""
""focus"",""123"",""923817""
","""event"",""trial"",""time""
""blur"",""19"",""230770""
""blur"",""19"",""326873""
""blur"",""105"",""835718""
""blur"",""112"",""862840""
""blur"",""123"",""916835""
""blur"",""123"",""920780""
""blur"",""123"",""922154""
","""event"",""trial"",""time""
""focus"",""19"",""231785""
""focus"",""19"",""328208""
""focus"",""105"",""836371""
""focus"",""112"",""866217""
""focus"",""123"",""918017""
""focus"",""123"",""921670""
""focus"",""123"",""923817""
","""event"",""trial"",""time""
""fullscreenenter"",""1"",""2479""
","
","","","-1","","","22","18167","6820","&#9728;","elianto","#f73b6a7A","-1","-1","1","-10","[]","0","1","","","18167","6","0","4","lose","no-go","1"
"pit-trial","130","962692","0.0-10.0","battery-v0.2","","""event"",""trial"",""time""
""fullscreenenter"",""1"",""2479""
""blur"",""19"",""230770""
""focus"",""19"",""231785""
""blur"",""19"",""326873""
""focus"",""19"",""328208""
""blur"",""105"",""835718""
""focus"",""105"",""836371""
""blur"",""112"",""862840""
""focus"",""112"",""866217""
""blur"",""123"",""916835""
""focus"",""123"",""918017""
""blur"",""123"",""920780""
""focus"",""123"",""921670""
""blur"",""123"",""922154""
""focus"",""123"",""923817""
","""event"",""trial"",""time""
""blur"",""19"",""230770""
""blur"",""19"",""326873""
""blur"",""105"",""835718""
""blur"",""112"",""862840""
""blur"",""123"",""916835""
""blur"",""123"",""920780""
""blur"",""123"",""922154""
","""event"",""trial"",""time""
""focus"",""19"",""231785""
""focus"",""19"",""328208""
""focus"",""105"",""836371""
""focus"",""112"",""866217""
""focus"",""123"",""918017""
""focus"",""123"",""921670""
""focus"",""123"",""923817""
","""event"",""trial"",""time""
""fullscreenenter"",""1"",""2479""
","
","","","-1","","","22","18167","6820","&#9752;","elianto","#f73b6a7A"," ","-1","0","-10","[]","0","1","","","18167","7","3","3","lose","go","0"
"pit-trial","131","966290","0.0-11.0","battery-v0.2","","""event"",""trial"",""time""
""fullscreenenter"",""1"",""2479""
""blur"",""19"",""230770""
""focus"",""19"",""231785""
""blur"",""19"",""326873""
""focus"",""19"",""328208""
""blur"",""105"",""835718""
""focus"",""105"",""836371""
""blur"",""112"",""862840""
""focus"",""112"",""866217""
""blur"",""123"",""916835""
""focus"",""123"",""918017""
""blur"",""123"",""920780""
""focus"",""123"",""921670""
""blur"",""123"",""922154""
""focus"",""123"",""923817""
","""event"",""trial"",""time""
""blur"",""19"",""230770""
""blur"",""19"",""326873""
""blur"",""105"",""835718""
""blur"",""112"",""862840""
""blur"",""123"",""916835""
""blur"",""123"",""920780""
""blur"",""123"",""922154""
","""event"",""trial"",""time""
""focus"",""19"",""231785""
""focus"",""19"",""328208""
""focus"",""105"",""836371""
""focus"",""112"",""866217""
""focus"",""123"",""918017""
""focus"",""123"",""921670""
""focus"",""123"",""923817""
","""event"",""trial"",""time""
""fullscreenenter"",""1"",""2479""
","
","","","725","","","22","18167","6820","&#9730;","elianto","#3366ff99"," "," ","1","+10","[1583]","1","1","","","18167","8","1","1","win","go","0"
"pit-trial","132","971150","0.0-12.0","battery-v0.2","","""event"",""trial"",""time""
""fullscreenenter"",""1"",""2479""
""blur"",""19"",""230770""
""focus"",""19"",""231785""
""blur"",""19"",""326873""
""focus"",""19"",""328208""
""blur"",""105"",""835718""
""focus"",""105"",""836371""
""blur"",""112"",""862840""
""focus"",""112"",""866217""
""blur"",""123"",""916835""
""focus"",""123"",""918017""
""blur"",""123"",""920780""
""focus"",""123"",""921670""
""blur"",""123"",""922154""
""focus"",""123"",""923817""
","""event"",""trial"",""time""
""blur"",""19"",""230770""
""blur"",""19"",""326873""
""blur"",""105"",""835718""
""blur"",""112"",""862840""
""blur"",""123"",""916835""
""blur"",""123"",""920780""
""blur"",""123"",""922154""
","""event"",""trial"",""time""
""focus"",""19"",""231785""
""focus"",""19"",""328208""
""focus"",""105"",""836371""
""focus"",""112"",""866217""
""focus"",""123"",""918017""
""focus"",""123"",""921670""
""focus"",""123"",""923817""
","""event"",""trial"",""time""
""fullscreenenter"",""1"",""2479""
","
","","","-1","","","22","18167","6820","&#9728;","elianto","#f73b6a7A","-1","-1","1","0","[]","0","1","","","18167","9","0","4","lose","no-go","0"
"pit-trial","133","974813","0.0-13.0","battery-v0.2","","""event"",""trial"",""time""
""fullscreenenter"",""1"",""2479""
""blur"",""19"",""230770""
""focus"",""19"",""231785""
""blur"",""19"",""326873""
""focus"",""19"",""328208""
""blur"",""105"",""835718""
""focus"",""105"",""836371""
""blur"",""112"",""862840""
""focus"",""112"",""866217""
""blur"",""123"",""916835""
""focus"",""123"",""918017""
""blur"",""123"",""920780""
""focus"",""123"",""921670""
""blur"",""123"",""922154""
""focus"",""123"",""923817""
","""event"",""trial"",""time""
""blur"",""19"",""230770""
""blur"",""19"",""326873""
""blur"",""105"",""835718""
""blur"",""112"",""862840""
""blur"",""123"",""916835""
""blur"",""123"",""920780""
""blur"",""123"",""922154""
","""event"",""trial"",""time""
""focus"",""19"",""231785""
""focus"",""19"",""328208""
""focus"",""105"",""836371""
""focus"",""112"",""866217""
""focus"",""123"",""918017""
""focus"",""123"",""921670""
""focus"",""123"",""923817""
","""event"",""trial"",""time""
""fullscreenenter"",""1"",""2479""
","
","","","786","","","22","18167","6820","&#9733;","elianto","#3366ff99","-1"," ","0","+10","[1646]","1","1","","","18167","10","2","2","win","no-go","1"
"pit-trial","134","978683","0.0-14.0","battery-v0.2","","""event"",""trial"",""time""
""fullscreenenter"",""1"",""2479""
""blur"",""19"",""230770""
""focus"",""19"",""231785""
""blur"",""19"",""326873""
""focus"",""19"",""328208""
""blur"",""105"",""835718""
""focus"",""105"",""836371""
""blur"",""112"",""862840""
""focus"",""112"",""866217""
""blur"",""123"",""916835""
""focus"",""123"",""918017""
""blur"",""123"",""920780""
""focus"",""123"",""921670""
""blur"",""123"",""922154""
""focus"",""123"",""923817""
","""event"",""trial"",""time""
""blur"",""19"",""230770""
""blur"",""19"",""326873""
""blur"",""105"",""835718""
""blur"",""112"",""862840""
""blur"",""123"",""916835""
""blur"",""123"",""920780""
""blur"",""123"",""922154""
","""event"",""trial"",""time""
""focus"",""19"",""231785""
""focus"",""19"",""328208""
""focus"",""105"",""836371""
""focus"",""112"",""866217""
""focus"",""123"",""918017""
""focus"",""123"",""921670""
""focus"",""123"",""923817""
","""event"",""trial"",""time""
""fullscreenenter"",""1"",""2479""
","
","","","906","","","22","18167","6820","&#9730;","elianto","#3366ff99"," "," ","1","+10","[1765]","1","1","","","18167","11","1","1","win","go","0"
"pit-trial","135","983550","0.0-15.0","battery-v0.2","","""event"",""trial"",""time""
""fullscreenenter"",""1"",""2479""
""blur"",""19"",""230770""
""focus"",""19"",""231785""
""blur"",""19"",""326873""
""focus"",""19"",""328208""
""blur"",""105"",""835718""
""focus"",""105"",""836371""
""blur"",""112"",""862840""
""focus"",""112"",""866217""
""blur"",""123"",""916835""
""focus"",""123"",""918017""
""blur"",""123"",""920780""
""focus"",""123"",""921670""
""blur"",""123"",""922154""
""focus"",""123"",""923817""
","""event"",""trial"",""time""
""blur"",""19"",""230770""
""blur"",""19"",""326873""
""blur"",""105"",""835718""
""blur"",""112"",""862840""
""blur"",""123"",""916835""
""blur"",""123"",""920780""
""blur"",""123"",""922154""
","""event"",""trial"",""time""
""focus"",""19"",""231785""
""focus"",""19"",""328208""
""focus"",""105"",""836371""
""focus"",""112"",""866217""
""focus"",""123"",""918017""
""focus"",""123"",""921670""
""focus"",""123"",""923817""
","""event"",""trial"",""time""
""fullscreenenter"",""1"",""2479""
","
","","","-1","","","22","18167","6820","&#9752;","elianto","#f73b6a7A"," ","-1","0","-10","[]","0","1","","","18167","12","3","3","lose","go","0"
"pit-trial","136","988502","0.0-16.0","battery-v0.2","","""event"",""trial"",""time""
""fullscreenenter"",""1"",""2479""
""blur"",""19"",""230770""
""focus"",""19"",""231785""
""blur"",""19"",""326873""
""focus"",""19"",""328208""
""blur"",""105"",""835718""
""focus"",""105"",""836371""
""blur"",""112"",""862840""
""focus"",""112"",""866217""
""blur"",""123"",""916835""
""focus"",""123"",""918017""
""blur"",""123"",""920780""
""focus"",""123"",""921670""
""blur"",""123"",""922154""
""focus"",""123"",""923817""
","""event"",""trial"",""time""
""blur"",""19"",""230770""
""blur"",""19"",""326873""
""blur"",""105"",""835718""
""blur"",""112"",""862840""
""blur"",""123"",""916835""
""blur"",""123"",""920780""
""blur"",""123"",""922154""
","""event"",""trial"",""time""
""focus"",""19"",""231785""
""focus"",""19"",""328208""
""focus"",""105"",""836371""
""focus"",""112"",""866217""
""focus"",""123"",""918017""
""focus"",""123"",""921670""
""focus"",""123"",""923817""
","""event"",""trial"",""time""
""fullscreenenter"",""1"",""2479""
","
","","","-1","","","22","18167","6820","&#9728;","elianto","#f73b6a7A","-1","-1","1","0","[]","0","1","","","18167","13","0","4","lose","no-go","0"
"pit-trial","137","992307","0.0-17.0","battery-v0.2","","""event"",""trial"",""time""
""fullscreenenter"",""1"",""2479""
""blur"",""19"",""230770""
""focus"",""19"",""231785""
""blur"",""19"",""326873""
""focus"",""19"",""328208""
""blur"",""105"",""835718""
""focus"",""105"",""836371""
""blur"",""112"",""862840""
""focus"",""112"",""866217""
""blur"",""123"",""916835""
""focus"",""123"",""918017""
""blur"",""123"",""920780""
""focus"",""123"",""921670""
""blur"",""123"",""922154""
""focus"",""123"",""923817""
","""event"",""trial"",""time""
""blur"",""19"",""230770""
""blur"",""19"",""326873""
""blur"",""105"",""835718""
""blur"",""112"",""862840""
""blur"",""123"",""916835""
""blur"",""123"",""920780""
""blur"",""123"",""922154""
","""event"",""trial"",""time""
""focus"",""19"",""231785""
""focus"",""19"",""328208""
""focus"",""105"",""836371""
""focus"",""112"",""866217""
""focus"",""123"",""918017""
""focus"",""123"",""921670""
""focus"",""123"",""923817""
","""event"",""trial"",""time""
""fullscreenenter"",""1"",""2479""
","
","","","894","","","22","18167","6820","&#9733;","elianto","#3366ff99","-1"," ","0","0","[1800]","1","1","","","18167","14","2","2","win","no-go","0"
"pit-trial","138","996052","0.0-18.0","battery-v0.2","","""event"",""trial"",""time""
""fullscreenenter"",""1"",""2479""
""blur"",""19"",""230770""
""focus"",""19"",""231785""
""blur"",""19"",""326873""
""focus"",""19"",""328208""
""blur"",""105"",""835718""
""focus"",""105"",""836371""
""blur"",""112"",""862840""
""focus"",""112"",""866217""
""blur"",""123"",""916835""
""focus"",""123"",""918017""
""blur"",""123"",""920780""
""focus"",""123"",""921670""
""blur"",""123"",""922154""
""focus"",""123"",""923817""
","""event"",""trial"",""time""
""blur"",""19"",""230770""
""blur"",""19"",""326873""
""blur"",""105"",""835718""
""blur"",""112"",""862840""
""blur"",""123"",""916835""
""blur"",""123"",""920780""
""blur"",""123"",""922154""
","""event"",""trial"",""time""
""focus"",""19"",""231785""
""focus"",""19"",""328208""
""focus"",""105"",""836371""
""focus"",""112"",""866217""
""focus"",""123"",""918017""
""focus"",""123"",""921670""
""focus"",""123"",""923817""
","""event"",""trial"",""time""
""fullscreenenter"",""1"",""2479""
","
","","","868","","","22","18167","6820","&#9730;","elianto","#3366ff99"," "," ","1","+10","[1730]","1","1","","","18167","15","1","1","win","go","0"
"pit-trial","139","1000913","0.0-19.0","battery-v0.2","","""event"",""trial"",""time""
""fullscreenenter"",""1"",""2479""
""blur"",""19"",""230770""
""focus"",""19"",""231785""
""blur"",""19"",""326873""
""focus"",""19"",""328208""
""blur"",""105"",""835718""
""focus"",""105"",""836371""
""blur"",""112"",""862840""
""focus"",""112"",""866217""
""blur"",""123"",""916835""
""focus"",""123"",""918017""
""blur"",""123"",""920780""
""focus"",""123"",""921670""
""blur"",""123"",""922154""
""focus"",""123"",""923817""
","""event"",""trial"",""time""
""blur"",""19"",""230770""
""blur"",""19"",""326873""
""blur"",""105"",""835718""
""blur"",""112"",""862840""
""blur"",""123"",""916835""
""blur"",""123"",""920780""
""blur"",""123"",""922154""
","""event"",""trial"",""time""
""focus"",""19"",""231785""
""focus"",""19"",""328208""
""focus"",""105"",""836371""
""focus"",""112"",""866217""
""focus"",""123"",""918017""
""focus"",""123"",""921670""
""focus"",""123"",""923817""
","""event"",""trial"",""time""
""fullscreenenter"",""1"",""2479""
","
","","","-1","","","22","18167","6820","&#9752;","elianto","#f73b6a7A"," ","-1","0","-10","[]","0","1","","","18167","16","3","3","lose","go","0"
"pit-trial","140","1005779","0.0-20.0","battery-v0.2","","""event"",""trial"",""time""
""fullscreenenter"",""1"",""2479""
""blur"",""19"",""230770""
""focus"",""19"",""231785""
""blur"",""19"",""326873""
""focus"",""19"",""328208""
""blur"",""105"",""835718""
