"trial_type","trial_index","time_elapsed","internal_node_id","task_version","subject_id","interactions","blur_events","focus_events","fullscreenenter_events","fullscreenexit_events","success","view_history","rt","responses","num_errors","age","subject","participantId","rune","rune_set","hex","correct","choice","accuracy","outcome","keys","total_keys","block","practice","value","sub","trial","stimulus","robot","valence","action","sham"
"pavlovia","0","7","0.0-0.0","battery-v0.2","","""event"",""trial"",""time""
""fullscreenenter"",""1"",""3035""
","
","
","""event"",""trial"",""time""
""fullscreenenter"",""1"",""3035""
","
","","","","","","","","","","","","","","","","","","","","","","","","","","",""
"fullscreen","1","4027","0.0-1.0","battery-v0.2","","""event"",""trial"",""time""
""fullscreenenter"",""1"",""3035""
","
","
","""event"",""trial"",""time""
""fullscreenenter"",""1"",""3035""
","
","true","","","","","","","","","","","","","","","","","","","","","","","","","",""
"pit-instructions","2","29976","0.0-2.0-0.0","battery-v0.2","","""event"",""trial"",""time""
""fullscreenenter"",""1"",""3035""
","
","
","""event"",""trial"",""time""
""fullscreenenter"",""1"",""3035""
","
","","[{""page_index"":0,""viewing_time"":25943.39999999106}]","25944","","","","","","","","","","","","","","","","","","","","","","","",""
"pit-comprehension","3","34095","0.0-2.0-1.0-0.0","battery-v0.2","","""event"",""trial"",""time""
""fullscreenenter"",""1"",""3035""
","
","
","""event"",""trial"",""time""
""fullscreenenter"",""1"",""3035""
","
","","","4116.100000008941","[""shark""]","0","12","3774","1230","","","","","","","","","","","","","","","","","","",""
"pit-instructions","4","35504","0.0-2.0-1.0-1.0","battery-v0.2","","""event"",""trial"",""time""
""fullscreenenter"",""1"",""3035""
","
","
","""event"",""trial"",""time""
""fullscreenenter"",""1"",""3035""
","
","","[{""page_index"":0,""viewing_time"":1394.8999999910593}]","1395.199999988079","","","","","","","","","","","","","","","","","","","","","","","",""
"pit-comprehension","5","39748","0.0-2.0-2.0-0.0","battery-v0.2","","""event"",""trial"",""time""
""fullscreenenter"",""1"",""3035""
","
","
","""event"",""trial"",""time""
""fullscreenenter"",""1"",""3035""
","
","","","4241.4000000059605","[""tiger""]","0","12","3774","1230","","","","","","","","","","","","","","","","","","",""
"pit-instructions","6","40922","0.0-2.0-2.0-1.0","battery-v0.2","","""event"",""trial"",""time""
""fullscreenenter"",""1"",""3035""
""blur"",""7"",""106373""
""focus"",""7"",""127364""
","""event"",""trial"",""time""
""blur"",""7"",""106373""
","""event"",""trial"",""time""
""focus"",""7"",""127364""
","""event"",""trial"",""time""
""fullscreenenter"",""1"",""3035""
","
","","[{""page_index"":0,""viewing_time"":1170.5999999940395}]","1171","","","","","","","","","","","","","","","","","","","","","","","",""
"pit-instructions","7","186351","0.0-2.0-3.0","battery-v0.2","","""event"",""trial"",""time""
""fullscreenenter"",""1"",""3035""
""blur"",""7"",""106373""
""focus"",""7"",""127364""
","""event"",""trial"",""time""
""blur"",""7"",""106373""
","""event"",""trial"",""time""
""focus"",""7"",""127364""
","""event"",""trial"",""time""
""fullscreenenter"",""1"",""3035""
","
","","[{""page_index"":0,""viewing_time"":13723.70000000298},{""page_index"":1,""viewing_time"":5064.399999991059},{""page_index"":2,""viewing_time"":6656},{""page_index"":3,""viewing_time"":7819.79999999702},{""page_index"":4,""viewing_time"":8064.5},{""page_index"":5,""viewing_time"":45213.5},{""page_index"":6,""viewing_time"":9756.5},{""page_index"":7,""viewing_time"":9529.800000011921},{""page_index"":8,""viewing_time"":6332.79999999702},{""page_index"":9,""viewing_time"":5687.5999999940395},{""page_index"":10,""viewing_time"":9304.29999999702},{""page_index"":11,""viewing_time"":5087.100000008941},{""page_index"":12,""viewing_time"":7759.899999991059},{""page_index"":13,""viewing_time"":5426.9000000059605}]","145427.59999999404","","","","","","","","","","","","","","","","","","","","","","","",""
"pit-trial","8","189929","0.0-2.0-4.0-0.0","battery-v0.2","","""event"",""trial"",""time""
""fullscreenenter"",""1"",""3035""
""blur"",""7"",""106373""
""focus"",""7"",""127364""
","""event"",""trial"",""time""
""blur"",""7"",""106373""
","""event"",""trial"",""time""
""focus"",""7"",""127364""
","""event"",""trial"",""time""
""fullscreenenter"",""1"",""3035""
","
","","","706.5999999940395","","","12","3774","1230","&#9784;","elianto","#FFFFF080"," "," ","1","&#10004","[1561.4000000059605]","1","0","0","","","","","","","",""
"pit-trial","9","193359","0.0-2.0-4.1-0.1","battery-v0.2","","""event"",""trial"",""time""
""fullscreenenter"",""1"",""3035""
""blur"",""7"",""106373""
""focus"",""7"",""127364""
","""event"",""trial"",""time""
""blur"",""7"",""106373""
","""event"",""trial"",""time""
""focus"",""7"",""127364""
","""event"",""trial"",""time""
""fullscreenenter"",""1"",""3035""
","
","","","563.2000000029802","","","12","3774","1230","&#9784;","elianto","#FFFFF080"," "," ","1","&#10004","[1415.0999999940395]","1","0","0","","","","","","","",""
"pit-trial","10","196745","0.0-2.0-4.2-0.2","battery-v0.2","","""event"",""trial"",""time""
""fullscreenenter"",""1"",""3035""
""blur"",""7"",""106373""
""focus"",""7"",""127364""
","""event"",""trial"",""time""
""blur"",""7"",""106373""
","""event"",""trial"",""time""
""focus"",""7"",""127364""
","""event"",""trial"",""time""
""fullscreenenter"",""1"",""3035""
","
","","","526.7999999970198","","","12","3774","1230","&#9784;","elianto","#FFFFF080"," "," ","1","&#10004","[1381.7000000029802]","1","0","0","","","","","","","",""
"pit-trial","11","200100","0.0-2.0-4.3-0.3","battery-v0.2","","""event"",""trial"",""time""
""fullscreenenter"",""1"",""3035""
""blur"",""7"",""106373""
""focus"",""7"",""127364""
","""event"",""trial"",""time""
""blur"",""7"",""106373""
","""event"",""trial"",""time""
""focus"",""7"",""127364""
","""event"",""trial"",""time""
""fullscreenenter"",""1"",""3035""
","
","","","489.70000000298023","","","12","3774","1230","&#9784;","elianto","#FFFFF080"," "," ","1","&#10004","[1343]","1","0","0","","","","","","","",""
"pit-trial","12","203564","0.0-2.0-4.4-0.4","battery-v0.2","","""event"",""trial"",""time""
""fullscreenenter"",""1"",""3035""
""blur"",""7"",""106373""
""focus"",""7"",""127364""
","""event"",""trial"",""time""
""blur"",""7"",""106373""
","""event"",""trial"",""time""
""focus"",""7"",""127364""
","""event"",""trial"",""time""
""fullscreenenter"",""1"",""3035""
","
","","","604.5999999940395","","","12","3774","1230","&#9784;","elianto","#FFFFF080"," "," ","1","&#10004","[1455.2999999970198]","1","0","0","","","","","","","",""
"pit-instructions","13","231573","0.0-2.0-5.0","battery-v0.2","","""event"",""trial"",""time""
""fullscreenenter"",""1"",""3035""
""blur"",""7"",""106373""
""focus"",""7"",""127364""
","""event"",""trial"",""time""
""blur"",""7"",""106373""
","""event"",""trial"",""time""
""focus"",""7"",""127364""
","""event"",""trial"",""time""
""fullscreenenter"",""1"",""3035""
","
","","[{""page_index"":0,""viewing_time"":6774.100000008941},{""page_index"":1,""viewing_time"":7150.79999999702},{""page_index"":2,""viewing_time"":7670.5999999940395},{""page_index"":3,""viewing_time"":6409.20000000298}]","28005","","","","","","","","","","","","","","","","","","","","","","","",""
"pit-trial","14","236440","0.0-2.0-6.0-0.0","battery-v0.2","","""event"",""trial"",""time""
""fullscreenenter"",""1"",""3035""
""blur"",""7"",""106373""
""focus"",""7"",""127364""
","""event"",""trial"",""time""
""blur"",""7"",""106373""
","""event"",""trial"",""time""
""focus"",""7"",""127364""
","""event"",""trial"",""time""
""fullscreenenter"",""1"",""3035""
","
","","","-1","","","12","3774","1230","&#9854;","elianto","#FFFFF080","-1","-1","1","&#10004","[]","0","0","1","","","","","","","",""
"pit-trial","15","241309","0.0-2.0-6.1-0.1","battery-v0.2","","""event"",""trial"",""time""
""fullscreenenter"",""1"",""3035""
""blur"",""7"",""106373""
""focus"",""7"",""127364""
","""event"",""trial"",""time""
""blur"",""7"",""106373""
","""event"",""trial"",""time""
""focus"",""7"",""127364""
","""event"",""trial"",""time""
""fullscreenenter"",""1"",""3035""
","
","","","-1","","","12","3774","1230","&#9854;","elianto","#FFFFF080","-1","-1","1","&#10004","[]","0","0","1","","","","","","","",""
"pit-trial","16","246188","0.0-2.0-6.2-0.2","battery-v0.2","","""event"",""trial"",""time""
""fullscreenenter"",""1"",""3035""
""blur"",""7"",""106373""
""focus"",""7"",""127364""
","""event"",""trial"",""time""
""blur"",""7"",""106373""
","""event"",""trial"",""time""
""focus"",""7"",""127364""
","""event"",""trial"",""time""
""fullscreenenter"",""1"",""3035""
","
","","","-1","","","12","3774","1230","&#9854;","elianto","#FFFFF080","-1","-1","1","&#10004","[]","0","0","1","","","","","","","",""
"pit-trial","17","251069","0.0-2.0-6.3-0.3","battery-v0.2","","""event"",""trial"",""time""
""fullscreenenter"",""1"",""3035""
""blur"",""7"",""106373""
""focus"",""7"",""127364""
","""event"",""trial"",""time""
""blur"",""7"",""106373""
","""event"",""trial"",""time""
""focus"",""7"",""127364""
","""event"",""trial"",""time""
""fullscreenenter"",""1"",""3035""
","
","","","-1","","","12","3774","1230","&#9854;","elianto","#FFFFF080","-1","-1","1","&#10004","[]","0","0","1","","","","","","","",""
"pit-trial","18","255948","0.0-2.0-6.4-0.4","battery-v0.2","","""event"",""trial"",""time""
""fullscreenenter"",""1"",""3035""
""blur"",""7"",""106373""
""focus"",""7"",""127364""
","""event"",""trial"",""time""
""blur"",""7"",""106373""
","""event"",""trial"",""time""
""focus"",""7"",""127364""
","""event"",""trial"",""time""
""fullscreenenter"",""1"",""3035""
","
","","","-1","","","12","3774","1230","&#9854;","elianto","#FFFFF080","-1","-1","1","&#10004","[]","0","0","1","","","","","","","",""
"pit-instructions","19","417160","0.0-2.0-7.0","battery-v0.2","","""event"",""trial"",""time""
""fullscreenenter"",""1"",""3035""
""blur"",""7"",""106373""
""focus"",""7"",""127364""
","""event"",""trial"",""time""
""blur"",""7"",""106373""
","""event"",""trial"",""time""
""focus"",""7"",""127364""
","""event"",""trial"",""time""
""fullscreenenter"",""1"",""3035""
","
","","[{""page_index"":0,""viewing_time"":17887.59999999404},{""page_index"":1,""viewing_time"":7568.9000000059605},{""page_index"":2,""viewing_time"":9204.79999999702},{""page_index"":3,""viewing_time"":10424.09999999404},{""page_index"":4,""viewing_time"":6932.800000011921},{""page_index"":5,""viewing_time"":7473.5},{""page_index"":6,""viewing_time"":6867.5999999940395},{""page_index"":7,""viewing_time"":9812.29999999702},{""page_index"":8,""viewing_time"":11059.90000000596},{""page_index"":9,""viewing_time"":7826.29999999702},{""page_index"":10,""viewing_time"":7388.4000000059605},{""page_index"":11,""viewing_time"":5139.899999991059},{""page_index"":12,""viewing_time"":7794.9000000059605},{""page_index"":13,""viewing_time"":10066.79999999702},{""page_index"":14,""viewing_time"":9621.09999999404},{""page_index"":15,""viewing_time"":9525.60000000894},{""page_index"":16,""viewing_time"":9132.59999999404},{""page_index"":17,""viewing_time"":7482.20000000298}]","161209.89999999106","","","","","","","","","","","","","","","","","","","","","","","",""
"pit-trial","20","420886","0.0-2.0-8.0-0.0","battery-v0.2","","""event"",""trial"",""time""
""fullscreenenter"",""1"",""3035""
""blur"",""7"",""106373""
""focus"",""7"",""127364""
","""event"",""trial"",""time""
""blur"",""7"",""106373""
","""event"",""trial"",""time""
""focus"",""7"",""127364""
","""event"",""trial"",""time""
""fullscreenenter"",""1"",""3035""
","
","","","848.2999999970198","","","12","3774","1230","&#9776;","elianto","#3366ff99"," "," ","1","+10","[1702]","1","0","1","","","","","","","",""
"pit-trial","21","424282","0.0-2.0-8.0-1.0","battery-v0.2","","""event"",""trial"",""time""
""fullscreenenter"",""1"",""3035""
""blur"",""7"",""106373""
""focus"",""7"",""127364""
","""event"",""trial"",""time""
""blur"",""7"",""106373""
","""event"",""trial"",""time""
""focus"",""7"",""127364""
","""event"",""trial"",""time""
""fullscreenenter"",""1"",""3035""
","
","","","538.7999999970198","","","12","3774","1230","&#9776;","elianto","#3366ff99"," "," ","1","+10","[1389.2999999970198]","1","0","1","","","","","","","",""
"pit-trial","22","427877","0.0-2.0-8.0-2.0","battery-v0.2","","""event"",""trial"",""time""
""fullscreenenter"",""1"",""3035""
""blur"",""7"",""106373""
""focus"",""7"",""127364""
","""event"",""trial"",""time""
""blur"",""7"",""106373""
","""event"",""trial"",""time""
""focus"",""7"",""127364""
","""event"",""trial"",""time""
""fullscreenenter"",""1"",""3035""
","
","","","728.7000000029802","","","12","3774","1230","&#9776;","elianto","#3366ff99"," "," ","1","+10","[1578.7999999970198]","1","0","1","","","","","","","",""
"pit-trial","23","431276","0.0-2.0-8.0-3.0","battery-v0.2","","""event"",""trial"",""time""
""fullscreenenter"",""1"",""3035""
""blur"",""7"",""106373""
""focus"",""7"",""127364""
","""event"",""trial"",""time""
""blur"",""7"",""106373""
","""event"",""trial"",""time""
""focus"",""7"",""127364""
","""event"",""trial"",""time""
""fullscreenenter"",""1"",""3035""
","
","","","528.1000000089407","","","12","3774","1230","&#9776;","elianto","#3366ff99"," "," ","1","0","[7.799999997019768,1379.9000000059605]","2","0","1","","","","","","","",""
"pit-trial","24","434688","0.0-2.0-8.0-4.0","battery-v0.2","","""event"",""trial"",""time""
""fullscreenenter"",""1"",""3035""
""blur"",""7"",""106373""
""focus"",""7"",""127364""
","""event"",""trial"",""time""
""blur"",""7"",""106373""
","""event"",""trial"",""time""
""focus"",""7"",""127364""
","""event"",""trial"",""time""
""fullscreenenter"",""1"",""3035""
","
","","","543.5999999940395","","","12","3774","1230","&#9776;","elianto","#3366ff99"," "," ","1","+10","[1394]","1","0","1","","","","","","","",""
"pit-trial","25","438136","0.0-2.0-8.1-0.1","battery-v0.2","","""event"",""trial"",""time""
""fullscreenenter"",""1"",""3035""
""blur"",""7"",""106373""
""focus"",""7"",""127364""
","""event"",""trial"",""time""
""blur"",""7"",""106373""
","""event"",""trial"",""time""
""focus"",""7"",""127364""
","""event"",""trial"",""time""
""fullscreenenter"",""1"",""3035""
","
","","","574.2999999970198","","","12","3774","1230","&#9776;","elianto","#3366ff99"," "," ","1","+10","[1424.5999999940395]","1","0","1","","","","","","","",""
"pit-trial","26","441532","0.0-2.0-8.1-1.1","battery-v0.2","","""event"",""trial"",""time""
""fullscreenenter"",""1"",""3035""
""blur"",""7"",""106373""
""focus"",""7"",""127364""
","""event"",""trial"",""time""
""blur"",""7"",""106373""
","""event"",""trial"",""time""
""focus"",""7"",""127364""
","""event"",""trial"",""time""
""fullscreenenter"",""1"",""3035""
","
","","","536.7999999970198","","","12","3774","1230","&#9776;","elianto","#3366ff99"," "," ","1","+10","[1387.5]","1","0","1","","","","","","","",""
"pit-trial","27","444829","0.0-2.0-8.1-2.1","battery-v0.2","","""event"",""trial"",""time""
""fullscreenenter"",""1"",""3035""
""blur"",""7"",""106373""
""focus"",""7"",""127364""
","""event"",""trial"",""time""
""blur"",""7"",""106373""
","""event"",""trial"",""time""
""focus"",""7"",""127364""
","""event"",""trial"",""time""
""fullscreenenter"",""1"",""3035""
","
","","","425","","","12","3774","1230","&#9776;","elianto","#3366ff99"," "," ","1","+10","[1275.5,1957.8999999910593,2537.8999999910593]","3","0","1","","","","","","","",""
"pit-trial","28","448114","0.0-2.0-8.1-3.1","battery-v0.2","","""event"",""trial"",""time""
""fullscreenenter"",""1"",""3035""
""blur"",""7"",""106373""
""focus"",""7"",""127364""
","""event"",""trial"",""time""
""blur"",""7"",""106373""
","""event"",""trial"",""time""
""focus"",""7"",""127364""
","""event"",""trial"",""time""
""fullscreenenter"",""1"",""3035""
","
","","","430.5","","","12","3774","1230","&#9776;","elianto","#3366ff99"," "," ","1","0","[1280.8999999910593]","1","0","1","","","","","","","",""
"pit-trial","29","451361","0.0-2.0-8.1-4.1","battery-v0.2","","""event"",""trial"",""time""
""fullscreenenter"",""1"",""3035""
""blur"",""7"",""106373""
""focus"",""7"",""127364""
","""event"",""trial"",""time""
""blur"",""7"",""106373""
","""event"",""trial"",""time""
""focus"",""7"",""127364""
","""event"",""trial"",""time""
""fullscreenenter"",""1"",""3035""
","
","","","386.90000000596046","","","12","3774","1230","&#9776;","elianto","#3366ff99"," "," ","1","+10","[1239.800000011921,2049.1000000089407]","2","0","1","","","","","","","",""
"pit-trial","30","454731","0.0-2.0-8.2-0.2","battery-v0.2","","""event"",""trial"",""time""
""fullscreenenter"",""1"",""3035""
""blur"",""7"",""106373""
""focus"",""7"",""127364""
","""event"",""trial"",""time""
""blur"",""7"",""106373""
","""event"",""trial"",""time""
""focus"",""7"",""127364""
","""event"",""trial"",""time""
""fullscreenenter"",""1"",""3035""
","
","","","500.70000000298023","","","12","3774","1230","&#9776;","elianto","#3366ff99"," "," ","1","+10","[1354.5]","1","0","1","","","","","","","",""
"pit-trial","31","457992","0.0-2.0-8.2-1.2","battery-v0.2","","""event"",""trial"",""time""
""fullscreenenter"",""1"",""3035""
""blur"",""7"",""106373""
""focus"",""7"",""127364""
","""event"",""trial"",""time""
""blur"",""7"",""106373""
","""event"",""trial"",""time""
""focus"",""7"",""127364""
","""event"",""trial"",""time""
""fullscreenenter"",""1"",""3035""
","
","","","406.70000000298023","","","12","3774","1230","&#9776;","elianto","#3366ff99"," "," ","1","+10","[1258.2999999970198]","1","0","1","","","","","","","",""
"pit-trial","32","461321","0.0-2.0-8.2-2.2","battery-v0.2","","""event"",""trial"",""time""
""fullscreenenter"",""1"",""3035""
""blur"",""7"",""106373""
""focus"",""7"",""127364""
","""event"",""trial"",""time""
""blur"",""7"",""106373""
","""event"",""trial"",""time""
""focus"",""7"",""127364""
","""event"",""trial"",""time""
""fullscreenenter"",""1"",""3035""
","
","","","468.6000000089407","","","12","3774","1230","&#9776;","elianto","#3366ff99"," "," ","1","+10","[1323.0999999940395]","1","0","1","","","","","","","",""
"pit-trial","33","464937","0.0-2.0-8.2-3.2","battery-v0.2","","""event"",""trial"",""time""
""fullscreenenter"",""1"",""3035""
""blur"",""7"",""106373""
""focus"",""7"",""127364""
","""event"",""trial"",""time""
""blur"",""7"",""106373""
","""event"",""trial"",""time""
""focus"",""7"",""127364""
","""event"",""trial"",""time""
""fullscreenenter"",""1"",""3035""
","
","","","757.3999999910593","","","12","3774","1230","&#9776;","elianto","#3366ff99"," "," ","1","0","[1611.0999999940395]","1","0","1","","","","","","","",""
"pit-trial","34","468385","0.0-2.0-8.2-4.2","battery-v0.2","","""event"",""trial"",""time""
""fullscreenenter"",""1"",""3035""
""blur"",""7"",""106373""
""focus"",""7"",""127364""
","""event"",""trial"",""time""
""blur"",""7"",""106373""
","""event"",""trial"",""time""
""focus"",""7"",""127364""
","""event"",""trial"",""time""
""fullscreenenter"",""1"",""3035""
","
","","","590","","","12","3774","1230","&#9776;","elianto","#3366ff99"," "," ","1","+10","[1444.3999999910593]","1","0","1","","","","","","","",""
"call-function","35","468387","0.0-2.0-9.0","battery-v0.2","","""event"",""trial"",""time""
""fullscreenenter"",""1"",""3035""
""blur"",""7"",""106373""
""focus"",""7"",""127364""
","""event"",""trial"",""time""
""blur"",""7"",""106373""
","""event"",""trial"",""time""
""focus"",""7"",""127364""
","""event"",""trial"",""time""
""fullscreenenter"",""1"",""3035""
","
","","","","","","","","","","","","","","","","","","","","","","","","","","",""
"pit-instructions","36","519192","0.0-2.0-10.0","battery-v0.2","","""event"",""trial"",""time""
""fullscreenenter"",""1"",""3035""
""blur"",""7"",""106373""
""focus"",""7"",""127364""
","""event"",""trial"",""time""
""blur"",""7"",""106373""
","""event"",""trial"",""time""
""focus"",""7"",""127364""
","""event"",""trial"",""time""
""fullscreenenter"",""1"",""3035""
","
","","[{""page_index"":0,""viewing_time"":12449.5},{""page_index"":1,""viewing_time"":6744.70000000298},{""page_index"":2,""viewing_time"":11473},{""page_index"":3,""viewing_time"":12753.59999999404},{""page_index"":4,""viewing_time"":7382.20000000298}]","50803.59999999404","","","","","","","","","","","","","","","","","","","","","","","",""
"pit-trial","37","522536","0.0-2.0-11.0-0.0","battery-v0.2","","""event"",""trial"",""time""
""fullscreenenter"",""1"",""3035""
""blur"",""7"",""106373""
""focus"",""7"",""127364""
","""event"",""trial"",""time""
""blur"",""7"",""106373""
","""event"",""trial"",""time""
""focus"",""7"",""127364""
","""event"",""trial"",""time""
""fullscreenenter"",""1"",""3035""
","
","","","474.90000000596046","","","12","3774","1230","&#9761;","elianto","#3366ff99","-1"," ","0","0","[1330.2000000029802]","1","0","2","","","","","","","",""
"pit-trial","38","525400","0.0-2.0-11.0-1.0","battery-v0.2","","""event"",""trial"",""time""
""fullscreenenter"",""1"",""3035""
""blur"",""7"",""106373""
""focus"",""7"",""127364""
","""event"",""trial"",""time""
""blur"",""7"",""106373""
","""event"",""trial"",""time""
""focus"",""7"",""127364""
","""event"",""trial"",""time""
""fullscreenenter"",""1"",""3035""
","
","","","1.5999999940395355","","","12","3774","1230","&#9761;","elianto","#3366ff99","-1"," ","0","0","[852.8999999910593]","1","0","2","","","","","","","",""
"pit-trial","39","528814","0.0-2.0-11.0-2.0","battery-v0.2","","""event"",""trial"",""time""
""fullscreenenter"",""1"",""3035""
""blur"",""7"",""106373""
""focus"",""7"",""127364""
","""event"",""trial"",""time""
""blur"",""7"",""106373""
","""event"",""trial"",""time""
""focus"",""7"",""127364""
","""event"",""trial"",""time""
""fullscreenenter"",""1"",""3035""
","
","","","542.1000000089407","","","12","3774","1230","&#9761;","elianto","#3366ff99","-1"," ","0","0","[827.8000000119209,1392.1000000089407]","2","0","2","","","","","","","",""
"pit-trial","40","531761","0.0-2.0-11.0-3.0","battery-v0.2","","""event"",""trial"",""time""
""fullscreenenter"",""1"",""3035""
""blur"",""7"",""106373""
""focus"",""7"",""127364""
","""event"",""trial"",""time""
""blur"",""7"",""106373""
","""event"",""trial"",""time""
""focus"",""7"",""127364""
","""event"",""trial"",""time""
""fullscreenenter"",""1"",""3035""
","
","","","85.09999999403954","","","12","3774","1230","&#9761;","elianto","#3366ff99","-1"," ","0","+10","[936.0999999940395]","1","0","2","","","","","","","",""
"pit-trial","41","534757","0.0-2.0-11.0-4.0","battery-v0.2","","""event"",""trial"",""time""
""fullscreenenter"",""1"",""3035""
""blur"",""7"",""106373""
""focus"",""7"",""127364""
","""event"",""trial"",""time""
""blur"",""7"",""106373""
","""event"",""trial"",""time""
""focus"",""7"",""127364""
","""event"",""trial"",""time""
""fullscreenenter"",""1"",""3035""
","
","","","134.90000000596046","","","12","3774","1230","&#9761;","elianto","#3366ff99","-1"," ","0","0","[985.2999999970198]","1","0","2","","","","","","","",""
"pit-trial","42","538236","0.0-2.0-11.1-0.1","battery-v0.2","","""event"",""trial"",""time""
""fullscreenenter"",""1"",""3035""
""blur"",""7"",""106373""
""focus"",""7"",""127364""
","""event"",""trial"",""time""
""blur"",""7"",""106373""
","""event"",""trial"",""time""
""focus"",""7"",""127364""
","""event"",""trial"",""time""
""fullscreenenter"",""1"",""3035""
","
","","","609.5","","","12","3774","1230","&#9761;","elianto","#3366ff99","-1"," ","0","0","[1459.699999988079]","1","0","2","","","","","","","",""
"pit-trial","43","541517","0.0-2.0-11.1-1.1","battery-v0.2","","""event"",""trial"",""time""
""fullscreenenter"",""1"",""3035""
""blur"",""7"",""106373""
""focus"",""7"",""127364""
","""event"",""trial"",""time""
""blur"",""7"",""106373""
","""event"",""trial"",""time""
""focus"",""7"",""127364""
","""event"",""trial"",""time""
""fullscreenenter"",""1"",""3035""
","
","","","409.69999998807907","","","12","3774","1230","&#9761;","elianto","#3366ff99","-1"," ","0","0","[1260.7999999970198]","1","0","2","","","","","","","",""
"pit-trial","44","544913","0.0-2.0-11.1-2.1","battery-v0.2","","""event"",""trial"",""time""
""fullscreenenter"",""1"",""3035""
""blur"",""7"",""106373""
""focus"",""7"",""127364""
","""event"",""trial"",""time""
""blur"",""7"",""106373""
","""event"",""trial"",""time""
""focus"",""7"",""127364""
","""event"",""trial"",""time""
""fullscreenenter"",""1"",""3035""
","
","","","537.6999999880791","","","12","3774","1230","&#9761;","elianto","#3366ff99","-1"," ","0","0","[1389.0999999940395]","1","0","2","","","","","","","",""
"pit-trial","45","548161","0.0-2.0-11.1-3.1","battery-v0.2","","""event"",""trial"",""time""
""fullscreenenter"",""1"",""3035""
""blur"",""7"",""106373""
""focus"",""7"",""127364""
","""event"",""trial"",""time""
""blur"",""7"",""106373""
","""event"",""trial"",""time""
""focus"",""7"",""127364""
","""event"",""trial"",""time""
""fullscreenenter"",""1"",""3035""
","
","","","388","","","12","3774","1230","&#9761;","elianto","#3366ff99","-1"," ","0","+10","[1239.7999999970198]","1","0","2","","","","","","","",""
"pit-trial","46","551089","0.0-2.0-11.1-4.1","battery-v0.2","","""event"",""trial"",""time""
""fullscreenenter"",""1"",""3035""
""blur"",""7"",""106373""
""focus"",""7"",""127364""
","""event"",""trial"",""time""
""blur"",""7"",""106373""
","""event"",""trial"",""time""
""focus"",""7"",""127364""
","""event"",""trial"",""time""
""fullscreenenter"",""1"",""3035""
","
","","","67.5","","","12","3774","1230","&#9761;","elianto","#3366ff99","-1"," ","0","0","[918.2999999970198]","1","0","2","","","","","","","",""
"pit-trial","47","554206","0.0-2.0-11.2-0.2","battery-v0.2","","""event"",""trial"",""time""
""fullscreenenter"",""1"",""3035""
""blur"",""7"",""106373""
""focus"",""7"",""127364""
","""event"",""trial"",""time""
""blur"",""7"",""106373""
","""event"",""trial"",""time""
""focus"",""7"",""127364""
","""event"",""trial"",""time""
""fullscreenenter"",""1"",""3035""
","
","","","244.6000000089407","","","12","3774","1230","&#9761;","elianto","#3366ff99","-1"," ","0","0","[139.20000000298023,1094.7000000029802]","2","0","2","","","","","","","",""
"pit-trial","48","557457","0.0-2.0-11.2-1.2","battery-v0.2","","""event"",""trial"",""time""
""fullscreenenter"",""1"",""3035""
""blur"",""7"",""106373""
""focus"",""7"",""127364""
","""event"",""trial"",""time""
""blur"",""7"",""106373""
","""event"",""trial"",""time""
""focus"",""7"",""127364""
","""event"",""trial"",""time""
""fullscreenenter"",""1"",""3035""
","
","","","389.40000000596046","","","12","3774","1230","&#9761;","elianto","#3366ff99","-1"," ","0","0","[1239.5]","1","0","2","","","","","","","",""
"pit-trial","49","560690","0.0-2.0-11.2-2.2","battery-v0.2","","""event"",""trial"",""time""
""fullscreenenter"",""1"",""3035""
""blur"",""7"",""106373""
""focus"",""7"",""127364""
","""event"",""trial"",""time""
""blur"",""7"",""106373""
","""event"",""trial"",""time""
""focus"",""7"",""127364""
","""event"",""trial"",""time""
""fullscreenenter"",""1"",""3035""
","
","","","370.19999998807907","","","12","3774","1230","&#9761;","elianto","#3366ff99","-1"," ","0","0","[1223.2000000029802]","1","0","2","","","","","","","",""
"pit-trial","50","564105","0.0-2.0-11.2-3.2","battery-v0.2","","""event"",""trial"",""time""
""fullscreenenter"",""1"",""3035""
""blur"",""7"",""106373""
""focus"",""7"",""127364""
","""event"",""trial"",""time""
""blur"",""7"",""106373""
","""event"",""trial"",""time""
""focus"",""7"",""127364""
","""event"",""trial"",""time""
""fullscreenenter"",""1"",""3035""
","
","","","555.9000000059605","","","12","3774","1230","&#9761;","elianto","#3366ff99","-1"," ","0","+10","[1408.300000011921]","1","0","2","","","","","","","",""
"pit-trial","51","567928","0.0-2.0-11.2-4.2","battery-v0.2","","""event"",""trial"",""time""
""fullscreenenter"",""1"",""3035""
""blur"",""7"",""106373""
""focus"",""7"",""127364""
","""event"",""trial"",""time""
""blur"",""7"",""106373""
","""event"",""trial"",""time""
""focus"",""7"",""127364""
","""event"",""trial"",""time""
""fullscreenenter"",""1"",""3035""
","
","","","964","","","12","3774","1230","&#9761;","elianto","#3366ff99","-1"," ","0","0","[1818.2999999970198]","1","0","2","","","","","","","",""
"pit-trial","52","571937","0.0-2.0-11.3-0.3","battery-v0.2","","""event"",""trial"",""time""
""fullscreenenter"",""1"",""3035""
""blur"",""7"",""106373""
""focus"",""7"",""127364""
","""event"",""trial"",""time""
""blur"",""7"",""106373""
","""event"",""trial"",""time""
""focus"",""7"",""127364""
","""event"",""trial"",""time""
""fullscreenenter"",""1"",""3035""
","
","","","1145.6000000089407","","","12","3774","1230","&#9761;","elianto","#3366ff99","-1"," ","0","0","[1999.5999999940395]","1","0","2","","","","","","","",""
"pit-trial","53","575425","0.0-2.0-11.3-1.3","battery-v0.2","","""event"",""trial"",""time""
""fullscreenenter"",""1"",""3035""
""blur"",""7"",""106373""
""focus"",""7"",""127364""
","""event"",""trial"",""time""
""blur"",""7"",""106373""
","""event"",""trial"",""time""
""focus"",""7"",""127364""
","""event"",""trial"",""time""
""fullscreenenter"",""1"",""3035""
","
","","","631","","","12","3774","1230","&#9761;","elianto","#3366ff99","-1"," ","0","0","[1482.3999999910593]","1","0","2","","","","","","","",""
"pit-trial","54","578737","0.0-2.0-11.3-2.3","battery-v0.2","","""event"",""trial"",""time""
""fullscreenenter"",""1"",""3035""
""blur"",""7"",""106373""
""focus"",""7"",""127364""
","""event"",""trial"",""time""
""blur"",""7"",""106373""
","""event"",""trial"",""time""
""focus"",""7"",""127364""
","""event"",""trial"",""time""
""fullscreenenter"",""1"",""3035""
","
","","","454.19999998807907","","","12","3774","1230","&#9761;","elianto","#3366ff99","-1"," ","0","0","[1307.7999999970198]","1","0","2","","","","","","","",""
"pit-trial","55","581905","0.0-2.0-11.3-3.3","battery-v0.2","","""event"",""trial"",""time""
""fullscreenenter"",""1"",""3035""
""blur"",""7"",""106373""
""focus"",""7"",""127364""
","""event"",""trial"",""time""
""blur"",""7"",""106373""
","""event"",""trial"",""time""
""focus"",""7"",""127364""
","""event"",""trial"",""time""
""fullscreenenter"",""1"",""3035""
","
","","","306.29999999701977","","","12","3774","1230","&#9761;","elianto","#3366ff99","-1"," ","0","+10","[1160]","1","0","2","","","","","","","",""
"pit-trial","56","584834","0.0-2.0-11.3-4.3","battery-v0.2","","""event"",""trial"",""time""
""fullscreenenter"",""1"",""3035""
""blur"",""7"",""106373""
""focus"",""7"",""127364""
","""event"",""trial"",""time""
""blur"",""7"",""106373""
","""event"",""trial"",""time""
""focus"",""7"",""127364""
","""event"",""trial"",""time""
""fullscreenenter"",""1"",""3035""
","
","","","63.70000000298023","","","12","3774","1230","&#9761;","elianto","#3366ff99","-1"," ","0","0","[918,1612.7999999970198]","2","0","2","","","","","","","",""
"call-function","57","584836","0.0-2.0-12.0","battery-v0.2","","""event"",""trial"",""time""
""fullscreenenter"",""1"",""3035""
""blur"",""7"",""106373""
""focus"",""7"",""127364""
","""event"",""trial"",""time""
""blur"",""7"",""106373""
","""event"",""trial"",""time""
""focus"",""7"",""127364""
","""event"",""trial"",""time""
""fullscreenenter"",""1"",""3035""
","
","","","","","","","","","","","","","","","","","","","","","","","","","","",""
"pit-instructions","58","630424","0.0-2.0-13.0","battery-v0.2","","""event"",""trial"",""time""
""fullscreenenter"",""1"",""3035""
""blur"",""7"",""106373""
""focus"",""7"",""127364""
","""event"",""trial"",""time""
""blur"",""7"",""106373""
","""event"",""trial"",""time""
""focus"",""7"",""127364""
","""event"",""trial"",""time""
""fullscreenenter"",""1"",""3035""
","
","","[{""page_index"":0,""viewing_time"":15932},{""page_index"":1,""viewing_time"":8378.20000000298},{""page_index"":2,""viewing_time"":5347.399999991059},{""page_index"":3,""viewing_time"":11027.10000000894},{""page_index"":4,""viewing_time"":4902.70000000298}]","45587.70000000298","","","","","","","","","","","","","","","","","","","","","","","",""
"pit-trial","59","635309","0.0-2.0-14.0-0.0","battery-v0.2","","""event"",""trial"",""time""
""fullscreenenter"",""1"",""3035""
""blur"",""7"",""106373""
""focus"",""7"",""127364""
","""event"",""trial"",""time""
""blur"",""7"",""106373""
","""event"",""trial"",""time""
""focus"",""7"",""127364""
","""event"",""trial"",""time""
""fullscreenenter"",""1"",""3035""
","
","","","-1","","","12","3774","1230","&#9826;","elianto","#f73b6a7A","-1","-1","1","0","[]","0","0","3","","","","","","","",""
"pit-trial","60","640188","0.0-2.0-14.0-1.0","battery-v0.2","","""event"",""trial"",""time""
""fullscreenenter"",""1"",""3035""
""blur"",""7"",""106373""
""focus"",""7"",""127364""
","""event"",""trial"",""time""
""blur"",""7"",""106373""
","""event"",""trial"",""time""
""focus"",""7"",""127364""
","""event"",""trial"",""time""
""fullscreenenter"",""1"",""3035""
","
","","","-1","","","12","3774","1230","&#9826;","elianto","#f73b6a7A","-1","-1","1","0","[]","0","0","3","","","","","","","",""
"pit-trial","61","645065","0.0-2.0-14.0-2.0","battery-v0.2","","""event"",""trial"",""time""
""fullscreenenter"",""1"",""3035""
""blur"",""7"",""106373""
""focus"",""7"",""127364""
","""event"",""trial"",""time""
""blur"",""7"",""106373""
","""event"",""trial"",""time""
""focus"",""7"",""127364""
","""event"",""trial"",""time""
""fullscreenenter"",""1"",""3035""
","
","","","-1","","","12","3774","1230","&#9826;","elianto","#f73b6a7A","-1","-1","1","0","[]","0","0","3","","","","","","","",""
"pit-trial","62","649944","0.0-2.0-14.0-3.0","battery-v0.2","","""event"",""trial"",""time""
""fullscreenenter"",""1"",""3035""
""blur"",""7"",""106373""
""focus"",""7"",""127364""
","""event"",""trial"",""time""
""blur"",""7"",""106373""
","""event"",""trial"",""time""
""focus"",""7"",""127364""
","""event"",""trial"",""time""
""fullscreenenter"",""1"",""3035""
","
","","","-1","","","12","3774","1230","&#9826;","elianto","#f73b6a7A","-1","-1","1","-10","[]","0","0","3","","","","","","","",""
"pit-trial","63","654822","0.0-2.0-14.0-4.0","battery-v0.2","","""event"",""trial"",""time""
""fullscreenenter"",""1"",""3035""
""blur"",""7"",""106373""
""focus"",""7"",""127364""
","""event"",""trial"",""time""
""blur"",""7"",""106373""
","""event"",""trial"",""time""
""focus"",""7"",""127364""
","""event"",""trial"",""time""
""fullscreenenter"",""1"",""3035""
","
","","","-1","","","12","3774","1230","&#9826;","elianto","#f73b6a7A","-1","-1","1","0","[]","0","0","3","","","","","","","",""
"pit-trial","64","659701","0.0-2.0-14.1-0.1","battery-v0.2","","""event"",""trial"",""time""
""fullscreenenter"",""1"",""3035""
""blur"",""7"",""106373""
""focus"",""7"",""127364""
","""event"",""trial"",""time""
""blur"",""7"",""106373""
","""event"",""trial"",""time""
""focus"",""7"",""127364""
","""event"",""trial"",""time""
""fullscreenenter"",""1"",""3035""
","
","","","-1","","","12","3774","1230","&#9826;","elianto","#f73b6a7A","-1","-1","1","0","[]","0","0","3","","","","","","","",""
"pit-trial","65","664570","0.0-2.0-14.1-1.1","battery-v0.2","","""event"",""trial"",""time""
""fullscreenenter"",""1"",""3035""
""blur"",""7"",""106373""
""focus"",""7"",""127364""
","""event"",""trial"",""time""
""blur"",""7"",""106373""
","""event"",""trial"",""time""
""focus"",""7"",""127364""
","""event"",""trial"",""time""
""fullscreenenter"",""1"",""3035""
","
","","","-1","","","12","3774","1230","&#9826;","elianto","#f73b6a7A","-1","-1","1","0","[]","0","0","3","","","","","","","",""
"pit-trial","66","669432","0.0-2.0-14.1-2.1","battery-v0.2","","""event"",""trial"",""time""
""fullscreenenter"",""1"",""3035""
""blur"",""7"",""106373""
""focus"",""7"",""127364""
","""event"",""trial"",""time""
""blur"",""7"",""106373""
","""event"",""trial"",""time""
""focus"",""7"",""127364""
","""event"",""trial"",""time""
""fullscreenenter"",""1"",""3035""
","
","","","-1","","","12","3774","1230","&#9826;","elianto","#f73b6a7A","-1","-1","1","0","[]","0","0","3","","","","","","","",""
"pit-trial","67","674298","0.0-2.0-14.1-3.1","battery-v0.2","","""event"",""trial"",""time""
""fullscreenenter"",""1"",""3035""
""blur"",""7"",""106373""
""focus"",""7"",""127364""
","""event"",""trial"",""time""
""blur"",""7"",""106373""
","""event"",""trial"",""time""
""focus"",""7"",""127364""
","""event"",""trial"",""time""
""fullscreenenter"",""1"",""3035""
","
","","","-1","","","12","3774","1230","&#9826;","elianto","#f73b6a7A","-1","-1","1","-10","[]","0","0","3","","","","","","","",""
"pit-trial","68","679161","0.0-2.0-14.1-4.1","battery-v0.2","","""event"",""trial"",""time""
""fullscreenenter"",""1"",""3035""
""blur"",""7"",""106373""
""focus"",""7"",""127364""
","""event"",""trial"",""time""
""blur"",""7"",""106373""
","""event"",""trial"",""time""
""focus"",""7"",""127364""
","""event"",""trial"",""time""
""fullscreenenter"",""1"",""3035""
","
","","","-1","","","12","3774","1230","&#9826;","elianto","#f73b6a7A","-1","-1","1","0","[]","0","0","3","","","","","","","",""
"pit-trial","69","684026","0.0-2.0-14.2-0.2","battery-v0.2","","""event"",""trial"",""time""
""fullscreenenter"",""1"",""3035""
""blur"",""7"",""106373""
""focus"",""7"",""127364""
","""event"",""trial"",""time""
""blur"",""7"",""106373""
","""event"",""trial"",""time""
""focus"",""7"",""127364""
","""event"",""trial"",""time""
""fullscreenenter"",""1"",""3035""
","
","","","-1","","","12","3774","1230","&#9826;","elianto","#f73b6a7A","-1","-1","1","0","[]","0","0","3","","","","","","","",""
"pit-trial","70","688888","0.0-2.0-14.2-1.2","battery-v0.2","","""event"",""trial"",""time""
""fullscreenenter"",""1"",""3035""
""blur"",""7"",""106373""
""focus"",""7"",""127364""
","""event"",""trial"",""time""
""blur"",""7"",""106373""
","""event"",""trial"",""time""
""focus"",""7"",""127364""
","""event"",""trial"",""time""
""fullscreenenter"",""1"",""3035""
","
","","","-1","","","12","3774","1230","&#9826;","elianto","#f73b6a7A","-1","-1","1","0","[]","0","0","3","","","","","","","",""
"pit-trial","71","693753","0.0-2.0-14.2-2.2","battery-v0.2","","""event"",""trial"",""time""
""fullscreenenter"",""1"",""3035""
""blur"",""7"",""106373""
""focus"",""7"",""127364""
","""event"",""trial"",""time""
""blur"",""7"",""106373""
","""event"",""trial"",""time""
""focus"",""7"",""127364""
","""event"",""trial"",""time""
""fullscreenenter"",""1"",""3035""
","
","","","-1","","","12","3774","1230","&#9826;","elianto","#f73b6a7A","-1","-1","1","0","[]","0","0","3","","","","","","","",""
"pit-trial","72","698616","0.0-2.0-14.2-3.2","battery-v0.2","","""event"",""trial"",""time""
""fullscreenenter"",""1"",""3035""
""blur"",""7"",""106373""
""focus"",""7"",""127364""
","""event"",""trial"",""time""
""blur"",""7"",""106373""
","""event"",""trial"",""time""
""focus"",""7"",""127364""
","""event"",""trial"",""time""
""fullscreenenter"",""1"",""3035""
","
","","","-1","","","12","3774","1230","&#9826;","elianto","#f73b6a7A","-1","-1","1","-10","[]","0","0","3","","","","","","","",""
"pit-trial","73","703480","0.0-2.0-14.2-4.2","battery-v0.2","","""event"",""trial"",""time""
""fullscreenenter"",""1"",""3035""
""blur"",""7"",""106373""
""focus"",""7"",""127364""
","""event"",""trial"",""time""
""blur"",""7"",""106373""
","""event"",""trial"",""time""
""focus"",""7"",""127364""
","""event"",""trial"",""time""
""fullscreenenter"",""1"",""3035""
","
","","","-1","","","12","3774","1230","&#9826;","elianto","#f73b6a7A","-1","-1","1","0","[]","0","0","3","","","","","","","",""
"pit-trial","74","708344","0.0-2.0-14.3-0.3","battery-v0.2","","""event"",""trial"",""time""
""fullscreenenter"",""1"",""3035""
""blur"",""7"",""106373""
""focus"",""7"",""127364""
","""event"",""trial"",""time""
""blur"",""7"",""106373""
","""event"",""trial"",""time""
""focus"",""7"",""127364""
","""event"",""trial"",""time""
""fullscreenenter"",""1"",""3035""
","
","","","-1","","","12","3774","1230","&#9826;","elianto","#f73b6a7A","-1","-1","1","0","[]","0","0","3","","","","","","","",""
"pit-trial","75","713209","0.0-2.0-14.3-1.3","battery-v0.2","","""event"",""trial"",""time""
""fullscreenenter"",""1"",""3035""
""blur"",""7"",""106373""
""focus"",""7"",""127364""
","""event"",""trial"",""time""
""blur"",""7"",""106373""
","""event"",""trial"",""time""
""focus"",""7"",""127364""
","""event"",""trial"",""time""
""fullscreenenter"",""1"",""3035""
","
","","","-1","","","12","3774","1230","&#9826;","elianto","#f73b6a7A","-1","-1","1","0","[]","0","0","3","","","","","","","",""
"pit-trial","76","718073","0.0-2.0-14.3-2.3","battery-v0.2","","""event"",""trial"",""time""
""fullscreenenter"",""1"",""3035""
""blur"",""7"",""106373""
""focus"",""7"",""127364""
","""event"",""trial"",""time""
""blur"",""7"",""106373""
","""event"",""trial"",""time""
""focus"",""7"",""127364""
","""event"",""trial"",""time""
""fullscreenenter"",""1"",""3035""
","
","","","-1","","","12","3774","1230","&#9826;","elianto","#f73b6a7A","-1","-1","1","0","[]","0","0","3","","","","","","","",""
"pit-trial","77","722937","0.0-2.0-14.3-3.3","battery-v0.2","","""event"",""trial"",""time""
""fullscreenenter"",""1"",""3035""
""blur"",""7"",""106373""
""focus"",""7"",""127364""
","""event"",""trial"",""time""
""blur"",""7"",""106373""
","""event"",""trial"",""time""
""focus"",""7"",""127364""
","""event"",""trial"",""time""
""fullscreenenter"",""1"",""3035""
","
","","","-1","","","12","3774","1230","&#9826;","elianto","#f73b6a7A","-1","-1","1","-10","[]","0","0","3","","","","","","","",""
"pit-trial","78","727801","0.0-2.0-14.3-4.3","battery-v0.2","","""event"",""trial"",""time""
""fullscreenenter"",""1"",""3035""
""blur"",""7"",""106373""
""focus"",""7"",""127364""
","""event"",""trial"",""time""
""blur"",""7"",""106373""
","""event"",""trial"",""time""
""focus"",""7"",""127364""
","""event"",""trial"",""time""
""fullscreenenter"",""1"",""3035""
","
","","","-1","","","12","3774","1230","&#9826;","elianto","#f73b6a7A","-1","-1","1","0","[]","0","0","3","","","","","","","",""
"call-function","79","727803","0.0-2.0-15.0","battery-v0.2","","""event"",""trial"",""time""
""fullscreenenter"",""1"",""3035""
""blur"",""7"",""106373""
""focus"",""7"",""127364""
""blur"",""80"",""744271""
""focus"",""80"",""748564""
","""event"",""trial"",""time""
""blur"",""7"",""106373""
""blur"",""80"",""744271""
","""event"",""trial"",""time""
""focus"",""7"",""127364""
""focus"",""80"",""748564""
","""event"",""trial"",""time""
""fullscreenenter"",""1"",""3035""
","
","","","","","","","","","","","","","","","","","","","","","","","","","","",""
"pit-instructions","80","766651","0.0-2.0-16.0","battery-v0.2","","""event"",""trial"",""time""
""fullscreenenter"",""1"",""3035""
""blur"",""7"",""106373""
""focus"",""7"",""127364""
""blur"",""80"",""744271""
""focus"",""80"",""748564""
","""event"",""trial"",""time""
""blur"",""7"",""106373""
""blur"",""80"",""744271""
","""event"",""trial"",""time""
""focus"",""7"",""127364""
""focus"",""80"",""748564""
","""event"",""trial"",""time""
""fullscreenenter"",""1"",""3035""
","
","","[{""page_index"":0,""viewing_time"":10883.5},{""page_index"":1,""viewing_time"":11278.70000000298},{""page_index"":2,""viewing_time"":9607.199999988079},{""page_index"":3,""viewing_time"":7076.600000008941}]","38846.5","","","","","","","","","","","","","","","","","","","","","","","",""
"pit-trial","81","771526","0.0-2.0-17.0-0.0","battery-v0.2","","""event"",""trial"",""time""
""fullscreenenter"",""1"",""3035""
""blur"",""7"",""106373""
""focus"",""7"",""127364""
""blur"",""80"",""744271""
""focus"",""80"",""748564""
","""event"",""trial"",""time""
""blur"",""7"",""106373""
""blur"",""80"",""744271""
","""event"",""trial"",""time""
""focus"",""7"",""127364""
""focus"",""80"",""748564""
","""event"",""trial"",""time""
""fullscreenenter"",""1"",""3035""
","
","","","-1","","","12","3774","1230","&#9789;","elianto","#f73b6a7A"," ","-1","0","-10","[]","0","0","4","","","","","","","",""
"pit-trial","82","776405","0.0-2.0-17.0-1.0","battery-v0.2","","""event"",""trial"",""time""
""fullscreenenter"",""1"",""3035""
""blur"",""7"",""106373""
""focus"",""7"",""127364""
""blur"",""80"",""744271""
""focus"",""80"",""748564""
","""event"",""trial"",""time""
""blur"",""7"",""106373""
""blur"",""80"",""744271""
","""event"",""trial"",""time""
""focus"",""7"",""127364""
""focus"",""80"",""748564""
","""event"",""trial"",""time""
""fullscreenenter"",""1"",""3035""
","
","","","-1","","","12","3774","1230","&#9789;","elianto","#f73b6a7A"," ","-1","0","-10","[]","0","0","4","","","","","","","",""
"pit-trial","83","781283","0.0-2.0-17.0-2.0","battery-v0.2","","""event"",""trial"",""time""
""fullscreenenter"",""1"",""3035""
""blur"",""7"",""106373""
""focus"",""7"",""127364""
""blur"",""80"",""744271""
""focus"",""80"",""748564""
","""event"",""trial"",""time""
""blur"",""7"",""106373""
""blur"",""80"",""744271""
","""event"",""trial"",""time""
""focus"",""7"",""127364""
""focus"",""80"",""748564""
","""event"",""trial"",""time""
""fullscreenenter"",""1"",""3035""
","
","","","-1","","","12","3774","1230","&#9789;","elianto","#f73b6a7A"," ","-1","0","-10","[]","0","0","4","","","","","","","",""
"pit-trial","84","786159","0.0-2.0-17.0-3.0","battery-v0.2","","""event"",""trial"",""time""
""fullscreenenter"",""1"",""3035""
""blur"",""7"",""106373""
""focus"",""7"",""127364""
""blur"",""80"",""744271""
""focus"",""80"",""748564""
","""event"",""trial"",""time""
""blur"",""7"",""106373""
""blur"",""80"",""744271""
","""event"",""trial"",""time""
""focus"",""7"",""127364""
""focus"",""80"",""748564""
","""event"",""trial"",""time""
""fullscreenenter"",""1"",""3035""
","
","","","-1","","","12","3774","1230","&#9789;","elianto","#f73b6a7A"," ","-1","0","0","[]","0","0","4","","","","","","","",""
"pit-trial","85","791040","0.0-2.0-17.0-4.0","battery-v0.2","","""event"",""trial"",""time""
""fullscreenenter"",""1"",""3035""
""blur"",""7"",""106373""
""focus"",""7"",""127364""
""blur"",""80"",""744271""
""focus"",""80"",""748564""
","""event"",""trial"",""time""
""blur"",""7"",""106373""
""blur"",""80"",""744271""
","""event"",""trial"",""time""
""focus"",""7"",""127364""
""focus"",""80"",""748564""
","""event"",""trial"",""time""
""fullscreenenter"",""1"",""3035""
","
","","","-1","","","12","3774","1230","&#9789;","elianto","#f73b6a7A"," ","-1","0","-10","[]","0","0","4","","","","","","","",""
"pit-trial","86","795905","0.0-2.0-17.1-0.1","battery-v0.2","","""event"",""trial"",""time""
""fullscreenenter"",""1"",""3035""
""blur"",""7"",""106373""
""focus"",""7"",""127364""
""blur"",""80"",""744271""
""focus"",""80"",""748564""
","""event"",""trial"",""time""
""blur"",""7"",""106373""
""blur"",""80"",""744271""
","""event"",""trial"",""time""
""focus"",""7"",""127364""
""focus"",""80"",""748564""
","""event"",""trial"",""time""
""fullscreenenter"",""1"",""3035""
","
","","","-1","","","12","3774","1230","&#9789;","elianto","#f73b6a7A"," ","-1","0","-10","[]","0","0","4","","","","","","","",""
"pit-trial","87","800769","0.0-2.0-17.1-1.1","battery-v0.2","","""event"",""trial"",""time""
""fullscreenenter"",""1"",""3035""
""blur"",""7"",""106373""
""focus"",""7"",""127364""
""blur"",""80"",""744271""
""focus"",""80"",""748564""
","""event"",""trial"",""time""
""blur"",""7"",""106373""
""blur"",""80"",""744271""
","""event"",""trial"",""time""
""focus"",""7"",""127364""
""focus"",""80"",""748564""
","""event"",""trial"",""time""
""fullscreenenter"",""1"",""3035""
","
","","","-1","","","12","3774","1230","&#9789;","elianto","#f73b6a7A"," ","-1","0","-10","[]","0","0","4","","","","","","","",""
"pit-trial","88","805633","0.0-2.0-17.1-2.1","battery-v0.2","","""event"",""trial"",""time""
""fullscreenenter"",""1"",""3035""
""blur"",""7"",""106373""
""focus"",""7"",""127364""
""blur"",""80"",""744271""
""focus"",""80"",""748564""
","""event"",""trial"",""time""
""blur"",""7"",""106373""
""blur"",""80"",""744271""
","""event"",""trial"",""time""
""focus"",""7"",""127364""
""focus"",""80"",""748564""
","""event"",""trial"",""time""
""fullscreenenter"",""1"",""3035""
","
","","","-1","","","12","3774","1230","&#9789;","elianto","#f73b6a7A"," ","-1","0","-10","[]","0","0","4","","","","","","","",""
"pit-trial","89","810511","0.0-2.0-17.1-3.1","battery-v0.2","","""event"",""trial"",""time""
""fullscreenenter"",""1"",""3035""
""blur"",""7"",""106373""
""focus"",""7"",""127364""
""blur"",""80"",""744271""
""focus"",""80"",""748564""
","""event"",""trial"",""time""
""blur"",""7"",""106373""
""blur"",""80"",""744271""
","""event"",""trial"",""time""
""focus"",""7"",""127364""
""focus"",""80"",""748564""
","""event"",""trial"",""time""
""fullscreenenter"",""1"",""3035""
","
","","","-1","","","12","3774","1230","&#9789;","elianto","#f73b6a7A"," ","-1","0","0","[]","0","0","4","","","","","","","",""
"pit-trial","90","815378","0.0-2.0-17.1-4.1","battery-v0.2","","""event"",""trial"",""time""
""fullscreenenter"",""1"",""3035""
""blur"",""7"",""106373""
""focus"",""7"",""127364""
""blur"",""80"",""744271""
""focus"",""80"",""748564""
","""event"",""trial"",""time""
""blur"",""7"",""106373""
""blur"",""80"",""744271""
","""event"",""trial"",""time""
""focus"",""7"",""127364""
""focus"",""80"",""748564""
","""event"",""trial"",""time""
""fullscreenenter"",""1"",""3035""
","
","","","-1","","","12","3774","1230","&#9789;","elianto","#f73b6a7A"," ","-1","0","-10","[]","0","0","4","","","","","","","",""
"pit-trial","91","820249","0.0-2.0-17.2-0.2","battery-v0.2","","""event"",""trial"",""time""
""fullscreenenter"",""1"",""3035""
""blur"",""7"",""106373""
""focus"",""7"",""127364""
""blur"",""80"",""744271""
""focus"",""80"",""748564""
","""event"",""trial"",""time""
""blur"",""7"",""106373""
""blur"",""80"",""744271""
","""event"",""trial"",""time""
""focus"",""7"",""127364""
""focus"",""80"",""748564""
","""event"",""trial"",""time""
""fullscreenenter"",""1"",""3035""
","
","","","-1","","","12","3774","1230","&#9789;","elianto","#f73b6a7A"," ","-1","0","-10","[]","0","0","4","","","","","","","",""
"pit-trial","92","825113","0.0-2.0-17.2-1.2","battery-v0.2","","""event"",""trial"",""time""
""fullscreenenter"",""1"",""3035""
""blur"",""7"",""106373""
""focus"",""7"",""127364""
""blur"",""80"",""744271""
""focus"",""80"",""748564""
","""event"",""trial"",""time""
""blur"",""7"",""106373""
""blur"",""80"",""744271""
","""event"",""trial"",""time""
""focus"",""7"",""127364""
""focus"",""80"",""748564""
","""event"",""trial"",""time""
""fullscreenenter"",""1"",""3035""
","
","","","-1","","","12","3774","1230","&#9789;","elianto","#f73b6a7A"," ","-1","0","-10","[]","0","0","4","","","","","","","",""
"pit-trial","93","829976","0.0-2.0-17.2-2.2","battery-v0.2","","""event"",""trial"",""time""
""fullscreenenter"",""1"",""3035""
""blur"",""7"",""106373""
""focus"",""7"",""127364""
""blur"",""80"",""744271""
""focus"",""80"",""748564""
","""event"",""trial"",""time""
""blur"",""7"",""106373""
""blur"",""80"",""744271""
","""event"",""trial"",""time""
""focus"",""7"",""127364""
""focus"",""80"",""748564""
","""event"",""trial"",""time""
""fullscreenenter"",""1"",""3035""
","
","","","-1","","","12","3774","1230","&#9789;","elianto","#f73b6a7A"," ","-1","0","-10","[]","0","0","4","","","","","","","",""
"pit-trial","94","834840","0.0-2.0-17.2-3.2","battery-v0.2","","""event"",""trial"",""time""
""fullscreenenter"",""1"",""3035""
""blur"",""7"",""106373""
""focus"",""7"",""127364""
""blur"",""80"",""744271""
""focus"",""80"",""748564""
","""event"",""trial"",""time""
""blur"",""7"",""106373""
""blur"",""80"",""744271""
","""event"",""trial"",""time""
""focus"",""7"",""127364""
""focus"",""80"",""748564""
","""event"",""trial"",""time""
""fullscreenenter"",""1"",""3035""
","
","","","-1","","","12","3774","1230","&#9789;","elianto","#f73b6a7A"," ","-1","0","0","[]","0","0","4","","","","","","","",""
"pit-trial","95","839704","0.0-2.0-17.2-4.2","battery-v0.2","","""event"",""trial"",""time""
""fullscreenenter"",""1"",""3035""
""blur"",""7"",""106373""
""focus"",""7"",""127364""
""blur"",""80"",""744271""
""focus"",""80"",""748564""
","""event"",""trial"",""time""
""blur"",""7"",""106373""
""blur"",""80"",""744271""
","""event"",""trial"",""time""
""focus"",""7"",""127364""
""focus"",""80"",""748564""
","""event"",""trial"",""time""
""fullscreenenter"",""1"",""3035""
","
","","","-1","","","12","3774","1230","&#9789;","elianto","#f73b6a7A"," ","-1","0","-10","[]","0","0","4","","","","","","","",""
"pit-trial","96","844569","0.0-2.0-17.3-0.3","battery-v0.2","","""event"",""trial"",""time""
""fullscreenenter"",""1"",""3035""
""blur"",""7"",""106373""
""focus"",""7"",""127364""
""blur"",""80"",""744271""
""focus"",""80"",""748564""
","""event"",""trial"",""time""
""blur"",""7"",""106373""
""blur"",""80"",""744271""
","""event"",""trial"",""time""
""focus"",""7"",""127364""
""focus"",""80"",""748564""
","""event"",""trial"",""time""
""fullscreenenter"",""1"",""3035""
","
","","","-1","","","12","3774","1230","&#9789;","elianto","#f73b6a7A"," ","-1","0","-10","[]","0","0","4","","","","","","","",""
"pit-trial","97","849433","0.0-2.0-17.3-1.3","battery-v0.2","","""event"",""trial"",""time""
""fullscreenenter"",""1"",""3035""
""blur"",""7"",""106373""
""focus"",""7"",""127364""
""blur"",""80"",""744271""
""focus"",""80"",""748564""
","""event"",""trial"",""time""
""blur"",""7"",""106373""
""blur"",""80"",""744271""
","""event"",""trial"",""time""
""focus"",""7"",""127364""
""focus"",""80"",""748564""
","""event"",""trial"",""time""
""fullscreenenter"",""1"",""3035""
","
","","","-1","","","12","3774","1230","&#9789;","elianto","#f73b6a7A"," ","-1","0","-10","[]","0","0","4","","","","","","","",""
"pit-trial","98","854297","0.0-2.0-17.3-2.3","battery-v0.2","","""event"",""trial"",""time""
""fullscreenenter"",""1"",""3035""
""blur"",""7"",""106373""
""focus"",""7"",""127364""
""blur"",""80"",""744271""
""focus"",""80"",""748564""
","""event"",""trial"",""time""
""blur"",""7"",""106373""
""blur"",""80"",""744271""
","""event"",""trial"",""time""
""focus"",""7"",""127364""
""focus"",""80"",""748564""
","""event"",""trial"",""time""
""fullscreenenter"",""1"",""3035""
","
","","","-1","","","12","3774","1230","&#9789;","elianto","#f73b6a7A"," ","-1","0","-10","[]","0","0","4","","","","","","","",""
"pit-trial","99","859161","0.0-2.0-17.3-3.3","battery-v0.2","","""event"",""trial"",""time""
""fullscreenenter"",""1"",""3035""
""blur"",""7"",""106373""
""focus"",""7"",""127364""
""blur"",""80"",""744271""
""focus"",""80"",""748564""
","""event"",""trial"",""time""
""blur"",""7"",""106373""
""blur"",""80"",""744271""
","""event"",""trial"",""time""
""focus"",""7"",""127364""
""focus"",""80"",""748564""
","""event"",""trial"",""time""
""fullscreenenter"",""1"",""3035""
","
","","","-1","","","12","3774","1230","&#9789;","elianto","#f73b6a7A"," ","-1","0","0","[]","0","0","4","","","","","","","",""
"pit-trial","100","864025","0.0-2.0-17.3-4.3","battery-v0.2","","""event"",""trial"",""time""
""fullscreenenter"",""1"",""3035""
""blur"",""7"",""106373""
""focus"",""7"",""127364""
""blur"",""80"",""744271""
""focus"",""80"",""748564""
","""event"",""trial"",""time""
""blur"",""7"",""106373""
""blur"",""80"",""744271""
","""event"",""trial"",""time""
""focus"",""7"",""127364""
""focus"",""80"",""748564""
","""event"",""trial"",""time""
""fullscreenenter"",""1"",""3035""
","
","","","-1","","","12","3774","1230","&#9789;","elianto","#f73b6a7A"," ","-1","0","-10","[]","0","0","4","","","","","","","",""
"call-function","101","864027","0.0-2.0-18.0","battery-v0.2","","""event"",""trial"",""time""
""fullscreenenter"",""1"",""3035""
""blur"",""7"",""106373""
""focus"",""7"",""127364""
""blur"",""80"",""744271""
""focus"",""80"",""748564""
","""event"",""trial"",""time""
""blur"",""7"",""106373""
""blur"",""80"",""744271""
","""event"",""trial"",""time""
""focus"",""7"",""127364""
""focus"",""80"",""748564""
","""event"",""trial"",""time""
""fullscreenenter"",""1"",""3035""
","
","","","","","","","","","","","","","","","","","","","","","","","","","","",""
"pit-instructions","102","972093","0.0-2.0-19.0","battery-v0.2","","""event"",""trial"",""time""
""fullscreenenter"",""1"",""3035""
""blur"",""7"",""106373""
""focus"",""7"",""127364""
""blur"",""80"",""744271""
""focus"",""80"",""748564""
","""event"",""trial"",""time""
""blur"",""7"",""106373""
""blur"",""80"",""744271""
","""event"",""trial"",""time""
""focus"",""7"",""127364""
""focus"",""80"",""748564""
","""event"",""trial"",""time""
""fullscreenenter"",""1"",""3035""
","
","","[{""page_index"":0,""viewing_time"":8316.59999999404},{""page_index"":1,""viewing_time"":12095.90000000596},{""page_index"":2,""viewing_time"":17311.70000000298},{""page_index"":3,""viewing_time"":10555.09999999404},{""page_index"":4,""viewing_time"":15088.79999999702},{""page_index"":5,""viewing_time"":8230.5},{""page_index"":6,""viewing_time"":18603.30000001192},{""page_index"":7,""viewing_time"":10125.699999988079},{""page_index"":8,""viewing_time"":7736.600000008941}]","108064.70000000298","","","","","","","","","","","","","","","","","","","","","","","",""
"pit-comprehension","103","977333","0.0-2.0-20.0-0.0","battery-v0.2","","""event"",""trial"",""time""
""fullscreenenter"",""1"",""3035""
""blur"",""7"",""106373""
""focus"",""7"",""127364""
""blur"",""80"",""744271""
""focus"",""80"",""748564""
","""event"",""trial"",""time""
""blur"",""7"",""106373""
""blur"",""80"",""744271""
","""event"",""trial"",""time""
""focus"",""7"",""127364""
""focus"",""80"",""748564""
","""event"",""trial"",""time""
""fullscreenenter"",""1"",""3035""
","
","","","5238.0999999940395","[""SPACE""]","0","12","3774","1230","","","","","","","","","","","","","","","","","","",""
"pit-instructions","104","983492","0.0-2.0-20.0-1.0","battery-v0.2","","""event"",""trial"",""time""
""fullscreenenter"",""1"",""3035""
""blur"",""7"",""106373""
""focus"",""7"",""127364""
""blur"",""80"",""744271""
""focus"",""80"",""748564""
","""event"",""trial"",""time""
""blur"",""7"",""106373""
""blur"",""80"",""744271""
","""event"",""trial"",""time""
""focus"",""7"",""127364""
""focus"",""80"",""748564""
","""event"",""trial"",""time""
""fullscreenenter"",""1"",""3035""
","
","","[{""page_index"":0,""viewing_time"":6122.600000008941}]","6122.9000000059605","","","","","","","","","","","","","","","","","","","","","","","",""
"pit-comprehension","105","991777","0.0-2.0-21.0-0.0","battery-v0.2","","""event"",""trial"",""time""
""fullscreenenter"",""1"",""3035""
""blur"",""7"",""106373""
""focus"",""7"",""127364""
""blur"",""80"",""744271""
""focus"",""80"",""748564""
","""event"",""trial"",""time""
""blur"",""7"",""106373""
""blur"",""80"",""744271""
","""event"",""trial"",""time""
""focus"",""7"",""127364""
""focus"",""80"",""748564""
","""event"",""trial"",""time""
""fullscreenenter"",""1"",""3035""
","
","","","8282.59999999404","[""10""]","0","12","3774","1230","","","","","","","","","","","","","","","","","","",""
"pit-instructions","106","999566","0.0-2.0-21.0-1.0","battery-v0.2","","""event"",""trial"",""time""
""fullscreenenter"",""1"",""3035""
""blur"",""7"",""106373""
""focus"",""7"",""127364""
""blur"",""80"",""744271""
""focus"",""80"",""748564""
","""event"",""trial"",""time""
""blur"",""7"",""106373""
""blur"",""80"",""744271""
","""event"",""trial"",""time""
""focus"",""7"",""127364""
""focus"",""80"",""748564""
","""event"",""trial"",""time""
""fullscreenenter"",""1"",""3035""
","
","","[{""page_index"":0,""viewing_time"":7748}]","7748.300000011921","","","","","","","","","","","","","","","","","","","","","","","",""
"pit-comprehension","107","1005799","0.0-2.0-22.0-0.0","battery-v0.2","","""event"",""trial"",""time""
""fullscreenenter"",""1"",""3035""
""blur"",""7"",""106373""
""focus"",""7"",""127364""
""blur"",""80"",""744271""
""focus"",""80"",""748564""
","""event"",""trial"",""time""
""blur"",""7"",""106373""
""blur"",""80"",""744271""
","""event"",""trial"",""time""
""focus"",""7"",""127364""
""focus"",""80"",""748564""
","""event"",""trial"",""time""
""fullscreenenter"",""1"",""3035""
","
","","","6230.79999999702","[""-10""]","1","12","3774","1230","","","","","","","","","","","","","","","","","","",""
"pit-instructions","108","1007984","0.0-2.0-22.0-1.0","battery-v0.2","","""event"",""trial"",""time""
""fullscreenenter"",""1"",""3035""
""blur"",""7"",""106373""
""focus"",""7"",""127364""
""blur"",""80"",""744271""
""focus"",""80"",""748564""
","""event"",""trial"",""time""
""blur"",""7"",""106373""
""blur"",""80"",""744271""
","""event"",""trial"",""time""
""focus"",""7"",""127364""
""focus"",""80"",""748564""
","""event"",""trial"",""time""
""fullscreenenter"",""1"",""3035""
","
","","[{""page_index"":0,""viewing_time"":2148}]","2148.2000000029802","","","","","","","","","","","","","","","","","","","","","","","",""
"pit-instructions","109","1014500","0.0-2.0-22.0-2.0-0.0","battery-v0.2","","""event"",""trial"",""time""
""fullscreenenter"",""1"",""3035""
""blur"",""7"",""106373""
""focus"",""7"",""127364""
""blur"",""80"",""744271""
""focus"",""80"",""748564""
","""event"",""trial"",""time""
""blur"",""7"",""106373""
""blur"",""80"",""744271""
","""event"",""trial"",""time""
""focus"",""7"",""127364""
""focus"",""80"",""748564""
","""event"",""trial"",""time""
""fullscreenenter"",""1"",""3035""
","
","","[{""page_index"":0,""viewing_time"":6514.600000008941}]","6514.9000000059605","","","","","","","","","","","","","","","","","","","","","","","",""
"pit-comprehension","110","1020730","0.0-2.0-22.1-0.1","battery-v0.2","","""event"",""trial"",""time""
""fullscreenenter"",""1"",""3035""
""blur"",""7"",""106373""
""focus"",""7"",""127364""
""blur"",""80"",""744271""
""focus"",""80"",""748564""
","""event"",""trial"",""time""
""blur"",""7"",""106373""
""blur"",""80"",""744271""
","""event"",""trial"",""time""
""focus"",""7"",""127364""
""focus"",""80"",""748564""
","""event"",""trial"",""time""
""fullscreenenter"",""1"",""3035""
","
","","","6228.0999999940395","[""-10""]","1","12","3774","1230","","","","","","","","","","","","","","","","","","",""
"pit-instructions","111","1023618","0.0-2.0-22.1-1.1","battery-v0.2","","""event"",""trial"",""time""
""fullscreenenter"",""1"",""3035""
""blur"",""7"",""106373""
""focus"",""7"",""127364""
""blur"",""80"",""744271""
""focus"",""80"",""748564""
","""event"",""trial"",""time""
""blur"",""7"",""106373""
""blur"",""80"",""744271""
","""event"",""trial"",""time""
""focus"",""7"",""127364""
""focus"",""80"",""748564""
","""event"",""trial"",""time""
""fullscreenenter"",""1"",""3035""
","
","","[{""page_index"":0,""viewing_time"":2846.5}]","2846.7000000029802","","","","","","","","","","","","","","","","","","","","","","","",""
"pit-instructions","112","1024648","0.0-2.0-22.1-2.1-0.1","battery-v0.2","","""event"",""trial"",""time""
""fullscreenenter"",""1"",""3035""
""blur"",""7"",""106373""
""focus"",""7"",""127364""
""blur"",""80"",""744271""
""focus"",""80"",""748564""
","""event"",""trial"",""time""
""blur"",""7"",""106373""
""blur"",""80"",""744271""
","""event"",""trial"",""time""
""focus"",""7"",""127364""
""focus"",""80"",""748564""
","""event"",""trial"",""time""
""fullscreenenter"",""1"",""3035""
","
","","[{""page_index"":0,""viewing_time"":1029.800000011921}]","1030","","","","","","","","","","","","","","","","","","","","","","","",""
"pit-comprehension","113","1030771","0.0-2.0-22.2-0.2","battery-v0.2","","""event"",""trial"",""time""
""fullscreenenter"",""1"",""3035""
""blur"",""7"",""106373""
""focus"",""7"",""127364""
""blur"",""80"",""744271""
""focus"",""80"",""748564""
","""event"",""trial"",""time""
""blur"",""7"",""106373""
""blur"",""80"",""744271""
","""event"",""trial"",""time""
""focus"",""7"",""127364""
""focus"",""80"",""748564""
","""event"",""trial"",""time""
""fullscreenenter"",""1"",""3035""
","
","","","6120.899999991059","[""0""]","0","12","3774","1230","","","","","","","","","","","","","","","","","","",""
"pit-instructions","114","1032398","0.0-2.0-22.2-1.2","battery-v0.2","","""event"",""trial"",""time""
""fullscreenenter"",""1"",""3035""
""blur"",""7"",""106373""
""focus"",""7"",""127364""
""blur"",""80"",""744271""
""focus"",""80"",""748564""
","""event"",""trial"",""time""
""blur"",""7"",""106373""
""blur"",""80"",""744271""
","""event"",""trial"",""time""
""focus"",""7"",""127364""
""focus"",""80"",""748564""
","""event"",""trial"",""time""
""fullscreenenter"",""1"",""3035""
","
","","[{""page_index"":0,""viewing_time"":1581.2000000029802}]","1581.4000000059605","","","","","","","","","","","","","","","","","","","","","","","",""
"pit-comprehension","115","1045491","0.0-2.0-23.0-0.0","battery-v0.2","","""event"",""trial"",""time""
""fullscreenenter"",""1"",""3035""
""blur"",""7"",""106373""
""focus"",""7"",""127364""
""blur"",""80"",""744271""
""focus"",""80"",""748564""
","""event"",""trial"",""time""
""blur"",""7"",""106373""
""blur"",""80"",""744271""
","""event"",""trial"",""time""
""focus"",""7"",""127364""
""focus"",""80"",""748564""
","""event"",""trial"",""time""
""fullscreenenter"",""1"",""3035""
","
","","","13091","[""True""]","0","12","3774","1230","","","","","","","","","","","","","","","","","","",""
"pit-instructions","116","1047270","0.0-2.0-23.0-1.0","battery-v0.2","","""event"",""trial"",""time""
""fullscreenenter"",""1"",""3035""
""blur"",""7"",""106373""
""focus"",""7"",""127364""
""blur"",""80"",""744271""
""focus"",""80"",""748564""
","""event"",""trial"",""time""
""blur"",""7"",""106373""
""blur"",""80"",""744271""
","""event"",""trial"",""time""
""focus"",""7"",""127364""
""focus"",""80"",""748564""
","""event"",""trial"",""time""
""fullscreenenter"",""1"",""3035""
","
","","[{""page_index"":0,""viewing_time"":1742.7000000029802}]","1743","","","","","","","","","","","","","","","","","","","","","","","",""
"pit-comprehension","117","1054335","0.0-2.0-24.0-0.0","battery-v0.2","","""event"",""trial"",""time""
""fullscreenenter"",""1"",""3035""
""blur"",""7"",""106373""
""focus"",""7"",""127364""
""blur"",""80"",""744271""
""focus"",""80"",""748564""
","""event"",""trial"",""time""
""blur"",""7"",""106373""
""blur"",""80"",""744271""
","""event"",""trial"",""time""
""focus"",""7"",""127364""
""focus"",""80"",""748564""
","""event"",""trial"",""time""
""fullscreenenter"",""1"",""3035""
","
","","","7062.70000000298","[""True""]","0","12","3774","1230","","","","","","","","","","","","","","","","","","",""
"pit-instructions","118","1056160","0.0-2.0-24.0-1.0","battery-v0.2","","""event"",""trial"",""time""
""fullscreenenter"",""1"",""3035""
""blur"",""7"",""106373""
""focus"",""7"",""127364""
""blur"",""80"",""744271""
""focus"",""80"",""748564""
","""event"",""trial"",""time""
""blur"",""7"",""106373""
""blur"",""80"",""744271""
","""event"",""trial"",""time""
""focus"",""7"",""127364""
""focus"",""80"",""748564""
","""event"",""trial"",""time""
""fullscreenenter"",""1"",""3035""
","
","","[{""page_index"":0,""viewing_time"":1783.300000011921}]","1783.5","","","","","","","","","","","","","","","","","","","","","","","",""
"pit-comprehension","119","1062186","0.0-2.0-25.0-0.0","battery-v0.2","","""event"",""trial"",""time""
""fullscreenenter"",""1"",""3035""
""blur"",""7"",""106373""
""focus"",""7"",""127364""
""blur"",""80"",""744271""
""focus"",""80"",""748564""
","""event"",""trial"",""time""
""blur"",""7"",""106373""
""blur"",""80"",""744271""
","""event"",""trial"",""time""
""focus"",""7"",""127364""
""focus"",""80"",""748564""
","""event"",""trial"",""time""
""fullscreenenter"",""1"",""3035""
","
","","","6024.29999999702","[""True""]","0","12","3774","1230","","","","","","","","","","","","","","","","","","",""
"pit-instructions","120","1067797","0.0-2.0-25.0-1.0","battery-v0.2","","""event"",""trial"",""time""
""fullscreenenter"",""1"",""3035""
""blur"",""7"",""106373""
""focus"",""7"",""127364""
""blur"",""80"",""744271""
""focus"",""80"",""748564""
","""event"",""trial"",""time""
""blur"",""7"",""106373""
""blur"",""80"",""744271""
","""event"",""trial"",""time""
""focus"",""7"",""127364""
""focus"",""80"",""748564""
","""event"",""trial"",""time""
""fullscreenenter"",""1"",""3035""
","
","","[{""page_index"":0,""viewing_time"":5566.9000000059605}]","5567.100000008941","","","","","","","","","","","","","","","","","","","","","","","",""
"pit-comprehension","121","1076459","0.0-2.0-26.0-0.0","battery-v0.2","","""event"",""trial"",""time""
""fullscreenenter"",""1"",""3035""
""blur"",""7"",""106373""
""focus"",""7"",""127364""
""blur"",""80"",""744271""
""focus"",""80"",""748564""
","""event"",""trial"",""time""
""blur"",""7"",""106373""
""blur"",""80"",""744271""
","""event"",""trial"",""time""
""focus"",""7"",""127364""
""focus"",""80"",""748564""
","""event"",""trial"",""time""
""fullscreenenter"",""1"",""3035""
","
","","","8660.5","[""True""]","1","12","3774","1230","","","","","","","","","","","","","","","","","","",""
"pit-instructions","122","1087035","0.0-2.0-26.0-1.0","battery-v0.2","","""event"",""trial"",""time""
""fullscreenenter"",""1"",""3035""
""blur"",""7"",""106373""
""focus"",""7"",""127364""
""blur"",""80"",""744271""
""focus"",""80"",""748564""
","""event"",""trial"",""time""
""blur"",""7"",""106373""
""blur"",""80"",""744271""
","""event"",""trial"",""time""
""focus"",""7"",""127364""
""focus"",""80"",""748564""
","""event"",""trial"",""time""
""fullscreenenter"",""1"",""3035""
","
","","[{""page_index"":0,""viewing_time"":10528.60000000894}]","10528.79999999702","","","","","","","","","","","","","","","","","","","","","","","",""
"pit-instructions","123","1087760","0.0-2.0-26.0-2.0-0.0","battery-v0.2","","""event"",""trial"",""time""
""fullscreenenter"",""1"",""3035""
""blur"",""7"",""106373""
""focus"",""7"",""127364""
""blur"",""80"",""744271""
""focus"",""80"",""748564""
","""event"",""trial"",""time""
""blur"",""7"",""106373""
""blur"",""80"",""744271""
","""event"",""trial"",""time""
""focus"",""7"",""127364""
""focus"",""80"",""748564""
","""event"",""trial"",""time""
""fullscreenenter"",""1"",""3035""
","
","","[{""page_index"":0,""viewing_time"":722.8999999910593}]","723.1999999880791","","","","","","","","","","","","","","","","","","","","","","","",""
"pit-comprehension","124","1092040","0.0-2.0-26.1-0.1","battery-v0.2","","""event"",""trial"",""time""
""fullscreenenter"",""1"",""3035""
""blur"",""7"",""106373""
""focus"",""7"",""127364""
""blur"",""80"",""744271""
""focus"",""80"",""748564""
","""event"",""trial"",""time""
""blur"",""7"",""106373""
""blur"",""80"",""744271""
","""event"",""trial"",""time""
""focus"",""7"",""127364""
""focus"",""80"",""748564""
","""event"",""trial"",""time""
""fullscreenenter"",""1"",""3035""
","
","","","4278.5999999940395","[""False""]","0","12","3774","1230","","","","","","","","","","","","","","","","","","",""
"pit-instructions","125","1093756","0.0-2.0-26.1-1.1","battery-v0.2","","""event"",""trial"",""time""
""fullscreenenter"",""1"",""3035""
""blur"",""7"",""106373""
""focus"",""7"",""127364""
""blur"",""80"",""744271""
""focus"",""80"",""748564""
","""event"",""trial"",""time""
""blur"",""7"",""106373""
""blur"",""80"",""744271""
","""event"",""trial"",""time""
""focus"",""7"",""127364""
""focus"",""80"",""748564""
","""event"",""trial"",""time""
""fullscreenenter"",""1"",""3035""
","
","","[{""page_index"":0,""viewing_time"":1672.7000000029802}]","1672.9000000059605","","","","","","","","","","","","","","","","","","","","","","","",""
"pit-instructions","126","1110138","0.0-3.0","battery-v0.2","","""event"",""trial"",""time""
""fullscreenenter"",""1"",""3035""
""blur"",""7"",""106373""
""focus"",""7"",""127364""
""blur"",""80"",""744271""
""focus"",""80"",""748564""
","""event"",""trial"",""time""
""blur"",""7"",""106373""
""blur"",""80"",""744271""
","""event"",""trial"",""time""
""focus"",""7"",""127364""
""focus"",""80"",""748564""
","""event"",""trial"",""time""
""fullscreenenter"",""1"",""3035""
","
","","[{""page_index"":0,""viewing_time"":3688.7000000029802},{""page_index"":1,""viewing_time"":5161.899999991059},{""page_index"":2,""viewing_time"":7529.9000000059605}]","16380.90000000596","","","","","","","","","","","","","","","","","","","","","","","",""
"pit-trial","127","1113891","0.0-4.0","battery-v0.2","","""event"",""trial"",""time""
""fullscreenenter"",""1"",""3035""
""blur"",""7"",""106373""
""focus"",""7"",""127364""
""blur"",""80"",""744271""
""focus"",""80"",""748564""
","""event"",""trial"",""time""
""blur"",""7"",""106373""
""blur"",""80"",""744271""
","""event"",""trial"",""time""
""focus"",""7"",""127364""
""focus"",""80"",""748564""
","""event"",""trial"",""time""
""fullscreenenter"",""1"",""3035""
","
","","","886.2999999970198","","","12","3774","1230","&#9730;","elianto","#3366ff99"," "," ","1","0","[1737.5]","1","1","","","3774","1","1","1","win","go","1"
"pit-trial","128","1118769","0.0-5.0","battery-v0.2","","""event"",""trial"",""time""
""fullscreenenter"",""1"",""3035""
""blur"",""7"",""106373""
""focus"",""7"",""127364""
""blur"",""80"",""744271""
""focus"",""80"",""748564""
","""event"",""trial"",""time""
""blur"",""7"",""106373""
""blur"",""80"",""744271""
","""event"",""trial"",""time""
""focus"",""7"",""127364""
""focus"",""80"",""748564""
","""event"",""trial"",""time""
""fullscreenenter"",""1"",""3035""
","
","","","-1","","","12","3774","1230","&#9752;","elianto","#f73b6a7A"," ","-1","0","-10","[]","0","1","","","3774","2","3","3","lose","go","0"
"pit-trial","129","1122066","0.0-6.0","battery-v0.2","","""event"",""trial"",""time""
""fullscreenenter"",""1"",""3035""
""blur"",""7"",""106373""
""focus"",""7"",""127364""
""blur"",""80"",""744271""
""focus"",""80"",""748564""
","""event"",""trial"",""time""
""blur"",""7"",""106373""
""blur"",""80"",""744271""
","""event"",""trial"",""time""
""focus"",""7"",""127364""
""focus"",""80"",""748564""
","""event"",""trial"",""time""
""fullscreenenter"",""1"",""3035""
","
","","","430.20000000298023","","","12","3774","1230","&#9733;","elianto","#3366ff99","-1"," ","0","0","[1280.2999999970198]","1","1","","","3774","3","2","2","win","no-go","0"
"pit-trial","130","1126944","0.0-7.0","battery-v0.2","","""event"",""trial"",""time""
""fullscreenenter"",""1"",""3035""
""blur"",""7"",""106373""
""focus"",""7"",""127364""
""blur"",""80"",""744271""
""focus"",""80"",""748564""
","""event"",""trial"",""time""
""blur"",""7"",""106373""
""blur"",""80"",""744271""
","""event"",""trial"",""time""
""focus"",""7"",""127364""
""focus"",""80"",""748564""
","""event"",""trial"",""time""
""fullscreenenter"",""1"",""3035""
","
","","","-1","","","12","3774","1230","&#9728;","elianto","#f73b6a7A","-1","-1","1","0","[]","0","1","","","3774","4","0","4","lose","no-go","0"
"pit-trial","131","1131823","0.0-8.0","battery-v0.2","","""event"",""trial"",""time""
""fullscreenenter"",""1"",""3035""
""blur"",""7"",""106373""
""focus"",""7"",""127364""
""blur"",""80"",""744271""
""focus"",""80"",""748564""
","""event"",""trial"",""time""
""blur"",""7"",""106373""
""blur"",""80"",""744271""
","""event"",""trial"",""time""
""focus"",""7"",""127364""
""focus"",""80"",""748564""
","""event"",""trial"",""time""
""fullscreenenter"",""1"",""3035""
","
","","","-1","","","12","3774","1230","&#9728;","elianto","#f73b6a7A","-1","-1","1","0","[]","0","1","","","3774","5","0","4","lose","no-go","0"
"pit-trial","132","1135186","0.0-9.0","battery-v0.2","","""event"",""trial"",""time""
""fullscreenenter"",""1"",""3035""
""blur"",""7"",""106373""
""focus"",""7"",""127364""
""blur"",""80"",""744271""
""focus"",""80"",""748564""
","""event"",""trial"",""time""
""blur"",""7"",""106373""
""blur"",""80"",""744271""
","""event"",""trial"",""time""
""focus"",""7"",""127364""
""focus"",""80"",""748564""
","""event"",""trial"",""time""
""fullscreenenter"",""1"",""3035""
","
","","","506.1000000089407","","","12","3774","1230","&#9730;","elianto","#3366ff99"," "," ","1","+10","[1356.6000000089407]","1","1","","","3774","6","1","1","win","go","0"
"pit-trial","133","1140065","0.0-10.0","battery-v0.2","","""event"",""trial"",""time""
""fullscreenenter"",""1"",""3035""
""blur"",""7"",""106373""
""focus"",""7"",""127364""
""blur"",""80"",""744271""
""focus"",""80"",""748564""
","""event"",""trial"",""time""
""blur"",""7"",""106373""
""blur"",""80"",""744271""
","""event"",""trial"",""time""
""focus"",""7"",""127364""
""focus"",""80"",""748564""
","""event"",""trial"",""time""
""fullscreenenter"",""1"",""3035""
","
","","","-1","","","12","3774","1230","&#9752;","elianto","#f73b6a7A"," ","-1","0","0","[]","0","1","","","3774","7","3","3","lose","go","1"
"pit-trial","134","1143440","0.0-11.0","battery-v0.2","","""event"",""trial"",""time""
""fullscreenenter"",""1"",""3035""
""blur"",""7"",""106373""
""focus"",""7"",""127364""
""blur"",""80"",""744271""
""focus"",""80"",""748564""
","""event"",""trial"",""time""
""blur"",""7"",""106373""
""blur"",""80"",""744271""
","""event"",""trial"",""time""
""focus"",""7"",""127364""
""focus"",""80"",""748564""
","""event"",""trial"",""time""
""fullscreenenter"",""1"",""3035""
","
","","","520.2000000029802","","","12","3774","1230","&#9733;","elianto","#3366ff99","-1"," ","0","0","[1370.7999999970198,1789.8999999910593]","2","1","","","3774","8","2","2","win","no-go","0"
"pit-trial","135","1147233","0.0-12.0","battery-v0.2","","""event"",""trial"",""time""
""fullscreenenter"",""1"",""3035""
""blur"",""7"",""106373""
""focus"",""7"",""127364""
""blur"",""80"",""744271""
""focus"",""80"",""748564""
","""event"",""trial"",""time""
""blur"",""7"",""106373""
""blur"",""80"",""744271""
","""event"",""trial"",""time""
""focus"",""7"",""127364""
""focus"",""80"",""748564""
","""event"",""trial"",""time""
""fullscreenenter"",""1"",""3035""
","
","","","929.2000000029802","","","12","3774","1230","&#9733;","elianto","#3366ff99","-1"," ","0","0","[1781.7999999970198]","1","1","","","3774","9","2","2","win","no-go","0"
"pit-trial","136","1152097","0.0-13.0","battery-v0.2","","""event"",""trial"",""time""
""fullscreenenter"",""1"",""3035""
""blur"",""7"",""106373""
""focus"",""7"",""127364""
""blur"",""80"",""744271""
""focus"",""80"",""748564""
","""event"",""trial"",""time""
""blur"",""7"",""106373""
""blur"",""80"",""744271""
","""event"",""trial"",""time""
""focus"",""7"",""127364""
""focus"",""80"",""748564""
","""event"",""trial"",""time""
""fullscreenenter"",""1"",""3035""
","
","","","-1","","","12","3774","1230","&#9752;","elianto","#f73b6a7A"," ","-1","0","-10","[]","0","1","","","3774","10","3","3","lose","go","0"
"pit-trial","137","1155472","0.0-14.0","battery-v0.2","","""event"",""trial"",""time""
""fullscreenenter"",""1"",""3035""
""blur"",""7"",""106373""
""focus"",""7"",""127364""
""blur"",""80"",""744271""
""focus"",""80"",""748564""
","""event"",""trial"",""time""
""blur"",""7"",""106373""
""blur"",""80"",""744271""
","""event"",""trial"",""time""
""focus"",""7"",""127364""
""focus"",""80"",""748564""
","""event"",""trial"",""time""
""fullscreenenter"",""1"",""3035""
","
","","","514.0999999940395","","","12","3774","1230","&#9730;","elianto","#3366ff99"," "," ","1","+10","[1367.5999999940395]","1","1","","","3774","11","1","1","win","go","0"
"pit-trial","138","1160336","0.0-15.0","battery-v0.2","","""event"",""trial"",""time""
""fullscreenenter"",""1"",""3035""
""blur"",""7"",""106373""
""focus"",""7"",""127364""
""blur"",""80"",""744271""
""focus"",""80"",""748564""
","""event"",""trial"",""time""
""blur"",""7"",""106373""
""blur"",""80"",""744271""
","""event"",""trial"",""time""
""focus"",""7"",""127364""
""focus"",""80"",""748564""
","""event"",""trial"",""time""
""fullscreenenter"",""1"",""3035""
","
","","","-1","","","12","3774","1230","&#9728;","elianto","#f73b6a7A","-1","-1","1","0","[]","0","1","","","3774","12","0","4","lose","no-go","0"
"pit-trial","139","1165201","0.0-16.0","battery-v0.2","","""event"",""trial"",""time""
""fullscreenenter"",""1"",""3035""
""blur"",""7"",""106373""
""focus"",""7"",""127364""
""blur"",""80"",""744271""
""focus"",""80"",""748564""
","""event"",""trial"",""time""
""blur"",""7"",""106373""
""blur"",""80"",""744271""
","""event"",""trial"",""time""
""focus"",""7"",""127364""
""focus"",""80"",""748564""
","""event"",""trial"",""time""
""fullscreenenter"",""1"",""3035""
","
","","","-1","","","12","3774","1230","&#9728;","elianto","#f73b6a7A","-1","-1","1","0","[]","0","1","","","3774","13","0","4","lose","no-go","0"
"pit-trial","140","1168649","0.0-17.0","battery-v0.2","","""event"",""trial"",""time""
""fullscreenenter"",""1"",""3035""
""blur"",""7"",""106373""
""focus"",""7"",""127364""
""blur"",""80"",""744271""
""focus"",""80"",""748564""
","""event"",""trial"",""time""
""blur"",""7"",""106373""
""blur"",""80"",""744271""
","""event"",""trial"",""time""
""focus"",""7"",""127364""
""focus"",""80"",""748564""
","""event"",""trial"",""time""
""fullscreenenter"",""1"",""3035""
","
","","","589.2999999970198","","","12","3774","1230","&#9730;","elianto","#3366ff99"," "," ","1","+10","[1442.3999999910593]","1","1","","","3774","14","1","1","win","go","0"
"pit-trial","141","1173514","0.0-18.0","battery-v0.2","","""event"",""trial"",""time""
""fullscreenenter"",""1"",""3035""
""blur"",""7"",""106373""
""focus"",""7"",""127364""
""blur"",""80"",""744271""
""focus"",""80"",""748564""
","""event"",""trial"",""time""
""blur"",""7"",""106373""
""blur"",""80"",""744271""
","""event"",""trial"",""time""
""focus"",""7"",""127364""
""focus"",""80"",""748564""
","""event"",""trial"",""time""
""fullscreenenter"",""1"",""3035""
","
","","","-1","","","12","3774","1230","&#9752;","elianto","#f73b6a7A"," ","-1","0","-10","[]","0","1","","","3774","15","3","3","lose","go","0"
"pit-trial","142","1177152","0.0-19.0","battery-v0.2","","""event"",""trial"",""time""
""fullscreenenter"",""1"",""3035""
""blur"",""7"",""106373""
""focus"",""7"",""127364""
""blur"",""80"",""744271""
""focus"",""80"",""748564""
","""event"",""trial"",""time""
""blur"",""7"",""106373""
""blur"",""80"",""744271""
","""event"",""trial"",""time""
""focus"",""7"",""127364""
""focus"",""80"",""748564""
","""event"",""trial"",""time""
""fullscreenenter"",""1"",""3035""
","
","","","778","","","12","3774","1230","&#9733;","elianto","#3366ff99","-1"," ","0","+10","[1628.5]","1","1","","","3774","16","2","2","win","no-go","1"
"pit-trial","143","1182016","0.0-20.0","battery-v0.2","","""event"",""trial"",""time""
""fullscreenenter"",""1"",""3035""
""blur"",""7"",""106373""
""focus"",""7"",""127364""
""blur"",""80"",""744271""
""focus"",""80"",""748564""
","""event"",""trial"",""time""
""blur"",""7"",""106373""
""blur"",""80"",""744271""
","""event"",""trial"",""time""
""focus"",""7"",""127364""
""focus"",""80"",""748564""
","""event"",""trial"",""time""
""fullscreenenter"",""1"",""3035""
","
","","","-1","","","12","3774","1230","&#9752;","elianto","#f73b6a7A"," ","-1","0","0","[]","0","1","","","3774","17","3","3","lose","go","1"
"pit-trial","144","1185521","0.0-21.0","battery-v0.2","","""event"",""trial"",""time""
""fullscreenenter"",""1"",""3035""
""blur"",""7"",""106373""
""focus"",""7"",""127364""
""blur"",""80"",""744271""
""focus"",""80"",""748564""
","""event"",""trial"",""time""
""blur"",""7"",""106373""
""blur"",""80"",""744271""
","""event"",""trial"",""time""
""focus"",""7"",""127364""
""focus"",""80"",""748564""
","""event"",""trial"",""time""
""fullscreenenter"",""1"",""3035""
","
","","","644.3999999910593","","","12","3774","1230","&#9730;","elianto","#3366ff99"," "," ","1","+10","[1498.4000000059605]","1","1","","","3774","18","1","1","win","go","0"
"pit-trial","145","1190385","0.0-22.0","battery-v0.2","","""event"",""trial"",""time""
""fullscreenenter"",""1"",""3035""
""blur"",""7"",""106373""
""focus"",""7"",""127364""
""blur"",""80"",""744271""
""focus"",""80"",""748564""
","""event"",""trial"",""time""
""blur"",""7"",""106373""
""blur"",""80"",""744271""
","""event"",""trial"",""time""
""focus"",""7"",""127364""
""focus"",""80"",""748564""
","""event"",""trial"",""time""
""fullscreenenter"",""1"",""3035""
","
","","","-1","","","12","3774","1230","&#9728;","elianto","#f73b6a7A","-1","-1","1","0","[]","0","1","","","3774","19","0","4","lose","no-go","0"
"pit-trial","146","1193704","0.0-23.0","battery-v0.2","","""event"",""trial"",""time""
""fullscreenenter"",""1"",""3035""
""blur"",""7"",""106373""
""focus"",""7"",""127364""
""blur"",""80"",""744271""
""focus"",""80"",""748564""
","""event"",""trial"",""time""
""blur"",""7"",""106373""
""blur"",""80"",""744271""
","""event"",""trial"",""time""
""focus"",""7"",""127364""
""focus"",""80"",""748564""
","""event"",""trial"",""time""
""fullscreenenter"",""1"",""3035""
","
","","","460.09999999403954","","","12","3774","1230","&#9733;","elianto","#3366ff99","-1"," ","0","+10","[1313.2000000029802]","1","1","","","3774","20","2","2","win","no-go","1"
"pit-instructions","147","1211866","0.0-24.0","battery-v0.2","","""event"",""trial"",""time""
""fullscreenenter"",""1"",""3035""
""blur"",""7"",""106373""
""focus"",""7"",""127364""
""blur"",""80"",""744271""
""focus"",""80"",""748564""
","""event"",""trial"",""time""
""blur"",""7"",""106373""
""blur"",""80"",""744271""
","""event"",""trial"",""time""
""focus"",""7"",""127364""
""focus"",""80"",""748564""
","""event"",""trial"",""time""
""fullscreenenter"",""1"",""3035""
","
","","[{""page_index"":0,""viewing_time"":11214.89999999106},{""page_index"":1,""viewing_time"":6944.100000008941}]","18159.59999999404","","","","","","","","","","","","","","","","","","","","","","","",""
"pit-trial","148","1216741","0.0-25.0","battery-v0.2","","""event"",""trial"",""time""
""fullscreenenter"",""1"",""3035""
""blur"",""7"",""106373""
""focus"",""7"",""127364""
""blur"",""80"",""744271""
""focus"",""80"",""748564""
","""event"",""trial"",""time""
""blur"",""7"",""106373""
""blur"",""80"",""744271""
","""event"",""trial"",""time""
""focus"",""7"",""127364""
""focus"",""80"",""748564""
","""event"",""trial"",""time""
""fullscreenenter"",""1"",""3035""
","
","","","-1","","","12","3774","1230","m","elianto","#f73b6a7A"," ","-1","0","-10","[]","0","2","","","3774","21","0","3","lose","go","0"
"pit-trial","149","1221620","0.0-26.0","battery-v0.2","","""event"",""trial"",""time""
""fullscreenenter"",""1"",""3035""
""blur"",""7"",""106373""
""focus"",""7"",""127364""
""blur"",""80"",""744271""
""focus"",""80"",""748564""
","""event"",""trial"",""time""
""blur"",""7"",""106373""
""blur"",""80"",""744271""
","""event"",""trial"",""time""
""focus"",""7"",""127364""
""focus"",""80"",""748564""
","""event"",""trial"",""time""
""fullscreenenter"",""1"",""3035""
","
","","","-1","","","12","3774","1230","y","elianto","#f73b6a7A"," ","-1","0","-10","[]","0","2","","","3774","22","2","3","lose","go","0"
"pit-trial","150","1226497","0.0-27.0","battery-v0.2","","""event"",""trial"",""time""
""fullscreenenter"",""1"",""3035""
""blur"",""7"",""106373""
""focus"",""7"",""127364""
""blur"",""80"",""744271""
""focus"",""80"",""748564""
","""event"",""trial"",""time""
""blur"",""7"",""106373""
""blur"",""80"",""744271""
","""event"",""trial"",""time""
""focus"",""7"",""127364""
""focus"",""80"",""748564""
","""event"",""trial"",""time""
""fullscreenenter"",""1"",""3035""
","
","","","-1","","","12","3774","1230","h","elianto","#f73b6a7A","-1","-1","1","-10","[]","0","2","","","3774","23","3","4","lose","no-go","1"
"pit-trial","151","1229912","0.0-28.0","battery-v0.2","","""event"",""trial"",""time""
""fullscreenenter"",""1"",""3035""
""blur"",""7"",""106373""
""focus"",""7"",""127364""
""blur"",""80"",""744271""
""focus"",""80"",""748564""
","""event"",""trial"",""time""
""blur"",""7"",""106373""
""blur"",""80"",""744271""
","""event"",""trial"",""time""
""focus"",""7"",""127364""
""focus"",""80"",""748564""
","""event"",""trial"",""time""
""fullscreenenter"",""1"",""3035""
","
","","","548.4000000059605","","","12","3774","1230","r","elianto","#3366ff99","-1"," ","0","0","[1399.3999999910593]","1","2","","","3774","24","1","2","win","no-go","0"
"pit-trial","152","1233442","0.0-29.0","battery-v0.2","","""event"",""trial"",""time""
""fullscreenenter"",""1"",""3035""
""blur"",""7"",""106373""
""focus"",""7"",""127364""
""blur"",""80"",""744271""
""focus"",""80"",""748564""
","""event"",""trial"",""time""
""blur"",""7"",""106373""
""blur"",""80"",""744271""
","""event"",""trial"",""time""
""focus"",""7"",""127364""
""focus"",""80"",""748564""
","""event"",""trial"",""time""
""fullscreenenter"",""1"",""3035""
","
","","","670.2000000029802","","","12","3774","1230","r","elianto","#3366ff99","-1"," ","0","0","[1520.7000000029802]","1","2","","","3774","25","1","2","win","no-go","0"
"pit-trial","153","1238320","0.0-30.0","battery-v0.2","","""event"",""trial"",""time""
""fullscreenenter"",""1"",""3035""
""blur"",""7"",""106373""
""focus"",""7"",""127364""
""blur"",""80"",""744271""
""focus"",""80"",""748564""
","""event"",""trial"",""time""
""blur"",""7"",""106373""
""blur"",""80"",""744271""
","""event"",""trial"",""time""
""focus"",""7"",""127364""
""focus"",""80"",""748564""
","""event"",""trial"",""time""
""fullscreenenter"",""1"",""3035""
","
","","","-1","","","12","3774","1230","y","elianto","#f73b6a7A"," ","-1","0","-10","[]","0","2","","","3774","26","2","3","lose","go","0"
"pit-trial","154","1243186","0.0-31.0","battery-v0.2","","""event"",""trial"",""time""
""fullscreenenter"",""1"",""3035""
""blur"",""7"",""106373""
""focus"",""7"",""127364""
""blur"",""80"",""744271""
""focus"",""80"",""748564""
","""event"",""trial"",""time""
""blur"",""7"",""106373""
""blur"",""80"",""744271""
","""event"",""trial"",""time""
""focus"",""7"",""127364""
""focus"",""80"",""748564""
","""event"",""trial"",""time""
""fullscreenenter"",""1"",""3035""
","
","","","-1","","","12","3774","1230","m","elianto","#f73b6a7A"," ","-1","0","-10","[]","0","2","","","3774","27","0","3","lose","go","0"
"pit-trial","155","1248050","0.0-32.0","battery-v0.2","","""event"",""trial"",""time""
""fullscreenenter"",""1"",""3035""
""blur"",""7"",""106373""
""focus"",""7"",""127364""
""blur"",""80"",""744271""
""focus"",""80"",""748564""
","""event"",""trial"",""time""
""blur"",""7"",""106373""
""blur"",""80"",""744271""
","""event"",""trial"",""time""
""focus"",""7"",""127364""
""focus"",""80"",""748564""
","""event"",""trial"",""time""
""fullscreenenter"",""1"",""3035""
","
","","","-1","","","12","3774","1230","h","elianto","#f73b6a7A","-1","-1","1","0","[]","0","2","","","3774","28","3","4","lose","no-go","0"
"pit-trial","156","1252916","0.0-33.0","battery-v0.2","","""event"",""trial"",""time""
""fullscreenenter"",""1"",""3035""
""blur"",""7"",""106373""
""focus"",""7"",""127364""
""blur"",""80"",""744271""
""focus"",""80"",""748564""
","""event"",""trial"",""time""
""blur"",""7"",""106373""
""blur"",""80"",""744271""
","""event"",""trial"",""time""
""focus"",""7"",""127364""
""focus"",""80"",""748564""
","""event"",""trial"",""time""
""fullscreenenter"",""1"",""3035""
","
","","","-1","","","12","3774","1230","y","elianto","#f73b6a7A"," ","-1","0","-10","[]","0","2","","","3774","29","2","3","lose","go","0"
"pit-trial","157","1256250","0.0-34.0","battery-v0.2","","""event"",""trial"",""time""
""fullscreenenter"",""1"",""3035""
""blur"",""7"",""106373""
""focus"",""7"",""127364""
""blur"",""80"",""744271""
""focus"",""80"",""748564""
","""event"",""trial"",""time""
""blur"",""7"",""106373""
""blur"",""80"",""744271""
","""event"",""trial"",""time""
""focus"",""7"",""127364""
""focus"",""80"",""748564""
","""event"",""trial"",""time""
""fullscreenenter"",""1"",""3035""
","
","","","467.90000000596046","","","12","3774","1230","r","elianto","#3366ff99","-1"," ","0","0","[1321.7999999970198]","1","2","","","3774","30","1","2","win","no-go","0"
"pit-trial","158","1261113","0.0-35.0","battery-v0.2","","""event"",""trial"",""time""
""fullscreenenter"",""1"",""3035""
""blur"",""7"",""106373""
""focus"",""7"",""127364""
""blur"",""80"",""744271""
""focus"",""80"",""748564""
","""event"",""trial"",""time""
""blur"",""7"",""106373""
""blur"",""80"",""744271""
","""event"",""trial"",""time""
""focus"",""7"",""127364""
""focus"",""80"",""748564""
","""event"",""trial"",""time""
""fullscreenenter"",""1"",""3035""
","
","","","-1","","","12","3774","1230","m","elianto","#f73b6a7A"," ","-1","0","-10","[]","0","2","","","3774","31","0","3","lose","go","0"
"pit-trial","159","1265989","0.0-36.0","battery-v0.2","","""event"",""trial"",""time""
""fullscreenenter"",""1"",""3035""
""blur"",""7"",""106373""
""focus"",""7"",""127364""
""blur"",""80"",""744271""
""focus"",""80"",""748564""
","""event"",""trial"",""time""
""blur"",""7"",""106373""
""blur"",""80"",""744271""
","""event"",""trial"",""time""
""focus"",""7"",""127364""
""focus"",""80"",""748564""
","""event"",""trial"",""time""
""fullscreenenter"",""1"",""3035""
","
","","","-1","","","12","3774","1230","h","elianto","#f73b6a7A","-1","-1","1","0","[]","0","2","","","3774","32","3","4","lose","no-go","0"
"pit-trial","160","1270858","0.0-37.0","battery-v0.2","","""event"",""trial"",""time""
""fullscreenenter"",""1"",""3035""
""blur"",""7"",""106373""
""focus"",""7"",""127364""
""blur"",""80"",""744271""
""focus"",""80"",""748564""
","""event"",""trial"",""time""
""blur"",""7"",""106373""
""blur"",""80"",""744271""
","""event"",""trial"",""time""
""focus"",""7"",""127364""
""focus"",""80"",""748564""
","""event"",""trial"",""time""
""fullscreenenter"",""1"",""3035""
","
","","","-1","","","12","3774","1230","h","elianto","#f73b6a7A","-1","-1","1","0","[]","0","2","","","3774","33","3","4","lose","no-go","0"
"pit-trial","161","1275720","0.0-38.0","battery-v0.2","","""event"",""trial"",""time""
""fullscreenenter"",""1"",""3035""
""blur"",""7"",""106373""
""focus"",""7"",""127364""
""blur"",""80"",""744271""
""focus"",""80"",""748564""
","""event"",""trial"",""time""
""blur"",""7"",""106373""
""blur"",""80"",""744271""
","""event"",""trial"",""time""
""focus"",""7"",""127364""
""focus"",""80"",""748564""
","""event"",""trial"",""time""
""fullscreenenter"",""1"",""3035""
","
","","","-1","","","12","3774","1230","y","elianto","#f73b6a7A"," ","-1","0","-10","[]","0","2","","","3774","34","2","3","lose","go","0"
"pit-trial","162","1279161","0.0-39.0","battery-v0.2","","""event"",""trial"",""time""
""fullscreenenter"",""1"",""3035""
""blur"",""7"",""106373""
""focus"",""7"",""127364""
""blur"",""80"",""744271""
""focus"",""80"",""748564""
","""event"",""trial"",""time""
""blur"",""7"",""106373""
""blur"",""80"",""744271""
","""event"",""trial"",""time""
""focus"",""7"",""127364""
""focus"",""80"",""748564""
","""event"",""trial"",""time""
""fullscreenenter"",""1"",""3035""
","
","","","581.4000000059605","","","12","3774","1230","r","elianto","#3366ff99","-1"," ","0","0","[1435.800000011921]","1","2","","","3774","35","1","2","win","no-go","0"
"pit-trial","163","1284025","0.0-40.0","battery-v0.2","","""event"",""trial"",""time""
""fullscreenenter"",""1"",""3035""
""blur"",""7"",""106373""
""focus"",""7"",""127364""
""blur"",""80"",""744271""
""focus"",""80"",""748564""
","""event"",""trial"",""time""
""blur"",""7"",""106373""
""blur"",""80"",""744271""
","""event"",""trial"",""time""
""focus"",""7"",""127364""
""focus"",""80"",""748564""
","""event"",""trial"",""time""
""fullscreenenter"",""1"",""3035""
","
","","","-1","","","12","3774","1230","m","elianto","#f73b6a7A"," ","-1","0","0","[]","0","2","","","3774","36","0","3","lose","go","1"
"pit-trial","164","1287625","0.0-41.0","battery-v0.2","","""event"",""trial"",""time""
""fullscreenenter"",""1"",""3035""
""blur"",""7"",""106373""
""focus"",""7"",""127364""
""blur"",""80"",""744271""
""focus"",""80"",""748564""
","""event"",""trial"",""time""
""blur"",""7"",""106373""
""blur"",""80"",""744271""
","""event"",""trial"",""time""
""focus"",""7"",""127364""
""focus"",""80"",""748564""
","""event"",""trial"",""time""
""fullscreenenter"",""1"",""3035""
","
","","","745.7000000029802","","","12","3774","1230","r","elianto","#3366ff99","-1"," ","0","0","[1596.0999999940395]","1","2","","","3774","37","1","2","win","no-go","0"
"pit-trial","165","1292488","0.0-42.0","battery-v0.2","","""event"",""trial"",""time""
""fullscreenenter"",""1"",""3035""
""blur"",""7"",""106373""
""focus"",""7"",""127364""
""blur"",""80"",""744271""
""focus"",""80"",""748564""
","""event"",""trial"",""time""
""blur"",""7"",""106373""
""blur"",""80"",""744271""
","""event"",""trial"",""time""
""focus"",""7"",""127364""
""focus"",""80"",""748564""
","""event"",""trial"",""time""
""fullscreenenter"",""1"",""3035""
","
","","","-1","","","12","3774","1230","m","elianto","#f73b6a7A"," ","-1","0","0","[]","0","2","","","3774","38","0","3","lose","go","1"
"pit-trial","166","1297354","0.0-43.0","battery-v0.2","","""event"",""trial"",""time""
""fullscreenenter"",""1"",""3035""
""blur"",""7"",""106373""
""focus"",""7"",""127364""
""blur"",""80"",""744271""
""focus"",""80"",""748564""
","""event"",""trial"",""time""
""blur"",""7"",""106373""
""blur"",""80"",""744271""
","""event"",""trial"",""time""
""focus"",""7"",""127364""
""focus"",""80"",""748564""
","""event"",""trial"",""time""
""fullscreenenter"",""1"",""3035""
","
","","","-1","","","12","3774","1230","y","elianto","#f73b6a7A"," ","-1","0","-10","[]","0","2","","","3774","39","2","3","lose","go","0"
"pit-trial","167","1302217","0.0-44.0","battery-v0.2","","""event"",""trial"",""time""
""fullscreenenter"",""1"",""3035""
