"trial_type","trial_index","time_elapsed","internal_node_id","task_version","subject_id","interactions","blur_events","focus_events","fullscreenenter_events","fullscreenexit_events","success","view_history","rt","responses","num_errors","age","subject","participantId","rune","rune_set","hex","correct","choice","accuracy","outcome","keys","total_keys","block","practice","value","sub","trial","stimulus","robot","valence","action","sham"
"pavlovia","0","11","0.0-0.0","battery-v0.2","","""event"",""trial"",""time""
""focus"",""0"",""1""
""fullscreenenter"",""1"",""2807""
","
","""event"",""trial"",""time""
""focus"",""0"",""1""
","""event"",""trial"",""time""
""fullscreenenter"",""1"",""2807""
","
","","","","","","","","","","","","","","","","","","","","","","","","","","",""
"fullscreen","1","3278","0.0-1.0","battery-v0.2","","""event"",""trial"",""time""
""focus"",""0"",""1""
""fullscreenenter"",""1"",""2807""
","
","""event"",""trial"",""time""
""focus"",""0"",""1""
","""event"",""trial"",""time""
""fullscreenenter"",""1"",""2807""
","
","true","","","","","","","","","","","","","","","","","","","","","","","","","",""
"pit-instructions","2","8644","0.0-2.0-0.0","battery-v0.2","","""event"",""trial"",""time""
""focus"",""0"",""1""
""fullscreenenter"",""1"",""2807""
","
","""event"",""trial"",""time""
""focus"",""0"",""1""
","""event"",""trial"",""time""
""fullscreenenter"",""1"",""2807""
","
","","[{""page_index"":0,""viewing_time"":5363}]","5363","","","","","","","","","","","","","","","","","","","","","","","",""
"pit-comprehension","3","12013","0.0-2.0-1.0-0.0","battery-v0.2","","""event"",""trial"",""time""
""focus"",""0"",""1""
""fullscreenenter"",""1"",""2807""
","
","""event"",""trial"",""time""
""focus"",""0"",""1""
","""event"",""trial"",""time""
""fullscreenenter"",""1"",""2807""
","
","","","3365","[""shark""]","0","13","4329","672","","","","","","","","","","","","","","","","","","",""
"pit-instructions","4","13444","0.0-2.0-1.0-1.0","battery-v0.2","","""event"",""trial"",""time""
""focus"",""0"",""1""
""fullscreenenter"",""1"",""2807""
","
","""event"",""trial"",""time""
""focus"",""0"",""1""
","""event"",""trial"",""time""
""fullscreenenter"",""1"",""2807""
","
","","[{""page_index"":0,""viewing_time"":1426}]","1427","","","","","","","","","","","","","","","","","","","","","","","",""
"pit-comprehension","5","15756","0.0-2.0-2.0-0.0","battery-v0.2","","""event"",""trial"",""time""
""focus"",""0"",""1""
""fullscreenenter"",""1"",""2807""
","
","""event"",""trial"",""time""
""focus"",""0"",""1""
","""event"",""trial"",""time""
""fullscreenenter"",""1"",""2807""
","
","","","2310","[""tiger""]","0","13","4329","672","","","","","","","","","","","","","","","","","","",""
"pit-instructions","6","16659","0.0-2.0-2.0-1.0","battery-v0.2","","""event"",""trial"",""time""
""focus"",""0"",""1""
""fullscreenenter"",""1"",""2807""
","
","""event"",""trial"",""time""
""focus"",""0"",""1""
","""event"",""trial"",""time""
""fullscreenenter"",""1"",""2807""
","
","","[{""page_index"":0,""viewing_time"":902}]","902","","","","","","","","","","","","","","","","","","","","","","","",""
"pit-instructions","7","127828","0.0-2.0-3.0","battery-v0.2","","""event"",""trial"",""time""
""focus"",""0"",""1""
""fullscreenenter"",""1"",""2807""
","
","""event"",""trial"",""time""
""focus"",""0"",""1""
","""event"",""trial"",""time""
""fullscreenenter"",""1"",""2807""
","
","","[{""page_index"":0,""viewing_time"":13734},{""page_index"":1,""viewing_time"":10536},{""page_index"":2,""viewing_time"":7080},{""page_index"":3,""viewing_time"":6839},{""page_index"":4,""viewing_time"":8265},{""page_index"":5,""viewing_time"":5175},{""page_index"":6,""viewing_time"":8337},{""page_index"":7,""viewing_time"":6624},{""page_index"":8,""viewing_time"":7039},{""page_index"":9,""viewing_time"":9153},{""page_index"":10,""viewing_time"":7791},{""page_index"":11,""viewing_time"":7552},{""page_index"":12,""viewing_time"":6745},{""page_index"":13,""viewing_time"":6296}]","111166","","","","","","","","","","","","","","","","","","","","","","","",""
"pit-trial","8","131452","0.0-2.0-4.0-0.0","battery-v0.2","","""event"",""trial"",""time""
""focus"",""0"",""1""
""fullscreenenter"",""1"",""2807""
","
","""event"",""trial"",""time""
""focus"",""0"",""1""
","""event"",""trial"",""time""
""fullscreenenter"",""1"",""2807""
","
","","","756","","","13","4329","672","&#9784;","elianto","#FFFFF080"," "," ","1","&#10004","[1607]","1","0","0","","","","","","","",""
"pit-trial","9","134847","0.0-2.0-4.1-0.1","battery-v0.2","","""event"",""trial"",""time""
""focus"",""0"",""1""
""fullscreenenter"",""1"",""2807""
","
","""event"",""trial"",""time""
""focus"",""0"",""1""
","""event"",""trial"",""time""
""fullscreenenter"",""1"",""2807""
","
","","","525","","","13","4329","672","&#9784;","elianto","#FFFFF080"," "," ","1","&#10004","[1389]","1","0","0","","","","","","","",""
"pit-trial","10","138274","0.0-2.0-4.2-0.2","battery-v0.2","","""event"",""trial"",""time""
""focus"",""0"",""1""
""fullscreenenter"",""1"",""2807""
","
","""event"",""trial"",""time""
""focus"",""0"",""1""
","""event"",""trial"",""time""
""fullscreenenter"",""1"",""2807""
","
","","","564","","","13","4329","672","&#9784;","elianto","#FFFFF080"," "," ","1","&#10004","[1419]","1","0","0","","","","","","","",""
"pit-trial","11","141695","0.0-2.0-4.3-0.3","battery-v0.2","","""event"",""trial"",""time""
""focus"",""0"",""1""
""fullscreenenter"",""1"",""2807""
","
","""event"",""trial"",""time""
""focus"",""0"",""1""
","""event"",""trial"",""time""
""fullscreenenter"",""1"",""2807""
","
","","","566","","","13","4329","672","&#9784;","elianto","#FFFFF080"," "," ","1","&#10004","[1417]","1","0","0","","","","","","","",""
"pit-trial","12","145052","0.0-2.0-4.4-0.4","battery-v0.2","","""event"",""trial"",""time""
""focus"",""0"",""1""
""fullscreenenter"",""1"",""2807""
","
","""event"",""trial"",""time""
""focus"",""0"",""1""
","""event"",""trial"",""time""
""fullscreenenter"",""1"",""2807""
","
","","","504","","","13","4329","672","&#9784;","elianto","#FFFFF080"," "," ","1","&#10004","[1354]","1","0","0","","","","","","","",""
"pit-instructions","13","169780","0.0-2.0-5.0","battery-v0.2","","""event"",""trial"",""time""
""focus"",""0"",""1""
""fullscreenenter"",""1"",""2807""
","
","""event"",""trial"",""time""
""focus"",""0"",""1""
","""event"",""trial"",""time""
""fullscreenenter"",""1"",""2807""
","
","","[{""page_index"":0,""viewing_time"":7524},{""page_index"":1,""viewing_time"":5431},{""page_index"":2,""viewing_time"":4920},{""page_index"":3,""viewing_time"":6848}]","24723","","","","","","","","","","","","","","","","","","","","","","","",""
"pit-trial","14","174644","0.0-2.0-6.0-0.0","battery-v0.2","","""event"",""trial"",""time""
""focus"",""0"",""1""
""fullscreenenter"",""1"",""2807""
","
","""event"",""trial"",""time""
""focus"",""0"",""1""
","""event"",""trial"",""time""
""fullscreenenter"",""1"",""2807""
","
","","","-1","","","13","4329","672","&#9854;","elianto","#FFFFF080","-1","-1","1","&#10004","[]","0","0","1","","","","","","","",""
"pit-trial","15","179508","0.0-2.0-6.1-0.1","battery-v0.2","","""event"",""trial"",""time""
""focus"",""0"",""1""
""fullscreenenter"",""1"",""2807""
","
","""event"",""trial"",""time""
""focus"",""0"",""1""
","""event"",""trial"",""time""
""fullscreenenter"",""1"",""2807""
","
","","","-1","","","13","4329","672","&#9854;","elianto","#FFFFF080","-1","-1","1","&#10004","[]","0","0","1","","","","","","","",""
"pit-trial","16","184380","0.0-2.0-6.2-0.2","battery-v0.2","","""event"",""trial"",""time""
""focus"",""0"",""1""
""fullscreenenter"",""1"",""2807""
","
","""event"",""trial"",""time""
""focus"",""0"",""1""
","""event"",""trial"",""time""
""fullscreenenter"",""1"",""2807""
","
","","","-1","","","13","4329","672","&#9854;","elianto","#FFFFF080","-1","-1","1","&#10004","[]","0","0","1","","","","","","","",""
"pit-trial","17","189241","0.0-2.0-6.3-0.3","battery-v0.2","","""event"",""trial"",""time""
""focus"",""0"",""1""
""fullscreenenter"",""1"",""2807""
","
","""event"",""trial"",""time""
""focus"",""0"",""1""
","""event"",""trial"",""time""
""fullscreenenter"",""1"",""2807""
","
","","","-1","","","13","4329","672","&#9854;","elianto","#FFFFF080","-1","-1","1","&#10004","[]","0","0","1","","","","","","","",""
"pit-trial","18","194109","0.0-2.0-6.4-0.4","battery-v0.2","","""event"",""trial"",""time""
""focus"",""0"",""1""
""fullscreenenter"",""1"",""2807""
","
","""event"",""trial"",""time""
""focus"",""0"",""1""
","""event"",""trial"",""time""
""fullscreenenter"",""1"",""2807""
","
","","","-1","","","13","4329","672","&#9854;","elianto","#FFFFF080","-1","-1","1","&#10004","[]","0","0","1","","","","","","","",""
"pit-instructions","19","318636","0.0-2.0-7.0","battery-v0.2","","""event"",""trial"",""time""
""focus"",""0"",""1""
""fullscreenenter"",""1"",""2807""
","
","""event"",""trial"",""time""
""focus"",""0"",""1""
","""event"",""trial"",""time""
""fullscreenenter"",""1"",""2807""
","
","","[{""page_index"":0,""viewing_time"":6805},{""page_index"":1,""viewing_time"":7807},{""page_index"":2,""viewing_time"":6097},{""page_index"":3,""viewing_time"":6351},{""page_index"":4,""viewing_time"":5921},{""page_index"":5,""viewing_time"":6312},{""page_index"":6,""viewing_time"":4839},{""page_index"":7,""viewing_time"":8081},{""page_index"":8,""viewing_time"":7128},{""page_index"":9,""viewing_time"":8200},{""page_index"":10,""viewing_time"":7287},{""page_index"":11,""viewing_time"":4921},{""page_index"":12,""viewing_time"":8440},{""page_index"":13,""viewing_time"":7800},{""page_index"":14,""viewing_time"":7704},{""page_index"":15,""viewing_time"":6200},{""page_index"":16,""viewing_time"":6663},{""page_index"":17,""viewing_time"":7968}]","124524","","","","","","","","","","","","","","","","","","","","","","","",""
"pit-trial","20","322318","0.0-2.0-8.0-0.0","battery-v0.2","","""event"",""trial"",""time""
""focus"",""0"",""1""
""fullscreenenter"",""1"",""2807""
","
","""event"",""trial"",""time""
""focus"",""0"",""1""
","""event"",""trial"",""time""
""fullscreenenter"",""1"",""2807""
","
","","","809","","","13","4329","672","&#9776;","elianto","#3366ff99"," "," ","1","+10","[1669]","1","0","1","","","","","","","",""
"pit-trial","21","325755","0.0-2.0-8.0-1.0","battery-v0.2","","""event"",""trial"",""time""
""focus"",""0"",""1""
""fullscreenenter"",""1"",""2807""
","
","""event"",""trial"",""time""
""focus"",""0"",""1""
","""event"",""trial"",""time""
""fullscreenenter"",""1"",""2807""
","
","","","564","","","13","4329","672","&#9776;","elianto","#3366ff99"," "," ","1","+10","[1428]","1","0","1","","","","","","","",""
"pit-trial","22","329130","0.0-2.0-8.0-2.0","battery-v0.2","","""event"",""trial"",""time""
""focus"",""0"",""1""
""fullscreenenter"",""1"",""2807""
","
","""event"",""trial"",""time""
""focus"",""0"",""1""
","""event"",""trial"",""time""
""fullscreenenter"",""1"",""2807""
","
","","","505","","","13","4329","672","&#9776;","elianto","#3366ff99"," "," ","1","+10","[1359]","1","0","1","","","","","","","",""
"pit-trial","23","332509","0.0-2.0-8.0-3.0","battery-v0.2","","""event"",""trial"",""time""
""focus"",""0"",""1""
""fullscreenenter"",""1"",""2807""
","
","""event"",""trial"",""time""
""focus"",""0"",""1""
","""event"",""trial"",""time""
""fullscreenenter"",""1"",""2807""
","
","","","519","","","13","4329","672","&#9776;","elianto","#3366ff99"," "," ","1","0","[1375]","1","0","1","","","","","","","",""
"pit-trial","24","336083","0.0-2.0-8.0-4.0","battery-v0.2","","""event"",""trial"",""time""
""focus"",""0"",""1""
""fullscreenenter"",""1"",""2807""
","
","""event"",""trial"",""time""
""focus"",""0"",""1""
","""event"",""trial"",""time""
""fullscreenenter"",""1"",""2807""
","
","","","710","","","13","4329","672","&#9776;","elianto","#3366ff99"," "," ","1","+10","[1565]","1","0","1","","","","","","","",""
"pit-trial","25","339474","0.0-2.0-8.1-0.1","battery-v0.2","","""event"",""trial"",""time""
""focus"",""0"",""1""
""fullscreenenter"",""1"",""2807""
","
","""event"",""trial"",""time""
""focus"",""0"",""1""
","""event"",""trial"",""time""
""fullscreenenter"",""1"",""2807""
","
","","","524","","","13","4329","672","&#9776;","elianto","#3366ff99"," "," ","1","+10","[1375]","1","0","1","","","","","","","",""
"pit-trial","26","343238","0.0-2.0-8.1-1.1","battery-v0.2","","""event"",""trial"",""time""
""focus"",""0"",""1""
""fullscreenenter"",""1"",""2807""
","
","""event"",""trial"",""time""
""focus"",""0"",""1""
","""event"",""trial"",""time""
""fullscreenenter"",""1"",""2807""
","
","","","905","","","13","4329","672","&#9776;","elianto","#3366ff99"," "," ","1","+10","[1759]","1","0","1","","","","","","","",""
"pit-trial","27","346848","0.0-2.0-8.1-2.1","battery-v0.2","","""event"",""trial"",""time""
""focus"",""0"",""1""
""fullscreenenter"",""1"",""2807""
","
","""event"",""trial"",""time""
""focus"",""0"",""1""
","""event"",""trial"",""time""
""fullscreenenter"",""1"",""2807""
","
","","","750","","","13","4329","672","&#9776;","elianto","#3366ff99"," "," ","1","+10","[1604]","1","0","1","","","","","","","",""
"pit-trial","28","350492","0.0-2.0-8.1-3.1","battery-v0.2","","""event"",""trial"",""time""
""focus"",""0"",""1""
""fullscreenenter"",""1"",""2807""
","
","""event"",""trial"",""time""
""focus"",""0"",""1""
","""event"",""trial"",""time""
""fullscreenenter"",""1"",""2807""
","
","","","782","","","13","4329","672","&#9776;","elianto","#3366ff99"," "," ","1","0","[1634]","1","0","1","","","","","","","",""
"pit-trial","29","353889","0.0-2.0-8.1-4.1","battery-v0.2","","""event"",""trial"",""time""
""focus"",""0"",""1""
""fullscreenenter"",""1"",""2807""
","
","""event"",""trial"",""time""
""focus"",""0"",""1""
","""event"",""trial"",""time""
""fullscreenenter"",""1"",""2807""
","
","","","527","","","13","4329","672","&#9776;","elianto","#3366ff99"," "," ","1","+10","[1380]","1","0","1","","","","","","","",""
"pit-trial","30","357304","0.0-2.0-8.2-0.2","battery-v0.2","","""event"",""trial"",""time""
""focus"",""0"",""1""
""fullscreenenter"",""1"",""2807""
","
","""event"",""trial"",""time""
""focus"",""0"",""1""
","""event"",""trial"",""time""
""fullscreenenter"",""1"",""2807""
","
","","","536","","","13","4329","672","&#9776;","elianto","#3366ff99"," "," ","1","+10","[1400]","1","0","1","","","","","","","",""
"pit-trial","31","360889","0.0-2.0-8.2-1.2","battery-v0.2","","""event"",""trial"",""time""
""focus"",""0"",""1""
""fullscreenenter"",""1"",""2807""
","
","""event"",""trial"",""time""
""focus"",""0"",""1""
","""event"",""trial"",""time""
""fullscreenenter"",""1"",""2807""
","
","","","720","","","13","4329","672","&#9776;","elianto","#3366ff99"," "," ","1","+10","[1570]","1","0","1","","","","","","","",""
"pit-trial","32","364459","0.0-2.0-8.2-2.2","battery-v0.2","","""event"",""trial"",""time""
""focus"",""0"",""1""
""fullscreenenter"",""1"",""2807""
","
","""event"",""trial"",""time""
""focus"",""0"",""1""
","""event"",""trial"",""time""
""fullscreenenter"",""1"",""2807""
","
","","","704","","","13","4329","672","&#9776;","elianto","#3366ff99"," "," ","1","+10","[1562]","1","0","1","","","","","","","",""
"pit-trial","33","367911","0.0-2.0-8.2-3.2","battery-v0.2","","""event"",""trial"",""time""
""focus"",""0"",""1""
""fullscreenenter"",""1"",""2807""
","
","""event"",""trial"",""time""
""focus"",""0"",""1""
","""event"",""trial"",""time""
""fullscreenenter"",""1"",""2807""
","
","","","592","","","13","4329","672","&#9776;","elianto","#3366ff99"," "," ","1","0","[1446]","1","0","1","","","","","","","",""
"pit-trial","34","371446","0.0-2.0-8.2-4.2","battery-v0.2","","""event"",""trial"",""time""
""focus"",""0"",""1""
""fullscreenenter"",""1"",""2807""
","
","""event"",""trial"",""time""
""focus"",""0"",""1""
","""event"",""trial"",""time""
""fullscreenenter"",""1"",""2807""
","
","","","664","","","13","4329","672","&#9776;","elianto","#3366ff99"," "," ","1","+10","[1522]","1","0","1","","","","","","","",""
"call-function","35","371447","0.0-2.0-9.0","battery-v0.2","","""event"",""trial"",""time""
""focus"",""0"",""1""
""fullscreenenter"",""1"",""2807""
","
","""event"",""trial"",""time""
""focus"",""0"",""1""
","""event"",""trial"",""time""
""fullscreenenter"",""1"",""2807""
","
","","","","","","","","","","","","","","","","","","","","","","","","","","",""
"pit-instructions","36","420036","0.0-2.0-10.0","battery-v0.2","","""event"",""trial"",""time""
""focus"",""0"",""1""
""fullscreenenter"",""1"",""2807""
","
","""event"",""trial"",""time""
""focus"",""0"",""1""
","""event"",""trial"",""time""
""fullscreenenter"",""1"",""2807""
","
","","[{""page_index"":0,""viewing_time"":7333},{""page_index"":1,""viewing_time"":7782},{""page_index"":2,""viewing_time"":12985},{""page_index"":3,""viewing_time"":12471},{""page_index"":4,""viewing_time"":8017}]","48588","","","","","","","","","","","","","","","","","","","","","","","",""
"pit-trial","37","423284","0.0-2.0-11.0-0.0","battery-v0.2","","""event"",""trial"",""time""
""focus"",""0"",""1""
""fullscreenenter"",""1"",""2807""
","
","""event"",""trial"",""time""
""focus"",""0"",""1""
","""event"",""trial"",""time""
""fullscreenenter"",""1"",""2807""
","
","","","383","","","13","4329","672","&#9761;","elianto","#3366ff99","-1"," ","0","0","[1246]","1","0","2","","","","","","","",""
"pit-trial","38","428149","0.0-2.0-11.0-1.0","battery-v0.2","","""event"",""trial"",""time""
""focus"",""0"",""1""
""fullscreenenter"",""1"",""2807""
","
","""event"",""trial"",""time""
""focus"",""0"",""1""
","""event"",""trial"",""time""
""fullscreenenter"",""1"",""2807""
","
","","","-1","","","13","4329","672","&#9761;","elianto","#3366ff99","-1","-1","1","+10","[]","0","0","2","","","","","","","",""
"pit-trial","39","433016","0.0-2.0-11.0-2.0","battery-v0.2","","""event"",""trial"",""time""
""focus"",""0"",""1""
""fullscreenenter"",""1"",""2807""
","
","""event"",""trial"",""time""
""focus"",""0"",""1""
","""event"",""trial"",""time""
""fullscreenenter"",""1"",""2807""
","
","","","-1","","","13","4329","672","&#9761;","elianto","#3366ff99","-1","-1","1","+10","[]","0","0","2","","","","","","","",""
"pit-trial","40","437869","0.0-2.0-11.0-3.0","battery-v0.2","","""event"",""trial"",""time""
""focus"",""0"",""1""
""fullscreenenter"",""1"",""2807""
","
","""event"",""trial"",""time""
""focus"",""0"",""1""
","""event"",""trial"",""time""
""fullscreenenter"",""1"",""2807""
","
","","","-1","","","13","4329","672","&#9761;","elianto","#3366ff99","-1","-1","1","0","[]","0","0","2","","","","","","","",""
"pit-trial","41","442733","0.0-2.0-11.0-4.0","battery-v0.2","","""event"",""trial"",""time""
""focus"",""0"",""1""
""fullscreenenter"",""1"",""2807""
","
","""event"",""trial"",""time""
""focus"",""0"",""1""
","""event"",""trial"",""time""
""fullscreenenter"",""1"",""2807""
","
","","","-1","","","13","4329","672","&#9761;","elianto","#3366ff99","-1","-1","1","+10","[]","0","0","2","","","","","","","",""
"pit-trial","42","447595","0.0-2.0-11.1-0.1","battery-v0.2","","""event"",""trial"",""time""
""focus"",""0"",""1""
""fullscreenenter"",""1"",""2807""
","
","""event"",""trial"",""time""
""focus"",""0"",""1""
","""event"",""trial"",""time""
""fullscreenenter"",""1"",""2807""
","
","","","-1","","","13","4329","672","&#9761;","elianto","#3366ff99","-1","-1","1","+10","[]","0","0","2","","","","","","","",""
"pit-trial","43","452464","0.0-2.0-11.1-1.1","battery-v0.2","","""event"",""trial"",""time""
""focus"",""0"",""1""
""fullscreenenter"",""1"",""2807""
","
","""event"",""trial"",""time""
""focus"",""0"",""1""
","""event"",""trial"",""time""
""fullscreenenter"",""1"",""2807""
","
","","","-1","","","13","4329","672","&#9761;","elianto","#3366ff99","-1","-1","1","+10","[]","0","0","2","","","","","","","",""
"pit-trial","44","457332","0.0-2.0-11.1-2.1","battery-v0.2","","""event"",""trial"",""time""
""focus"",""0"",""1""
""fullscreenenter"",""1"",""2807""
","
","""event"",""trial"",""time""
""focus"",""0"",""1""
","""event"",""trial"",""time""
""fullscreenenter"",""1"",""2807""
","
","","","-1","","","13","4329","672","&#9761;","elianto","#3366ff99","-1","-1","1","+10","[]","0","0","2","","","","","","","",""
"pit-trial","45","462211","0.0-2.0-11.1-3.1","battery-v0.2","","""event"",""trial"",""time""
""focus"",""0"",""1""
""fullscreenenter"",""1"",""2807""
","
","""event"",""trial"",""time""
""focus"",""0"",""1""
","""event"",""trial"",""time""
""fullscreenenter"",""1"",""2807""
","
","","","-1","","","13","4329","672","&#9761;","elianto","#3366ff99","-1","-1","1","0","[]","0","0","2","","","","","","","",""
"pit-trial","46","467075","0.0-2.0-11.1-4.1","battery-v0.2","","""event"",""trial"",""time""
""focus"",""0"",""1""
""fullscreenenter"",""1"",""2807""
","
","""event"",""trial"",""time""
""focus"",""0"",""1""
","""event"",""trial"",""time""
""fullscreenenter"",""1"",""2807""
","
","","","-1","","","13","4329","672","&#9761;","elianto","#3366ff99","-1","-1","1","+10","[]","0","0","2","","","","","","","",""
"pit-trial","47","471944","0.0-2.0-11.2-0.2","battery-v0.2","","""event"",""trial"",""time""
""focus"",""0"",""1""
""fullscreenenter"",""1"",""2807""
","
","""event"",""trial"",""time""
""focus"",""0"",""1""
","""event"",""trial"",""time""
""fullscreenenter"",""1"",""2807""
","
","","","-1","","","13","4329","672","&#9761;","elianto","#3366ff99","-1","-1","1","+10","[]","0","0","2","","","","","","","",""
"pit-trial","48","476800","0.0-2.0-11.2-1.2","battery-v0.2","","""event"",""trial"",""time""
""focus"",""0"",""1""
""fullscreenenter"",""1"",""2807""
","
","""event"",""trial"",""time""
""focus"",""0"",""1""
","""event"",""trial"",""time""
""fullscreenenter"",""1"",""2807""
","
","","","-1","","","13","4329","672","&#9761;","elianto","#3366ff99","-1","-1","1","+10","[]","0","0","2","","","","","","","",""
"pit-trial","49","481665","0.0-2.0-11.2-2.2","battery-v0.2","","""event"",""trial"",""time""
""focus"",""0"",""1""
""fullscreenenter"",""1"",""2807""
","
","""event"",""trial"",""time""
""focus"",""0"",""1""
","""event"",""trial"",""time""
""fullscreenenter"",""1"",""2807""
","
","","","-1","","","13","4329","672","&#9761;","elianto","#3366ff99","-1","-1","1","+10","[]","0","0","2","","","","","","","",""
"pit-trial","50","486532","0.0-2.0-11.2-3.2","battery-v0.2","","""event"",""trial"",""time""
""focus"",""0"",""1""
""fullscreenenter"",""1"",""2807""
","
","""event"",""trial"",""time""
""focus"",""0"",""1""
","""event"",""trial"",""time""
""fullscreenenter"",""1"",""2807""
","
","","","-1","","","13","4329","672","&#9761;","elianto","#3366ff99","-1","-1","1","0","[]","0","0","2","","","","","","","",""
"pit-trial","51","491397","0.0-2.0-11.2-4.2","battery-v0.2","","""event"",""trial"",""time""
""focus"",""0"",""1""
""fullscreenenter"",""1"",""2807""
","
","""event"",""trial"",""time""
""focus"",""0"",""1""
","""event"",""trial"",""time""
""fullscreenenter"",""1"",""2807""
","
","","","-1","","","13","4329","672","&#9761;","elianto","#3366ff99","-1","-1","1","+10","[]","0","0","2","","","","","","","",""
"pit-trial","52","496264","0.0-2.0-11.3-0.3","battery-v0.2","","""event"",""trial"",""time""
""focus"",""0"",""1""
""fullscreenenter"",""1"",""2807""
","
","""event"",""trial"",""time""
""focus"",""0"",""1""
","""event"",""trial"",""time""
""fullscreenenter"",""1"",""2807""
","
","","","-1","","","13","4329","672","&#9761;","elianto","#3366ff99","-1","-1","1","+10","[]","0","0","2","","","","","","","",""
"pit-trial","53","501133","0.0-2.0-11.3-1.3","battery-v0.2","","""event"",""trial"",""time""
""focus"",""0"",""1""
""fullscreenenter"",""1"",""2807""
","
","""event"",""trial"",""time""
""focus"",""0"",""1""
","""event"",""trial"",""time""
""fullscreenenter"",""1"",""2807""
","
","","","-1","","","13","4329","672","&#9761;","elianto","#3366ff99","-1","-1","1","+10","[]","0","0","2","","","","","","","",""
"pit-trial","54","505996","0.0-2.0-11.3-2.3","battery-v0.2","","""event"",""trial"",""time""
""focus"",""0"",""1""
""fullscreenenter"",""1"",""2807""
","
","""event"",""trial"",""time""
""focus"",""0"",""1""
","""event"",""trial"",""time""
""fullscreenenter"",""1"",""2807""
","
","","","-1","","","13","4329","672","&#9761;","elianto","#3366ff99","-1","-1","1","+10","[]","0","0","2","","","","","","","",""
"pit-trial","55","510864","0.0-2.0-11.3-3.3","battery-v0.2","","""event"",""trial"",""time""
""focus"",""0"",""1""
""fullscreenenter"",""1"",""2807""
","
","""event"",""trial"",""time""
""focus"",""0"",""1""
","""event"",""trial"",""time""
""fullscreenenter"",""1"",""2807""
","
","","","-1","","","13","4329","672","&#9761;","elianto","#3366ff99","-1","-1","1","0","[]","0","0","2","","","","","","","",""
"pit-trial","56","515733","0.0-2.0-11.3-4.3","battery-v0.2","","""event"",""trial"",""time""
""focus"",""0"",""1""
""fullscreenenter"",""1"",""2807""
","
","""event"",""trial"",""time""
""focus"",""0"",""1""
","""event"",""trial"",""time""
""fullscreenenter"",""1"",""2807""
","
","","","-1","","","13","4329","672","&#9761;","elianto","#3366ff99","-1","-1","1","+10","[]","0","0","2","","","","","","","",""
"call-function","57","515734","0.0-2.0-12.0","battery-v0.2","","""event"",""trial"",""time""
""focus"",""0"",""1""
""fullscreenenter"",""1"",""2807""
","
","""event"",""trial"",""time""
""focus"",""0"",""1""
","""event"",""trial"",""time""
""fullscreenenter"",""1"",""2807""
","
","","","","","","","","","","","","","","","","","","","","","","","","","","",""
"pit-instructions","58","548939","0.0-2.0-13.0","battery-v0.2","","""event"",""trial"",""time""
""focus"",""0"",""1""
""fullscreenenter"",""1"",""2807""
","
","""event"",""trial"",""time""
""focus"",""0"",""1""
","""event"",""trial"",""time""
""fullscreenenter"",""1"",""2807""
","
","","[{""page_index"":0,""viewing_time"":4694},{""page_index"":1,""viewing_time"":7632},{""page_index"":2,""viewing_time"":3768},{""page_index"":3,""viewing_time"":12167},{""page_index"":4,""viewing_time"":4945}]","33206","","","","","","","","","","","","","","","","","","","","","","","",""
"pit-trial","59","552143","0.0-2.0-14.0-0.0","battery-v0.2","","""event"",""trial"",""time""
""focus"",""0"",""1""
""fullscreenenter"",""1"",""2807""
","
","""event"",""trial"",""time""
""focus"",""0"",""1""
","""event"",""trial"",""time""
""fullscreenenter"",""1"",""2807""
","
","","","335","","","13","4329","672","&#9826;","elianto","#f73b6a7A","-1"," ","0","-10","[1191]","1","0","3","","","","","","","",""
"pit-trial","60","557016","0.0-2.0-14.0-1.0","battery-v0.2","","""event"",""trial"",""time""
""focus"",""0"",""1""
""fullscreenenter"",""1"",""2807""
","
","""event"",""trial"",""time""
""focus"",""0"",""1""
","""event"",""trial"",""time""
""fullscreenenter"",""1"",""2807""
","
","","","-1","","","13","4329","672","&#9826;","elianto","#f73b6a7A","-1","-1","1","0","[]","0","0","3","","","","","","","",""
"pit-trial","61","561884","0.0-2.0-14.0-2.0","battery-v0.2","","""event"",""trial"",""time""
""focus"",""0"",""1""
""fullscreenenter"",""1"",""2807""
","
","""event"",""trial"",""time""
""focus"",""0"",""1""
","""event"",""trial"",""time""
""fullscreenenter"",""1"",""2807""
","
","","","-1","","","13","4329","672","&#9826;","elianto","#f73b6a7A","-1","-1","1","0","[]","0","0","3","","","","","","","",""
"pit-trial","62","566749","0.0-2.0-14.0-3.0","battery-v0.2","","""event"",""trial"",""time""
""focus"",""0"",""1""
""fullscreenenter"",""1"",""2807""
","
","""event"",""trial"",""time""
""focus"",""0"",""1""
","""event"",""trial"",""time""
""fullscreenenter"",""1"",""2807""
","
","","","-1","","","13","4329","672","&#9826;","elianto","#f73b6a7A","-1","-1","1","-10","[]","0","0","3","","","","","","","",""
"pit-trial","63","571621","0.0-2.0-14.0-4.0","battery-v0.2","","""event"",""trial"",""time""
""focus"",""0"",""1""
""fullscreenenter"",""1"",""2807""
","
","""event"",""trial"",""time""
""focus"",""0"",""1""
","""event"",""trial"",""time""
""fullscreenenter"",""1"",""2807""
","
","","","-1","","","13","4329","672","&#9826;","elianto","#f73b6a7A","-1","-1","1","0","[3286]","1","0","3","","","","","","","",""
"pit-trial","64","575213","0.0-2.0-14.1-0.1","battery-v0.2","","""event"",""trial"",""time""
""focus"",""0"",""1""
""fullscreenenter"",""1"",""2807""
","
","""event"",""trial"",""time""
""focus"",""0"",""1""
","""event"",""trial"",""time""
""fullscreenenter"",""1"",""2807""
","
","","","726","","","13","4329","672","&#9826;","elianto","#f73b6a7A","-1"," ","0","-10","[1581]","1","0","3","","","","","","","",""
"pit-trial","65","580070","0.0-2.0-14.1-1.1","battery-v0.2","","""event"",""trial"",""time""
""focus"",""0"",""1""
""fullscreenenter"",""1"",""2807""
","
","""event"",""trial"",""time""
""focus"",""0"",""1""
","""event"",""trial"",""time""
""fullscreenenter"",""1"",""2807""
","
","","","-1","","","13","4329","672","&#9826;","elianto","#f73b6a7A","-1","-1","1","0","[]","0","0","3","","","","","","","",""
"pit-trial","66","584938","0.0-2.0-14.1-2.1","battery-v0.2","","""event"",""trial"",""time""
""focus"",""0"",""1""
""fullscreenenter"",""1"",""2807""
","
","""event"",""trial"",""time""
""focus"",""0"",""1""
","""event"",""trial"",""time""
""fullscreenenter"",""1"",""2807""
","
","","","-1","","","13","4329","672","&#9826;","elianto","#f73b6a7A","-1","-1","1","0","[]","0","0","3","","","","","","","",""
"pit-trial","67","589806","0.0-2.0-14.1-3.1","battery-v0.2","","""event"",""trial"",""time""
""focus"",""0"",""1""
""fullscreenenter"",""1"",""2807""
","
","""event"",""trial"",""time""
""focus"",""0"",""1""
","""event"",""trial"",""time""
""fullscreenenter"",""1"",""2807""
","
","","","-1","","","13","4329","672","&#9826;","elianto","#f73b6a7A","-1","-1","1","-10","[]","0","0","3","","","","","","","",""
"pit-trial","68","594666","0.0-2.0-14.1-4.1","battery-v0.2","","""event"",""trial"",""time""
""focus"",""0"",""1""
""fullscreenenter"",""1"",""2807""
","
","""event"",""trial"",""time""
""focus"",""0"",""1""
","""event"",""trial"",""time""
""fullscreenenter"",""1"",""2807""
","
","","","-1","","","13","4329","672","&#9826;","elianto","#f73b6a7A","-1","-1","1","0","[]","0","0","3","","","","","","","",""
"pit-trial","69","599533","0.0-2.0-14.2-0.2","battery-v0.2","","""event"",""trial"",""time""
""focus"",""0"",""1""
""fullscreenenter"",""1"",""2807""
","
","""event"",""trial"",""time""
""focus"",""0"",""1""
","""event"",""trial"",""time""
""fullscreenenter"",""1"",""2807""
","
","","","-1","","","13","4329","672","&#9826;","elianto","#f73b6a7A","-1","-1","1","0","[]","0","0","3","","","","","","","",""
"pit-trial","70","604397","0.0-2.0-14.2-1.2","battery-v0.2","","""event"",""trial"",""time""
""focus"",""0"",""1""
""fullscreenenter"",""1"",""2807""
","
","""event"",""trial"",""time""
""focus"",""0"",""1""
","""event"",""trial"",""time""
""fullscreenenter"",""1"",""2807""
","
","","","-1","","","13","4329","672","&#9826;","elianto","#f73b6a7A","-1","-1","1","0","[]","0","0","3","","","","","","","",""
"pit-trial","71","609268","0.0-2.0-14.2-2.2","battery-v0.2","","""event"",""trial"",""time""
""focus"",""0"",""1""
""fullscreenenter"",""1"",""2807""
","
","""event"",""trial"",""time""
""focus"",""0"",""1""
","""event"",""trial"",""time""
""fullscreenenter"",""1"",""2807""
","
","","","-1","","","13","4329","672","&#9826;","elianto","#f73b6a7A","-1","-1","1","0","[3038]","1","0","3","","","","","","","",""
"pit-trial","72","612577","0.0-2.0-14.2-3.2","battery-v0.2","","""event"",""trial"",""time""
""focus"",""0"",""1""
""fullscreenenter"",""1"",""2807""
","
","""event"",""trial"",""time""
""focus"",""0"",""1""
","""event"",""trial"",""time""
""fullscreenenter"",""1"",""2807""
","
","","","429","","","13","4329","672","&#9826;","elianto","#f73b6a7A","-1"," ","0","0","[1294]","1","0","3","","","","","","","",""
"pit-trial","73","615818","0.0-2.0-14.2-4.2","battery-v0.2","","""event"",""trial"",""time""
""focus"",""0"",""1""
""fullscreenenter"",""1"",""2807""
","
","""event"",""trial"",""time""
""focus"",""0"",""1""
","""event"",""trial"",""time""
""fullscreenenter"",""1"",""2807""
","
","","","376","","","13","4329","672","&#9826;","elianto","#f73b6a7A","-1"," ","0","-10","[1232]","1","0","3","","","","","","","",""
"pit-trial","74","619094","0.0-2.0-14.3-0.3","battery-v0.2","","""event"",""trial"",""time""
""focus"",""0"",""1""
""fullscreenenter"",""1"",""2807""
","
","""event"",""trial"",""time""
""focus"",""0"",""1""
","""event"",""trial"",""time""
""fullscreenenter"",""1"",""2807""
","
","","","407","","","13","4329","672","&#9826;","elianto","#f73b6a7A","-1"," ","0","-10","[1263]","1","0","3","","","","","","","",""
"pit-trial","75","623958","0.0-2.0-14.3-1.3","battery-v0.2","","""event"",""trial"",""time""
""focus"",""0"",""1""
""fullscreenenter"",""1"",""2807""
","
","""event"",""trial"",""time""
""focus"",""0"",""1""
","""event"",""trial"",""time""
""fullscreenenter"",""1"",""2807""
","
","","","-1","","","13","4329","672","&#9826;","elianto","#f73b6a7A","-1","-1","1","0","[]","0","0","3","","","","","","","",""
"pit-trial","76","628820","0.0-2.0-14.3-2.3","battery-v0.2","","""event"",""trial"",""time""
""focus"",""0"",""1""
""fullscreenenter"",""1"",""2807""
","
","""event"",""trial"",""time""
""focus"",""0"",""1""
","""event"",""trial"",""time""
""fullscreenenter"",""1"",""2807""
","
","","","-1","","","13","4329","672","&#9826;","elianto","#f73b6a7A","-1","-1","1","0","[]","0","0","3","","","","","","","",""
"pit-trial","77","633690","0.0-2.0-14.3-3.3","battery-v0.2","","""event"",""trial"",""time""
""focus"",""0"",""1""
""fullscreenenter"",""1"",""2807""
","
","""event"",""trial"",""time""
""focus"",""0"",""1""
","""event"",""trial"",""time""
""fullscreenenter"",""1"",""2807""
","
","","","-1","","","13","4329","672","&#9826;","elianto","#f73b6a7A","-1","-1","1","-10","[]","0","0","3","","","","","","","",""
"pit-trial","78","638550","0.0-2.0-14.3-4.3","battery-v0.2","","""event"",""trial"",""time""
""focus"",""0"",""1""
""fullscreenenter"",""1"",""2807""
","
","""event"",""trial"",""time""
""focus"",""0"",""1""
","""event"",""trial"",""time""
""fullscreenenter"",""1"",""2807""
","
","","","-1","","","13","4329","672","&#9826;","elianto","#f73b6a7A","-1","-1","1","0","[]","0","0","3","","","","","","","",""
"call-function","79","638551","0.0-2.0-15.0","battery-v0.2","","""event"",""trial"",""time""
""focus"",""0"",""1""
""fullscreenenter"",""1"",""2807""
","
","""event"",""trial"",""time""
""focus"",""0"",""1""
","""event"",""trial"",""time""
""fullscreenenter"",""1"",""2807""
","
","","","","","","","","","","","","","","","","","","","","","","","","","","",""
"pit-instructions","80","668740","0.0-2.0-16.0","battery-v0.2","","""event"",""trial"",""time""
""focus"",""0"",""1""
""fullscreenenter"",""1"",""2807""
","
","""event"",""trial"",""time""
""focus"",""0"",""1""
","""event"",""trial"",""time""
""fullscreenenter"",""1"",""2807""
","
","","[{""page_index"":0,""viewing_time"":8037},{""page_index"":1,""viewing_time"":8680},{""page_index"":2,""viewing_time"":5759},{""page_index"":3,""viewing_time"":7714}]","30190","","","","","","","","","","","","","","","","","","","","","","","",""
"pit-trial","81","672330","0.0-2.0-17.0-0.0","battery-v0.2","","""event"",""trial"",""time""
""focus"",""0"",""1""
""fullscreenenter"",""1"",""2807""
","
","""event"",""trial"",""time""
""focus"",""0"",""1""
","""event"",""trial"",""time""
""fullscreenenter"",""1"",""2807""
","
","","","731","","","13","4329","672","&#9789;","elianto","#f73b6a7A"," "," ","1","0","[1582]","1","0","4","","","","","","","",""
"pit-trial","82","675614","0.0-2.0-17.0-1.0","battery-v0.2","","""event"",""trial"",""time""
""focus"",""0"",""1""
""fullscreenenter"",""1"",""2807""
","
","""event"",""trial"",""time""
""focus"",""0"",""1""
","""event"",""trial"",""time""
""fullscreenenter"",""1"",""2807""
","
","","","426","","","13","4329","672","&#9789;","elianto","#f73b6a7A"," "," ","1","0","[1281,1737]","2","0","4","","","","","","","",""
"pit-trial","83","678977","0.0-2.0-17.0-2.0","battery-v0.2","","""event"",""trial"",""time""
""focus"",""0"",""1""
""fullscreenenter"",""1"",""2807""
","
","""event"",""trial"",""time""
""focus"",""0"",""1""
","""event"",""trial"",""time""
""fullscreenenter"",""1"",""2807""
","
","","","494","","","13","4329","672","&#9789;","elianto","#f73b6a7A"," "," ","1","0","[1348]","1","0","4","","","","","","","",""
"pit-trial","84","682375","0.0-2.0-17.0-3.0","battery-v0.2","","""event"",""trial"",""time""
""focus"",""0"",""1""
""fullscreenenter"",""1"",""2807""
","
","""event"",""trial"",""time""
""focus"",""0"",""1""
","""event"",""trial"",""time""
""fullscreenenter"",""1"",""2807""
","
","","","538","","","13","4329","672","&#9789;","elianto","#f73b6a7A"," "," ","1","-10","[1393]","1","0","4","","","","","","","",""
"pit-trial","85","685638","0.0-2.0-17.0-4.0","battery-v0.2","","""event"",""trial"",""time""
""focus"",""0"",""1""
""fullscreenenter"",""1"",""2807""
","
","""event"",""trial"",""time""
""focus"",""0"",""1""
","""event"",""trial"",""time""
""fullscreenenter"",""1"",""2807""
","
","","","393","","","13","4329","672","&#9789;","elianto","#f73b6a7A"," "," ","1","0","[1251]","1","0","4","","","","","","","",""
"pit-trial","86","690507","0.0-2.0-17.1-0.1","battery-v0.2","","""event"",""trial"",""time""
""focus"",""0"",""1""
""fullscreenenter"",""1"",""2807""
","
","""event"",""trial"",""time""
""focus"",""0"",""1""
","""event"",""trial"",""time""
""fullscreenenter"",""1"",""2807""
","
","","","-1","","","13","4329","672","&#9789;","elianto","#f73b6a7A"," ","-1","0","-10","[]","0","0","4","","","","","","","",""
"pit-trial","87","695378","0.0-2.0-17.1-1.1","battery-v0.2","","""event"",""trial"",""time""
""focus"",""0"",""1""
""fullscreenenter"",""1"",""2807""
","
","""event"",""trial"",""time""
""focus"",""0"",""1""
","""event"",""trial"",""time""
""fullscreenenter"",""1"",""2807""
","
","","","-1","","","13","4329","672","&#9789;","elianto","#f73b6a7A"," ","-1","0","-10","[]","0","0","4","","","","","","","",""
"pit-trial","88","698633","0.0-2.0-17.1-2.1","battery-v0.2","","""event"",""trial"",""time""
""focus"",""0"",""1""
""fullscreenenter"",""1"",""2807""
","
","""event"",""trial"",""time""
""focus"",""0"",""1""
","""event"",""trial"",""time""
""fullscreenenter"",""1"",""2807""
","
","","","383","","","13","4329","672","&#9789;","elianto","#f73b6a7A"," "," ","1","0","[1240]","1","0","4","","","","","","","",""
"pit-trial","89","702075","0.0-2.0-17.1-3.1","battery-v0.2","","""event"",""trial"",""time""
""focus"",""0"",""1""
""fullscreenenter"",""1"",""2807""
","
","""event"",""trial"",""time""
""focus"",""0"",""1""
","""event"",""trial"",""time""
""fullscreenenter"",""1"",""2807""
","
","","","582","","","13","4329","672","&#9789;","elianto","#f73b6a7A"," "," ","1","-10","[1433]","1","0","4","","","","","","","",""
"pit-trial","90","705489","0.0-2.0-17.1-4.1","battery-v0.2","","""event"",""trial"",""time""
""focus"",""0"",""1""
""fullscreenenter"",""1"",""2807""
","
","""event"",""trial"",""time""
""focus"",""0"",""1""
","""event"",""trial"",""time""
""fullscreenenter"",""1"",""2807""
","
","","","553","","","13","4329","672","&#9789;","elianto","#f73b6a7A"," "," ","1","0","[1407]","1","0","4","","","","","","","",""
"pit-trial","91","709130","0.0-2.0-17.2-0.2","battery-v0.2","","""event"",""trial"",""time""
""focus"",""0"",""1""
""fullscreenenter"",""1"",""2807""
","
","""event"",""trial"",""time""
""focus"",""0"",""1""
","""event"",""trial"",""time""
""fullscreenenter"",""1"",""2807""
","
","","","787","","","13","4329","672","&#9789;","elianto","#f73b6a7A"," "," ","1","0","[1641]","1","0","4","","","","","","","",""
"pit-trial","92","713365","0.0-2.0-17.2-1.2","battery-v0.2","","""event"",""trial"",""time""
""focus"",""0"",""1""
""fullscreenenter"",""1"",""2807""
","
","""event"",""trial"",""time""
""focus"",""0"",""1""
","""event"",""trial"",""time""
""fullscreenenter"",""1"",""2807""
","
","","","1375","","","13","4329","672","&#9789;","elianto","#f73b6a7A"," "," ","1","0","[2231]","1","0","4","","","","","","","",""
"pit-trial","93","716865","0.0-2.0-17.2-2.2","battery-v0.2","","""event"",""trial"",""time""
""focus"",""0"",""1""
""fullscreenenter"",""1"",""2807""
","
","""event"",""trial"",""time""
""focus"",""0"",""1""
","""event"",""trial"",""time""
""fullscreenenter"",""1"",""2807""
","
","","","632","","","13","4329","672","&#9789;","elianto","#f73b6a7A"," "," ","1","0","[1484]","1","0","4","","","","","","","",""
"pit-trial","94","720187","0.0-2.0-17.2-3.2","battery-v0.2","","""event"",""trial"",""time""
""focus"",""0"",""1""
""fullscreenenter"",""1"",""2807""
","
","""event"",""trial"",""time""
""focus"",""0"",""1""
","""event"",""trial"",""time""
""fullscreenenter"",""1"",""2807""
","
","","","454","","","13","4329","672","&#9789;","elianto","#f73b6a7A"," "," ","1","-10","[1313]","1","0","4","","","","","","","",""
"pit-trial","95","723228","0.0-2.0-17.2-4.2","battery-v0.2","","""event"",""trial"",""time""
""focus"",""0"",""1""
""fullscreenenter"",""1"",""2807""
","
","""event"",""trial"",""time""
""focus"",""0"",""1""
","""event"",""trial"",""time""
""fullscreenenter"",""1"",""2807""
","
","","","188","","","13","4329","672","&#9789;","elianto","#f73b6a7A"," "," ","1","0","[1039]","1","0","4","","","","","","","",""
"pit-trial","96","726257","0.0-2.0-17.3-0.3","battery-v0.2","","""event"",""trial"",""time""
""focus"",""0"",""1""
""fullscreenenter"",""1"",""2807""
","
","""event"",""trial"",""time""
""focus"",""0"",""1""
","""event"",""trial"",""time""
""fullscreenenter"",""1"",""2807""
","
","","","158","","","13","4329","672","&#9789;","elianto","#f73b6a7A"," "," ","1","0","[1015]","1","0","4","","","","","","","",""
"pit-trial","97","729442","0.0-2.0-17.3-1.3","battery-v0.2","","""event"",""trial"",""time""
""focus"",""0"",""1""
""fullscreenenter"",""1"",""2807""
","
","""event"",""trial"",""time""
""focus"",""0"",""1""
","""event"",""trial"",""time""
""fullscreenenter"",""1"",""2807""
","
","","","321","","","13","4329","672","&#9789;","elianto","#f73b6a7A"," "," ","1","0","[1177]","1","0","4","","","","","","","",""
"pit-trial","98","732862","0.0-2.0-17.3-2.3","battery-v0.2","","""event"",""trial"",""time""
""focus"",""0"",""1""
""fullscreenenter"",""1"",""2807""
","
","""event"",""trial"",""time""
""focus"",""0"",""1""
","""event"",""trial"",""time""
""fullscreenenter"",""1"",""2807""
","
","","","564","","","13","4329","672","&#9789;","elianto","#f73b6a7A"," "," ","1","0","[1415]","1","0","4","","","","","","","",""
"pit-trial","99","736699","0.0-2.0-17.3-3.3","battery-v0.2","","""event"",""trial"",""time""
""focus"",""0"",""1""
""fullscreenenter"",""1"",""2807""
","
","""event"",""trial"",""time""
""focus"",""0"",""1""
","""event"",""trial"",""time""
""fullscreenenter"",""1"",""2807""
","
","","","969","","","13","4329","672","&#9789;","elianto","#f73b6a7A"," "," ","1","-10","[1820]","1","0","4","","","","","","","",""
"pit-trial","100","741558","0.0-2.0-17.3-4.3","battery-v0.2","","""event"",""trial"",""time""
""focus"",""0"",""1""
""fullscreenenter"",""1"",""2807""
","
","""event"",""trial"",""time""
""focus"",""0"",""1""
","""event"",""trial"",""time""
""fullscreenenter"",""1"",""2807""
","
","","","-1","","","13","4329","672","&#9789;","elianto","#f73b6a7A"," ","-1","0","-10","[]","0","0","4","","","","","","","",""
"call-function","101","741559","0.0-2.0-18.0","battery-v0.2","","""event"",""trial"",""time""
""focus"",""0"",""1""
""fullscreenenter"",""1"",""2807""
","
","""event"",""trial"",""time""
""focus"",""0"",""1""
","""event"",""trial"",""time""
""fullscreenenter"",""1"",""2807""
","
","","","","","","","","","","","","","","","","","","","","","","","","","","",""
"pit-instructions","102","826756","0.0-2.0-19.0","battery-v0.2","","""event"",""trial"",""time""
""focus"",""0"",""1""
""fullscreenenter"",""1"",""2807""
","
","""event"",""trial"",""time""
""focus"",""0"",""1""
","""event"",""trial"",""time""
""fullscreenenter"",""1"",""2807""
","
","","[{""page_index"":0,""viewing_time"":6517},{""page_index"":1,""viewing_time"":6390},{""page_index"":2,""viewing_time"":16617},{""page_index"":3,""viewing_time"":9248},{""page_index"":4,""viewing_time"":16864},{""page_index"":5,""viewing_time"":8783},{""page_index"":6,""viewing_time"":8953},{""page_index"":7,""viewing_time"":6935},{""page_index"":8,""viewing_time"":4889}]","85197","","","","","","","","","","","","","","","","","","","","","","","",""
"pit-comprehension","103","833541","0.0-2.0-20.0-0.0","battery-v0.2","","""event"",""trial"",""time""
""focus"",""0"",""1""
""fullscreenenter"",""1"",""2807""
","
","""event"",""trial"",""time""
""focus"",""0"",""1""
","""event"",""trial"",""time""
""fullscreenenter"",""1"",""2807""
","
","","","6781","[""SPACE""]","0","13","4329","672","","","","","","","","","","","","","","","","","","",""
"pit-instructions","104","838868","0.0-2.0-20.0-1.0","battery-v0.2","","""event"",""trial"",""time""
""focus"",""0"",""1""
""fullscreenenter"",""1"",""2807""
","
","""event"",""trial"",""time""
""focus"",""0"",""1""
","""event"",""trial"",""time""
""fullscreenenter"",""1"",""2807""
","
","","[{""page_index"":0,""viewing_time"":5295}]","5296","","","","","","","","","","","","","","","","","","","","","","","",""
"pit-comprehension","105","844572","0.0-2.0-21.0-0.0","battery-v0.2","","""event"",""trial"",""time""
""focus"",""0"",""1""
""fullscreenenter"",""1"",""2807""
","
","""event"",""trial"",""time""
""focus"",""0"",""1""
","""event"",""trial"",""time""
""fullscreenenter"",""1"",""2807""
","
","","","5704","[""10""]","0","13","4329","672","","","","","","","","","","","","","","","","","","",""
"pit-instructions","106","848148","0.0-2.0-21.0-1.0","battery-v0.2","","""event"",""trial"",""time""
""focus"",""0"",""1""
""fullscreenenter"",""1"",""2807""
","
","""event"",""trial"",""time""
""focus"",""0"",""1""
","""event"",""trial"",""time""
""fullscreenenter"",""1"",""2807""
","
","","[{""page_index"":0,""viewing_time"":3544}]","3544","","","","","","","","","","","","","","","","","","","","","","","",""
"pit-comprehension","107","858132","0.0-2.0-22.0-0.0","battery-v0.2","","""event"",""trial"",""time""
""focus"",""0"",""1""
""fullscreenenter"",""1"",""2807""
","
","""event"",""trial"",""time""
""focus"",""0"",""1""
","""event"",""trial"",""time""
""fullscreenenter"",""1"",""2807""
","
","","","9984","[""-10""]","1","13","4329","672","","","","","","","","","","","","","","","","","","",""
"pit-instructions","108","863788","0.0-2.0-22.0-1.0","battery-v0.2","","""event"",""trial"",""time""
""focus"",""0"",""1""
""fullscreenenter"",""1"",""2807""
","
","""event"",""trial"",""time""
""focus"",""0"",""1""
","""event"",""trial"",""time""
""fullscreenenter"",""1"",""2807""
","
","","[{""page_index"":0,""viewing_time"":5624}]","5624","","","","","","","","","","","","","","","","","","","","","","","",""
"pit-instructions","109","865020","0.0-2.0-22.0-2.0-0.0","battery-v0.2","","""event"",""trial"",""time""
""focus"",""0"",""1""
""fullscreenenter"",""1"",""2807""
","
","""event"",""trial"",""time""
""focus"",""0"",""1""
","""event"",""trial"",""time""
""fullscreenenter"",""1"",""2807""
","
","","[{""page_index"":0,""viewing_time"":1231}]","1231","","","","","","","","","","","","","","","","","","","","","","","",""
"pit-comprehension","110","871420","0.0-2.0-22.1-0.1","battery-v0.2","","""event"",""trial"",""time""
""focus"",""0"",""1""
""fullscreenenter"",""1"",""2807""
","
","""event"",""trial"",""time""
""focus"",""0"",""1""
","""event"",""trial"",""time""
""fullscreenenter"",""1"",""2807""
","
","","","6399","[""0""]","0","13","4329","672","","","","","","","","","","","","","","","","","","",""
"pit-instructions","111","873971","0.0-2.0-22.1-1.1","battery-v0.2","","""event"",""trial"",""time""
""focus"",""0"",""1""
""fullscreenenter"",""1"",""2807""
","
","""event"",""trial"",""time""
""focus"",""0"",""1""
","""event"",""trial"",""time""
""fullscreenenter"",""1"",""2807""
","
","","[{""page_index"":0,""viewing_time"":2517}]","2517","","","","","","","","","","","","","","","","","","","","","","","",""
"pit-comprehension","112","884268","0.0-2.0-23.0-0.0","battery-v0.2","","""event"",""trial"",""time""
""focus"",""0"",""1""
""fullscreenenter"",""1"",""2807""
","
","""event"",""trial"",""time""
""focus"",""0"",""1""
","""event"",""trial"",""time""
""fullscreenenter"",""1"",""2807""
","
","","","10296","[""False""]","1","13","4329","672","","","","","","","","","","","","","","","","","","",""
"pit-instructions","113","888788","0.0-2.0-23.0-1.0","battery-v0.2","","""event"",""trial"",""time""
""focus"",""0"",""1""
""fullscreenenter"",""1"",""2807""
","
","""event"",""trial"",""time""
""focus"",""0"",""1""
","""event"",""trial"",""time""
""fullscreenenter"",""1"",""2807""
","
","","[{""page_index"":0,""viewing_time"":4486}]","4486","","","","","","","","","","","","","","","","","","","","","","","",""
"pit-instructions","114","890076","0.0-2.0-23.0-2.0-0.0","battery-v0.2","","""event"",""trial"",""time""
""focus"",""0"",""1""
""fullscreenenter"",""1"",""2807""
","
","""event"",""trial"",""time""
""focus"",""0"",""1""
","""event"",""trial"",""time""
""fullscreenenter"",""1"",""2807""
","
","","[{""page_index"":0,""viewing_time"":1287}]","1287","","","","","","","","","","","","","","","","","","","","","","","",""
"pit-comprehension","115","898492","0.0-2.0-23.1-0.1","battery-v0.2","","""event"",""trial"",""time""
""focus"",""0"",""1""
""fullscreenenter"",""1"",""2807""
","
","""event"",""trial"",""time""
""focus"",""0"",""1""
","""event"",""trial"",""time""
""fullscreenenter"",""1"",""2807""
","
","","","8416","[""True""]","0","13","4329","672","","","","","","","","","","","","","","","","","","",""
"pit-instructions","116","901899","0.0-2.0-23.1-1.1","battery-v0.2","","""event"",""trial"",""time""
""focus"",""0"",""1""
""fullscreenenter"",""1"",""2807""
","
","""event"",""trial"",""time""
""focus"",""0"",""1""
","""event"",""trial"",""time""
""fullscreenenter"",""1"",""2807""
","
","","[{""page_index"":0,""viewing_time"":3374}]","3374","","","","","","","","","","","","","","","","","","","","","","","",""
"pit-comprehension","117","910164","0.0-2.0-24.0-0.0","battery-v0.2","","""event"",""trial"",""time""
""focus"",""0"",""1""
""fullscreenenter"",""1"",""2807""
","
","""event"",""trial"",""time""
""focus"",""0"",""1""
","""event"",""trial"",""time""
""fullscreenenter"",""1"",""2807""
","
","","","8262","[""True""]","0","13","4329","672","","","","","","","","","","","","","","","","","","",""
"pit-instructions","118","912939","0.0-2.0-24.0-1.0","battery-v0.2","","""event"",""trial"",""time""
""focus"",""0"",""1""
""fullscreenenter"",""1"",""2807""
","
","""event"",""trial"",""time""
""focus"",""0"",""1""
","""event"",""trial"",""time""
""fullscreenenter"",""1"",""2807""
","
","","[{""page_index"":0,""viewing_time"":2742}]","2742","","","","","","","","","","","","","","","","","","","","","","","",""
"pit-comprehension","119","920500","0.0-2.0-25.0-0.0","battery-v0.2","","""event"",""trial"",""time""
""focus"",""0"",""1""
""fullscreenenter"",""1"",""2807""
","
","""event"",""trial"",""time""
""focus"",""0"",""1""
","""event"",""trial"",""time""
""fullscreenenter"",""1"",""2807""
","
","","","7559","[""True""]","0","13","4329","672","","","","","","","","","","","","","","","","","","",""
"pit-instructions","120","922763","0.0-2.0-25.0-1.0","battery-v0.2","","""event"",""trial"",""time""
""focus"",""0"",""1""
""fullscreenenter"",""1"",""2807""
","
","""event"",""trial"",""time""
""focus"",""0"",""1""
","""event"",""trial"",""time""
""fullscreenenter"",""1"",""2807""
","
","","[{""page_index"":0,""viewing_time"":2222}]","2222","","","","","","","","","","","","","","","","","","","","","","","",""
"pit-comprehension","121","931396","0.0-2.0-26.0-0.0","battery-v0.2","","""event"",""trial"",""time""
""focus"",""0"",""1""
""fullscreenenter"",""1"",""2807""
","
","""event"",""trial"",""time""
""focus"",""0"",""1""
","""event"",""trial"",""time""
""fullscreenenter"",""1"",""2807""
","
","","","8632","[""True""]","1","13","4329","672","","","","","","","","","","","","","","","","","","",""
"pit-instructions","122","937180","0.0-2.0-26.0-1.0","battery-v0.2","","""event"",""trial"",""time""
""focus"",""0"",""1""
""fullscreenenter"",""1"",""2807""
","
","""event"",""trial"",""time""
""focus"",""0"",""1""
","""event"",""trial"",""time""
""fullscreenenter"",""1"",""2807""
","
","","[{""page_index"":0,""viewing_time"":5748}]","5748","","","","","","","","","","","","","","","","","","","","","","","",""
"pit-instructions","123","938468","0.0-2.0-26.0-2.0-0.0","battery-v0.2","","""event"",""trial"",""time""
""focus"",""0"",""1""
""fullscreenenter"",""1"",""2807""
","
","""event"",""trial"",""time""
""focus"",""0"",""1""
","""event"",""trial"",""time""
""fullscreenenter"",""1"",""2807""
","
","","[{""page_index"":0,""viewing_time"":1286}]","1286","","","","","","","","","","","","","","","","","","","","","","","",""
"pit-comprehension","124","943228","0.0-2.0-26.1-0.1","battery-v0.2","","""event"",""trial"",""time""
""focus"",""0"",""1""
""fullscreenenter"",""1"",""2807""
","
","""event"",""trial"",""time""
""focus"",""0"",""1""
","""event"",""trial"",""time""
""fullscreenenter"",""1"",""2807""
","
","","","4759","[""False""]","0","13","4329","672","","","","","","","","","","","","","","","","","","",""
"pit-instructions","125","948116","0.0-2.0-26.1-1.1","battery-v0.2","","""event"",""trial"",""time""
""focus"",""0"",""1""
""fullscreenenter"",""1"",""2807""
","
","""event"",""trial"",""time""
""focus"",""0"",""1""
","""event"",""trial"",""time""
""fullscreenenter"",""1"",""2807""
","
","","[{""page_index"":0,""viewing_time"":4851}]","4851","","","","","","","","","","","","","","","","","","","","","","","",""
"pit-instructions","126","969668","0.0-3.0","battery-v0.2","","""event"",""trial"",""time""
""focus"",""0"",""1""
""fullscreenenter"",""1"",""2807""
","
","""event"",""trial"",""time""
""focus"",""0"",""1""
","""event"",""trial"",""time""
""fullscreenenter"",""1"",""2807""
","
","","[{""page_index"":0,""viewing_time"":5526},{""page_index"":1,""viewing_time"":6616},{""page_index"":2,""viewing_time"":9408}]","21550","","","","","","","","","","","","","","","","","","","","","","","",""
"pit-trial","127","973369","0.0-4.0","battery-v0.2","","""event"",""trial"",""time""
""focus"",""0"",""1""
""fullscreenenter"",""1"",""2807""
","
","""event"",""trial"",""time""
""focus"",""0"",""1""
","""event"",""trial"",""time""
""fullscreenenter"",""1"",""2807""
","
","","","822","","","13","4329","672","&#9733;","elianto","#3366ff99","-1"," ","0","0","[1687]","1","1","","","4329","1","2","2","win","no-go","0"
"pit-trial","128","977199","0.0-5.0","battery-v0.2","","""event"",""trial"",""time""
""focus"",""0"",""1""
""fullscreenenter"",""1"",""2807""
","
","""event"",""trial"",""time""
""focus"",""0"",""1""
","""event"",""trial"",""time""
""fullscreenenter"",""1"",""2807""
","
","","","961","","","13","4329","672","&#9730;","elianto","#3366ff99"," "," ","1","+10","[1816]","1","1","","","4329","2","1","1","win","go","0"
"pit-trial","129","981935","0.0-6.0","battery-v0.2","","""event"",""trial"",""time""
""focus"",""0"",""1""
""fullscreenenter"",""1"",""2807""
","
","""event"",""trial"",""time""
""focus"",""0"",""1""
","""event"",""trial"",""time""
""fullscreenenter"",""1"",""2807""
","
","","","1877","","","13","4329","672","&#9752;","elianto","#f73b6a7A"," "," ","1","-10","[2730]","1","1","","","4329","3","3","3","lose","go","1"
"pit-trial","130","986814","0.0-7.0","battery-v0.2","","""event"",""trial"",""time""
""focus"",""0"",""1""
""fullscreenenter"",""1"",""2807""
","
","""event"",""trial"",""time""
""focus"",""0"",""1""
","""event"",""trial"",""time""
""fullscreenenter"",""1"",""2807""
","
","","","-1","","","13","4329","672","&#9728;","elianto","#f73b6a7A","-1","-1","1","0","[]","0","1","","","4329","4","0","4","lose","no-go","0"
"pit-trial","131","990123","0.0-8.0","battery-v0.2","","""event"",""trial"",""time""
""focus"",""0"",""1""
""fullscreenenter"",""1"",""2807""
","
","""event"",""trial"",""time""
""focus"",""0"",""1""
","""event"",""trial"",""time""
""fullscreenenter"",""1"",""2807""
","
","","","446","","","13","4329","672","&#9730;","elianto","#3366ff99"," "," ","1","0","[1300]","1","1","","","4329","5","1","1","win","go","1"
"pit-trial","132","993663","0.0-9.0","battery-v0.2","","""event"",""trial"",""time""
""focus"",""0"",""1""
""fullscreenenter"",""1"",""2807""
","
","""event"",""trial"",""time""
""focus"",""0"",""1""
","""event"",""trial"",""time""
""fullscreenenter"",""1"",""2807""
","
","","","676","","","13","4329","672","&#9733;","elianto","#3366ff99","-1"," ","0","0","[1528]","1","1","","","4329","6","2","2","win","no-go","0"
"pit-trial","133","997072","0.0-10.0","battery-v0.2","","""event"",""trial"",""time""
""focus"",""0"",""1""
""fullscreenenter"",""1"",""2807""
","
","""event"",""trial"",""time""
""focus"",""0"",""1""
","""event"",""trial"",""time""
""fullscreenenter"",""1"",""2807""
","
","","","538","","","13","4329","672","&#9728;","elianto","#f73b6a7A","-1"," ","0","0","[1394]","1","1","","","4329","7","0","4","lose","no-go","1"
"pit-trial","134","1000693","0.0-11.0","battery-v0.2","","""event"",""trial"",""time""
""focus"",""0"",""1""
""fullscreenenter"",""1"",""2807""
","
","""event"",""trial"",""time""
""focus"",""0"",""1""
","""event"",""trial"",""time""
""fullscreenenter"",""1"",""2807""
","
","","","757","","","13","4329","672","&#9752;","elianto","#f73b6a7A"," "," ","1","0","[1610]","1","1","","","4329","8","3","3","lose","go","0"
"pit-trial","135","1004750","0.0-12.0","battery-v0.2","","""event"",""trial"",""time""
""focus"",""0"",""1""
""fullscreenenter"",""1"",""2807""
","
","""event"",""trial"",""time""
""focus"",""0"",""1""
","""event"",""trial"",""time""
""fullscreenenter"",""1"",""2807""
","
","","","1191","","","13","4329","672","&#9728;","elianto","#f73b6a7A","-1"," ","0","-10","[2045]","1","1","","","4329","9","0","4","lose","no-go","0"
"pit-trial","136","1008266","0.0-13.0","battery-v0.2","","""event"",""trial"",""time""
""focus"",""0"",""1""
""fullscreenenter"",""1"",""2807""
","
","""event"",""trial"",""time""
""focus"",""0"",""1""
","""event"",""trial"",""time""
""fullscreenenter"",""1"",""2807""
","
","","","645","","","13","4329","672","&#9733;","elianto","#3366ff99","-1"," ","0","0","[1508]","1","1","","","4329","10","2","2","win","no-go","0"
"pit-trial","137","1011779","0.0-14.0","battery-v0.2","","""event"",""trial"",""time""
""focus"",""0"",""1""
""fullscreenenter"",""1"",""2807""
","
","""event"",""trial"",""time""
""focus"",""0"",""1""
","""event"",""trial"",""time""
""fullscreenenter"",""1"",""2807""
","
","","","644","","","13","4329","672","&#9730;","elianto","#3366ff99"," "," ","1","+10","[1497]","1","1","","","4329","11","1","1","win","go","0"
"pit-trial","138","1016507","0.0-15.0","battery-v0.2","","""event"",""trial"",""time""
""focus"",""0"",""1""
""fullscreenenter"",""1"",""2807""
","
","""event"",""trial"",""time""
""focus"",""0"",""1""
","""event"",""trial"",""time""
""fullscreenenter"",""1"",""2807""
","
","","","1868","","","13","4329","672","&#9752;","elianto","#f73b6a7A"," "," ","1","0","[2719]","1","1","","","4329","12","3","3","lose","go","0"
"pit-trial","139","1021367","0.0-16.0","battery-v0.2","","""event"",""trial"",""time""
""focus"",""0"",""1""
""fullscreenenter"",""1"",""2807""
","
","""event"",""trial"",""time""
""focus"",""0"",""1""
","""event"",""trial"",""time""
""fullscreenenter"",""1"",""2807""
","
","","","-1","","","13","4329","672","&#9728;","elianto","#f73b6a7A","-1","-1","1","0","[]","0","1","","","4329","13","0","4","lose","no-go","0"
"pit-trial","140","1025401","0.0-17.0","battery-v0.2","","""event"",""trial"",""time""
""focus"",""0"",""1""
""fullscreenenter"",""1"",""2807""
","
","""event"",""trial"",""time""
""focus"",""0"",""1""
","""event"",""trial"",""time""
""fullscreenenter"",""1"",""2807""
","
","","","1174","","","13","4329","672","&#9752;","elianto","#f73b6a7A"," "," ","1","0","[2028]","1","1","","","4329","14","3","3","lose","go","0"
"pit-trial","141","1028862","0.0-18.0","battery-v0.2","","""event"",""trial"",""time""
""focus"",""0"",""1""
""fullscreenenter"",""1"",""2807""
","
","""event"",""trial"",""time""
""focus"",""0"",""1""
","""event"",""trial"",""time""
""fullscreenenter"",""1"",""2807""
","
","","","604","","","13","4329","672","&#9733;","elianto","#3366ff99","-1"," ","0","0","[1457]","1","1","","","4329","15","2","2","win","no-go","0"
"pit-trial","142","1032286","0.0-19.0","battery-v0.2","","""event"",""trial"",""time""
""focus"",""0"",""1""
""fullscreenenter"",""1"",""2807""
","
","""event"",""trial"",""time""
""focus"",""0"",""1""
","""event"",""trial"",""time""
""fullscreenenter"",""1"",""2807""
","
","","","556","","","13","4329","672","&#9730;","elianto","#3366ff99"," "," ","1","+10","[1413]","1","1","","","4329","16","1","1","win","go","0"
"pit-trial","143","1035821","0.0-20.0","battery-v0.2","","""event"",""trial"",""time""
""focus"",""0"",""1""
""fullscreenenter"",""1"",""2807""
","
","""event"",""trial"",""time""
""focus"",""0"",""1""
","""event"",""trial"",""time""
""fullscreenenter"",""1"",""2807""
","
","","","676","","","13","4329","672","&#9733;","elianto","#3366ff99","-1"," ","0","0","[1531]","1","1","","","4329","17","2","2","win","no-go","0"
"pit-trial","144","1040681","0.0-21.0","battery-v0.2","","""event"",""trial"",""time""
""focus"",""0"",""1""
""fullscreenenter"",""1"",""2807""
","
","""event"",""trial"",""time""
""focus"",""0"",""1""
","""event"",""trial"",""time""
""fullscreenenter"",""1"",""2807""
","
","","","-1","","","13","4329","672","&#9728;","elianto","#f73b6a7A","-1","-1","1","-10","[3078]","1","1","","","4329","18","0","4","lose","no-go","1"
"pit-trial","145","1044593","0.0-22.0","battery-v0.2","","""event"",""trial"",""time""
""focus"",""0"",""1""
""fullscreenenter"",""1"",""2807""
","
","""event"",""trial"",""time""
""focus"",""0"",""1""
","""event"",""trial"",""time""
""fullscreenenter"",""1"",""2807""
","
","","","1035","","","13","4329","672","&#9752;","elianto","#f73b6a7A"," "," ","1","-10","[1898]","1","1","","","4329","19","3","3","lose","go","1"
"pit-trial","146","1048264","0.0-23.0","battery-v0.2","","""event"",""trial"",""time""
""focus"",""0"",""1""
""fullscreenenter"",""1"",""2807""
","
","""event"",""trial"",""time""
""focus"",""0"",""1""
","""event"",""trial"",""time""
""fullscreenenter"",""1"",""2807""
","
","","","807","","","13","4329","672","&#9730;","elianto","#3366ff99"," "," ","1","+10","[1658]","1","1","","","4329","20","1","1","win","go","0"
"pit-instructions","147","1061651","0.0-24.0","battery-v0.2","","""event"",""trial"",""time""
""focus"",""0"",""1""
""fullscreenenter"",""1"",""2807""
","
","""event"",""trial"",""time""
""focus"",""0"",""1""
","""event"",""trial"",""time""
""fullscreenenter"",""1"",""2807""
","
","","[{""page_index"":0,""viewing_time"":6452},{""page_index"":1,""viewing_time"":6934}]","13387","","","","","","","","","","","","","","","","","","","","","","","",""
"pit-trial","148","1065805","0.0-25.0","battery-v0.2","","""event"",""trial"",""time""
""focus"",""0"",""1""
""fullscreenenter"",""1"",""2807""
","
","""event"",""trial"",""time""
""focus"",""0"",""1""
","""event"",""trial"",""time""
""fullscreenenter"",""1"",""2807""
","
","","","1288","","","13","4329","672","a","elianto","#f73b6a7A"," "," ","1","0","[2141]","1","2","","","4329","21","2","3","lose","go","0"
"pit-trial","149","1069797","0.0-26.0","battery-v0.2","","""event"",""trial"",""time""
""focus"",""0"",""1""
""fullscreenenter"",""1"",""2807""
","
","""event"",""trial"",""time""
""focus"",""0"",""1""
","""event"",""trial"",""time""
""fullscreenenter"",""1"",""2807""
","
","","","1131","","","13","4329","672","u","elianto","#f73b6a7A"," "," ","1","0","[1990]","1","2","","","4329","22","0","3","lose","go","0"
"pit-trial","150","1074669","0.0-27.0","battery-v0.2","","""event"",""trial"",""time""
""focus"",""0"",""1""
""fullscreenenter"",""1"",""2807""
","
","""event"",""trial"",""time""
""focus"",""0"",""1""
","""event"",""trial"",""time""
""fullscreenenter"",""1"",""2807""
","
","","","-1","","","13","4329","672","g","elianto","#f73b6a7A","-1","-1","1","-10","[]","0","2","","","4329","23","3","4","lose","no-go","1"
"pit-trial","151","1078078","0.0-28.0","battery-v0.2","","""event"",""trial"",""time""
""focus"",""0"",""1""
""fullscreenenter"",""1"",""2807""
","
","""event"",""trial"",""time""
""focus"",""0"",""1""
","""event"",""trial"",""time""
""fullscreenenter"",""1"",""2807""
","
","","","551","","","13","4329","672","l","elianto","#3366ff99","-1"," ","0","0","[1406]","1","2","","","4329","24","1","2","win","no-go","0"
"pit-trial","152","1081799","0.0-29.0","battery-v0.2","","""event"",""trial"",""time""
""focus"",""0"",""1""
""fullscreenenter"",""1"",""2807""
","
","""event"",""trial"",""time""
""focus"",""0"",""1""
","""event"",""trial"",""time""
""fullscreenenter"",""1"",""2807""
","
","","","864","","","13","4329","672","a","elianto","#f73b6a7A"," "," ","1","0","[1716]","1","2","","","4329","25","2","3","lose","go","0"
"pit-trial","153","1085928","0.0-30.0","battery-v0.2","","""event"",""trial"",""time""
""focus"",""0"",""1""
""fullscreenenter"",""1"",""2807""
","
","""event"",""trial"",""time""
""focus"",""0"",""1""
","""event"",""trial"",""time""
""fullscreenenter"",""1"",""2807""
","
","","","1266","","","13","4329","672","u","elianto","#f73b6a7A"," "," ","1","0","[2116]","1","2","","","4329","26","0","3","lose","go","0"
"pit-trial","154","1090791","0.0-31.0","battery-v0.2","","""event"",""trial"",""time""
""focus"",""0"",""1""
""fullscreenenter"",""1"",""2807""
","
","""event"",""trial"",""time""
""focus"",""0"",""1""
","""event"",""trial"",""time""
""fullscreenenter"",""1"",""2807""
","
","","","-1","","","13","4329","672","g","elianto","#f73b6a7A","-1","-1","1","0","[]","0","2","","","4329","27","3","4","lose","no-go","0"
"pit-trial","155","1094327","0.0-32.0","battery-v0.2","","""event"",""trial"",""time""
""focus"",""0"",""1""
""fullscreenenter"",""1"",""2807""
","
","""event"",""trial"",""time""
""focus"",""0"",""1""
","""event"",""trial"",""time""
""fullscreenenter"",""1"",""2807""
","
","","","678","","","13","4329","672","l","elianto","#3366ff99","-1"," ","0","0","[1531]","1","2","","","4329","28","1","2","win","no-go","0"
"pit-trial","156","1098272","0.0-33.0","battery-v0.2","","""event"",""trial"",""time""
""focus"",""0"",""1""
""fullscreenenter"",""1"",""2807""
","
","""event"",""trial"",""time""
""focus"",""0"",""1""
","""event"",""trial"",""time""
""fullscreenenter"",""1"",""2807""
","
","","","1089","","","13","4329","672","a","elianto","#f73b6a7A"," "," ","1","0","[1940]","1","2","","","4329","29","2","3","lose","go","0"
"pit-trial","157","1103139","0.0-34.0","battery-v0.2","","""event"",""trial"",""time""
""focus"",""0"",""1""
""fullscreenenter"",""1"",""2807""
","
","""event"",""trial"",""time""
""focus"",""0"",""1""
","""event"",""trial"",""time""
""fullscreenenter"",""1"",""2807""
","
","","","-1","","","13","4329","672","g","elianto","#f73b6a7A","-1","-1","1","0","[]","0","2","","","4329","30","3","4","lose","no-go","0"
"pit-trial","158","1108020","0.0-35.0","battery-v0.2","","""event"",""trial"",""time""
""focus"",""0"",""1""
""fullscreenenter"",""1"",""2807""
","
","""event"",""trial"",""time""
""focus"",""0"",""1""
","""event"",""trial"",""time""
""fullscreenenter"",""1"",""2807""
","
","","","-1","","","13","4329","672","u","elianto","#f73b6a7A"," ","-1","0","-10","[]","0","2","","","4329","31","0","3","lose","go","0"
"pit-trial","159","1111476","0.0-36.0","battery-v0.2","","""event"",""trial"",""time""
""focus"",""0"",""1""
""fullscreenenter"",""1"",""2807""
","
","""event"",""trial"",""time""
""focus"",""0"",""1""
","""event"",""trial"",""time""
""fullscreenenter"",""1"",""2807""
","
","","","592","","","13","4329","672","l","elianto","#3366ff99","-1"," ","0","0","[1446]","1","2","","","4329","32","1","2","win","no-go","0"
"pit-trial","160","1115382","0.0-37.0","battery-v0.2","","""event"",""trial"",""time""
""focus"",""0"",""1""
""fullscreenenter"",""1"",""2807""
","
","""event"",""trial"",""time""
""focus"",""0"",""1""
","""event"",""trial"",""time""
""fullscreenenter"",""1"",""2807""
","
","","","1047","","","13","4329","672","g","elianto","#f73b6a7A","-1"," ","0","-10","[1903]","1","2","","","4329","33","3","4","lose","no-go","0"
"pit-trial","161","1119069","0.0-38.0","battery-v0.2","","""event"",""trial"",""time""
""focus"",""0"",""1""
""fullscreenenter"",""1"",""2807""
","
","""event"",""trial"",""time""
""focus"",""0"",""1""
","""event"",""trial"",""time""
""fullscreenenter"",""1"",""2807""
","
","","","832","","","13","4329","672","a","elianto","#f73b6a7A"," "," ","1","0","[1684]","1","2","","","4329","34","2","3","lose","go","0"
"pit-trial","162","1122534","0.0-39.0","battery-v0.2","","""event"",""trial"",""time""
""focus"",""0"",""1""
""fullscreenenter"",""1"",""2807""
","
","""event"",""trial"",""time""
""focus"",""0"",""1""
","""event"",""trial"",""time""
""fullscreenenter"",""1"",""2807""
","
","","","595","","","13","4329","672","l","elianto","#3366ff99","-1"," ","0","+10","[1453]","1","2","","","4329","35","1","2","win","no-go","1"
"pit-trial","163","1126815","0.0-40.0","battery-v0.2","","""event"",""trial"",""time""
""focus"",""0"",""1""
""fullscreenenter"",""1"",""2807""
","
","""event"",""trial"",""time""
""focus"",""0"",""1""
","""event"",""trial"",""time""
""fullscreenenter"",""1"",""2807""
","
","","","1414","","","13","4329","672","u","elianto","#f73b6a7A"," "," ","1","0","[2269]","1","2","","","4329","36","0","3","lose","go","0"
"pit-trial","164","1130777","0.0-41.0","battery-v0.2","","""event"",""trial"",""time""
""focus"",""0"",""1""
""fullscreenenter"",""1"",""2807""
","
","""event"",""trial"",""time""
""focus"",""0"",""1""
","""event"",""trial"",""time""
""fullscreenenter"",""1"",""2807""
","
","","","1089","","","13","4329","672","a","elianto","#f73b6a7A"," "," ","1","0","[1947]","1","2","","","4329","37","2","3","lose","go","0"
"pit-trial","165","1134643","0.0-42.0","battery-v0.2","","""event"",""trial"",""time""
""focus"",""0"",""1""
""fullscreenenter"",""1"",""2807""
","
","""event"",""trial"",""time""
""focus"",""0"",""1""
","""event"",""trial"",""time""
""fullscreenenter"",""1"",""2807""
","
","","","984","","","13","4329","672","g","elianto","#f73b6a7A","-1"," ","0","-10","[1848]","1","2","","","4329","38","3","4","lose","no-go","0"
"pit-trial","166","1138468","0.0-43.0","battery-v0.2","","""event"",""trial"",""time""
""focus"",""0"",""1""
""fullscreenenter"",""1"",""2807""
","
","""event"",""trial"",""time""
""focus"",""0"",""1""
","""event"",""trial"",""time""
""fullscreenenter"",""1"",""2807""
","
","","","958","","","13","4329","672","u","elianto","#f73b6a7A"," "," ","1","0","[1815]","1","2","","","4329","39","0","3","lose","go","0"
"pit-trial","167","1142198","0.0-44.0","battery-v0.2","","""event"",""trial"",""time""
""focus"",""0"",""1""
""fullscreenenter"",""1"",""2807""
","
","""event"",""trial"",""time""
""focus"",""0"",""1""
","""event"",""trial"",""time""
""fullscreenenter"",""1"",""2807""
","
","","","875","","","13","4329","672","l","elianto","#3366ff99","-1"," ","0","+10","[1727]","1","2","","","4329","40","1","2","win","no-go","1"
"pit-trial","168","1146155","0.0-45.0","battery-v0.2","","""event"",""trial"",""time""
""focus"",""0"",""1""
""fullscreenenter"",""1"",""2807""
","
","""event"",""trial"",""time""
""focus"",""0"",""1""
","""event"",""trial"",""time""
""fullscreenenter"",""1"",""2807""
","
","","","1097","","","13","4329","672","a","elianto","#f73b6a7A"," "," ","1","0","[1950]","1","2","","","4329","41","2","3","lose","go","0"
"pit-trial","169","1150425","0.0-46.0","battery-v0.2","","""event"",""trial"",""time""
""focus"",""0"",""1""
""fullscreenenter"",""1"",""2807""
","
","""event"",""trial"",""time""
""focus"",""0"",""1""
","""event"",""trial"",""time""
""fullscreenenter"",""1"",""2807""
","
","","","1402","","","13","4329","672","u","elianto","#f73b6a7A"," "," ","1","-10","[2256]","1","2","","","4329","42","0","3","lose","go","1"
"pit-trial","170","1155295","0.0-47.0","battery-v0.2","","""event"",""trial"",""time""
""focus"",""0"",""1""
""fullscreenenter"",""1"",""2807""
","
","""event"",""trial"",""time""
""focus"",""0"",""1""
","""event"",""trial"",""time""
""fullscreenenter"",""1"",""2807""
","
","","","-1","","","13","4329","672","g","elianto","#f73b6a7A","-1","-1","1","-10","[]","0","2","","","4329","43","3","4","lose","no-go","1"
"pit-trial","171","1158655","0.0-48.0","battery-v0.2","","""event"",""trial"",""time""
""focus"",""0"",""1""
""fullscreenenter"",""1"",""2807""
","
","""event"",""trial"",""time""
""focus"",""0"",""1""
","""event"",""trial"",""time""
""fullscreenenter"",""1"",""2807""
","
","","","501","","","13","4329","672","l","elianto","#3366ff99","-1"," ","0","0","[1356]","1","2","","","4329","44","1","2","win","no-go","0"
"pit-trial","172","1162454","0.0-49.0","battery-v0.2","","""event"",""trial"",""time""
""focus"",""0"",""1""
""fullscreenenter"",""1"",""2807""
","
","""event"",""trial"",""time""
""focus"",""0"",""1""
","""event"",""trial"",""time""
""fullscreenenter"",""1"",""2807""
","
","","","944","","","13","4329","672","a","elianto","#f73b6a7A"," "," ","1","0","[1795]","1","2","","","4329","45","2","3","lose","go","0"
"pit-trial","173","1166636","0.0-50.0","battery-v0.2","","""event"",""trial"",""time""
""focus"",""0"",""1""
""fullscreenenter"",""1"",""2807""
","
","""event"",""trial"",""time""
""focus"",""0"",""1""
","""event"",""trial"",""time""
""fullscreenenter"",""1"",""2807""
","
","","","1317","","","13","4329","672","g","elianto","#f73b6a7A","-1"," ","0","-10","[2180]","1","2","","","4329","46","3","4","lose","no-go","0"
"pit-trial","174","1170150","0.0-51.0","battery-v0.2","","""event"",""trial"",""time""
""focus"",""0"",""1""
""fullscreenenter"",""1"",""2807""
","
","""event"",""trial"",""time""
""focus"",""0"",""1""
","""event"",""trial"",""time""
""fullscreenenter"",""1"",""2807""
","
","","","648","","","13","4329","672","l","elianto","#3366ff99","-1"," ","0","0","[1501]","1","2","","","4329","47","1","2","win","no-go","0"
"pit-trial","175","1175018","0.0-52.0","battery-v0.2","","""event"",""trial"",""time""
""focus"",""0"",""1""
""fullscreenenter"",""1"",""2807""
","
","""event"",""trial"",""time""
""focus"",""0"",""1""
","""event"",""trial"",""time""
""fullscreenenter"",""1"",""2807""
","
","","","-1","","","13","4329","672","u","elianto","#f73b6a7A"," ","-1","0","-10","[]","0","2","","","4329","48","0","3","lose","go","0"
"pit-trial","176","1178385","0.0-53.0","battery-v0.2","","""event"",""trial"",""time""
""focus"",""0"",""1""
""fullscreenenter"",""1"",""2807""
","
","""event"",""trial"",""time""
""focus"",""0"",""1""
","""event"",""trial"",""time""
""fullscreenenter"",""1"",""2807""
","
","","","495","","","13","4329","672","l","elianto","#3366ff99","-1"," ","0","0","[1352]","1","2","","","4329","49","1","2","win","no-go","0"
"pit-trial","177","1182048","0.0-54.0","battery-v0.2","","""event"",""trial"",""time""
""focus"",""0"",""1""
""fullscreenenter"",""1"",""2807""
","
","""event"",""trial"",""time""
""focus"",""0"",""1""
","""event"",""trial"",""time""
""fullscreenenter"",""1"",""2807""
","
","","","795","","","13","4329","672","g","elianto","#f73b6a7A","-1"," ","0","0","[1650]","1","2","","","4329","50","3","4","lose","no-go","1"
"pit-trial","178","1186918","0.0-55.0","battery-v0.2","","""event"",""trial"",""time""
""focus"",""0"",""1""
""fullscreenenter"",""1"",""2807""
","
","""event"",""trial"",""time""
""focus"",""0"",""1""
","""event"",""trial"",""time""
""fullscreenenter"",""1"",""2807""
","
","","","-1","","","13","4329","672","u","elianto","#f73b6a7A"," ","-1","0","-10","[]","0","2","","","4329","51","0","3","lose","go","0"
"pit-trial","179","1190810","0.0-56.0","battery-v0.2","","""event"",""trial"",""time""
""focus"",""0"",""1""
""fullscreenenter"",""1"",""2807""
","
","""event"",""trial"",""time""
""focus"",""0"",""1""
","""event"",""trial"",""time""
""fullscreenenter"",""1"",""2807""
","
","","","1023","","","13","4329","672","a","elianto","#f73b6a7A"," "," ","1","0","[1876]","1","2","","","4329","52","2","3","lose","go","0"
"pit-trial","180","1194158","0.0-57.0","battery-v0.2","","""event"",""trial"",""time""
""focus"",""0"",""1""
""fullscreenenter"",""1"",""2807""
","
","""event"",""trial"",""time""
""focus"",""0"",""1""
","""event"",""trial"",""time""
""fullscreenenter"",""1"",""2807""
","
","","","480","","","13","4329","672","l","elianto","#3366ff99","-1"," ","0","0","[1337]","1","2","","","4329","53","1","2","win","no-go","0"
"pit-trial","181","1199030","0.0-58.0","battery-v0.2","","""event"",""trial"",""time""
""focus"",""0"",""1""
""fullscreenenter"",""1"",""2807""
","
","""event"",""trial"",""time""
""focus"",""0"",""1""
","""event"",""trial"",""time""
""fullscreenenter"",""1"",""2807""
","
","","","-1","","","13","4329","672","g","elianto","#f73b6a7A","-1","-1","1","0","[]","0","2","","","4329","54","3","4","lose","no-go","0"
"pit-trial","182","1202829","0.0-59.0","battery-v0.2","","""event"",""trial"",""time""
""focus"",""0"",""1""
""fullscreenenter"",""1"",""2807""
","
","""event"",""trial"",""time""
""focus"",""0"",""1""
","""event"",""trial"",""time""
""fullscreenenter"",""1"",""2807""
","
","","","930","","","13","4329","672","u","elianto","#f73b6a7A"," "," ","1","0","[1787]","1","2","","","4329","55","0","3","lose","go","0"
"pit-trial","183","1206754","0.0-60.0","battery-v0.2","","""event"",""trial"",""time""
""focus"",""0"",""1""
""fullscreenenter"",""1"",""2807""
","
","""event"",""trial"",""time""
""focus"",""0"",""1""
","""event"",""trial"",""time""
""fullscreenenter"",""1"",""2807""
","
","","","1065","","","13","4329","672","a","elianto","#f73b6a7A"," "," ","1","-10","[1917]","1","2","","","4329","56","2","3","lose","go","1"
"pit-trial","184","1210111","0.0-61.0","battery-v0.2","","""event"",""trial"",""time""
""focus"",""0"",""1""
""fullscreenenter"",""1"",""2807""
","
","""event"",""trial"",""time""
""focus"",""0"",""1""
","""event"",""trial"",""time""
""fullscreenenter"",""1"",""2807""
","
","","","498","","","13","4329","672","p","elianto","#3366ff99"," "," ","1","+10","[1352]","1","2","","","4329","57","4","1","win","go","0"
"pit-trial","185","1214982","0.0-62.0","battery-v0.2","","""event"",""trial"",""time""
""focus"",""0"",""1""
""fullscreenenter"",""1"",""2807""
","
","""event"",""trial"",""time""
""focus"",""0"",""1""
","""event"",""trial"",""time""
""fullscreenenter"",""1"",""2807""
","
","","","-1","","","13","4329","672","g","elianto","#f73b6a7A","-1","-1","1","0","[]","0","2","","","4329","58","3","4","lose","no-go","0"
"pit-trial","186","1219852","0.0-63.0","battery-v0.2","","""event"",""trial"",""time""
""focus"",""0"",""1""
""fullscreenenter"",""1"",""2807""
","
","""event"",""trial"",""time""
""focus"",""0"",""1""
","""event"",""trial"",""time""
""fullscreenenter"",""1"",""2807""
","
","","","-1","","","13","4329","672","u","elianto","#f73b6a7A"," ","-1","0","-10","[]","0","2","","","4329","59","0","3","lose","go","0"
"pit-trial","187","1224717","0.0-64.0","battery-v0.2","","""event"",""trial"",""time""
""focus"",""0"",""1""
""fullscreenenter"",""1"",""2807""
","
","""event"",""trial"",""time""
""focus"",""0"",""1""
","""event"",""trial"",""time""
""fullscreenenter"",""1"",""2807""
","
","","","-1","","","13","4329","672","a","elianto","#f73b6a7A"," ","-1","0","-10","[]","0","2","","","4329","60","2","3","lose","go","0"
"pit-trial","188","1228156","0.0-65.0","battery-v0.2","","""event"",""trial"",""time""
""focus"",""0"",""1""
""fullscreenenter"",""1"",""2807""
","
","""event"",""trial"",""time""
""focus"",""0"",""1""
","""event"",""trial"",""time""
""fullscreenenter"",""1"",""2807""
","
","","","581","","","13","4329","672","l","elianto","#3366ff99","-1"," ","0","0","[1437]","1","2","","","4329","61","1","2","win","no-go","0"
"pit-trial","189","1231765","0.0-66.0","battery-v0.2","","""event"",""trial"",""time""
""focus"",""0"",""1""
""fullscreenenter"",""1"",""2807""
","
","""event"",""trial"",""time""
""focus"",""0"",""1""
","""event"",""trial"",""time""
""fullscreenenter"",""1"",""2807""
","
","","","745","","","13","4329","672","p","elianto","#3366ff99"," "," ","1","+10","[1599]","1","2","","","4329","62","4","1","win","go","0"
"pit-trial","190","1236641","0.0-67.0","battery-v0.2","","""event"",""trial"",""time""
""focus"",""0"",""1""
""fullscreenenter"",""1"",""2807""
","
","""event"",""trial"",""time""
""focus"",""0"",""1""
","""event"",""trial"",""time""
""fullscreenenter"",""1"",""2807""
","
","","","-1","","","13","4329","672","g","elianto","#f73b6a7A","-1","-1","1","-10","[]","0","2","","","4329","63","3","4","lose","no-go","1"
"pit-trial","191","1239994","0.0-68.0","battery-v0.2","","""event"",""trial"",""time""
""focus"",""0"",""1""
""fullscreenenter"",""1"",""2807""
","
","""event"",""trial"",""time""
""focus"",""0"",""1""
","""event"",""trial"",""time""
""fullscreenenter"",""1"",""2807""
","
","","","489","","","13","4329","672","a","elianto","#f73b6a7A"," "," ","1","-10","[1339]","1","2","","","4329","64","2","3","lose","go","1"
"pit-trial","192","1243758","0.0-69.0","battery-v0.2","","""event"",""trial"",""time""
""focus"",""0"",""1""
""fullscreenenter"",""1"",""2807""
","
","""event"",""trial"",""time""
""focus"",""0"",""1""
","""event"",""trial"",""time""
""fullscreenenter"",""1"",""2807""
","
","","","908","","","13","4329","672","g","elianto","#f73b6a7A","-1"," ","0","0","[1760]","1","2","","","4329","65","3","4","lose","no-go","1"
"pit-trial","193","1247081","0.0-70.0","battery-v0.2","","""event"",""trial"",""time""
""focus"",""0"",""1""
""fullscreenenter"",""1"",""2807""
","
","""event"",""trial"",""time""
""focus"",""0"",""1""
","""event"",""trial"",""time""
""fullscreenenter"",""1"",""2807""
","
","","","455","","","13","4329","672","p","elianto","#3366ff99"," "," ","1","+10","[1309]","1","2","","","4329","66","4","1","win","go","0"
"pit-trial","194","1250425","0.0-71.0","battery-v0.2","","""event"",""trial"",""time""
""focus"",""0"",""1""
""fullscreenenter"",""1"",""2807""
","
","""event"",""trial"",""time""
""focus"",""0"",""1""
","""event"",""trial"",""time""
""fullscreenenter"",""1"",""2807""
","
","","","474","","","13","4329","672","l","elianto","#3366ff99","-1"," ","0","0","[1329]","1","2","","","4329","67","1","2","win","no-go","0"
"pit-trial","195","1253835","0.0-72.0","battery-v0.2","","""event"",""trial"",""time""
""focus"",""0"",""1""
""fullscreenenter"",""1"",""2807""
","
","""event"",""trial"",""time""
""focus"",""0"",""1""
","""event"",""trial"",""time""
""fullscreenenter"",""1"",""2807""
","
","","","534","","","13","4329","672","s","elianto","#3366ff99","-1"," ","0","+10","[1395]","1","2","","","4329","68","5","2","win","no-go","1"
"pit-trial","196","1257409","0.0-73.0","battery-v0.2","","""event"",""trial"",""time""
""focus"",""0"",""1""
""fullscreenenter"",""1"",""2807""
","
","""event"",""trial"",""time""
""focus"",""0"",""1""
","""event"",""trial"",""time""
""fullscreenenter"",""1"",""2807""
","
","","","704","","","13","4329","672","s","elianto","#3366ff99","-1"," ","0","0","[1560]","1","2","","","4329","69","5","2","win","no-go","0"
"pit-trial","197","1261686","0.0-74.0","battery-v0.2","","""event"",""trial"",""time""
""focus"",""0"",""1""
""fullscreenenter"",""1"",""2807""
","
","""event"",""trial"",""time""
""focus"",""0"",""1""
","""event"",""trial"",""time""
""fullscreenenter"",""1"",""2807""
","
","","","1422","","","13","4329","672","a","elianto","#f73b6a7A"," "," ","1","0","[2273]","1","2","","","4329","70","2","3","lose","go","0"
"pit-trial","198","1266203","0.0-75.0","battery-v0.2","","""event"",""trial"",""time""
""focus"",""0"",""1""
""fullscreenenter"",""1"",""2807""
","
","""event"",""trial"",""time""
""focus"",""0"",""1""
","""event"",""trial"",""time""
""fullscreenenter"",""1"",""2807""
","
","","","1655","","","13","4329","672","l","elianto","#3366ff99","-1"," ","0","+10","[2508]","1","2","","","4329","71","1","2","win","no-go","1"
"pit-trial","199","1269685","0.0-76.0","battery-v0.2","","""event"",""trial"",""time""
""focus"",""0"",""1""
""fullscreenenter"",""1"",""2807""
","
","""event"",""trial"",""time""
""focus"",""0"",""1""
","""event"",""trial"",""time""
""fullscreenenter"",""1"",""2807""
","
","","","617","","","13","4329","672","p","elianto","#3366ff99"," "," ","1","0","[1480]","1","2","","","4329","72","4","1","win","go","1"
"pit-trial","200","1273125","0.0-77.0","battery-v0.2","","""event"",""trial"",""time""
""focus"",""0"",""1""
""fullscreenenter"",""1"",""2807""
","
","""event"",""trial"",""time""
""focus"",""0"",""1""
","""event"",""trial"",""time""
""fullscreenenter"",""1"",""2807""
","
","","","584","","","13","4329","672","s","elianto","#3366ff99","-1"," ","0","0","[1437]","1","2","","","4329","73","5","2","win","no-go","0"
"pit-trial","201","1276608","0.0-78.0","battery-v0.2","","""event"",""trial"",""time""
""focus"",""0"",""1""
""fullscreenenter"",""1"",""2807""
","
","""event"",""trial"",""time""
""focus"",""0"",""1""
","""event"",""trial"",""time""
""fullscreenenter"",""1"",""2807""
","
","","","623","","","13","4329","672","p","elianto","#3366ff99"," "," ","1","+10","[1478]","1","2","","","4329","74","4","1","win","go","0"
"pit-trial","202","1281471","0.0-79.0","battery-v0.2","","""event"",""trial"",""time""
""focus"",""0"",""1""
""fullscreenenter"",""1"",""2807""
","
","""event"",""trial"",""time""
""focus"",""0"",""1""
","""event"",""trial"",""time""
""fullscreenenter"",""1"",""2807""
","
","","","-1","","","13","4329","672","g","elianto","#f73b6a7A","-1","-1","1","0","[]","0","2","","","4329","75","3","4","lose","no-go","0"
"pit-trial","203","1286331","0.0-80.0","battery-v0.2","","""event"",""trial"",""time""
""focus"",""0"",""1""
""fullscreenenter"",""1"",""2807""
","
","""event"",""trial"",""time""
""focus"",""0"",""1""
","""event"",""trial"",""time""
""fullscreenenter"",""1"",""2807""
","
","","","-1","","","13","4329","672","l","elianto","#3366ff99","-1","-1","1","+10","[]","0","2","","","4329","76","1","2","win","no-go","0"
"pit-trial","204","1291200","0.0-81.0","battery-v0.2","","""event"",""trial"",""time""
""focus"",""0"",""1""
""fullscreenenter"",""1"",""2807""
","
","""event"",""trial"",""time""
""focus"",""0"",""1""
","""event"",""trial"",""time""
""fullscreenenter"",""1"",""2807""
","
","","","-1","","","13","4329","672","g","elianto","#f73b6a7A","-1","-1","1","0","[3072]","1","2","","","4329","77","3","4","lose","no-go","0"
"pit-trial","205","1294784","0.0-82.0","battery-v0.2","","""event"",""trial"",""time""
""focus"",""0"",""1""
""fullscreenenter"",""1"",""2807""
","
","""event"",""trial"",""time""
""focus"",""0"",""1""
","""event"",""trial"",""time""
""fullscreenenter"",""1"",""2807""
","
","","","728","","","13","4329","672","p","elianto","#3366ff99"," "," ","1","0","[1579]","1","2","","","4329","78","4","1","win","go","1"
"pit-trial","206","1298214","0.0-83.0","battery-v0.2","","""event"",""trial"",""time""
""focus"",""0"",""1""
""fullscreenenter"",""1"",""2807""
","
","""event"",""trial"",""time""
""focus"",""0"",""1""
","""event"",""trial"",""time""
""fullscreenenter"",""1"",""2807""
","
","","","556","","","13","4329","672","p","elianto","#3366ff99"," "," ","1","+10","[1419]","1","2","","","4329","79","4","1","win","go","0"
"pit-trial","207","1301703","0.0-84.0","battery-v0.2","","""event"",""trial"",""time""
""focus"",""0"",""1""
""fullscreenenter"",""1"",""2807""
","
","""event"",""trial"",""time""
""focus"",""0"",""1""
","""event"",""trial"",""time""
""fullscreenenter"",""1"",""2807""
","
","","","622","","","13","4329","672","s","elianto","#3366ff99","-1"," ","0","0","[1476]","1","2","","","4329","80","5","2","win","no-go","0"
"pit-trial","208","1306569","0.0-85.0","battery-v0.2","","""event"",""trial"",""time""
""focus"",""0"",""1""
""fullscreenenter"",""1"",""2807""
","
","""event"",""trial"",""time""
""focus"",""0"",""1""
","""event"",""trial"",""time""
""fullscreenenter"",""1"",""2807""
","
","","","-1","","","13","4329","672","g","elianto","#f73b6a7A","-1","-1","1","-10","[]","0","2","","","4329","81","3","4","lose","no-go","1"
"pit-trial","209","1310023","0.0-86.0","battery-v0.2","","""event"",""trial"",""time""
""focus"",""0"",""1""
""fullscreenenter"",""1"",""2807""
","
","""event"",""trial"",""time""
""focus"",""0"",""1""
","""event"",""trial"",""time""
""fullscreenenter"",""1"",""2807""
","
","","","598","","","13","4329","672","p","elianto","#3366ff99"," "," ","1","+10","[1450]","1","2","","","4329","82","4","1","win","go","0"
"pit-trial","210","1313379","0.0-87.0","battery-v0.2","","""event"",""trial"",""time""
""focus"",""0"",""1""
""fullscreenenter"",""1"",""2807""
","
","""event"",""trial"",""time""
""focus"",""0"",""1""
","""event"",""trial"",""time""
""fullscreenenter"",""1"",""2807""
","
","","","496","","","13","4329","672","s","elianto","#3366ff99","-1"," ","0","0","[1347]","1","2","","","4329","83","5","2","win","no-go","0"
"pit-trial","211","1317328","0.0-88.0","battery-v0.2","","""event"",""trial"",""time""
""focus"",""0"",""1""
""fullscreenenter"",""1"",""2807""
","
","""event"",""trial"",""time""
""focus"",""0"",""1""
","""event"",""trial"",""time""
""fullscreenenter"",""1"",""2807""
","
","","","1087","","","13","4329","672","e","elianto","#f73b6a7A","-1"," ","0","-10","[1943]","1","2","","","4329","84","7","4","lose","no-go","0"
"pit-trial","212","1320813","0.0-89.0","battery-v0.2","","""event"",""trial"",""time""
""focus"",""0"",""1""
""fullscreenenter"",""1"",""2807""
","
","""event"",""trial"",""time""
""focus"",""0"",""1""
","""event"",""trial"",""time""
""fullscreenenter"",""1"",""2807""
","
","","","618","","","13","4329","672","s","elianto","#3366ff99","-1"," ","0","0","[1475]","1","2","","","4329","85","5","2","win","no-go","0"
"pit-trial","213","1325680","0.0-90.0","battery-v0.2","","""event"",""trial"",""time""
""focus"",""0"",""1""
""fullscreenenter"",""1"",""2807""
","
","""event"",""trial"",""time""
""focus"",""0"",""1""
","""event"",""trial"",""time""
""fullscreenenter"",""1"",""2807""
","
","","","-1","","","13","4329","672","e","elianto","#f73b6a7A","-1","-1","1","0","[]","0","2","","","4329","86","7","4","lose","no-go","0"
"pit-trial","214","1329308","0.0-91.0","battery-v0.2","","""event"",""trial"",""time""
""focus"",""0"",""1""
""fullscreenenter"",""1"",""2807""
","
","""event"",""trial"",""time""
""focus"",""0"",""1""
","""event"",""trial"",""time""
""fullscreenenter"",""1"",""2807""
","
","","","764","","","13","4329","672","p","elianto","#3366ff99"," "," ","1","+10","[1619]","1","2","","","4329","87","4","1","win","go","0"
"pit-trial","215","1334174","0.0-92.0","battery-v0.2","","""event"",""trial"",""time""
""focus"",""0"",""1""
""fullscreenenter"",""1"",""2807""
","
","""event"",""trial"",""time""
""focus"",""0"",""1""
","""event"",""trial"",""time""
""fullscreenenter"",""1"",""2807""
","
","","","-1","","","13","4329","672","w","elianto","#f73b6a7A"," ","-1","0","-10","[]","0","2","","","4329","88","6","3","lose","go","0"
"pit-trial","216","1337923","0.0-93.0","battery-v0.2","","""event"",""trial"",""time""
""focus"",""0"",""1""
""fullscreenenter"",""1"",""2807""
","
","""event"",""trial"",""time""
""focus"",""0"",""1""
","""event"",""trial"",""time""
""fullscreenenter"",""1"",""2807""
","
","","","887","","","13","4329","672","w","elianto","#f73b6a7A"," "," ","1","0","[1742]","1","2","","","4329","89","6","3","lose","go","0"
"pit-trial","217","1341395","0.0-94.0","battery-v0.2","","""event"",""trial"",""time""
""focus"",""0"",""1""
""fullscreenenter"",""1"",""2807""
","
","""event"",""trial"",""time""
""focus"",""0"",""1""
","""event"",""trial"",""time""
""fullscreenenter"",""1"",""2807""
","
","","","608","","","13","4329","672","s","elianto","#3366ff99","-1"," ","0","0","[1464]","1","2","","","4329","90","5","2","win","no-go","0"
"pit-trial","218","1346264","0.0-95.0","battery-v0.2","","""event"",""trial"",""time""
""focus"",""0"",""1""
""fullscreenenter"",""1"",""2807""
","
","""event"",""trial"",""time""
""focus"",""0"",""1""
","""event"",""trial"",""time""
""fullscreenenter"",""1"",""2807""
","
","","","-1","","","13","4329","672","e","elianto","#f73b6a7A","-1","-1","1","0","[]","0","2","","","4329","91","7","4","lose","no-go","0"
"pit-trial","219","1349770","0.0-96.0","battery-v0.2","","""event"",""trial"",""time""
""focus"",""0"",""1""
""fullscreenenter"",""1"",""2807""
","
","""event"",""trial"",""time""
""focus"",""0"",""1""
","""event"",""trial"",""time""
""fullscreenenter"",""1"",""2807""
","
","","","644","","","13","4329","672","p","elianto","#3366ff99"," "," ","1","0","[1498]","1","2","","","4329","92","4","1","win","go","1"
"pit-trial","220","1353626","0.0-97.0","battery-v0.2","","""event"",""trial"",""time""
""focus"",""0"",""1""
""fullscreenenter"",""1"",""2807""
","
","""event"",""trial"",""time""
""focus"",""0"",""1""
","""event"",""trial"",""time""
""fullscreenenter"",""1"",""2807""
","
","","","995","","","13","4329","672","d","elianto","#3366ff99"," "," ","1","+10","[1849]","1","2","","","4329","93","8","1","win","go","0"
"pit-trial","221","1357651","0.0-98.0","battery-v0.2","","""event"",""trial"",""time""
""focus"",""0"",""1""
""fullscreenenter"",""1"",""2807""
","
","""event"",""trial"",""time""
""focus"",""0"",""1""
","""event"",""trial"",""time""
""fullscreenenter"",""1"",""2807""
","
","","","1156","","","13","4329","672","e","elianto","#f73b6a7A","-1"," ","0","-10","[2016]","1","2","","","4329","94","7","4","lose","no-go","0"
"pit-trial","222","1362508","0.0-99.0","battery-v0.2","","""event"",""trial"",""time""
""focus"",""0"",""1""
""fullscreenenter"",""1"",""2807""
","
","""event"",""trial"",""time""
""focus"",""0"",""1""
","""event"",""trial"",""time""
""fullscreenenter"",""1"",""2807""
","
","","","-1","","","13","4329","672","w","elianto","#f73b6a7A"," ","-1","0","-10","[]","0","2","","","4329","95","6","3","lose","go","0"
"pit-trial","223","1365829","0.0-100.0","battery-v0.2","","""event"",""trial"",""time""
""focus"",""0"",""1""
""fullscreenenter"",""1"",""2807""
","
","""event"",""trial"",""time""
""focus"",""0"",""1""
","""event"",""trial"",""time""
""fullscreenenter"",""1"",""2807""
","
","","","458","","","13","4329","672","s","elianto","#3366ff99","-1"," ","0","0","[1310]","1","2","","","4329","96","5","2","win","no-go","0"
"pit-trial","224","1369302","0.0-101.0","battery-v0.2","","""event"",""trial"",""time""
""focus"",""0"",""1""
""fullscreenenter"",""1"",""2807""
","
","""event"",""trial"",""time""
""focus"",""0"",""1""
","""event"",""trial"",""time""
""fullscreenenter"",""1"",""2807""
","
","","","607","","","13","4329","672","d","elianto","#3366ff99"," "," ","1","+10","[1461]","1","2","","","4329","97","8","1","win","go","0"
"pit-trial","225","1374176","0.0-102.0","battery-v0.2","","""event"",""trial"",""time""
""focus"",""0"",""1""
""fullscreenenter"",""1"",""2807""
","
","""event"",""trial"",""time""
""focus"",""0"",""1""
","""event"",""trial"",""time""
""fullscreenenter"",""1"",""2807""
","
","","","-1","","","13","4329","672","w","elianto","#f73b6a7A"," ","-1","0","0","[]","0","2","","","4329","98","6","3","lose","go","1"
"pit-trial","226","1377496","0.0-103.0","battery-v0.2","","""event"",""trial"",""time""
""focus"",""0"",""1""
""fullscreenenter"",""1"",""2807""
","
","""event"",""trial"",""time""
""focus"",""0"",""1""
","""event"",""trial"",""time""
""fullscreenenter"",""1"",""2807""
","
","","","460","","","13","4329","672","s","elianto","#3366ff99","-1"," ","0","0","[1317,1589]","2","2","","","4329","99","5","2","win","no-go","0"
"pit-trial","227","1381293","0.0-104.0","battery-v0.2","","""event"",""trial"",""time""
""focus"",""0"",""1""
""fullscreenenter"",""1"",""2807""
","
","""event"",""trial"",""time""
""focus"",""0"",""1""
","""event"",""trial"",""time""
""fullscreenenter"",""1"",""2807""
","
","","","930","","","13","4329","672","e","elianto","#f73b6a7A","-1"," ","0","-10","[1786]","1","2","","","4329","100","7","4","lose","no-go","0"
"pit-trial","228","1384638","0.0-105.0","battery-v0.2","","""event"",""trial"",""time""
""focus"",""0"",""1""
""fullscreenenter"",""1"",""2807""
","
","""event"",""trial"",""time""
""focus"",""0"",""1""
","""event"",""trial"",""time""
""fullscreenenter"",""1"",""2807""
","
","","","471","","","13","4329","672","j","elianto","#3366ff99"," "," ","1","+10","[1334]","1","2","","","4329","101","9","1","win","go","0"
"pit-trial","229","1389500","0.0-106.0","battery-v0.2","","""event"",""trial"",""time""
""focus"",""0"",""1""
""fullscreenenter"",""1"",""2807""
","
","""event"",""trial"",""time""
""focus"",""0"",""1""
","""event"",""trial"",""time""
""fullscreenenter"",""1"",""2807""
","
","","","-1","","","13","4329","672","e","elianto","#f73b6a7A","-1","-1","1","0","[]","0","2","","","4329","102","7","4","lose","no-go","0"
"pit-trial","230","1392998","0.0-107.0","battery-v0.2","","""event"",""trial"",""time""
""focus"",""0"",""1""
""fullscreenenter"",""1"",""2807""
","
","""event"",""trial"",""time""
""focus"",""0"",""1""
","""event"",""trial"",""time""
""fullscreenenter"",""1"",""2807""
","
","","","631","","","13","4329","672","s","elianto","#3366ff99","-1"," ","0","0","[1486]","1","2","","","4329","103","5","2","win","no-go","0"
"pit-trial","231","1396361","0.0-108.0","battery-v0.2","","""event"",""trial"",""time""
""focus"",""0"",""1""
""fullscreenenter"",""1"",""2807""
