"trial_type","trial_index","time_elapsed","internal_node_id","task_version","subject_id","interactions","blur_events","focus_events","fullscreenenter_events","fullscreenexit_events","success","view_history","rt","responses","num_errors","age","subject","participantId","rune","rune_set","hex","correct","choice","accuracy","outcome","keys","total_keys","block","practice","value","sub","trial","stimulus","robot","valence","action","sham"
"pavlovia","0","8","0.0-0.0","battery-v0.2","","""event"",""trial"",""time""
""fullscreenenter"",""1"",""2184""
","
","
","""event"",""trial"",""time""
""fullscreenenter"",""1"",""2184""
","
","","","","","","","","","","","","","","","","","","","","","","","","","","",""
"fullscreen","1","3186","0.0-1.0","battery-v0.2","","""event"",""trial"",""time""
""fullscreenenter"",""1"",""2184""
","
","
","""event"",""trial"",""time""
""fullscreenenter"",""1"",""2184""
","
","true","","","","","","","","","","","","","","","","","","","","","","","","","",""
"pit-instructions","2","7501","0.0-2.0-0.0","battery-v0.2","","""event"",""trial"",""time""
""fullscreenenter"",""1"",""2184""
","
","
","""event"",""trial"",""time""
""fullscreenenter"",""1"",""2184""
","
","","[{""page_index"":0,""viewing_time"":4305.60000000149}]","4306.29999999702","","","","","","","","","","","","","","","","","","","","","","","",""
"pit-comprehension","3","10757","0.0-2.0-1.0-0.0","battery-v0.2","","""event"",""trial"",""time""
""fullscreenenter"",""1"",""2184""
","
","
","""event"",""trial"",""time""
""fullscreenenter"",""1"",""2184""
","
","","","3250.89999999851","[""shark""]","0","18","20690","7936","","","","","","","","","","","","","","","","","","",""
"pit-instructions","4","12529","0.0-2.0-1.0-1.0","battery-v0.2","","""event"",""trial"",""time""
""fullscreenenter"",""1"",""2184""
","
","
","""event"",""trial"",""time""
""fullscreenenter"",""1"",""2184""
","
","","[{""page_index"":0,""viewing_time"":1750}]","1750.7000000029802","","","","","","","","","","","","","","","","","","","","","","","",""
"pit-comprehension","5","15808","0.0-2.0-2.0-0.0","battery-v0.2","","""event"",""trial"",""time""
""fullscreenenter"",""1"",""2184""
","
","
","""event"",""trial"",""time""
""fullscreenenter"",""1"",""2184""
","
","","","3272.2000000029802","[""tiger""]","0","18","20690","7936","","","","","","","","","","","","","","","","","","",""
"pit-instructions","6","19862","0.0-2.0-2.0-1.0","battery-v0.2","","""event"",""trial"",""time""
""fullscreenenter"",""1"",""2184""
","
","
","""event"",""trial"",""time""
""fullscreenenter"",""1"",""2184""
","
","","[{""page_index"":0,""viewing_time"":4048.60000000149}]","4049.10000000149","","","","","","","","","","","","","","","","","","","","","","","",""
"pit-instructions","7","101011","0.0-2.0-3.0","battery-v0.2","","""event"",""trial"",""time""
""fullscreenenter"",""1"",""2184""
","
","
","""event"",""trial"",""time""
""fullscreenenter"",""1"",""2184""
","
","","[{""page_index"":0,""viewing_time"":7820.89999999851},{""page_index"":1,""viewing_time"":7178.9000000059605},{""page_index"":0,""viewing_time"":2706.39999999851},{""page_index"":1,""viewing_time"":4721.79999999702},{""page_index"":2,""viewing_time"":3212.3000000044703},{""page_index"":3,""viewing_time"":3197.7999999970198},{""page_index"":4,""viewing_time"":3051.7999999970198},{""page_index"":5,""viewing_time"":2370.10000000149},{""page_index"":6,""viewing_time"":3364.89999999851},{""page_index"":7,""viewing_time"":3434.8000000044703},{""page_index"":8,""viewing_time"":6418.60000000149},{""page_index"":9,""viewing_time"":7336.29999999702},{""page_index"":10,""viewing_time"":7414.79999999702},{""page_index"":11,""viewing_time"":4659.20000000298},{""page_index"":12,""viewing_time"":6013.70000000298},{""page_index"":11,""viewing_time"":2065.1999999955297},{""page_index"":12,""viewing_time"":3242.60000000149},{""page_index"":13,""viewing_time"":2933}]","81143.80000000447","","","","","","","","","","","","","","","","","","","","","","","",""
"pit-trial","8","104550","0.0-2.0-4.0-0.0","battery-v0.2","","""event"",""trial"",""time""
""fullscreenenter"",""1"",""2184""
","
","
","""event"",""trial"",""time""
""fullscreenenter"",""1"",""2184""
","
","","","669.6000000014901","","","18","20690","7936","&#9784;","elianto","#FFFFF080"," "," ","1","&#10004","[1526.8999999985099]","1","0","0","","","","","","","",""
"pit-trial","9","107957","0.0-2.0-4.1-0.1","battery-v0.2","","""event"",""trial"",""time""
""fullscreenenter"",""1"",""2184""
","
","
","""event"",""trial"",""time""
""fullscreenenter"",""1"",""2184""
","
","","","526.2999999970198","","","18","20690","7936","&#9784;","elianto","#FFFFF080"," "," ","1","&#10004","[1390.6999999955297]","1","0","0","","","","","","","",""
"pit-trial","10","111774","0.0-2.0-4.2-0.2","battery-v0.2","","""event"",""trial"",""time""
""fullscreenenter"",""1"",""2184""
","
","
","""event"",""trial"",""time""
""fullscreenenter"",""1"",""2184""
","
","","","951.8000000044703","","","18","20690","7936","&#9784;","elianto","#FFFFF080"," "," ","1","&#10004","[1810.1000000014901]","1","0","0","","","","","","","",""
"pit-trial","11","115254","0.0-2.0-4.3-0.3","battery-v0.2","","""event"",""trial"",""time""
""fullscreenenter"",""1"",""2184""
","
","
","""event"",""trial"",""time""
""fullscreenenter"",""1"",""2184""
","
","","","597.8999999985099","","","18","20690","7936","&#9784;","elianto","#FFFFF080"," "," ","1","&#10004","[1459]","1","0","0","","","","","","","",""
"pit-trial","12","118703","0.0-2.0-4.4-0.4","battery-v0.2","","""event"",""trial"",""time""
""fullscreenenter"",""1"",""2184""
","
","
","""event"",""trial"",""time""
""fullscreenenter"",""1"",""2184""
","
","","","592.7999999970198","","","18","20690","7936","&#9784;","elianto","#FFFFF080"," "," ","1","&#10004","[1443.5]","1","0","0","","","","","","","",""
"pit-instructions","13","147998","0.0-2.0-5.0","battery-v0.2","","""event"",""trial"",""time""
""fullscreenenter"",""1"",""2184""
","
","
","""event"",""trial"",""time""
""fullscreenenter"",""1"",""2184""
","
","","[{""page_index"":0,""viewing_time"":13774.29999999702},{""page_index"":1,""viewing_time"":5271.60000000149},{""page_index"":2,""viewing_time"":4627.60000000149},{""page_index"":3,""viewing_time"":5610.5}]","29284.70000000298","","","","","","","","","","","","","","","","","","","","","","","",""
"pit-trial","14","152869","0.0-2.0-6.0-0.0","battery-v0.2","","""event"",""trial"",""time""
""fullscreenenter"",""1"",""2184""
","
","
","""event"",""trial"",""time""
""fullscreenenter"",""1"",""2184""
","
","","","-1","","","18","20690","7936","&#9854;","elianto","#FFFFF080","-1","-1","1","&#10004","[]","0","0","1","","","","","","","",""
"pit-trial","15","157746","0.0-2.0-6.1-0.1","battery-v0.2","","""event"",""trial"",""time""
""fullscreenenter"",""1"",""2184""
","
","
","""event"",""trial"",""time""
""fullscreenenter"",""1"",""2184""
","
","","","-1","","","18","20690","7936","&#9854;","elianto","#FFFFF080","-1","-1","1","&#10004","[]","0","0","1","","","","","","","",""
"pit-trial","16","162623","0.0-2.0-6.2-0.2","battery-v0.2","","""event"",""trial"",""time""
""fullscreenenter"",""1"",""2184""
","
","
","""event"",""trial"",""time""
""fullscreenenter"",""1"",""2184""
","
","","","-1","","","18","20690","7936","&#9854;","elianto","#FFFFF080","-1","-1","1","&#10004","[]","0","0","1","","","","","","","",""
"pit-trial","17","167485","0.0-2.0-6.3-0.3","battery-v0.2","","""event"",""trial"",""time""
""fullscreenenter"",""1"",""2184""
","
","
","""event"",""trial"",""time""
""fullscreenenter"",""1"",""2184""
","
","","","-1","","","18","20690","7936","&#9854;","elianto","#FFFFF080","-1","-1","1","&#10004","[]","0","0","1","","","","","","","",""
"pit-trial","18","172356","0.0-2.0-6.4-0.4","battery-v0.2","","""event"",""trial"",""time""
""fullscreenenter"",""1"",""2184""
""blur"",""19"",""178106""
""fullscreenexit"",""19"",""178114""
""focus"",""19"",""184726""
","""event"",""trial"",""time""
""blur"",""19"",""178106""
","""event"",""trial"",""time""
""focus"",""19"",""184726""
","""event"",""trial"",""time""
""fullscreenenter"",""1"",""2184""
","""event"",""trial"",""time""
""fullscreenexit"",""19"",""178114""
","","","-1","","","18","20690","7936","&#9854;","elianto","#FFFFF080","-1","-1","1","&#10004","[]","0","0","1","","","","","","","",""
"pit-instructions","19","286675","0.0-2.0-7.0","battery-v0.2","","""event"",""trial"",""time""
""fullscreenenter"",""1"",""2184""
""blur"",""19"",""178106""
""fullscreenexit"",""19"",""178114""
""focus"",""19"",""184726""
","""event"",""trial"",""time""
""blur"",""19"",""178106""
","""event"",""trial"",""time""
""focus"",""19"",""184726""
","""event"",""trial"",""time""
""fullscreenenter"",""1"",""2184""
","""event"",""trial"",""time""
""fullscreenexit"",""19"",""178114""
","","[{""page_index"":0,""viewing_time"":14194.80000000447},{""page_index"":1,""viewing_time"":6818.29999999702},{""page_index"":2,""viewing_time"":5755.30000000447},{""page_index"":3,""viewing_time"":6441.79999999702},{""page_index"":4,""viewing_time"":5684.10000000149},{""page_index"":5,""viewing_time"":5530.5},{""page_index"":6,""viewing_time"":4276.79999999702},{""page_index"":7,""viewing_time"":7492.70000000298},{""page_index"":8,""viewing_time"":6229.29999999702},{""page_index"":9,""viewing_time"":5718},{""page_index"":10,""viewing_time"":6047.80000000447},{""page_index"":11,""viewing_time"":5544.69999999553},{""page_index"":12,""viewing_time"":6811.80000000447},{""page_index"":13,""viewing_time"":8268},{""page_index"":14,""viewing_time"":3053.7999999970198},{""page_index"":13,""viewing_time"":3431},{""page_index"":14,""viewing_time"":2625.7000000029802},{""page_index"":15,""viewing_time"":3992.89999999851},{""page_index"":16,""viewing_time"":3424.89999999851},{""page_index"":17,""viewing_time"":2966.10000000149}]","114309.30000000447","","","","","","","","","","","","","","","","","","","","","","","",""
"pit-trial","20","290149","0.0-2.0-8.0-0.0","battery-v0.2","","""event"",""trial"",""time""
""fullscreenenter"",""1"",""2184""
""blur"",""19"",""178106""
""fullscreenexit"",""19"",""178114""
""focus"",""19"",""184726""
","""event"",""trial"",""time""
""blur"",""19"",""178106""
","""event"",""trial"",""time""
""focus"",""19"",""184726""
","""event"",""trial"",""time""
""fullscreenenter"",""1"",""2184""
","""event"",""trial"",""time""
""fullscreenexit"",""19"",""178114""
","","","606.9000000059605","","","18","20690","7936","&#9776;","elianto","#3366ff99"," "," ","1","+10","[1463.8999999985099]","1","0","1","","","","","","","",""
"pit-trial","21","293509","0.0-2.0-8.0-1.0","battery-v0.2","","""event"",""trial"",""time""
""fullscreenenter"",""1"",""2184""
""blur"",""19"",""178106""
""fullscreenexit"",""19"",""178114""
""focus"",""19"",""184726""
","""event"",""trial"",""time""
""blur"",""19"",""178106""
","""event"",""trial"",""time""
""focus"",""19"",""184726""
","""event"",""trial"",""time""
""fullscreenenter"",""1"",""2184""
","""event"",""trial"",""time""
""fullscreenexit"",""19"",""178114""
","","","494.20000000298023","","","18","20690","7936","&#9776;","elianto","#3366ff99"," "," ","1","+10","[1344.8999999985099]","1","0","1","","","","","","","",""
"pit-trial","22","296657","0.0-2.0-8.0-2.0","battery-v0.2","","""event"",""trial"",""time""
""fullscreenenter"",""1"",""2184""
""blur"",""19"",""178106""
""fullscreenexit"",""19"",""178114""
""focus"",""19"",""184726""
","""event"",""trial"",""time""
""blur"",""19"",""178106""
","""event"",""trial"",""time""
""focus"",""19"",""184726""
","""event"",""trial"",""time""
""fullscreenenter"",""1"",""2184""
","""event"",""trial"",""time""
""fullscreenexit"",""19"",""178114""
","","","286.3999999985099","","","18","20690","7936","&#9776;","elianto","#3366ff99"," "," ","1","+10","[1136.9000000059605]","1","0","1","","","","","","","",""
"pit-trial","23","299896","0.0-2.0-8.0-3.0","battery-v0.2","","""event"",""trial"",""time""
""fullscreenenter"",""1"",""2184""
""blur"",""19"",""178106""
""fullscreenexit"",""19"",""178114""
""focus"",""19"",""184726""
","""event"",""trial"",""time""
""blur"",""19"",""178106""
","""event"",""trial"",""time""
""focus"",""19"",""184726""
","""event"",""trial"",""time""
""fullscreenenter"",""1"",""2184""
","""event"",""trial"",""time""
""fullscreenexit"",""19"",""178114""
","","","374.8999999985099","","","18","20690","7936","&#9776;","elianto","#3366ff99"," "," ","1","0","[1225.1000000014901]","1","0","1","","","","","","","",""
"pit-trial","24","303033","0.0-2.0-8.0-4.0","battery-v0.2","","""event"",""trial"",""time""
""fullscreenenter"",""1"",""2184""
""blur"",""19"",""178106""
""fullscreenexit"",""19"",""178114""
""focus"",""19"",""184726""
","""event"",""trial"",""time""
""blur"",""19"",""178106""
","""event"",""trial"",""time""
""focus"",""19"",""184726""
","""event"",""trial"",""time""
""fullscreenenter"",""1"",""2184""
","""event"",""trial"",""time""
""fullscreenexit"",""19"",""178114""
","","","264.3999999985099","","","18","20690","7936","&#9776;","elianto","#3366ff99"," "," ","1","+10","[1124.2000000029802]","1","0","1","","","","","","","",""
"pit-trial","25","306363","0.0-2.0-8.1-0.1","battery-v0.2","","""event"",""trial"",""time""
""fullscreenenter"",""1"",""2184""
""blur"",""19"",""178106""
""fullscreenexit"",""19"",""178114""
""focus"",""19"",""184726""
","""event"",""trial"",""time""
""blur"",""19"",""178106""
","""event"",""trial"",""time""
""focus"",""19"",""184726""
","""event"",""trial"",""time""
""fullscreenenter"",""1"",""2184""
","""event"",""trial"",""time""
""fullscreenexit"",""19"",""178114""
","","","451.20000000298023","","","18","20690","7936","&#9776;","elianto","#3366ff99"," "," ","1","+10","[1316.1999999955297]","1","0","1","","","","","","","",""
"pit-trial","26","309615","0.0-2.0-8.1-1.1","battery-v0.2","","""event"",""trial"",""time""
""fullscreenenter"",""1"",""2184""
""blur"",""19"",""178106""
""fullscreenexit"",""19"",""178114""
""focus"",""19"",""184726""
","""event"",""trial"",""time""
""blur"",""19"",""178106""
","""event"",""trial"",""time""
""focus"",""19"",""184726""
","""event"",""trial"",""time""
""fullscreenenter"",""1"",""2184""
","""event"",""trial"",""time""
""fullscreenexit"",""19"",""178114""
","","","391.5","","","18","20690","7936","&#9776;","elianto","#3366ff99"," "," ","1","+10","[1243.6000000014901]","1","0","1","","","","","","","",""
"pit-trial","27","312927","0.0-2.0-8.1-2.1","battery-v0.2","","""event"",""trial"",""time""
""fullscreenenter"",""1"",""2184""
""blur"",""19"",""178106""
""fullscreenexit"",""19"",""178114""
""focus"",""19"",""184726""
","""event"",""trial"",""time""
""blur"",""19"",""178106""
","""event"",""trial"",""time""
""focus"",""19"",""184726""
","""event"",""trial"",""time""
""fullscreenenter"",""1"",""2184""
","""event"",""trial"",""time""
""fullscreenexit"",""19"",""178114""
","","","446.1000000014901","","","18","20690","7936","&#9776;","elianto","#3366ff99"," "," ","1","+10","[1301.8000000044703]","1","0","1","","","","","","","",""
"pit-trial","28","316119","0.0-2.0-8.1-3.1","battery-v0.2","","""event"",""trial"",""time""
""fullscreenenter"",""1"",""2184""
""blur"",""19"",""178106""
""fullscreenexit"",""19"",""178114""
""focus"",""19"",""184726""
","""event"",""trial"",""time""
""blur"",""19"",""178106""
","""event"",""trial"",""time""
""focus"",""19"",""184726""
","""event"",""trial"",""time""
""fullscreenenter"",""1"",""2184""
","""event"",""trial"",""time""
""fullscreenexit"",""19"",""178114""
","","","319.70000000298023","","","18","20690","7936","&#9776;","elianto","#3366ff99"," "," ","1","0","[1179.3999999985099]","1","0","1","","","","","","","",""
"pit-trial","29","319296","0.0-2.0-8.1-4.1","battery-v0.2","","""event"",""trial"",""time""
""fullscreenenter"",""1"",""2184""
""blur"",""19"",""178106""
""fullscreenexit"",""19"",""178114""
""focus"",""19"",""184726""
","""event"",""trial"",""time""
""blur"",""19"",""178106""
","""event"",""trial"",""time""
""focus"",""19"",""184726""
","""event"",""trial"",""time""
""fullscreenenter"",""1"",""2184""
","""event"",""trial"",""time""
""fullscreenexit"",""19"",""178114""
","","","314.59999999403954","","","18","20690","7936","&#9776;","elianto","#3366ff99"," "," ","1","+10","[1164.7000000029802]","1","0","1","","","","","","","",""
"pit-trial","30","322558","0.0-2.0-8.2-0.2","battery-v0.2","","""event"",""trial"",""time""
""fullscreenenter"",""1"",""2184""
""blur"",""19"",""178106""
""fullscreenexit"",""19"",""178114""
""focus"",""19"",""184726""
","""event"",""trial"",""time""
""blur"",""19"",""178106""
","""event"",""trial"",""time""
""focus"",""19"",""184726""
","""event"",""trial"",""time""
""fullscreenenter"",""1"",""2184""
","""event"",""trial"",""time""
""fullscreenexit"",""19"",""178114""
","","","395.59999999403954","","","18","20690","7936","&#9776;","elianto","#3366ff99"," "," ","1","+10","[1248]","1","0","1","","","","","","","",""
"pit-trial","31","325823","0.0-2.0-8.2-1.2","battery-v0.2","","""event"",""trial"",""time""
""fullscreenenter"",""1"",""2184""
""blur"",""19"",""178106""
""fullscreenexit"",""19"",""178114""
""focus"",""19"",""184726""
","""event"",""trial"",""time""
""blur"",""19"",""178106""
","""event"",""trial"",""time""
""focus"",""19"",""184726""
","""event"",""trial"",""time""
""fullscreenenter"",""1"",""2184""
","""event"",""trial"",""time""
""fullscreenexit"",""19"",""178114""
","","","394.1000000014901","","","18","20690","7936","&#9776;","elianto","#3366ff99"," "," ","1","+10","[1251.1999999955297]","1","0","1","","","","","","","",""
"pit-trial","32","329145","0.0-2.0-8.2-2.2","battery-v0.2","","""event"",""trial"",""time""
""fullscreenenter"",""1"",""2184""
""blur"",""19"",""178106""
""fullscreenexit"",""19"",""178114""
""focus"",""19"",""184726""
","""event"",""trial"",""time""
""blur"",""19"",""178106""
","""event"",""trial"",""time""
""focus"",""19"",""184726""
","""event"",""trial"",""time""
""fullscreenenter"",""1"",""2184""
","""event"",""trial"",""time""
""fullscreenexit"",""19"",""178114""
","","","463.30000000447035","","","18","20690","7936","&#9776;","elianto","#3366ff99"," "," ","1","+10","[1314.7000000029802]","1","0","1","","","","","","","",""
"pit-trial","33","332389","0.0-2.0-8.2-3.2","battery-v0.2","","""event"",""trial"",""time""
""fullscreenenter"",""1"",""2184""
""blur"",""19"",""178106""
""fullscreenexit"",""19"",""178114""
""focus"",""19"",""184726""
","""event"",""trial"",""time""
""blur"",""19"",""178106""
","""event"",""trial"",""time""
""focus"",""19"",""184726""
","""event"",""trial"",""time""
""fullscreenenter"",""1"",""2184""
","""event"",""trial"",""time""
""fullscreenexit"",""19"",""178114""
","","","381.8999999985099","","","18","20690","7936","&#9776;","elianto","#3366ff99"," "," ","1","0","[1237.1000000014901]","1","0","1","","","","","","","",""
"pit-trial","34","335633","0.0-2.0-8.2-4.2","battery-v0.2","","""event"",""trial"",""time""
""fullscreenenter"",""1"",""2184""
""blur"",""19"",""178106""
""fullscreenexit"",""19"",""178114""
""focus"",""19"",""184726""
","""event"",""trial"",""time""
""blur"",""19"",""178106""
","""event"",""trial"",""time""
""focus"",""19"",""184726""
","""event"",""trial"",""time""
""fullscreenenter"",""1"",""2184""
","""event"",""trial"",""time""
""fullscreenexit"",""19"",""178114""
","","","379.69999999552965","","","18","20690","7936","&#9776;","elianto","#3366ff99"," "," ","1","+10","[1234.6999999955297]","1","0","1","","","","","","","",""
"call-function","35","335635","0.0-2.0-9.0","battery-v0.2","","""event"",""trial"",""time""
""fullscreenenter"",""1"",""2184""
""blur"",""19"",""178106""
""fullscreenexit"",""19"",""178114""
""focus"",""19"",""184726""
","""event"",""trial"",""time""
""blur"",""19"",""178106""
","""event"",""trial"",""time""
""focus"",""19"",""184726""
","""event"",""trial"",""time""
""fullscreenenter"",""1"",""2184""
","""event"",""trial"",""time""
""fullscreenexit"",""19"",""178114""
","","","","","","","","","","","","","","","","","","","","","","","","","","",""
"pit-instructions","36","373632","0.0-2.0-10.0","battery-v0.2","","""event"",""trial"",""time""
""fullscreenenter"",""1"",""2184""
""blur"",""19"",""178106""
""fullscreenexit"",""19"",""178114""
""focus"",""19"",""184726""
","""event"",""trial"",""time""
""blur"",""19"",""178106""
","""event"",""trial"",""time""
""focus"",""19"",""184726""
","""event"",""trial"",""time""
""fullscreenenter"",""1"",""2184""
","""event"",""trial"",""time""
""fullscreenexit"",""19"",""178114""
","","[{""page_index"":0,""viewing_time"":5393},{""page_index"":1,""viewing_time"":6470.89999999851},{""page_index"":2,""viewing_time"":9689.20000000298},{""page_index"":3,""viewing_time"":8739.69999999553},{""page_index"":4,""viewing_time"":7701.39999999851}]","37995.19999999553","","","","","","","","","","","","","","","","","","","","","","","",""
"pit-trial","37","378496","0.0-2.0-11.0-0.0","battery-v0.2","","""event"",""trial"",""time""
""fullscreenenter"",""1"",""2184""
""blur"",""19"",""178106""
""fullscreenexit"",""19"",""178114""
""focus"",""19"",""184726""
","""event"",""trial"",""time""
""blur"",""19"",""178106""
","""event"",""trial"",""time""
""focus"",""19"",""184726""
","""event"",""trial"",""time""
""fullscreenenter"",""1"",""2184""
","""event"",""trial"",""time""
""fullscreenexit"",""19"",""178114""
","","","-1","","","18","20690","7936","&#9761;","elianto","#3366ff99","-1","-1","1","+10","[]","0","0","2","","","","","","","",""
"pit-trial","38","383367","0.0-2.0-11.0-1.0","battery-v0.2","","""event"",""trial"",""time""
""fullscreenenter"",""1"",""2184""
""blur"",""19"",""178106""
""fullscreenexit"",""19"",""178114""
""focus"",""19"",""184726""
","""event"",""trial"",""time""
""blur"",""19"",""178106""
","""event"",""trial"",""time""
""focus"",""19"",""184726""
","""event"",""trial"",""time""
""fullscreenenter"",""1"",""2184""
","""event"",""trial"",""time""
""fullscreenexit"",""19"",""178114""
","","","-1","","","18","20690","7936","&#9761;","elianto","#3366ff99","-1","-1","1","+10","[]","0","0","2","","","","","","","",""
"pit-trial","39","388238","0.0-2.0-11.0-2.0","battery-v0.2","","""event"",""trial"",""time""
""fullscreenenter"",""1"",""2184""
""blur"",""19"",""178106""
""fullscreenexit"",""19"",""178114""
""focus"",""19"",""184726""
","""event"",""trial"",""time""
""blur"",""19"",""178106""
","""event"",""trial"",""time""
""focus"",""19"",""184726""
","""event"",""trial"",""time""
""fullscreenenter"",""1"",""2184""
","""event"",""trial"",""time""
""fullscreenexit"",""19"",""178114""
","","","-1","","","18","20690","7936","&#9761;","elianto","#3366ff99","-1","-1","1","+10","[]","0","0","2","","","","","","","",""
"pit-trial","40","391745","0.0-2.0-11.0-3.0","battery-v0.2","","""event"",""trial"",""time""
""fullscreenenter"",""1"",""2184""
""blur"",""19"",""178106""
""fullscreenexit"",""19"",""178114""
""focus"",""19"",""184726""
","""event"",""trial"",""time""
""blur"",""19"",""178106""
","""event"",""trial"",""time""
""focus"",""19"",""184726""
","""event"",""trial"",""time""
""fullscreenenter"",""1"",""2184""
","""event"",""trial"",""time""
""fullscreenexit"",""19"",""178114""
","","","637.4000000059605","","","18","20690","7936","&#9761;","elianto","#3366ff99","-1"," ","0","+10","[1493.5]","1","0","2","","","","","","","",""
"pit-trial","41","395046","0.0-2.0-11.0-4.0","battery-v0.2","","""event"",""trial"",""time""
""fullscreenenter"",""1"",""2184""
""blur"",""19"",""178106""
""fullscreenexit"",""19"",""178114""
""focus"",""19"",""184726""
","""event"",""trial"",""time""
""blur"",""19"",""178106""
","""event"",""trial"",""time""
""focus"",""19"",""184726""
","""event"",""trial"",""time""
""fullscreenenter"",""1"",""2184""
","""event"",""trial"",""time""
""fullscreenexit"",""19"",""178114""
","","","442.79999999701977","","","18","20690","7936","&#9761;","elianto","#3366ff99","-1"," ","0","0","[1294.8999999985099]","1","0","2","","","","","","","",""
"pit-trial","42","398301","0.0-2.0-11.1-0.1","battery-v0.2","","""event"",""trial"",""time""
""fullscreenenter"",""1"",""2184""
""blur"",""19"",""178106""
""fullscreenexit"",""19"",""178114""
""focus"",""19"",""184726""
","""event"",""trial"",""time""
""blur"",""19"",""178106""
","""event"",""trial"",""time""
""focus"",""19"",""184726""
","""event"",""trial"",""time""
""fullscreenenter"",""1"",""2184""
","""event"",""trial"",""time""
""fullscreenexit"",""19"",""178114""
","","","386","","","18","20690","7936","&#9761;","elianto","#3366ff99","-1"," ","0","0","[1237.2000000029802]","1","0","2","","","","","","","",""
"pit-trial","43","403179","0.0-2.0-11.1-1.1","battery-v0.2","","""event"",""trial"",""time""
""fullscreenenter"",""1"",""2184""
""blur"",""19"",""178106""
""fullscreenexit"",""19"",""178114""
""focus"",""19"",""184726""
","""event"",""trial"",""time""
""blur"",""19"",""178106""
","""event"",""trial"",""time""
""focus"",""19"",""184726""
","""event"",""trial"",""time""
""fullscreenenter"",""1"",""2184""
","""event"",""trial"",""time""
""fullscreenexit"",""19"",""178114""
","","","-1","","","18","20690","7936","&#9761;","elianto","#3366ff99","-1","-1","1","+10","[]","0","0","2","","","","","","","",""
"pit-trial","44","408046","0.0-2.0-11.1-2.1","battery-v0.2","","""event"",""trial"",""time""
""fullscreenenter"",""1"",""2184""
""blur"",""19"",""178106""
""fullscreenexit"",""19"",""178114""
""focus"",""19"",""184726""
","""event"",""trial"",""time""
""blur"",""19"",""178106""
","""event"",""trial"",""time""
""focus"",""19"",""184726""
","""event"",""trial"",""time""
""fullscreenenter"",""1"",""2184""
","""event"",""trial"",""time""
""fullscreenexit"",""19"",""178114""
","","","-1","","","18","20690","7936","&#9761;","elianto","#3366ff99","-1","-1","1","+10","[]","0","0","2","","","","","","","",""
"pit-trial","45","412907","0.0-2.0-11.1-3.1","battery-v0.2","","""event"",""trial"",""time""
""fullscreenenter"",""1"",""2184""
""blur"",""19"",""178106""
""fullscreenexit"",""19"",""178114""
""focus"",""19"",""184726""
","""event"",""trial"",""time""
""blur"",""19"",""178106""
","""event"",""trial"",""time""
""focus"",""19"",""184726""
","""event"",""trial"",""time""
""fullscreenenter"",""1"",""2184""
","""event"",""trial"",""time""
""fullscreenexit"",""19"",""178114""
","","","-1","","","18","20690","7936","&#9761;","elianto","#3366ff99","-1","-1","1","0","[]","0","0","2","","","","","","","",""
"pit-trial","46","417773","0.0-2.0-11.1-4.1","battery-v0.2","","""event"",""trial"",""time""
""fullscreenenter"",""1"",""2184""
""blur"",""19"",""178106""
""fullscreenexit"",""19"",""178114""
""focus"",""19"",""184726""
","""event"",""trial"",""time""
""blur"",""19"",""178106""
","""event"",""trial"",""time""
""focus"",""19"",""184726""
","""event"",""trial"",""time""
""fullscreenenter"",""1"",""2184""
","""event"",""trial"",""time""
""fullscreenexit"",""19"",""178114""
","","","-1","","","18","20690","7936","&#9761;","elianto","#3366ff99","-1","-1","1","+10","[]","0","0","2","","","","","","","",""
"pit-trial","47","422637","0.0-2.0-11.2-0.2","battery-v0.2","","""event"",""trial"",""time""
""fullscreenenter"",""1"",""2184""
""blur"",""19"",""178106""
""fullscreenexit"",""19"",""178114""
""focus"",""19"",""184726""
","""event"",""trial"",""time""
""blur"",""19"",""178106""
","""event"",""trial"",""time""
""focus"",""19"",""184726""
","""event"",""trial"",""time""
""fullscreenenter"",""1"",""2184""
","""event"",""trial"",""time""
""fullscreenexit"",""19"",""178114""
","","","-1","","","18","20690","7936","&#9761;","elianto","#3366ff99","-1","-1","1","+10","[]","0","0","2","","","","","","","",""
"pit-trial","48","427495","0.0-2.0-11.2-1.2","battery-v0.2","","""event"",""trial"",""time""
""fullscreenenter"",""1"",""2184""
""blur"",""19"",""178106""
""fullscreenexit"",""19"",""178114""
""focus"",""19"",""184726""
","""event"",""trial"",""time""
""blur"",""19"",""178106""
","""event"",""trial"",""time""
""focus"",""19"",""184726""
","""event"",""trial"",""time""
""fullscreenenter"",""1"",""2184""
","""event"",""trial"",""time""
""fullscreenexit"",""19"",""178114""
","","","-1","","","18","20690","7936","&#9761;","elianto","#3366ff99","-1","-1","1","+10","[]","0","0","2","","","","","","","",""
"pit-trial","49","432350","0.0-2.0-11.2-2.2","battery-v0.2","","""event"",""trial"",""time""
""fullscreenenter"",""1"",""2184""
""blur"",""19"",""178106""
""fullscreenexit"",""19"",""178114""
""focus"",""19"",""184726""
","""event"",""trial"",""time""
""blur"",""19"",""178106""
","""event"",""trial"",""time""
""focus"",""19"",""184726""
","""event"",""trial"",""time""
""fullscreenenter"",""1"",""2184""
","""event"",""trial"",""time""
""fullscreenexit"",""19"",""178114""
","","","-1","","","18","20690","7936","&#9761;","elianto","#3366ff99","-1","-1","1","+10","[]","0","0","2","","","","","","","",""
"pit-trial","50","437221","0.0-2.0-11.2-3.2","battery-v0.2","","""event"",""trial"",""time""
""fullscreenenter"",""1"",""2184""
""blur"",""19"",""178106""
""fullscreenexit"",""19"",""178114""
""focus"",""19"",""184726""
","""event"",""trial"",""time""
""blur"",""19"",""178106""
","""event"",""trial"",""time""
""focus"",""19"",""184726""
","""event"",""trial"",""time""
""fullscreenenter"",""1"",""2184""
","""event"",""trial"",""time""
""fullscreenexit"",""19"",""178114""
","","","-1","","","18","20690","7936","&#9761;","elianto","#3366ff99","-1","-1","1","0","[]","0","0","2","","","","","","","",""
"pit-trial","51","442083","0.0-2.0-11.2-4.2","battery-v0.2","","""event"",""trial"",""time""
""fullscreenenter"",""1"",""2184""
""blur"",""19"",""178106""
""fullscreenexit"",""19"",""178114""
""focus"",""19"",""184726""
","""event"",""trial"",""time""
""blur"",""19"",""178106""
","""event"",""trial"",""time""
""focus"",""19"",""184726""
","""event"",""trial"",""time""
""fullscreenenter"",""1"",""2184""
","""event"",""trial"",""time""
""fullscreenexit"",""19"",""178114""
","","","-1","","","18","20690","7936","&#9761;","elianto","#3366ff99","-1","-1","1","+10","[]","0","0","2","","","","","","","",""
"pit-trial","52","446944","0.0-2.0-11.3-0.3","battery-v0.2","","""event"",""trial"",""time""
""fullscreenenter"",""1"",""2184""
""blur"",""19"",""178106""
""fullscreenexit"",""19"",""178114""
""focus"",""19"",""184726""
","""event"",""trial"",""time""
""blur"",""19"",""178106""
","""event"",""trial"",""time""
""focus"",""19"",""184726""
","""event"",""trial"",""time""
""fullscreenenter"",""1"",""2184""
","""event"",""trial"",""time""
""fullscreenexit"",""19"",""178114""
","","","-1","","","18","20690","7936","&#9761;","elianto","#3366ff99","-1","-1","1","+10","[]","0","0","2","","","","","","","",""
"pit-trial","53","451811","0.0-2.0-11.3-1.3","battery-v0.2","","""event"",""trial"",""time""
""fullscreenenter"",""1"",""2184""
""blur"",""19"",""178106""
""fullscreenexit"",""19"",""178114""
""focus"",""19"",""184726""
","""event"",""trial"",""time""
""blur"",""19"",""178106""
","""event"",""trial"",""time""
""focus"",""19"",""184726""
","""event"",""trial"",""time""
""fullscreenenter"",""1"",""2184""
","""event"",""trial"",""time""
""fullscreenexit"",""19"",""178114""
","","","-1","","","18","20690","7936","&#9761;","elianto","#3366ff99","-1","-1","1","+10","[]","0","0","2","","","","","","","",""
"pit-trial","54","456675","0.0-2.0-11.3-2.3","battery-v0.2","","""event"",""trial"",""time""
""fullscreenenter"",""1"",""2184""
""blur"",""19"",""178106""
""fullscreenexit"",""19"",""178114""
""focus"",""19"",""184726""
","""event"",""trial"",""time""
""blur"",""19"",""178106""
","""event"",""trial"",""time""
""focus"",""19"",""184726""
","""event"",""trial"",""time""
""fullscreenenter"",""1"",""2184""
","""event"",""trial"",""time""
""fullscreenexit"",""19"",""178114""
","","","-1","","","18","20690","7936","&#9761;","elianto","#3366ff99","-1","-1","1","+10","[]","0","0","2","","","","","","","",""
"pit-trial","55","461537","0.0-2.0-11.3-3.3","battery-v0.2","","""event"",""trial"",""time""
""fullscreenenter"",""1"",""2184""
""blur"",""19"",""178106""
""fullscreenexit"",""19"",""178114""
""focus"",""19"",""184726""
","""event"",""trial"",""time""
""blur"",""19"",""178106""
","""event"",""trial"",""time""
""focus"",""19"",""184726""
","""event"",""trial"",""time""
""fullscreenenter"",""1"",""2184""
","""event"",""trial"",""time""
""fullscreenexit"",""19"",""178114""
","","","-1","","","18","20690","7936","&#9761;","elianto","#3366ff99","-1","-1","1","0","[]","0","0","2","","","","","","","",""
"pit-trial","56","466408","0.0-2.0-11.3-4.3","battery-v0.2","","""event"",""trial"",""time""
""fullscreenenter"",""1"",""2184""
""blur"",""19"",""178106""
""fullscreenexit"",""19"",""178114""
""focus"",""19"",""184726""
","""event"",""trial"",""time""
""blur"",""19"",""178106""
","""event"",""trial"",""time""
""focus"",""19"",""184726""
","""event"",""trial"",""time""
""fullscreenenter"",""1"",""2184""
","""event"",""trial"",""time""
""fullscreenexit"",""19"",""178114""
","","","-1","","","18","20690","7936","&#9761;","elianto","#3366ff99","-1","-1","1","+10","[]","0","0","2","","","","","","","",""
"call-function","57","466410","0.0-2.0-12.0","battery-v0.2","","""event"",""trial"",""time""
""fullscreenenter"",""1"",""2184""
""blur"",""19"",""178106""
""fullscreenexit"",""19"",""178114""
""focus"",""19"",""184726""
","""event"",""trial"",""time""
""blur"",""19"",""178106""
","""event"",""trial"",""time""
""focus"",""19"",""184726""
","""event"",""trial"",""time""
""fullscreenenter"",""1"",""2184""
","""event"",""trial"",""time""
""fullscreenexit"",""19"",""178114""
","","","","","","","","","","","","","","","","","","","","","","","","","","",""
"pit-instructions","58","523113","0.0-2.0-13.0","battery-v0.2","","""event"",""trial"",""time""
""fullscreenenter"",""1"",""2184""
""blur"",""19"",""178106""
""fullscreenexit"",""19"",""178114""
""focus"",""19"",""184726""
","""event"",""trial"",""time""
""blur"",""19"",""178106""
","""event"",""trial"",""time""
""focus"",""19"",""184726""
","""event"",""trial"",""time""
""fullscreenenter"",""1"",""2184""
","""event"",""trial"",""time""
""fullscreenexit"",""19"",""178114""
","","[{""page_index"":0,""viewing_time"":21459.29999999702},{""page_index"":1,""viewing_time"":7253},{""page_index"":2,""viewing_time"":6688.30000000447},{""page_index"":3,""viewing_time"":12920.10000000149},{""page_index"":4,""viewing_time"":8374.79999999702}]","56696","","","","","","","","","","","","","","","","","","","","","","","",""
"pit-trial","59","527060","0.0-2.0-14.0-0.0","battery-v0.2","","""event"",""trial"",""time""
""fullscreenenter"",""1"",""2184""
""blur"",""19"",""178106""
""fullscreenexit"",""19"",""178114""
""focus"",""19"",""184726""
","""event"",""trial"",""time""
""blur"",""19"",""178106""
","""event"",""trial"",""time""
""focus"",""19"",""184726""
","""event"",""trial"",""time""
""fullscreenenter"",""1"",""2184""
","""event"",""trial"",""time""
""fullscreenexit"",""19"",""178114""
","","","1087.7000000029802","","","18","20690","7936","&#9826;","elianto","#f73b6a7A","-1"," ","0","-10","[1940.3999999985099]","1","0","3","","","","","","","",""
"pit-trial","60","530233","0.0-2.0-14.0-1.0","battery-v0.2","","""event"",""trial"",""time""
""fullscreenenter"",""1"",""2184""
""blur"",""19"",""178106""
""fullscreenexit"",""19"",""178114""
""focus"",""19"",""184726""
","""event"",""trial"",""time""
""blur"",""19"",""178106""
","""event"",""trial"",""time""
""focus"",""19"",""184726""
","""event"",""trial"",""time""
""fullscreenenter"",""1"",""2184""
","""event"",""trial"",""time""
""fullscreenexit"",""19"",""178114""
","","","308.5","","","18","20690","7936","&#9826;","elianto","#f73b6a7A","-1"," ","0","-10","[1159.7000000029802]","1","0","3","","","","","","","",""
"pit-trial","61","535103","0.0-2.0-14.0-2.0","battery-v0.2","","""event"",""trial"",""time""
""fullscreenenter"",""1"",""2184""
""blur"",""19"",""178106""
""fullscreenexit"",""19"",""178114""
""focus"",""19"",""184726""
","""event"",""trial"",""time""
""blur"",""19"",""178106""
","""event"",""trial"",""time""
""focus"",""19"",""184726""
","""event"",""trial"",""time""
""fullscreenenter"",""1"",""2184""
","""event"",""trial"",""time""
""fullscreenexit"",""19"",""178114""
","","","-1","","","18","20690","7936","&#9826;","elianto","#f73b6a7A","-1","-1","1","0","[]","0","0","3","","","","","","","",""
"pit-trial","62","539973","0.0-2.0-14.0-3.0","battery-v0.2","","""event"",""trial"",""time""
""fullscreenenter"",""1"",""2184""
""blur"",""19"",""178106""
""fullscreenexit"",""19"",""178114""
""focus"",""19"",""184726""
","""event"",""trial"",""time""
""blur"",""19"",""178106""
","""event"",""trial"",""time""
""focus"",""19"",""184726""
","""event"",""trial"",""time""
""fullscreenenter"",""1"",""2184""
","""event"",""trial"",""time""
""fullscreenexit"",""19"",""178114""
","","","-1","","","18","20690","7936","&#9826;","elianto","#f73b6a7A","-1","-1","1","-10","[]","0","0","3","","","","","","","",""
"pit-trial","63","544845","0.0-2.0-14.0-4.0","battery-v0.2","","""event"",""trial"",""time""
""fullscreenenter"",""1"",""2184""
""blur"",""19"",""178106""
""fullscreenexit"",""19"",""178114""
""focus"",""19"",""184726""
","""event"",""trial"",""time""
""blur"",""19"",""178106""
","""event"",""trial"",""time""
""focus"",""19"",""184726""
","""event"",""trial"",""time""
""fullscreenenter"",""1"",""2184""
","""event"",""trial"",""time""
""fullscreenexit"",""19"",""178114""
","","","-1","","","18","20690","7936","&#9826;","elianto","#f73b6a7A","-1","-1","1","0","[]","0","0","3","","","","","","","",""
"pit-trial","64","549711","0.0-2.0-14.1-0.1","battery-v0.2","","""event"",""trial"",""time""
""fullscreenenter"",""1"",""2184""
""blur"",""19"",""178106""
""fullscreenexit"",""19"",""178114""
""focus"",""19"",""184726""
","""event"",""trial"",""time""
""blur"",""19"",""178106""
","""event"",""trial"",""time""
""focus"",""19"",""184726""
","""event"",""trial"",""time""
""fullscreenenter"",""1"",""2184""
","""event"",""trial"",""time""
""fullscreenexit"",""19"",""178114""
","","","-1","","","18","20690","7936","&#9826;","elianto","#f73b6a7A","-1","-1","1","0","[]","0","0","3","","","","","","","",""
"pit-trial","65","554587","0.0-2.0-14.1-1.1","battery-v0.2","","""event"",""trial"",""time""
""fullscreenenter"",""1"",""2184""
""blur"",""19"",""178106""
""fullscreenexit"",""19"",""178114""
""focus"",""19"",""184726""
","""event"",""trial"",""time""
""blur"",""19"",""178106""
","""event"",""trial"",""time""
""focus"",""19"",""184726""
","""event"",""trial"",""time""
""fullscreenenter"",""1"",""2184""
","""event"",""trial"",""time""
""fullscreenexit"",""19"",""178114""
","","","-1","","","18","20690","7936","&#9826;","elianto","#f73b6a7A","-1","-1","1","0","[]","0","0","3","","","","","","","",""
"pit-trial","66","559465","0.0-2.0-14.1-2.1","battery-v0.2","","""event"",""trial"",""time""
""fullscreenenter"",""1"",""2184""
""blur"",""19"",""178106""
""fullscreenexit"",""19"",""178114""
""focus"",""19"",""184726""
","""event"",""trial"",""time""
""blur"",""19"",""178106""
","""event"",""trial"",""time""
""focus"",""19"",""184726""
","""event"",""trial"",""time""
""fullscreenenter"",""1"",""2184""
","""event"",""trial"",""time""
""fullscreenexit"",""19"",""178114""
","","","-1","","","18","20690","7936","&#9826;","elianto","#f73b6a7A","-1","-1","1","0","[]","0","0","3","","","","","","","",""
"pit-trial","67","564337","0.0-2.0-14.1-3.1","battery-v0.2","","""event"",""trial"",""time""
""fullscreenenter"",""1"",""2184""
""blur"",""19"",""178106""
""fullscreenexit"",""19"",""178114""
""focus"",""19"",""184726""
","""event"",""trial"",""time""
""blur"",""19"",""178106""
","""event"",""trial"",""time""
""focus"",""19"",""184726""
","""event"",""trial"",""time""
""fullscreenenter"",""1"",""2184""
","""event"",""trial"",""time""
""fullscreenexit"",""19"",""178114""
","","","-1","","","18","20690","7936","&#9826;","elianto","#f73b6a7A","-1","-1","1","-10","[]","0","0","3","","","","","","","",""
"pit-trial","68","569205","0.0-2.0-14.1-4.1","battery-v0.2","","""event"",""trial"",""time""
""fullscreenenter"",""1"",""2184""
""blur"",""19"",""178106""
""fullscreenexit"",""19"",""178114""
""focus"",""19"",""184726""
","""event"",""trial"",""time""
""blur"",""19"",""178106""
","""event"",""trial"",""time""
""focus"",""19"",""184726""
","""event"",""trial"",""time""
""fullscreenenter"",""1"",""2184""
","""event"",""trial"",""time""
""fullscreenexit"",""19"",""178114""
","","","-1","","","18","20690","7936","&#9826;","elianto","#f73b6a7A","-1","-1","1","0","[]","0","0","3","","","","","","","",""
"pit-trial","69","574078","0.0-2.0-14.2-0.2","battery-v0.2","","""event"",""trial"",""time""
""fullscreenenter"",""1"",""2184""
""blur"",""19"",""178106""
""fullscreenexit"",""19"",""178114""
""focus"",""19"",""184726""
","""event"",""trial"",""time""
""blur"",""19"",""178106""
","""event"",""trial"",""time""
""focus"",""19"",""184726""
","""event"",""trial"",""time""
""fullscreenenter"",""1"",""2184""
","""event"",""trial"",""time""
""fullscreenexit"",""19"",""178114""
","","","-1","","","18","20690","7936","&#9826;","elianto","#f73b6a7A","-1","-1","1","0","[]","0","0","3","","","","","","","",""
"pit-trial","70","578940","0.0-2.0-14.2-1.2","battery-v0.2","","""event"",""trial"",""time""
""fullscreenenter"",""1"",""2184""
""blur"",""19"",""178106""
""fullscreenexit"",""19"",""178114""
""focus"",""19"",""184726""
","""event"",""trial"",""time""
""blur"",""19"",""178106""
","""event"",""trial"",""time""
""focus"",""19"",""184726""
","""event"",""trial"",""time""
""fullscreenenter"",""1"",""2184""
","""event"",""trial"",""time""
""fullscreenexit"",""19"",""178114""
","","","-1","","","18","20690","7936","&#9826;","elianto","#f73b6a7A","-1","-1","1","0","[]","0","0","3","","","","","","","",""
"pit-trial","71","583815","0.0-2.0-14.2-2.2","battery-v0.2","","""event"",""trial"",""time""
""fullscreenenter"",""1"",""2184""
""blur"",""19"",""178106""
""fullscreenexit"",""19"",""178114""
""focus"",""19"",""184726""
","""event"",""trial"",""time""
""blur"",""19"",""178106""
","""event"",""trial"",""time""
""focus"",""19"",""184726""
","""event"",""trial"",""time""
""fullscreenenter"",""1"",""2184""
","""event"",""trial"",""time""
""fullscreenexit"",""19"",""178114""
","","","-1","","","18","20690","7936","&#9826;","elianto","#f73b6a7A","-1","-1","1","0","[]","0","0","3","","","","","","","",""
"pit-trial","72","588677","0.0-2.0-14.2-3.2","battery-v0.2","","""event"",""trial"",""time""
""fullscreenenter"",""1"",""2184""
""blur"",""19"",""178106""
""fullscreenexit"",""19"",""178114""
""focus"",""19"",""184726""
","""event"",""trial"",""time""
""blur"",""19"",""178106""
","""event"",""trial"",""time""
""focus"",""19"",""184726""
","""event"",""trial"",""time""
""fullscreenenter"",""1"",""2184""
","""event"",""trial"",""time""
""fullscreenexit"",""19"",""178114""
","","","-1","","","18","20690","7936","&#9826;","elianto","#f73b6a7A","-1","-1","1","-10","[]","0","0","3","","","","","","","",""
"pit-trial","73","593534","0.0-2.0-14.2-4.2","battery-v0.2","","""event"",""trial"",""time""
""fullscreenenter"",""1"",""2184""
""blur"",""19"",""178106""
""fullscreenexit"",""19"",""178114""
""focus"",""19"",""184726""
","""event"",""trial"",""time""
""blur"",""19"",""178106""
","""event"",""trial"",""time""
""focus"",""19"",""184726""
","""event"",""trial"",""time""
""fullscreenenter"",""1"",""2184""
","""event"",""trial"",""time""
""fullscreenexit"",""19"",""178114""
","","","-1","","","18","20690","7936","&#9826;","elianto","#f73b6a7A","-1","-1","1","0","[]","0","0","3","","","","","","","",""
"pit-trial","74","598405","0.0-2.0-14.3-0.3","battery-v0.2","","""event"",""trial"",""time""
""fullscreenenter"",""1"",""2184""
""blur"",""19"",""178106""
""fullscreenexit"",""19"",""178114""
""focus"",""19"",""184726""
","""event"",""trial"",""time""
""blur"",""19"",""178106""
","""event"",""trial"",""time""
""focus"",""19"",""184726""
","""event"",""trial"",""time""
""fullscreenenter"",""1"",""2184""
","""event"",""trial"",""time""
""fullscreenexit"",""19"",""178114""
","","","-1","","","18","20690","7936","&#9826;","elianto","#f73b6a7A","-1","-1","1","0","[]","0","0","3","","","","","","","",""
"pit-trial","75","603279","0.0-2.0-14.3-1.3","battery-v0.2","","""event"",""trial"",""time""
""fullscreenenter"",""1"",""2184""
""blur"",""19"",""178106""
""fullscreenexit"",""19"",""178114""
""focus"",""19"",""184726""
","""event"",""trial"",""time""
""blur"",""19"",""178106""
","""event"",""trial"",""time""
""focus"",""19"",""184726""
","""event"",""trial"",""time""
""fullscreenenter"",""1"",""2184""
","""event"",""trial"",""time""
""fullscreenexit"",""19"",""178114""
","","","-1","","","18","20690","7936","&#9826;","elianto","#f73b6a7A","-1","-1","1","0","[]","0","0","3","","","","","","","",""
"pit-trial","76","608150","0.0-2.0-14.3-2.3","battery-v0.2","","""event"",""trial"",""time""
""fullscreenenter"",""1"",""2184""
""blur"",""19"",""178106""
""fullscreenexit"",""19"",""178114""
""focus"",""19"",""184726""
","""event"",""trial"",""time""
""blur"",""19"",""178106""
","""event"",""trial"",""time""
""focus"",""19"",""184726""
","""event"",""trial"",""time""
""fullscreenenter"",""1"",""2184""
","""event"",""trial"",""time""
""fullscreenexit"",""19"",""178114""
","","","-1","","","18","20690","7936","&#9826;","elianto","#f73b6a7A","-1","-1","1","0","[]","0","0","3","","","","","","","",""
"pit-trial","77","613010","0.0-2.0-14.3-3.3","battery-v0.2","","""event"",""trial"",""time""
""fullscreenenter"",""1"",""2184""
""blur"",""19"",""178106""
""fullscreenexit"",""19"",""178114""
""focus"",""19"",""184726""
","""event"",""trial"",""time""
""blur"",""19"",""178106""
","""event"",""trial"",""time""
""focus"",""19"",""184726""
","""event"",""trial"",""time""
""fullscreenenter"",""1"",""2184""
","""event"",""trial"",""time""
""fullscreenexit"",""19"",""178114""
","","","-1","","","18","20690","7936","&#9826;","elianto","#f73b6a7A","-1","-1","1","-10","[]","0","0","3","","","","","","","",""
"pit-trial","78","617883","0.0-2.0-14.3-4.3","battery-v0.2","","""event"",""trial"",""time""
""fullscreenenter"",""1"",""2184""
""blur"",""19"",""178106""
""fullscreenexit"",""19"",""178114""
""focus"",""19"",""184726""
","""event"",""trial"",""time""
""blur"",""19"",""178106""
","""event"",""trial"",""time""
""focus"",""19"",""184726""
","""event"",""trial"",""time""
""fullscreenenter"",""1"",""2184""
","""event"",""trial"",""time""
""fullscreenexit"",""19"",""178114""
","","","-1","","","18","20690","7936","&#9826;","elianto","#f73b6a7A","-1","-1","1","0","[]","0","0","3","","","","","","","",""
"call-function","79","617885","0.0-2.0-15.0","battery-v0.2","","""event"",""trial"",""time""
""fullscreenenter"",""1"",""2184""
""blur"",""19"",""178106""
""fullscreenexit"",""19"",""178114""
""focus"",""19"",""184726""
","""event"",""trial"",""time""
""blur"",""19"",""178106""
","""event"",""trial"",""time""
""focus"",""19"",""184726""
","""event"",""trial"",""time""
""fullscreenenter"",""1"",""2184""
","""event"",""trial"",""time""
""fullscreenexit"",""19"",""178114""
","","","","","","","","","","","","","","","","","","","","","","","","","","",""
"pit-instructions","80","655105","0.0-2.0-16.0","battery-v0.2","","""event"",""trial"",""time""
""fullscreenenter"",""1"",""2184""
""blur"",""19"",""178106""
""fullscreenexit"",""19"",""178114""
""focus"",""19"",""184726""
","""event"",""trial"",""time""
""blur"",""19"",""178106""
","""event"",""trial"",""time""
""focus"",""19"",""184726""
","""event"",""trial"",""time""
""fullscreenenter"",""1"",""2184""
","""event"",""trial"",""time""
""fullscreenexit"",""19"",""178114""
","","[{""page_index"":0,""viewing_time"":17946.5},{""page_index"":1,""viewing_time"":8060.5},{""page_index"":2,""viewing_time"":5294.5999999940395},{""page_index"":3,""viewing_time"":5916.20000000298}]","37218.29999999702","","","","","","","","","","","","","","","","","","","","","","","",""
"pit-trial","81","658416","0.0-2.0-17.0-0.0","battery-v0.2","","""event"",""trial"",""time""
""fullscreenenter"",""1"",""2184""
""blur"",""19"",""178106""
""fullscreenexit"",""19"",""178114""
""focus"",""19"",""184726""
","""event"",""trial"",""time""
""blur"",""19"",""178106""
","""event"",""trial"",""time""
""focus"",""19"",""184726""
","""event"",""trial"",""time""
""fullscreenenter"",""1"",""2184""
","""event"",""trial"",""time""
""fullscreenexit"",""19"",""178114""
","","","445.70000000298023","","","18","20690","7936","&#9789;","elianto","#f73b6a7A"," "," ","1","0","[1307.1000000014901]","1","0","4","","","","","","","",""
"pit-trial","82","661604","0.0-2.0-17.0-1.0","battery-v0.2","","""event"",""trial"",""time""
""fullscreenenter"",""1"",""2184""
""blur"",""19"",""178106""
""fullscreenexit"",""19"",""178114""
""focus"",""19"",""184726""
","""event"",""trial"",""time""
""blur"",""19"",""178106""
","""event"",""trial"",""time""
""focus"",""19"",""184726""
","""event"",""trial"",""time""
""fullscreenenter"",""1"",""2184""
","""event"",""trial"",""time""
""fullscreenexit"",""19"",""178114""
","","","333.3999999985099","","","18","20690","7936","&#9789;","elianto","#f73b6a7A"," "," ","1","0","[1183.5999999940395,1673.7999999970198,2669.5,2891.5999999940395]","4","0","4","","","","","","","",""
"pit-trial","83","664478","0.0-2.0-17.0-2.0","battery-v0.2","","""event"",""trial"",""time""
""fullscreenenter"",""1"",""2184""
""blur"",""19"",""178106""
""fullscreenexit"",""19"",""178114""
""focus"",""19"",""184726""
","""event"",""trial"",""time""
""blur"",""19"",""178106""
","""event"",""trial"",""time""
""focus"",""19"",""184726""
","""event"",""trial"",""time""
""fullscreenenter"",""1"",""2184""
","""event"",""trial"",""time""
""fullscreenexit"",""19"",""178114""
","","","9","","","18","20690","7936","&#9789;","elianto","#f73b6a7A"," "," ","1","0","[121.59999999403954,388.19999999552965,611.5999999940395,863.5,1118.5]","5","0","4","","","","","","","",""
"pit-trial","84","667841","0.0-2.0-17.0-3.0","battery-v0.2","","""event"",""trial"",""time""
""fullscreenenter"",""1"",""2184""
""blur"",""19"",""178106""
""fullscreenexit"",""19"",""178114""
""focus"",""19"",""184726""
","""event"",""trial"",""time""
""blur"",""19"",""178106""
","""event"",""trial"",""time""
""focus"",""19"",""184726""
","""event"",""trial"",""time""
""fullscreenenter"",""1"",""2184""
","""event"",""trial"",""time""
""fullscreenexit"",""19"",""178114""
","","","489.6000000014901","","","18","20690","7936","&#9789;","elianto","#f73b6a7A"," "," ","1","-10","[30.100000001490116,566.9000000059605,1344.8000000044703]","3","0","4","","","","","","","",""
"pit-trial","85","670973","0.0-2.0-17.0-4.0","battery-v0.2","","""event"",""trial"",""time""
""fullscreenenter"",""1"",""2184""
""blur"",""19"",""178106""
""fullscreenexit"",""19"",""178114""
""focus"",""19"",""184726""
","""event"",""trial"",""time""
""blur"",""19"",""178106""
","""event"",""trial"",""time""
""focus"",""19"",""184726""
","""event"",""trial"",""time""
""fullscreenenter"",""1"",""2184""
","""event"",""trial"",""time""
""fullscreenexit"",""19"",""178114""
","","","274.8999999985099","","","18","20690","7936","&#9789;","elianto","#f73b6a7A"," "," ","1","0","[801.7000000029802,1126.6000000014901]","2","0","4","","","","","","","",""
"pit-trial","86","673911","0.0-2.0-17.1-0.1","battery-v0.2","","""event"",""trial"",""time""
""fullscreenenter"",""1"",""2184""
""blur"",""19"",""178106""
""fullscreenexit"",""19"",""178114""
""focus"",""19"",""184726""
","""event"",""trial"",""time""
""blur"",""19"",""178106""
","""event"",""trial"",""time""
""focus"",""19"",""184726""
","""event"",""trial"",""time""
""fullscreenenter"",""1"",""2184""
","""event"",""trial"",""time""
""fullscreenexit"",""19"",""178114""
","","","77.39999999850988","","","18","20690","7936","&#9789;","elianto","#f73b6a7A"," "," ","1","0","[587.8999999985099,932.1999999955297,1169.1999999955297]","3","0","4","","","","","","","",""
"pit-trial","87","676851","0.0-2.0-17.1-1.1","battery-v0.2","","""event"",""trial"",""time""
""fullscreenenter"",""1"",""2184""
""blur"",""19"",""178106""
""fullscreenexit"",""19"",""178114""
""focus"",""19"",""184726""
","""event"",""trial"",""time""
""blur"",""19"",""178106""
","""event"",""trial"",""time""
""focus"",""19"",""184726""
","""event"",""trial"",""time""
""fullscreenenter"",""1"",""2184""
","""event"",""trial"",""time""
""fullscreenexit"",""19"",""178114""
","","","72.90000000596046","","","18","20690","7936","&#9789;","elianto","#f73b6a7A"," "," ","1","0","[652.5999999940395,928.5,1175.3999999985099,2439.39999999851,2889.2999999970198]","5","0","4","","","","","","","",""
"pit-trial","88","680092","0.0-2.0-17.1-2.1","battery-v0.2","","""event"",""trial"",""time""
""fullscreenenter"",""1"",""2184""
""blur"",""19"",""178106""
""fullscreenexit"",""19"",""178114""
""focus"",""19"",""184726""
","""event"",""trial"",""time""
""blur"",""19"",""178106""
","""event"",""trial"",""time""
""focus"",""19"",""184726""
","""event"",""trial"",""time""
""fullscreenenter"",""1"",""2184""
","""event"",""trial"",""time""
""fullscreenexit"",""19"",""178114""
","","","370.29999999701977","","","18","20690","7936","&#9789;","elianto","#f73b6a7A"," "," ","1","0","[847.5,1228.3999999985099]","2","0","4","","","","","","","",""
"pit-trial","89","683222","0.0-2.0-17.1-3.1","battery-v0.2","","""event"",""trial"",""time""
""fullscreenenter"",""1"",""2184""
""blur"",""19"",""178106""
""fullscreenexit"",""19"",""178114""
""focus"",""19"",""184726""
","""event"",""trial"",""time""
""blur"",""19"",""178106""
","""event"",""trial"",""time""
""focus"",""19"",""184726""
","""event"",""trial"",""time""
""fullscreenenter"",""1"",""2184""
","""event"",""trial"",""time""
""fullscreenexit"",""19"",""178114""
","","","264","","","18","20690","7936","&#9789;","elianto","#f73b6a7A"," "," ","1","-10","[114.60000000149012,426.70000000298023,1121.7999999970198,1543.1000000014901,1824.6000000014901,2380.5,2985.89999999851]","7","0","4","","","","","","","",""
"pit-trial","90","686118","0.0-2.0-17.1-4.1","battery-v0.2","","""event"",""trial"",""time""
""fullscreenenter"",""1"",""2184""
""blur"",""19"",""178106""
""fullscreenexit"",""19"",""178114""
""focus"",""19"",""184726""
","""event"",""trial"",""time""
""blur"",""19"",""178106""
","""event"",""trial"",""time""
""focus"",""19"",""184726""
","""event"",""trial"",""time""
""fullscreenenter"",""1"",""2184""
","""event"",""trial"",""time""
""fullscreenexit"",""19"",""178114""
","","","30","","","18","20690","7936","&#9789;","elianto","#f73b6a7A"," "," ","1","0","[587.5,886.8000000044703,1136,1435,2212.60000000149,2640.39999999851]","6","0","4","","","","","","","",""
"pit-trial","91","689029","0.0-2.0-17.2-0.2","battery-v0.2","","""event"",""trial"",""time""
""fullscreenenter"",""1"",""2184""
""blur"",""19"",""178106""
""fullscreenexit"",""19"",""178114""
""focus"",""19"",""184726""
","""event"",""trial"",""time""
""blur"",""19"",""178106""
","""event"",""trial"",""time""
""focus"",""19"",""184726""
","""event"",""trial"",""time""
""fullscreenenter"",""1"",""2184""
","""event"",""trial"",""time""
""fullscreenexit"",""19"",""178114""
","","","44.399999998509884","","","18","20690","7936","&#9789;","elianto","#f73b6a7A"," "," ","1","0","[335.1000000014901,902.3999999985099,1464,2141.8000000044703,2444.60000000149,2832.2000000029802]","6","0","4","","","","","","","",""
"pit-trial","92","692027","0.0-2.0-17.2-1.2","battery-v0.2","","""event"",""trial"",""time""
""fullscreenenter"",""1"",""2184""
""blur"",""19"",""178106""
""fullscreenexit"",""19"",""178114""
""focus"",""19"",""184726""
","""event"",""trial"",""time""
""blur"",""19"",""178106""
","""event"",""trial"",""time""
""focus"",""19"",""184726""
","""event"",""trial"",""time""
""fullscreenenter"",""1"",""2184""
","""event"",""trial"",""time""
""fullscreenexit"",""19"",""178114""
","","","132.10000000149012","","","18","20690","7936","&#9789;","elianto","#f73b6a7A"," "," ","1","0","[988.7000000029802,1594.5]","2","0","4","","","","","","","",""
"pit-trial","93","694950","0.0-2.0-17.2-2.2","battery-v0.2","","""event"",""trial"",""time""
""fullscreenenter"",""1"",""2184""
""blur"",""19"",""178106""
""fullscreenexit"",""19"",""178114""
""focus"",""19"",""184726""
","""event"",""trial"",""time""
""blur"",""19"",""178106""
","""event"",""trial"",""time""
""focus"",""19"",""184726""
","""event"",""trial"",""time""
""fullscreenenter"",""1"",""2184""
","""event"",""trial"",""time""
""fullscreenexit"",""19"",""178114""
","","","64.39999999850988","","","18","20690","7936","&#9789;","elianto","#f73b6a7A"," "," ","1","0","[179.29999999701977,535.7999999970198,915.3999999985099,1414.5,1873.7999999970198,2531.10000000149]","6","0","4","","","","","","","",""
"pit-trial","94","697949","0.0-2.0-17.2-3.2","battery-v0.2","","""event"",""trial"",""time""
""fullscreenenter"",""1"",""2184""
""blur"",""19"",""178106""
""fullscreenexit"",""19"",""178114""
""focus"",""19"",""184726""
","""event"",""trial"",""time""
""blur"",""19"",""178106""
","""event"",""trial"",""time""
""focus"",""19"",""184726""
","""event"",""trial"",""time""
""fullscreenenter"",""1"",""2184""
","""event"",""trial"",""time""
""fullscreenexit"",""19"",""178114""
","","","138.70000000298023","","","18","20690","7936","&#9789;","elianto","#f73b6a7A"," "," ","1","-10","[157.29999999701977,471.3999999985099,991,1620.8999999985099,2053.89999999851,2907.1999999955297]","6","0","4","","","","","","","",""
"pit-trial","95","701266","0.0-2.0-17.2-4.2","battery-v0.2","","""event"",""trial"",""time""
""fullscreenenter"",""1"",""2184""
""blur"",""19"",""178106""
""fullscreenexit"",""19"",""178114""
""focus"",""19"",""184726""
","""event"",""trial"",""time""
""blur"",""19"",""178106""
","""event"",""trial"",""time""
""focus"",""19"",""184726""
","""event"",""trial"",""time""
""fullscreenenter"",""1"",""2184""
","""event"",""trial"",""time""
""fullscreenexit"",""19"",""178114""
","","","460.1000000014901","","","18","20690","7936","&#9789;","elianto","#f73b6a7A"," "," ","1","0","[699,1310.5,2098.7999999970198,2505.0999999940395,3150.5999999940395]","5","0","4","","","","","","","",""
"pit-trial","96","704340","0.0-2.0-17.3-0.3","battery-v0.2","","""event"",""trial"",""time""
""fullscreenenter"",""1"",""2184""
""blur"",""19"",""178106""
""fullscreenexit"",""19"",""178114""
""focus"",""19"",""184726""
","""event"",""trial"",""time""
""blur"",""19"",""178106""
","""event"",""trial"",""time""
""focus"",""19"",""184726""
","""event"",""trial"",""time""
""fullscreenenter"",""1"",""2184""
","""event"",""trial"",""time""
""fullscreenexit"",""19"",""178114""
","","","206.80000000447035","","","18","20690","7936","&#9789;","elianto","#f73b6a7A"," "," ","1","0","[456.19999999552965,1057.5,1832.8999999985099]","3","0","4","","","","","","","",""
"pit-trial","97","708188","0.0-2.0-17.3-1.3","battery-v0.2","","""event"",""trial"",""time""
""fullscreenenter"",""1"",""2184""
""blur"",""19"",""178106""
""fullscreenexit"",""19"",""178114""
""focus"",""19"",""184726""
","""event"",""trial"",""time""
""blur"",""19"",""178106""
","""event"",""trial"",""time""
""focus"",""19"",""184726""
","""event"",""trial"",""time""
""fullscreenenter"",""1"",""2184""
","""event"",""trial"",""time""
""fullscreenexit"",""19"",""178114""
","","","992.2000000029802","","","18","20690","7936","&#9789;","elianto","#f73b6a7A"," "," ","1","0","[238.20000000298023,540.3000000044703,1843.7000000029802,2284.10000000149,3023.9000000059605,3496.7000000029802]","6","0","4","","","","","","","",""
"pit-trial","98","711146","0.0-2.0-17.3-2.3","battery-v0.2","","""event"",""trial"",""time""
""fullscreenenter"",""1"",""2184""
""blur"",""19"",""178106""
""fullscreenexit"",""19"",""178114""
""focus"",""19"",""184726""
","""event"",""trial"",""time""
""blur"",""19"",""178106""
","""event"",""trial"",""time""
""focus"",""19"",""184726""
","""event"",""trial"",""time""
""fullscreenenter"",""1"",""2184""
","""event"",""trial"",""time""
""fullscreenexit"",""19"",""178114""
","","","92.5","","","18","20690","7936","&#9789;","elianto","#f73b6a7A"," "," ","1","0","[109.79999999701977,567.6999999955297,948.1999999955297,1237,1584.3999999985099,1909.5,2168.2999999970198,2385.6999999955297,2627.39999999851,2954.39999999851]","10","0","4","","","","","","","",""
"pit-trial","99","714091","0.0-2.0-17.3-3.3","battery-v0.2","","""event"",""trial"",""time""
""fullscreenenter"",""1"",""2184""
""blur"",""19"",""178106""
""fullscreenexit"",""19"",""178114""
""focus"",""19"",""184726""
","""event"",""trial"",""time""
""blur"",""19"",""178106""
","""event"",""trial"",""time""
""focus"",""19"",""184726""
","""event"",""trial"",""time""
""fullscreenenter"",""1"",""2184""
","""event"",""trial"",""time""
""fullscreenexit"",""19"",""178114""
","","","80.10000000149012","","","18","20690","7936","&#9789;","elianto","#f73b6a7A"," "," ","1","-10","[933.5,1435.3999999985099,2047.1999999955297,2293.89999999851,2395.60000000149,2672.39999999851]","6","0","4","","","","","","","",""
"pit-trial","100","717793","0.0-2.0-17.3-4.3","battery-v0.2","","""event"",""trial"",""time""
""fullscreenenter"",""1"",""2184""
""blur"",""19"",""178106""
""fullscreenexit"",""19"",""178114""
""focus"",""19"",""184726""
","""event"",""trial"",""time""
""blur"",""19"",""178106""
","""event"",""trial"",""time""
""focus"",""19"",""184726""
","""event"",""trial"",""time""
""fullscreenenter"",""1"",""2184""
","""event"",""trial"",""time""
""fullscreenexit"",""19"",""178114""
","","","836","","","18","20690","7936","&#9789;","elianto","#f73b6a7A"," "," ","1","0","[349,1693.1000000014901,1999,2407.60000000149,2692.10000000149,3129.8000000044703,3565.4000000059605]","7","0","4","","","","","","","",""
"call-function","101","717795","0.0-2.0-18.0","battery-v0.2","","""event"",""trial"",""time""
""fullscreenenter"",""1"",""2184""
""blur"",""19"",""178106""
""fullscreenexit"",""19"",""178114""
""focus"",""19"",""184726""
","""event"",""trial"",""time""
""blur"",""19"",""178106""
","""event"",""trial"",""time""
""focus"",""19"",""184726""
","""event"",""trial"",""time""
""fullscreenenter"",""1"",""2184""
","""event"",""trial"",""time""
""fullscreenexit"",""19"",""178114""
","","","","","","","","","","","","","","","","","","","","","","","","","","",""
"pit-instructions","102","863222","0.0-2.0-19.0","battery-v0.2","","""event"",""trial"",""time""
""fullscreenenter"",""1"",""2184""
""blur"",""19"",""178106""
""fullscreenexit"",""19"",""178114""
""focus"",""19"",""184726""
","""event"",""trial"",""time""
""blur"",""19"",""178106""
","""event"",""trial"",""time""
""focus"",""19"",""184726""
","""event"",""trial"",""time""
""fullscreenenter"",""1"",""2184""
","""event"",""trial"",""time""
""fullscreenexit"",""19"",""178114""
","","[{""page_index"":0,""viewing_time"":8441},{""page_index"":1,""viewing_time"":6227.5},{""page_index"":2,""viewing_time"":12300.39999999851},{""page_index"":3,""viewing_time"":85442},{""page_index"":4,""viewing_time"":7999.89999999851},{""page_index"":5,""viewing_time"":9047.70000000298},{""page_index"":6,""viewing_time"":6110.20000000298},{""page_index"":7,""viewing_time"":6019.39999999851},{""page_index"":8,""viewing_time"":3841.60000000149}]","145430.70000000298","","","","","","","","","","","","","","","","","","","","","","","",""
"pit-comprehension","103","868530","0.0-2.0-20.0-0.0","battery-v0.2","","""event"",""trial"",""time""
""fullscreenenter"",""1"",""2184""
""blur"",""19"",""178106""
""fullscreenexit"",""19"",""178114""
""focus"",""19"",""184726""
","""event"",""trial"",""time""
""blur"",""19"",""178106""
","""event"",""trial"",""time""
""focus"",""19"",""184726""
","""event"",""trial"",""time""
""fullscreenenter"",""1"",""2184""
","""event"",""trial"",""time""
""fullscreenexit"",""19"",""178114""
","","","5300.39999999851","[""SPACE""]","0","18","20690","7936","","","","","","","","","","","","","","","","","","",""
"pit-instructions","104","871123","0.0-2.0-20.0-1.0","battery-v0.2","","""event"",""trial"",""time""
""fullscreenenter"",""1"",""2184""
""blur"",""19"",""178106""
""fullscreenexit"",""19"",""178114""
""focus"",""19"",""184726""
","""event"",""trial"",""time""
""blur"",""19"",""178106""
","""event"",""trial"",""time""
""focus"",""19"",""184726""
","""event"",""trial"",""time""
""fullscreenenter"",""1"",""2184""
","""event"",""trial"",""time""
""fullscreenexit"",""19"",""178114""
","","[{""page_index"":0,""viewing_time"":2550.89999999851}]","2551.60000000149","","","","","","","","","","","","","","","","","","","","","","","",""
"pit-comprehension","105","875638","0.0-2.0-21.0-0.0","battery-v0.2","","""event"",""trial"",""time""
""fullscreenenter"",""1"",""2184""
""blur"",""19"",""178106""
""fullscreenexit"",""19"",""178114""
""focus"",""19"",""184726""
","""event"",""trial"",""time""
""blur"",""19"",""178106""
","""event"",""trial"",""time""
""focus"",""19"",""184726""
","""event"",""trial"",""time""
""fullscreenenter"",""1"",""2184""
","""event"",""trial"",""time""
""fullscreenexit"",""19"",""178114""
","","","4507.10000000149","[""10""]","0","18","20690","7936","","","","","","","","","","","","","","","","","","",""
"pit-instructions","106","877317","0.0-2.0-21.0-1.0","battery-v0.2","","""event"",""trial"",""time""
""fullscreenenter"",""1"",""2184""
""blur"",""19"",""178106""
""fullscreenexit"",""19"",""178114""
""focus"",""19"",""184726""
","""event"",""trial"",""time""
""blur"",""19"",""178106""
","""event"",""trial"",""time""
""focus"",""19"",""184726""
","""event"",""trial"",""time""
""fullscreenenter"",""1"",""2184""
","""event"",""trial"",""time""
""fullscreenexit"",""19"",""178114""
","","[{""page_index"":0,""viewing_time"":1631.3000000044703}]","1632.6000000014901","","","","","","","","","","","","","","","","","","","","","","","",""
"pit-comprehension","107","883786","0.0-2.0-22.0-0.0","battery-v0.2","","""event"",""trial"",""time""
""fullscreenenter"",""1"",""2184""
""blur"",""19"",""178106""
""fullscreenexit"",""19"",""178114""
""focus"",""19"",""184726""
","""event"",""trial"",""time""
""blur"",""19"",""178106""
","""event"",""trial"",""time""
""focus"",""19"",""184726""
","""event"",""trial"",""time""
""fullscreenenter"",""1"",""2184""
","""event"",""trial"",""time""
""fullscreenexit"",""19"",""178114""
","","","6453.60000000149","[""0""]","0","18","20690","7936","","","","","","","","","","","","","","","","","","",""
"pit-instructions","108","885343","0.0-2.0-22.0-1.0","battery-v0.2","","""event"",""trial"",""time""
""fullscreenenter"",""1"",""2184""
""blur"",""19"",""178106""
""fullscreenexit"",""19"",""178114""
""focus"",""19"",""184726""
","""event"",""trial"",""time""
""blur"",""19"",""178106""
","""event"",""trial"",""time""
""focus"",""19"",""184726""
","""event"",""trial"",""time""
""fullscreenenter"",""1"",""2184""
","""event"",""trial"",""time""
""fullscreenexit"",""19"",""178114""
","","[{""page_index"":0,""viewing_time"":1507}]","1507.7000000029802","","","","","","","","","","","","","","","","","","","","","","","",""
"pit-comprehension","109","894746","0.0-2.0-23.0-0.0","battery-v0.2","","""event"",""trial"",""time""
""fullscreenenter"",""1"",""2184""
""blur"",""19"",""178106""
""fullscreenexit"",""19"",""178114""
""focus"",""19"",""184726""
","""event"",""trial"",""time""
""blur"",""19"",""178106""
","""event"",""trial"",""time""
""focus"",""19"",""184726""
","""event"",""trial"",""time""
""fullscreenenter"",""1"",""2184""
","""event"",""trial"",""time""
""fullscreenexit"",""19"",""178114""
","","","9393.29999999702","[""False""]","1","18","20690","7936","","","","","","","","","","","","","","","","","","",""
"pit-instructions","110","901079","0.0-2.0-23.0-1.0","battery-v0.2","","""event"",""trial"",""time""
""fullscreenenter"",""1"",""2184""
""blur"",""19"",""178106""
""fullscreenexit"",""19"",""178114""
""focus"",""19"",""184726""
","""event"",""trial"",""time""
""blur"",""19"",""178106""
","""event"",""trial"",""time""
""focus"",""19"",""184726""
","""event"",""trial"",""time""
""fullscreenenter"",""1"",""2184""
","""event"",""trial"",""time""
""fullscreenexit"",""19"",""178114""
","","[{""page_index"":0,""viewing_time"":6290.10000000149}]","6291.10000000149","","","","","","","","","","","","","","","","","","","","","","","",""
"pit-instructions","111","902343","0.0-2.0-23.0-2.0-0.0","battery-v0.2","","""event"",""trial"",""time""
""fullscreenenter"",""1"",""2184""
""blur"",""19"",""178106""
""fullscreenexit"",""19"",""178114""
""focus"",""19"",""184726""
","""event"",""trial"",""time""
""blur"",""19"",""178106""
","""event"",""trial"",""time""
""focus"",""19"",""184726""
","""event"",""trial"",""time""
""fullscreenenter"",""1"",""2184""
","""event"",""trial"",""time""
""fullscreenexit"",""19"",""178114""
","","[{""page_index"":0,""viewing_time"":1259.3999999985099}]","1260.3999999985099","","","","","","","","","","","","","","","","","","","","","","","",""
"pit-comprehension","112","910477","0.0-2.0-23.1-0.1","battery-v0.2","","""event"",""trial"",""time""
""fullscreenenter"",""1"",""2184""
""blur"",""19"",""178106""
""fullscreenexit"",""19"",""178114""
""focus"",""19"",""184726""
","""event"",""trial"",""time""
""blur"",""19"",""178106""
","""event"",""trial"",""time""
""focus"",""19"",""184726""
","""event"",""trial"",""time""
""fullscreenenter"",""1"",""2184""
","""event"",""trial"",""time""
""fullscreenexit"",""19"",""178114""
","","","8129.0999999940395","[""True""]","0","18","20690","7936","","","","","","","","","","","","","","","","","","",""
"pit-instructions","113","915912","0.0-2.0-23.1-1.1","battery-v0.2","","""event"",""trial"",""time""
""fullscreenenter"",""1"",""2184""
""blur"",""19"",""178106""
""fullscreenexit"",""19"",""178114""
""focus"",""19"",""184726""
","""event"",""trial"",""time""
""blur"",""19"",""178106""
","""event"",""trial"",""time""
""focus"",""19"",""184726""
","""event"",""trial"",""time""
""fullscreenenter"",""1"",""2184""
","""event"",""trial"",""time""
""fullscreenexit"",""19"",""178114""
","","[{""page_index"":0,""viewing_time"":5394.89999999851}]","5395.20000000298","","","","","","","","","","","","","","","","","","","","","","","",""
"pit-comprehension","114","923227","0.0-2.0-24.0-0.0","battery-v0.2","","""event"",""trial"",""time""
""fullscreenenter"",""1"",""2184""
""blur"",""19"",""178106""
""fullscreenexit"",""19"",""178114""
""focus"",""19"",""184726""
","""event"",""trial"",""time""
""blur"",""19"",""178106""
","""event"",""trial"",""time""
""focus"",""19"",""184726""
","""event"",""trial"",""time""
""fullscreenenter"",""1"",""2184""
","""event"",""trial"",""time""
""fullscreenexit"",""19"",""178114""
","","","7311.80000000447","[""True""]","0","18","20690","7936","","","","","","","","","","","","","","","","","","",""
"pit-instructions","115","924955","0.0-2.0-24.0-1.0","battery-v0.2","","""event"",""trial"",""time""
""fullscreenenter"",""1"",""2184""
""blur"",""19"",""178106""
""fullscreenexit"",""19"",""178114""
""focus"",""19"",""184726""
","""event"",""trial"",""time""
""blur"",""19"",""178106""
","""event"",""trial"",""time""
""focus"",""19"",""184726""
","""event"",""trial"",""time""
""fullscreenenter"",""1"",""2184""
","""event"",""trial"",""time""
""fullscreenexit"",""19"",""178114""
","","[{""page_index"":0,""viewing_time"":1682}]","1682.6999999955297","","","","","","","","","","","","","","","","","","","","","","","",""
"pit-comprehension","116","930974","0.0-2.0-25.0-0.0","battery-v0.2","","""event"",""trial"",""time""
""fullscreenenter"",""1"",""2184""
""blur"",""19"",""178106""
""fullscreenexit"",""19"",""178114""
""focus"",""19"",""184726""
","""event"",""trial"",""time""
""blur"",""19"",""178106""
","""event"",""trial"",""time""
""focus"",""19"",""184726""
","""event"",""trial"",""time""
""fullscreenenter"",""1"",""2184""
","""event"",""trial"",""time""
""fullscreenexit"",""19"",""178114""
","","","6010.5999999940395","[""True""]","0","18","20690","7936","","","","","","","","","","","","","","","","","","",""
"pit-instructions","117","933173","0.0-2.0-25.0-1.0","battery-v0.2","","""event"",""trial"",""time""
""fullscreenenter"",""1"",""2184""
""blur"",""19"",""178106""
""fullscreenexit"",""19"",""178114""
""focus"",""19"",""184726""
","""event"",""trial"",""time""
""blur"",""19"",""178106""
","""event"",""trial"",""time""
""focus"",""19"",""184726""
","""event"",""trial"",""time""
""fullscreenenter"",""1"",""2184""
","""event"",""trial"",""time""
""fullscreenexit"",""19"",""178114""
","","[{""page_index"":0,""viewing_time"":2153.2999999970198}]","2154.39999999851","","","","","","","","","","","","","","","","","","","","","","","",""
"pit-comprehension","118","937824","0.0-2.0-26.0-0.0","battery-v0.2","","""event"",""trial"",""time""
""fullscreenenter"",""1"",""2184""
""blur"",""19"",""178106""
""fullscreenexit"",""19"",""178114""
""focus"",""19"",""184726""
","""event"",""trial"",""time""
""blur"",""19"",""178106""
","""event"",""trial"",""time""
""focus"",""19"",""184726""
","""event"",""trial"",""time""
""fullscreenenter"",""1"",""2184""
","""event"",""trial"",""time""
""fullscreenexit"",""19"",""178114""
","","","4644.60000000149","[""False""]","0","18","20690","7936","","","","","","","","","","","","","","","","","","",""
"pit-instructions","119","939837","0.0-2.0-26.0-1.0","battery-v0.2","","""event"",""trial"",""time""
""fullscreenenter"",""1"",""2184""
""blur"",""19"",""178106""
""fullscreenexit"",""19"",""178114""
""focus"",""19"",""184726""
","""event"",""trial"",""time""
""blur"",""19"",""178106""
","""event"",""trial"",""time""
""focus"",""19"",""184726""
","""event"",""trial"",""time""
""fullscreenenter"",""1"",""2184""
","""event"",""trial"",""time""
""fullscreenexit"",""19"",""178114""
","","[{""page_index"":0,""viewing_time"":1968.7000000029802}]","1969.6000000014901","","","","","","","","","","","","","","","","","","","","","","","",""
"pit-instructions","120","955548","0.0-3.0","battery-v0.2","","""event"",""trial"",""time""
""fullscreenenter"",""1"",""2184""
""blur"",""19"",""178106""
""fullscreenexit"",""19"",""178114""
""focus"",""19"",""184726""
","""event"",""trial"",""time""
""blur"",""19"",""178106""
","""event"",""trial"",""time""
""focus"",""19"",""184726""
","""event"",""trial"",""time""
""fullscreenenter"",""1"",""2184""
","""event"",""trial"",""time""
""fullscreenexit"",""19"",""178114""
","","[{""page_index"":0,""viewing_time"":3694.39999999851},{""page_index"":1,""viewing_time"":5150.20000000298},{""page_index"":2,""viewing_time"":6865.20000000298}]","15710.80000000447","","","","","","","","","","","","","","","","","","","","","","","",""
"pit-trial","121","959109","0.0-4.0","battery-v0.2","","""event"",""trial"",""time""
""fullscreenenter"",""1"",""2184""
""blur"",""19"",""178106""
""fullscreenexit"",""19"",""178114""
""focus"",""19"",""184726""
","""event"",""trial"",""time""
""blur"",""19"",""178106""
","""event"",""trial"",""time""
""focus"",""19"",""184726""
","""event"",""trial"",""time""
""fullscreenenter"",""1"",""2184""
","""event"",""trial"",""time""
""fullscreenexit"",""19"",""178114""
","","","682.7000000029802","","","18","20690","7936","&#9730;","elianto","#3366ff99"," "," ","1","+10","[1537.2000000029802]","1","1","","","20690","1","1","1","win","go","0"
"pit-trial","122","962967","0.0-5.0","battery-v0.2","","""event"",""trial"",""time""
""fullscreenenter"",""1"",""2184""
""blur"",""19"",""178106""
""fullscreenexit"",""19"",""178114""
""focus"",""19"",""184726""
","""event"",""trial"",""time""
""blur"",""19"",""178106""
","""event"",""trial"",""time""
""focus"",""19"",""184726""
","""event"",""trial"",""time""
""fullscreenenter"",""1"",""2184""
","""event"",""trial"",""time""
""fullscreenexit"",""19"",""178114""
","","","1001.1000000014901","","","18","20690","7936","&#9728;","elianto","#f73b6a7A","-1"," ","0","0","[1852.5]","1","1","","","20690","2","0","4","lose","no-go","1"
"pit-trial","123","966710","0.0-6.0","battery-v0.2","","""event"",""trial"",""time""
""fullscreenenter"",""1"",""2184""
""blur"",""19"",""178106""
""fullscreenexit"",""19"",""178114""
""focus"",""19"",""184726""
","""event"",""trial"",""time""
""blur"",""19"",""178106""
","""event"",""trial"",""time""
""focus"",""19"",""184726""
","""event"",""trial"",""time""
""fullscreenenter"",""1"",""2184""
","""event"",""trial"",""time""
""fullscreenexit"",""19"",""178114""
","","","868.1999999955297","","","18","20690","7936","&#9752;","elianto","#f73b6a7A"," "," ","1","-10","[1723.8999999985099]","1","1","","","20690","3","3","3","lose","go","1"
"pit-trial","124","970382","0.0-7.0","battery-v0.2","","""event"",""trial"",""time""
""fullscreenenter"",""1"",""2184""
""blur"",""19"",""178106""
""fullscreenexit"",""19"",""178114""
""focus"",""19"",""184726""
","""event"",""trial"",""time""
""blur"",""19"",""178106""
","""event"",""trial"",""time""
""focus"",""19"",""184726""
","""event"",""trial"",""time""
""fullscreenenter"",""1"",""2184""
","""event"",""trial"",""time""
""fullscreenexit"",""19"",""178114""
","","","813.7999999970198","","","18","20690","7936","&#9733;","elianto","#3366ff99","-1"," ","0","0","[1665.6000000014901]","1","1","","","20690","4","2","2","win","no-go","0"
"pit-trial","125","975252","0.0-8.0","battery-v0.2","","""event"",""trial"",""time""
""fullscreenenter"",""1"",""2184""
""blur"",""19"",""178106""
""fullscreenexit"",""19"",""178114""
""focus"",""19"",""184726""
","""event"",""trial"",""time""
""blur"",""19"",""178106""
","""event"",""trial"",""time""
""focus"",""19"",""184726""
","""event"",""trial"",""time""
""fullscreenenter"",""1"",""2184""
","""event"",""trial"",""time""
""fullscreenexit"",""19"",""178114""
","","","-1","","","18","20690","7936","&#9752;","elianto","#f73b6a7A"," ","-1","0","-10","[]","0","1","","","20690","5","3","3","lose","go","0"
"pit-trial","126","979529","0.0-9.0","battery-v0.2","","""event"",""trial"",""time""
""fullscreenenter"",""1"",""2184""
""blur"",""19"",""178106""
""fullscreenexit"",""19"",""178114""
""focus"",""19"",""184726""
","""event"",""trial"",""time""
""blur"",""19"",""178106""
","""event"",""trial"",""time""
""focus"",""19"",""184726""
","""event"",""trial"",""time""
""fullscreenenter"",""1"",""2184""
","""event"",""trial"",""time""
""fullscreenexit"",""19"",""178114""
","","","1399.1000000014901","","","18","20690","7936","&#9728;","elianto","#f73b6a7A","-1"," ","0","-10","[2254.5]","1","1","","","20690","6","0","4","lose","no-go","0"
"pit-trial","127","983899","0.0-10.0","battery-v0.2","","""event"",""trial"",""time""
""fullscreenenter"",""1"",""2184""
""blur"",""19"",""178106""
""fullscreenexit"",""19"",""178114""
""focus"",""19"",""184726""
","""event"",""trial"",""time""
""blur"",""19"",""178106""
","""event"",""trial"",""time""
""focus"",""19"",""184726""
","""event"",""trial"",""time""
""fullscreenenter"",""1"",""2184""
","""event"",""trial"",""time""
""fullscreenexit"",""19"",""178114""
","","","1508.5999999940395","","","18","20690","7936","&#9730;","elianto","#3366ff99"," "," ","1","+10","[2358.7000000029802]","1","1","","","20690","7","1","1","win","go","0"
"pit-trial","128","988778","0.0-11.0","battery-v0.2","","""event"",""trial"",""time""
""fullscreenenter"",""1"",""2184""
""blur"",""19"",""178106""
""fullscreenexit"",""19"",""178114""
""focus"",""19"",""184726""
","""event"",""trial"",""time""
""blur"",""19"",""178106""
","""event"",""trial"",""time""
""focus"",""19"",""184726""
","""event"",""trial"",""time""
""fullscreenenter"",""1"",""2184""
","""event"",""trial"",""time""
""fullscreenexit"",""19"",""178114""
","","","-1","","","18","20690","7936","&#9733;","elianto","#3366ff99","-1","-1","1","+10","[]","0","1","","","20690","8","2","2","win","no-go","0"
"pit-trial","129","992558","0.0-12.0","battery-v0.2","","""event"",""trial"",""time""
""fullscreenenter"",""1"",""2184""
""blur"",""19"",""178106""
""fullscreenexit"",""19"",""178114""
""focus"",""19"",""184726""
","""event"",""trial"",""time""
""blur"",""19"",""178106""
","""event"",""trial"",""time""
""focus"",""19"",""184726""
","""event"",""trial"",""time""
""fullscreenenter"",""1"",""2184""
","""event"",""trial"",""time""
""fullscreenexit"",""19"",""178114""
","","","917.1000000014901","","","18","20690","7936","&#9730;","elianto","#3366ff99"," "," ","1","+10","[1772.7000000029802]","1","1","","","20690","9","1","1","win","go","0"
"pit-trial","130","997430","0.0-13.0","battery-v0.2","","""event"",""trial"",""time""
""fullscreenenter"",""1"",""2184""
""blur"",""19"",""178106""
""fullscreenexit"",""19"",""178114""
""focus"",""19"",""184726""
","""event"",""trial"",""time""
""blur"",""19"",""178106""
","""event"",""trial"",""time""
""focus"",""19"",""184726""
","""event"",""trial"",""time""
""fullscreenenter"",""1"",""2184""
","""event"",""trial"",""time""
""fullscreenexit"",""19"",""178114""
","","","-1","","","18","20690","7936","&#9728;","elianto","#f73b6a7A","-1","-1","1","0","[]","0","1","","","20690","10","0","4","lose","no-go","0"
"pit-trial","131","1001808","0.0-14.0","battery-v0.2","","""event"",""trial"",""time""
""fullscreenenter"",""1"",""2184""
""blur"",""19"",""178106""
""fullscreenexit"",""19"",""178114""
""focus"",""19"",""184726""
","""event"",""trial"",""time""
""blur"",""19"",""178106""
","""event"",""trial"",""time""
""focus"",""19"",""184726""
","""event"",""trial"",""time""
""fullscreenenter"",""1"",""2184""
","""event"",""trial"",""time""
""fullscreenexit"",""19"",""178114""
","","","1515.7000000029802","","","18","20690","7936","&#9752;","elianto","#f73b6a7A"," "," ","1","-10","[2368.7000000029802]","1","1","","","20690","11","3","3","lose","go","1"
"pit-trial","132","1006679","0.0-15.0","battery-v0.2","","""event"",""trial"",""time""
""fullscreenenter"",""1"",""2184""
""blur"",""19"",""178106""
""fullscreenexit"",""19"",""178114""
""focus"",""19"",""184726""
","""event"",""trial"",""time""
""blur"",""19"",""178106""
","""event"",""trial"",""time""
""focus"",""19"",""184726""
","""event"",""trial"",""time""
""fullscreenenter"",""1"",""2184""
","""event"",""trial"",""time""
""fullscreenexit"",""19"",""178114""
","","","-1","","","18","20690","7936","&#9733;","elianto","#3366ff99","-1","-1","1","+10","[]","0","1","","","20690","12","2","2","win","no-go","0"
"pit-trial","133","1011535","0.0-16.0","battery-v0.2","","""event"",""trial"",""time""
""fullscreenenter"",""1"",""2184""
""blur"",""19"",""178106""
""fullscreenexit"",""19"",""178114""
""focus"",""19"",""184726""
","""event"",""trial"",""time""
""blur"",""19"",""178106""
","""event"",""trial"",""time""
""focus"",""19"",""184726""
","""event"",""trial"",""time""
""fullscreenenter"",""1"",""2184""
","""event"",""trial"",""time""
""fullscreenexit"",""19"",""178114""
","","","-1","","","18","20690","7936","&#9733;","elianto","#3366ff99","-1","-1","1","0","[]","0","1","","","20690","13","2","2","win","no-go","1"
"pit-trial","134","1016401","0.0-17.0","battery-v0.2","","""event"",""trial"",""time""
""fullscreenenter"",""1"",""2184""
""blur"",""19"",""178106""
""fullscreenexit"",""19"",""178114""
""focus"",""19"",""184726""
","""event"",""trial"",""time""
""blur"",""19"",""178106""
","""event"",""trial"",""time""
""focus"",""19"",""184726""
","""event"",""trial"",""time""
""fullscreenenter"",""1"",""2184""
","""event"",""trial"",""time""
""fullscreenexit"",""19"",""178114""
","","","-1","","","18","20690","7936","&#9728;","elianto","#f73b6a7A","-1","-1","1","-10","[]","0","1","","","20690","14","0","4","lose","no-go","1"
"pit-trial","135","1020059","0.0-18.0","battery-v0.2","","""event"",""trial"",""time""
""fullscreenenter"",""1"",""2184""
""blur"",""19"",""178106""
""fullscreenexit"",""19"",""178114""
""focus"",""19"",""184726""
","""event"",""trial"",""time""
""blur"",""19"",""178106""
","""event"",""trial"",""time""
""focus"",""19"",""184726""
","""event"",""trial"",""time""
""fullscreenenter"",""1"",""2184""
","""event"",""trial"",""time""
""fullscreenexit"",""19"",""178114""
","","","786.6000000014901","","","18","20690","7936","&#9730;","elianto","#3366ff99"," "," ","1","+10","[1641.2999999970198]","1","1","","","20690","15","1","1","win","go","0"
"pit-trial","136","1024103","0.0-19.0","battery-v0.2","","""event"",""trial"",""time""
""fullscreenenter"",""1"",""2184""
""blur"",""19"",""178106""
""fullscreenexit"",""19"",""178114""
""focus"",""19"",""184726""
","""event"",""trial"",""time""
""blur"",""19"",""178106""
","""event"",""trial"",""time""
""focus"",""19"",""184726""
","""event"",""trial"",""time""
""fullscreenenter"",""1"",""2184""
","""event"",""trial"",""time""
""fullscreenexit"",""19"",""178114""
","","","1185.1999999955297","","","18","20690","7936","&#9752;","elianto","#f73b6a7A"," "," ","1","0","[2037.5]","1","1","","","20690","16","3","3","lose","go","0"
"pit-trial","137","1028967","0.0-20.0","battery-v0.2","","""event"",""trial"",""time""
""fullscreenenter"",""1"",""2184""
""blur"",""19"",""178106""
""fullscreenexit"",""19"",""178114""
""focus"",""19"",""184726""
","""event"",""trial"",""time""
""blur"",""19"",""178106""
","""event"",""trial"",""time""
""focus"",""19"",""184726""
","""event"",""trial"",""time""
""fullscreenenter"",""1"",""2184""
","""event"",""trial"",""time""
""fullscreenexit"",""19"",""178114""
","","","-1","","","18","20690","7936","&#9728;","elianto","#f73b6a7A","-1","-1","1","0","[]","0","1","","","20690","17","0","4","lose","no-go","0"
"pit-trial","138","1032552","0.0-21.0","battery-v0.2","","""event"",""trial"",""time""
""fullscreenenter"",""1"",""2184""
""blur"",""19"",""178106""
""fullscreenexit"",""19"",""178114""
""focus"",""19"",""184726""
","""event"",""trial"",""time""
""blur"",""19"",""178106""
","""event"",""trial"",""time""
""focus"",""19"",""184726""
","""event"",""trial"",""time""
""fullscreenenter"",""1"",""2184""
","""event"",""trial"",""time""
""fullscreenexit"",""19"",""178114""
","","","726.2999999970198","","","18","20690","7936","&#9730;","elianto","#3366ff99"," "," ","1","+10","[1578.8000000044703]","1","1","","","20690","18","1","1","win","go","0"
"pit-trial","139","1036960","0.0-22.0","battery-v0.2","","""event"",""trial"",""time""
""fullscreenenter"",""1"",""2184""
""blur"",""19"",""178106""
""fullscreenexit"",""19"",""178114""
""focus"",""19"",""184726""
","""event"",""trial"",""time""
""blur"",""19"",""178106""
","""event"",""trial"",""time""
""focus"",""19"",""184726""
","""event"",""trial"",""time""
""fullscreenenter"",""1"",""2184""
","""event"",""trial"",""time""
""fullscreenexit"",""19"",""178114""
","","","1536.5999999940395","","","18","20690","7936","&#9752;","elianto","#f73b6a7A"," "," ","1","0","[2389.60000000149]","1","1","","","20690","19","3","3","lose","go","0"
"pit-trial","140","1041820","0.0-23.0","battery-v0.2","","""event"",""trial"",""time""
""fullscreenenter"",""1"",""2184""
""blur"",""19"",""178106""
""fullscreenexit"",""19"",""178114""
""focus"",""19"",""184726""
","""event"",""trial"",""time""
""blur"",""19"",""178106""
","""event"",""trial"",""time""
""focus"",""19"",""184726""
","""event"",""trial"",""time""
""fullscreenenter"",""1"",""2184""
","""event"",""trial"",""time""
""fullscreenexit"",""19"",""178114""
","","","-1","","","18","20690","7936","&#9733;","elianto","#3366ff99","-1","-1","1","+10","[]","0","1","","","20690","20","2","2","win","no-go","0"
"pit-instructions","141","1053684","0.0-24.0","battery-v0.2","","""event"",""trial"",""time""
""fullscreenenter"",""1"",""2184""
""blur"",""19"",""178106""
""fullscreenexit"",""19"",""178114""
""focus"",""19"",""184726""
","""event"",""trial"",""time""
""blur"",""19"",""178106""
","""event"",""trial"",""time""
""focus"",""19"",""184726""
","""event"",""trial"",""time""
""fullscreenenter"",""1"",""2184""
","""event"",""trial"",""time""
""fullscreenexit"",""19"",""178114""
","","[{""page_index"":0,""viewing_time"":5560.39999999851},{""page_index"":1,""viewing_time"":6298.89999999851}]","11860.19999999553","","","","","","","","","","","","","","","","","","","","","","","",""
"pit-trial","142","1057160","0.0-25.0","battery-v0.2","","""event"",""trial"",""time""
""fullscreenenter"",""1"",""2184""
""blur"",""19"",""178106""
""fullscreenexit"",""19"",""178114""
""focus"",""19"",""184726""
","""event"",""trial"",""time""
""blur"",""19"",""178106""
","""event"",""trial"",""time""
""focus"",""19"",""184726""
","""event"",""trial"",""time""
""fullscreenenter"",""1"",""2184""
","""event"",""trial"",""time""
""fullscreenexit"",""19"",""178114""
","","","604.9000000059605","","","18","20690","7936","j","elianto","#f73b6a7A"," "," ","1","-10","[1455.7000000029802]","1","2","","","20690","21","0","3","lose","go","1"
"pit-trial","143","1061133","0.0-26.0","battery-v0.2","","""event"",""trial"",""time""
""fullscreenenter"",""1"",""2184""
""blur"",""19"",""178106""
""fullscreenexit"",""19"",""178114""
""focus"",""19"",""184726""
","""event"",""trial"",""time""
""blur"",""19"",""178106""
","""event"",""trial"",""time""
""focus"",""19"",""184726""
","""event"",""trial"",""time""
""fullscreenenter"",""1"",""2184""
","""event"",""trial"",""time""
""fullscreenexit"",""19"",""178114""
","","","1094.5","","","18","20690","7936","w","elianto","#f73b6a7A","-1"," ","0","-10","[1948.3999999985099]","1","2","","","20690","22","3","4","lose","no-go","0"
"pit-trial","144","1064690","0.0-27.0","battery-v0.2","","""event"",""trial"",""time""
""fullscreenenter"",""1"",""2184""
""blur"",""19"",""178106""
""fullscreenexit"",""19"",""178114""
""focus"",""19"",""184726""
","""event"",""trial"",""time""
""blur"",""19"",""178106""
","""event"",""trial"",""time""
""focus"",""19"",""184726""
","""event"",""trial"",""time""
""fullscreenenter"",""1"",""2184""
","""event"",""trial"",""time""
""fullscreenexit"",""19"",""178114""
","","","688","","","18","20690","7936","e","elianto","#f73b6a7A"," "," ","1","0","[1540.6999999955297]","1","2","","","20690","23","2","3","lose","go","0"
"pit-trial","145","1069318","0.0-28.0","battery-v0.2","","""event"",""trial"",""time""
""fullscreenenter"",""1"",""2184""
""blur"",""19"",""178106""
""fullscreenexit"",""19"",""178114""
""focus"",""19"",""184726""
","""event"",""trial"",""time""
""blur"",""19"",""178106""
","""event"",""trial"",""time""
""focus"",""19"",""184726""
","""event"",""trial"",""time""
""fullscreenenter"",""1"",""2184""
","""event"",""trial"",""time""
""fullscreenexit"",""19"",""178114""
","","","1757.5","","","18","20690","7936","d","elianto","#3366ff99","-1"," ","0","0","[2609.39999999851]","1","2","","","20690","24","1","2","win","no-go","0"
"pit-trial","146","1073602","0.0-29.0","battery-v0.2","","""event"",""trial"",""time""
""fullscreenenter"",""1"",""2184""
""blur"",""19"",""178106""
""fullscreenexit"",""19"",""178114""
""focus"",""19"",""184726""
","""event"",""trial"",""time""
""blur"",""19"",""178106""
","""event"",""trial"",""time""
""focus"",""19"",""184726""
","""event"",""trial"",""time""
""fullscreenenter"",""1"",""2184""
","""event"",""trial"",""time""
""fullscreenexit"",""19"",""178114""
","","","1415.3999999985099","","","18","20690","7936","e","elianto","#f73b6a7A"," "," ","1","0","[2267.8000000044703]","1","2","","","20690","25","2","3","lose","go","0"
"pit-trial","147","1078457","0.0-30.0","battery-v0.2","","""event"",""trial"",""time""
""fullscreenenter"",""1"",""2184""
""blur"",""19"",""178106""
""fullscreenexit"",""19"",""178114""
""focus"",""19"",""184726""
","""event"",""trial"",""time""
""blur"",""19"",""178106""
","""event"",""trial"",""time""
""focus"",""19"",""184726""
","""event"",""trial"",""time""
""fullscreenenter"",""1"",""2184""
","""event"",""trial"",""time""
""fullscreenexit"",""19"",""178114""
","","","-1","","","18","20690","7936","d","elianto","#3366ff99","-1","-1","1","+10","[]","0","2","","","20690","26","1","2","win","no-go","0"
"pit-trial","148","1083336","0.0-31.0","battery-v0.2","","""event"",""trial"",""time""
""fullscreenenter"",""1"",""2184""
""blur"",""19"",""178106""
""fullscreenexit"",""19"",""178114""
""focus"",""19"",""184726""
","""event"",""trial"",""time""
""blur"",""19"",""178106""
","""event"",""trial"",""time""
""focus"",""19"",""184726""
","""event"",""trial"",""time""
""fullscreenenter"",""1"",""2184""
","""event"",""trial"",""time""
""fullscreenexit"",""19"",""178114""
","","","-1","","","18","20690","7936","w","elianto","#f73b6a7A","-1","-1","1","0","[]","0","2","","","20690","27","3","4","lose","no-go","0"
"pit-trial","149","1088210","0.0-32.0","battery-v0.2","","""event"",""trial"",""time""
""fullscreenenter"",""1"",""2184""
""blur"",""19"",""178106""
""fullscreenexit"",""19"",""178114""
""focus"",""19"",""184726""
","""event"",""trial"",""time""
""blur"",""19"",""178106""
","""event"",""trial"",""time""
""focus"",""19"",""184726""
","""event"",""trial"",""time""
""fullscreenenter"",""1"",""2184""
","""event"",""trial"",""time""
""fullscreenexit"",""19"",""178114""
","","","-1","","","18","20690","7936","j","elianto","#f73b6a7A"," ","-1","0","0","[]","0","2","","","20690","28","0","3","lose","go","1"
"pit-trial","150","1093085","0.0-33.0","battery-v0.2","","""event"",""trial"",""time""
""fullscreenenter"",""1"",""2184""
""blur"",""19"",""178106""
""fullscreenexit"",""19"",""178114""
""focus"",""19"",""184726""
","""event"",""trial"",""time""
""blur"",""19"",""178106""
","""event"",""trial"",""time""
""focus"",""19"",""184726""
","""event"",""trial"",""time""
""fullscreenenter"",""1"",""2184""
","""event"",""trial"",""time""
""fullscreenexit"",""19"",""178114""
","","","-1","","","18","20690","7936","d","elianto","#3366ff99","-1","-1","1","+10","[]","0","2","","","20690","29","1","2","win","no-go","0"
"pit-trial","151","1097946","0.0-34.0","battery-v0.2","","""event"",""trial"",""time""
""fullscreenenter"",""1"",""2184""
""blur"",""19"",""178106""
""fullscreenexit"",""19"",""178114""
""focus"",""19"",""184726""
","""event"",""trial"",""time""
""blur"",""19"",""178106""
","""event"",""trial"",""time""
""focus"",""19"",""184726""
","""event"",""trial"",""time""
""fullscreenenter"",""1"",""2184""
","""event"",""trial"",""time""
""fullscreenexit"",""19"",""178114""
","","","-1","","","18","20690","7936","w","elianto","#f73b6a7A","-1","-1","1","0","[]","0","2","","","20690","30","3","4","lose","no-go","0"
"pit-trial","152","1102823","0.0-35.0","battery-v0.2","","""event"",""trial"",""time""
""fullscreenenter"",""1"",""2184""
""blur"",""19"",""178106""
""fullscreenexit"",""19"",""178114""
""focus"",""19"",""184726""
","""event"",""trial"",""time""
""blur"",""19"",""178106""
","""event"",""trial"",""time""
""focus"",""19"",""184726""
","""event"",""trial"",""time""
""fullscreenenter"",""1"",""2184""
","""event"",""trial"",""time""
""fullscreenexit"",""19"",""178114""
","","","-1","","","18","20690","7936","j","elianto","#f73b6a7A"," ","-1","0","-10","[]","0","2","","","20690","31","0","3","lose","go","0"
"pit-trial","153","1106720","0.0-36.0","battery-v0.2","","""event"",""trial"",""time""
""fullscreenenter"",""1"",""2184""
""blur"",""19"",""178106""
""fullscreenexit"",""19"",""178114""
""focus"",""19"",""184726""
","""event"",""trial"",""time""
""blur"",""19"",""178106""
","""event"",""trial"",""time""
""focus"",""19"",""184726""
","""event"",""trial"",""time""
""fullscreenenter"",""1"",""2184""
","""event"",""trial"",""time""
""fullscreenexit"",""19"",""178114""
","","","1025.2999999970198","","","18","20690","7936","e","elianto","#f73b6a7A"," "," ","1","0","[1876.2999999970198]","1","2","","","20690","32","2","3","lose","go","0"
"pit-trial","154","1111600","0.0-37.0","battery-v0.2","","""event"",""trial"",""time""
""fullscreenenter"",""1"",""2184""
""blur"",""19"",""178106""
""fullscreenexit"",""19"",""178114""
""focus"",""19"",""184726""
","""event"",""trial"",""time""
""blur"",""19"",""178106""
","""event"",""trial"",""time""
""focus"",""19"",""184726""
","""event"",""trial"",""time""
""fullscreenenter"",""1"",""2184""
","""event"",""trial"",""time""
""fullscreenexit"",""19"",""178114""
","","","-1","","","18","20690","7936","w","elianto","#f73b6a7A","-1","-1","1","0","[]","0","2","","","20690","33","3","4","lose","no-go","0"
"pit-trial","155","1116474","0.0-38.0","battery-v0.2","","""event"",""trial"",""time""
""fullscreenenter"",""1"",""2184""
""blur"",""19"",""178106""
""fullscreenexit"",""19"",""178114""
""focus"",""19"",""184726""
","""event"",""trial"",""time""
""blur"",""19"",""178106""
","""event"",""trial"",""time""
""focus"",""19"",""184726""
","""event"",""trial"",""time""
""fullscreenenter"",""1"",""2184""
","""event"",""trial"",""time""
""fullscreenexit"",""19"",""178114""
","","","-1","","","18","20690","7936","j","elianto","#f73b6a7A"," ","-1","0","-10","[]","0","2","","","20690","34","0","3","lose","go","0"
"pit-trial","156","1120511","0.0-39.0","battery-v0.2","","""event"",""trial"",""time""
""fullscreenenter"",""1"",""2184""
""blur"",""19"",""178106""
""fullscreenexit"",""19"",""178114""
""focus"",""19"",""184726""
","""event"",""trial"",""time""
""blur"",""19"",""178106""
","""event"",""trial"",""time""
""focus"",""19"",""184726""
","""event"",""trial"",""time""
""fullscreenenter"",""1"",""2184""
","""event"",""trial"",""time""
""fullscreenexit"",""19"",""178114""
","","","1167","","","18","20690","7936","e","elianto","#f73b6a7A"," "," ","1","-10","[2024]","1","2","","","20690","35","2","3","lose","go","1"
"pit-trial","157","1125369","0.0-40.0","battery-v0.2","","""event"",""trial"",""time""
""fullscreenenter"",""1"",""2184""
""blur"",""19"",""178106""
""fullscreenexit"",""19"",""178114""
""focus"",""19"",""184726""
","""event"",""trial"",""time""
""blur"",""19"",""178106""
","""event"",""trial"",""time""
""focus"",""19"",""184726""
","""event"",""trial"",""time""
""fullscreenenter"",""1"",""2184""
","""event"",""trial"",""time""
""fullscreenexit"",""19"",""178114""
","","","-1","","","18","20690","7936","d","elianto","#3366ff99","-1","-1","1","+10","[]","0","2","","","20690","36","1","2","win","no-go","0"
