"trial_type","trial_index","time_elapsed","internal_node_id","task_version","subject_id","interactions","blur_events","focus_events","fullscreenenter_events","fullscreenexit_events","success","view_history","rt","responses","num_errors","age","subject","participantId","rune","rune_set","hex","correct","choice","accuracy","outcome","keys","total_keys","block","practice","value","sub","trial","stimulus","robot","valence","action","sham"
"pavlovia","0","11","0.0-0.0","battery-v0.2","","""event"",""trial"",""time""
""fullscreenenter"",""1"",""4873""
","
","
","""event"",""trial"",""time""
""fullscreenenter"",""1"",""4873""
","
","","","","","","","","","","","","","","","","","","","","","","","","","","",""
"fullscreen","1","5819","0.0-1.0","battery-v0.2","","""event"",""trial"",""time""
""fullscreenenter"",""1"",""4873""
","
","
","""event"",""trial"",""time""
""fullscreenenter"",""1"",""4873""
","
","true","","","","","","","","","","","","","","","","","","","","","","","","","",""
"pit-instructions","2","9589","0.0-2.0-0.0","battery-v0.2","","""event"",""trial"",""time""
""fullscreenenter"",""1"",""4873""
","
","
","""event"",""trial"",""time""
""fullscreenenter"",""1"",""4873""
","
","","[{""page_index"":0,""viewing_time"":3764}]","3764","","","","","","","","","","","","","","","","","","","","","","","",""
"pit-comprehension","3","12186","0.0-2.0-1.0-0.0","battery-v0.2","","""event"",""trial"",""time""
""fullscreenenter"",""1"",""4873""
","
","
","""event"",""trial"",""time""
""fullscreenenter"",""1"",""4873""
","
","","","2593","[""shark""]","0","21","10006","393","","","","","","","","","","","","","","","","","","",""
"pit-instructions","4","13693","0.0-2.0-1.0-1.0","battery-v0.2","","""event"",""trial"",""time""
""fullscreenenter"",""1"",""4873""
","
","
","""event"",""trial"",""time""
""fullscreenenter"",""1"",""4873""
","
","","[{""page_index"":0,""viewing_time"":1495}]","1495","","","","","","","","","","","","","","","","","","","","","","","",""
"pit-comprehension","5","16046","0.0-2.0-2.0-0.0","battery-v0.2","","""event"",""trial"",""time""
""fullscreenenter"",""1"",""4873""
","
","
","""event"",""trial"",""time""
""fullscreenenter"",""1"",""4873""
","
","","","2348.999999999998","[""tiger""]","0","21","10006","393","","","","","","","","","","","","","","","","","","",""
"pit-instructions","6","17035","0.0-2.0-2.0-1.0","battery-v0.2","","""event"",""trial"",""time""
""fullscreenenter"",""1"",""4873""
","
","
","""event"",""trial"",""time""
""fullscreenenter"",""1"",""4873""
","
","","[{""page_index"":0,""viewing_time"":984.0000000000036}]","985","","","","","","","","","","","","","","","","","","","","","","","",""
"pit-instructions","7","112307","0.0-2.0-3.0","battery-v0.2","","""event"",""trial"",""time""
""fullscreenenter"",""1"",""4873""
","
","
","""event"",""trial"",""time""
""fullscreenenter"",""1"",""4873""
","
","","[{""page_index"":0,""viewing_time"":7980},{""page_index"":1,""viewing_time"":5767},{""page_index"":2,""viewing_time"":6788},{""page_index"":3,""viewing_time"":7373},{""page_index"":4,""viewing_time"":5548},{""page_index"":5,""viewing_time"":7082},{""page_index"":6,""viewing_time"":5694},{""page_index"":7,""viewing_time"":6437},{""page_index"":8,""viewing_time"":8392},{""page_index"":9,""viewing_time"":7619},{""page_index"":10,""viewing_time"":7161.000000000015},{""page_index"":11,""viewing_time"":6704.999999999985},{""page_index"":12,""viewing_time"":7204},{""page_index"":13,""viewing_time"":5520}]","95270","","","","","","","","","","","","","","","","","","","","","","","",""
"pit-trial","8","116080","0.0-2.0-4.0-0.0","battery-v0.2","","""event"",""trial"",""time""
""fullscreenenter"",""1"",""4873""
","
","
","""event"",""trial"",""time""
""fullscreenenter"",""1"",""4873""
","
","","","918","","","21","10006","393","&#9784;","elianto","#FFFFF080"," "," ","1","&#10004","[1768]","1","0","0","","","","","","","",""
"pit-trial","9","120040","0.0-2.0-4.1-0.1","battery-v0.2","","""event"",""trial"",""time""
""fullscreenenter"",""1"",""4873""
","
","
","""event"",""trial"",""time""
""fullscreenenter"",""1"",""4873""
","
","","","1104","","","21","10006","393","&#9784;","elianto","#FFFFF080"," "," ","1","&#10004","[1954]","1","0","0","","","","","","","",""
"pit-trial","10","123587","0.0-2.0-4.2-0.2","battery-v0.2","","""event"",""trial"",""time""
""fullscreenenter"",""1"",""4873""
","
","
","""event"",""trial"",""time""
""fullscreenenter"",""1"",""4873""
","
","","","689","","","21","10006","393","&#9784;","elianto","#FFFFF080"," "," ","1","&#10004","[1539]","1","0","0","","","","","","","",""
"pit-trial","11","127135","0.0-2.0-4.3-0.3","battery-v0.2","","""event"",""trial"",""time""
""fullscreenenter"",""1"",""4873""
","
","
","""event"",""trial"",""time""
""fullscreenenter"",""1"",""4873""
","
","","","694.0000000000146","","","21","10006","393","&#9784;","elianto","#FFFFF080"," "," ","1","&#10004","[1544.0000000000146]","1","0","0","","","","","","","",""
"pit-trial","12","130253","0.0-2.0-4.4-0.4","battery-v0.2","","""event"",""trial"",""time""
""fullscreenenter"",""1"",""4873""
","
","
","""event"",""trial"",""time""
""fullscreenenter"",""1"",""4873""
","
","","","262","","","21","10006","393","&#9784;","elianto","#FFFFF080"," "," ","1","&#10004","[1113]","1","0","0","","","","","","","",""
"pit-instructions","13","149824","0.0-2.0-5.0","battery-v0.2","","""event"",""trial"",""time""
""fullscreenenter"",""1"",""4873""
","
","
","""event"",""trial"",""time""
""fullscreenenter"",""1"",""4873""
","
","","[{""page_index"":0,""viewing_time"":4500},{""page_index"":1,""viewing_time"":5014},{""page_index"":2,""viewing_time"":4619},{""page_index"":3,""viewing_time"":5434}]","19567","","","","","","","","","","","","","","","","","","","","","","","",""
"pit-trial","14","154679","0.0-2.0-6.0-0.0","battery-v0.2","","""event"",""trial"",""time""
""fullscreenenter"",""1"",""4873""
","
","
","""event"",""trial"",""time""
""fullscreenenter"",""1"",""4873""
","
","","","-1","","","21","10006","393","&#9854;","elianto","#FFFFF080","-1","-1","1","&#10004","[]","0","0","1","","","","","","","",""
"pit-trial","15","159535","0.0-2.0-6.1-0.1","battery-v0.2","","""event"",""trial"",""time""
""fullscreenenter"",""1"",""4873""
","
","
","""event"",""trial"",""time""
""fullscreenenter"",""1"",""4873""
","
","","","-1","","","21","10006","393","&#9854;","elianto","#FFFFF080","-1","-1","1","&#10004","[]","0","0","1","","","","","","","",""
"pit-trial","16","164391","0.0-2.0-6.2-0.2","battery-v0.2","","""event"",""trial"",""time""
""fullscreenenter"",""1"",""4873""
","
","
","""event"",""trial"",""time""
""fullscreenenter"",""1"",""4873""
","
","","","-1","","","21","10006","393","&#9854;","elianto","#FFFFF080","-1","-1","1","&#10004","[]","0","0","1","","","","","","","",""
"pit-trial","17","169245","0.0-2.0-6.3-0.3","battery-v0.2","","""event"",""trial"",""time""
""fullscreenenter"",""1"",""4873""
","
","
","""event"",""trial"",""time""
""fullscreenenter"",""1"",""4873""
","
","","","-1","","","21","10006","393","&#9854;","elianto","#FFFFF080","-1","-1","1","&#10004","[]","0","0","1","","","","","","","",""
"pit-trial","18","174101","0.0-2.0-6.4-0.4","battery-v0.2","","""event"",""trial"",""time""
""fullscreenenter"",""1"",""4873""
","
","
","""event"",""trial"",""time""
""fullscreenenter"",""1"",""4873""
","
","","","-1","","","21","10006","393","&#9854;","elianto","#FFFFF080","-1","-1","1","&#10004","[]","0","0","1","","","","","","","",""
"pit-instructions","19","372608","0.0-2.0-7.0","battery-v0.2","","""event"",""trial"",""time""
""fullscreenenter"",""1"",""4873""
","
","
","""event"",""trial"",""time""
""fullscreenenter"",""1"",""4873""
","
","","[{""page_index"":0,""viewing_time"":5507},{""page_index"":1,""viewing_time"":6369},{""page_index"":2,""viewing_time"":5567},{""page_index"":3,""viewing_time"":7524},{""page_index"":4,""viewing_time"":29757},{""page_index"":5,""viewing_time"":12200},{""page_index"":6,""viewing_time"":22391},{""page_index"":7,""viewing_time"":16006},{""page_index"":8,""viewing_time"":13922},{""page_index"":9,""viewing_time"":10561},{""page_index"":10,""viewing_time"":18679},{""page_index"":11,""viewing_time"":6431},{""page_index"":12,""viewing_time"":6652},{""page_index"":13,""viewing_time"":6701},{""page_index"":14,""viewing_time"":7110.000000000058},{""page_index"":15,""viewing_time"":6166.999999999942},{""page_index"":16,""viewing_time"":9904},{""page_index"":17,""viewing_time"":7059}]","198507","","","","","","","","","","","","","","","","","","","","","","","",""
"pit-trial","20","376251","0.0-2.0-8.0-0.0","battery-v0.2","","""event"",""trial"",""time""
""fullscreenenter"",""1"",""4873""
","
","
","""event"",""trial"",""time""
""fullscreenenter"",""1"",""4873""
","
","","","788","","","21","10006","393","&#9776;","elianto","#3366ff99"," "," ","1","+10","[1639]","1","0","1","","","","","","","",""
"pit-trial","21","379795","0.0-2.0-8.0-1.0","battery-v0.2","","""event"",""trial"",""time""
""fullscreenenter"",""1"",""4873""
","
","
","""event"",""trial"",""time""
""fullscreenenter"",""1"",""4873""
","
","","","689","","","21","10006","393","&#9776;","elianto","#3366ff99"," "," ","1","+10","[1540]","1","0","1","","","","","","","",""
"pit-trial","22","383315","0.0-2.0-8.0-2.0","battery-v0.2","","""event"",""trial"",""time""
""fullscreenenter"",""1"",""4873""
","
","
","""event"",""trial"",""time""
""fullscreenenter"",""1"",""4873""
","
","","","667","","","21","10006","393","&#9776;","elianto","#3366ff99"," "," ","1","+10","[1517]","1","0","1","","","","","","","",""
"pit-trial","23","386595","0.0-2.0-8.0-3.0","battery-v0.2","","""event"",""trial"",""time""
""fullscreenenter"",""1"",""4873""
","
","
","""event"",""trial"",""time""
""fullscreenenter"",""1"",""4873""
","
","","","426","","","21","10006","393","&#9776;","elianto","#3366ff99"," "," ","1","0","[1276]","1","0","1","","","","","","","",""
"pit-trial","24","390001","0.0-2.0-8.0-4.0","battery-v0.2","","""event"",""trial"",""time""
""fullscreenenter"",""1"",""4873""
","
","
","""event"",""trial"",""time""
""fullscreenenter"",""1"",""4873""
","
","","","550.9999999999418","","","21","10006","393","&#9776;","elianto","#3366ff99"," "," ","1","+10","[1401.9999999999418]","1","0","1","","","","","","","",""
"pit-trial","25","393420","0.0-2.0-8.1-0.1","battery-v0.2","","""event"",""trial"",""time""
""fullscreenenter"",""1"",""4873""
","
","
","""event"",""trial"",""time""
""fullscreenenter"",""1"",""4873""
","
","","","564","","","21","10006","393","&#9776;","elianto","#3366ff99"," "," ","1","+10","[1415]","1","0","1","","","","","","","",""
"pit-trial","26","396849","0.0-2.0-8.1-1.1","battery-v0.2","","""event"",""trial"",""time""
""fullscreenenter"",""1"",""4873""
","
","
","""event"",""trial"",""time""
""fullscreenenter"",""1"",""4873""
","
","","","573.0000000000582","","","21","10006","393","&#9776;","elianto","#3366ff99"," "," ","1","+10","[1424.0000000000582]","1","0","1","","","","","","","",""
"pit-trial","27","400115","0.0-2.0-8.1-2.1","battery-v0.2","","""event"",""trial"",""time""
""fullscreenenter"",""1"",""4873""
","
","
","""event"",""trial"",""time""
""fullscreenenter"",""1"",""4873""
","
","","","413.0000000000582","","","21","10006","393","&#9776;","elianto","#3366ff99"," "," ","1","+10","[1263.0000000000582]","1","0","1","","","","","","","",""
"pit-trial","28","403427","0.0-2.0-8.1-3.1","battery-v0.2","","""event"",""trial"",""time""
""fullscreenenter"",""1"",""4873""
","
","
","""event"",""trial"",""time""
""fullscreenenter"",""1"",""4873""
","
","","","458","","","21","10006","393","&#9776;","elianto","#3366ff99"," "," ","1","0","[1309]","1","0","1","","","","","","","",""
"pit-trial","29","406583","0.0-2.0-8.1-4.1","battery-v0.2","","""event"",""trial"",""time""
""fullscreenenter"",""1"",""4873""
","
","
","""event"",""trial"",""time""
""fullscreenenter"",""1"",""4873""
","
","","","301","","","21","10006","393","&#9776;","elianto","#3366ff99"," "," ","1","+10","[1152]","1","0","1","","","","","","","",""
"pit-trial","30","409851","0.0-2.0-8.2-0.2","battery-v0.2","","""event"",""trial"",""time""
""fullscreenenter"",""1"",""4873""
","
","
","""event"",""trial"",""time""
""fullscreenenter"",""1"",""4873""
","
","","","413.9999999999418","","","21","10006","393","&#9776;","elianto","#3366ff99"," "," ","1","+10","[1264]","1","0","1","","","","","","","",""
"pit-trial","31","413267","0.0-2.0-8.2-1.2","battery-v0.2","","""event"",""trial"",""time""
""fullscreenenter"",""1"",""4873""
","
","
","""event"",""trial"",""time""
""fullscreenenter"",""1"",""4873""
","
","","","561","","","21","10006","393","&#9776;","elianto","#3366ff99"," "," ","1","+10","[1412]","1","0","1","","","","","","","",""
"pit-trial","32","416625","0.0-2.0-8.2-2.2","battery-v0.2","","""event"",""trial"",""time""
""fullscreenenter"",""1"",""4873""
","
","
","""event"",""trial"",""time""
""fullscreenenter"",""1"",""4873""
","
","","","503","","","21","10006","393","&#9776;","elianto","#3366ff99"," "," ","1","+10","[1353]","1","0","1","","","","","","","",""
"pit-trial","33","419831","0.0-2.0-8.2-3.2","battery-v0.2","","""event"",""trial"",""time""
""fullscreenenter"",""1"",""4873""
","
","
","""event"",""trial"",""time""
""fullscreenenter"",""1"",""4873""
","
","","","351.9999999999418","","","21","10006","393","&#9776;","elianto","#3366ff99"," "," ","1","0","[1202]","1","0","1","","","","","","","",""
"pit-trial","34","422915","0.0-2.0-8.2-4.2","battery-v0.2","","""event"",""trial"",""time""
""fullscreenenter"",""1"",""4873""
","
","
","""event"",""trial"",""time""
""fullscreenenter"",""1"",""4873""
","
","","","231","","","21","10006","393","&#9776;","elianto","#3366ff99"," "," ","1","+10","[1081]","1","0","1","","","","","","","",""
"call-function","35","422918","0.0-2.0-9.0","battery-v0.2","","""event"",""trial"",""time""
""fullscreenenter"",""1"",""4873""
","
","
","""event"",""trial"",""time""
""fullscreenenter"",""1"",""4873""
","
","","","","","","","","","","","","","","","","","","","","","","","","","","",""
"pit-instructions","36","469875","0.0-2.0-10.0","battery-v0.2","","""event"",""trial"",""time""
""fullscreenenter"",""1"",""4873""
","
","
","""event"",""trial"",""time""
""fullscreenenter"",""1"",""4873""
","
","","[{""page_index"":0,""viewing_time"":5806},{""page_index"":1,""viewing_time"":15919},{""page_index"":2,""viewing_time"":9428},{""page_index"":3,""viewing_time"":8694},{""page_index"":4,""viewing_time"":7110.000000000058}]","46957.00000000006","","","","","","","","","","","","","","","","","","","","","","","",""
"pit-trial","37","474730","0.0-2.0-11.0-0.0","battery-v0.2","","""event"",""trial"",""time""
""fullscreenenter"",""1"",""4873""
","
","
","""event"",""trial"",""time""
""fullscreenenter"",""1"",""4873""
","
","","","-1","","","21","10006","393","&#9761;","elianto","#3366ff99","-1","-1","1","+10","[]","0","0","2","","","","","","","",""
"pit-trial","38","479586","0.0-2.0-11.0-1.0","battery-v0.2","","""event"",""trial"",""time""
""fullscreenenter"",""1"",""4873""
","
","
","""event"",""trial"",""time""
""fullscreenenter"",""1"",""4873""
","
","","","-1","","","21","10006","393","&#9761;","elianto","#3366ff99","-1","-1","1","+10","[]","0","0","2","","","","","","","",""
"pit-trial","39","482956","0.0-2.0-11.0-2.0","battery-v0.2","","""event"",""trial"",""time""
""fullscreenenter"",""1"",""4873""
","
","
","""event"",""trial"",""time""
""fullscreenenter"",""1"",""4873""
","
","","","514.9999999999418","","","21","10006","393","&#9761;","elianto","#3366ff99","-1"," ","0","0","[1365.9999999999418]","1","0","2","","","","","","","",""
"pit-trial","40","487810","0.0-2.0-11.0-3.0","battery-v0.2","","""event"",""trial"",""time""
""fullscreenenter"",""1"",""4873""
","
","
","""event"",""trial"",""time""
""fullscreenenter"",""1"",""4873""
","
","","","-1","","","21","10006","393","&#9761;","elianto","#3366ff99","-1","-1","1","0","[]","0","0","2","","","","","","","",""
"pit-trial","41","492665","0.0-2.0-11.0-4.0","battery-v0.2","","""event"",""trial"",""time""
""fullscreenenter"",""1"",""4873""
","
","
","""event"",""trial"",""time""
""fullscreenenter"",""1"",""4873""
","
","","","-1","","","21","10006","393","&#9761;","elianto","#3366ff99","-1","-1","1","+10","[]","0","0","2","","","","","","","",""
"pit-trial","42","497521","0.0-2.0-11.1-0.1","battery-v0.2","","""event"",""trial"",""time""
""fullscreenenter"",""1"",""4873""
","
","
","""event"",""trial"",""time""
""fullscreenenter"",""1"",""4873""
","
","","","-1","","","21","10006","393","&#9761;","elianto","#3366ff99","-1","-1","1","+10","[]","0","0","2","","","","","","","",""
"pit-trial","43","502377","0.0-2.0-11.1-1.1","battery-v0.2","","""event"",""trial"",""time""
""fullscreenenter"",""1"",""4873""
","
","
","""event"",""trial"",""time""
""fullscreenenter"",""1"",""4873""
","
","","","-1","","","21","10006","393","&#9761;","elianto","#3366ff99","-1","-1","1","+10","[]","0","0","2","","","","","","","",""
"pit-trial","44","507244","0.0-2.0-11.1-2.1","battery-v0.2","","""event"",""trial"",""time""
""fullscreenenter"",""1"",""4873""
","
","
","""event"",""trial"",""time""
""fullscreenenter"",""1"",""4873""
","
","","","-1","","","21","10006","393","&#9761;","elianto","#3366ff99","-1","-1","1","+10","[]","0","0","2","","","","","","","",""
"pit-trial","45","512134","0.0-2.0-11.1-3.1","battery-v0.2","","""event"",""trial"",""time""
""fullscreenenter"",""1"",""4873""
","
","
","""event"",""trial"",""time""
""fullscreenenter"",""1"",""4873""
","
","","","-1","","","21","10006","393","&#9761;","elianto","#3366ff99","-1","-1","1","0","[]","0","0","2","","","","","","","",""
"pit-trial","46","517024","0.0-2.0-11.1-4.1","battery-v0.2","","""event"",""trial"",""time""
""fullscreenenter"",""1"",""4873""
","
","
","""event"",""trial"",""time""
""fullscreenenter"",""1"",""4873""
","
","","","-1","","","21","10006","393","&#9761;","elianto","#3366ff99","-1","-1","1","+10","[]","0","0","2","","","","","","","",""
"pit-trial","47","521913","0.0-2.0-11.2-0.2","battery-v0.2","","""event"",""trial"",""time""
""fullscreenenter"",""1"",""4873""
","
","
","""event"",""trial"",""time""
""fullscreenenter"",""1"",""4873""
","
","","","-1","","","21","10006","393","&#9761;","elianto","#3366ff99","-1","-1","1","+10","[]","0","0","2","","","","","","","",""
"pit-trial","48","526804","0.0-2.0-11.2-1.2","battery-v0.2","","""event"",""trial"",""time""
""fullscreenenter"",""1"",""4873""
","
","
","""event"",""trial"",""time""
""fullscreenenter"",""1"",""4873""
","
","","","-1","","","21","10006","393","&#9761;","elianto","#3366ff99","-1","-1","1","+10","[]","0","0","2","","","","","","","",""
"pit-trial","49","531694","0.0-2.0-11.2-2.2","battery-v0.2","","""event"",""trial"",""time""
""fullscreenenter"",""1"",""4873""
","
","
","""event"",""trial"",""time""
""fullscreenenter"",""1"",""4873""
","
","","","-1","","","21","10006","393","&#9761;","elianto","#3366ff99","-1","-1","1","+10","[]","0","0","2","","","","","","","",""
"pit-trial","50","536582","0.0-2.0-11.2-3.2","battery-v0.2","","""event"",""trial"",""time""
""fullscreenenter"",""1"",""4873""
","
","
","""event"",""trial"",""time""
""fullscreenenter"",""1"",""4873""
","
","","","-1","","","21","10006","393","&#9761;","elianto","#3366ff99","-1","-1","1","0","[]","0","0","2","","","","","","","",""
"pit-trial","51","541473","0.0-2.0-11.2-4.2","battery-v0.2","","""event"",""trial"",""time""
""fullscreenenter"",""1"",""4873""
","
","
","""event"",""trial"",""time""
""fullscreenenter"",""1"",""4873""
","
","","","-1","","","21","10006","393","&#9761;","elianto","#3366ff99","-1","-1","1","+10","[]","0","0","2","","","","","","","",""
"pit-trial","52","546364","0.0-2.0-11.3-0.3","battery-v0.2","","""event"",""trial"",""time""
""fullscreenenter"",""1"",""4873""
","
","
","""event"",""trial"",""time""
""fullscreenenter"",""1"",""4873""
","
","","","-1","","","21","10006","393","&#9761;","elianto","#3366ff99","-1","-1","1","+10","[]","0","0","2","","","","","","","",""
"pit-trial","53","551253","0.0-2.0-11.3-1.3","battery-v0.2","","""event"",""trial"",""time""
""fullscreenenter"",""1"",""4873""
","
","
","""event"",""trial"",""time""
""fullscreenenter"",""1"",""4873""
","
","","","-1","","","21","10006","393","&#9761;","elianto","#3366ff99","-1","-1","1","+10","[]","0","0","2","","","","","","","",""
"pit-trial","54","556142","0.0-2.0-11.3-2.3","battery-v0.2","","""event"",""trial"",""time""
""fullscreenenter"",""1"",""4873""
","
","
","""event"",""trial"",""time""
""fullscreenenter"",""1"",""4873""
","
","","","-1","","","21","10006","393","&#9761;","elianto","#3366ff99","-1","-1","1","+10","[]","0","0","2","","","","","","","",""
"pit-trial","55","561033","0.0-2.0-11.3-3.3","battery-v0.2","","""event"",""trial"",""time""
""fullscreenenter"",""1"",""4873""
","
","
","""event"",""trial"",""time""
""fullscreenenter"",""1"",""4873""
","
","","","-1","","","21","10006","393","&#9761;","elianto","#3366ff99","-1","-1","1","0","[]","0","0","2","","","","","","","",""
"pit-trial","56","565923","0.0-2.0-11.3-4.3","battery-v0.2","","""event"",""trial"",""time""
""fullscreenenter"",""1"",""4873""
","
","
","""event"",""trial"",""time""
""fullscreenenter"",""1"",""4873""
","
","","","-1","","","21","10006","393","&#9761;","elianto","#3366ff99","-1","-1","1","+10","[]","0","0","2","","","","","","","",""
"call-function","57","565927","0.0-2.0-12.0","battery-v0.2","","""event"",""trial"",""time""
""fullscreenenter"",""1"",""4873""
""blur"",""58"",""597524""
""fullscreenexit"",""58"",""615275""
""focus"",""58"",""615319""
","""event"",""trial"",""time""
""blur"",""58"",""597524""
","""event"",""trial"",""time""
""focus"",""58"",""615319""
","""event"",""trial"",""time""
""fullscreenenter"",""1"",""4873""
","""event"",""trial"",""time""
""fullscreenexit"",""58"",""615275""
","","","","","","","","","","","","","","","","","","","","","","","","","","",""
"pit-instructions","58","616313","0.0-2.0-13.0","battery-v0.2","","""event"",""trial"",""time""
""fullscreenenter"",""1"",""4873""
""blur"",""58"",""597524""
""fullscreenexit"",""58"",""615275""
""focus"",""58"",""615319""
","""event"",""trial"",""time""
""blur"",""58"",""597524""
","""event"",""trial"",""time""
""focus"",""58"",""615319""
","""event"",""trial"",""time""
""fullscreenenter"",""1"",""4873""
","""event"",""trial"",""time""
""fullscreenexit"",""58"",""615275""
","","[{""page_index"":0,""viewing_time"":10484},{""page_index"":1,""viewing_time"":6705.000000000116},{""page_index"":2,""viewing_time"":3453.9999999998836},{""page_index"":3,""viewing_time"":10057},{""page_index"":4,""viewing_time"":19686.000000000116}]","50386.00000000012","","","","","","","","","","","","","","","","","","","","","","","",""
"pit-trial","59","621169","0.0-2.0-14.0-0.0","battery-v0.2","","""event"",""trial"",""time""
""fullscreenenter"",""1"",""4873""
""blur"",""58"",""597524""
""fullscreenexit"",""58"",""615275""
""focus"",""58"",""615319""
","""event"",""trial"",""time""
""blur"",""58"",""597524""
","""event"",""trial"",""time""
""focus"",""58"",""615319""
","""event"",""trial"",""time""
""fullscreenenter"",""1"",""4873""
","""event"",""trial"",""time""
""fullscreenexit"",""58"",""615275""
","","","-1","","","21","10006","393","&#9826;","elianto","#f73b6a7A","-1","-1","1","0","[]","0","0","3","","","","","","","",""
"pit-trial","60","626024","0.0-2.0-14.0-1.0","battery-v0.2","","""event"",""trial"",""time""
""fullscreenenter"",""1"",""4873""
""blur"",""58"",""597524""
""fullscreenexit"",""58"",""615275""
""focus"",""58"",""615319""
","""event"",""trial"",""time""
""blur"",""58"",""597524""
","""event"",""trial"",""time""
""focus"",""58"",""615319""
","""event"",""trial"",""time""
""fullscreenenter"",""1"",""4873""
","""event"",""trial"",""time""
""fullscreenexit"",""58"",""615275""
","","","-1","","","21","10006","393","&#9826;","elianto","#f73b6a7A","-1","-1","1","0","[]","0","0","3","","","","","","","",""
"pit-trial","61","630881","0.0-2.0-14.0-2.0","battery-v0.2","","""event"",""trial"",""time""
""fullscreenenter"",""1"",""4873""
""blur"",""58"",""597524""
""fullscreenexit"",""58"",""615275""
""focus"",""58"",""615319""
","""event"",""trial"",""time""
""blur"",""58"",""597524""
","""event"",""trial"",""time""
""focus"",""58"",""615319""
","""event"",""trial"",""time""
""fullscreenenter"",""1"",""4873""
","""event"",""trial"",""time""
""fullscreenexit"",""58"",""615275""
","","","-1","","","21","10006","393","&#9826;","elianto","#f73b6a7A","-1","-1","1","0","[]","0","0","3","","","","","","","",""
"pit-trial","62","635738","0.0-2.0-14.0-3.0","battery-v0.2","","""event"",""trial"",""time""
""fullscreenenter"",""1"",""4873""
""blur"",""58"",""597524""
""fullscreenexit"",""58"",""615275""
""focus"",""58"",""615319""
","""event"",""trial"",""time""
""blur"",""58"",""597524""
","""event"",""trial"",""time""
""focus"",""58"",""615319""
","""event"",""trial"",""time""
""fullscreenenter"",""1"",""4873""
","""event"",""trial"",""time""
""fullscreenexit"",""58"",""615275""
","","","-1","","","21","10006","393","&#9826;","elianto","#f73b6a7A","-1","-1","1","-10","[]","0","0","3","","","","","","","",""
"pit-trial","63","640594","0.0-2.0-14.0-4.0","battery-v0.2","","""event"",""trial"",""time""
""fullscreenenter"",""1"",""4873""
""blur"",""58"",""597524""
""fullscreenexit"",""58"",""615275""
""focus"",""58"",""615319""
","""event"",""trial"",""time""
""blur"",""58"",""597524""
","""event"",""trial"",""time""
""focus"",""58"",""615319""
","""event"",""trial"",""time""
""fullscreenenter"",""1"",""4873""
","""event"",""trial"",""time""
""fullscreenexit"",""58"",""615275""
","","","-1","","","21","10006","393","&#9826;","elianto","#f73b6a7A","-1","-1","1","0","[]","0","0","3","","","","","","","",""
"pit-trial","64","645481","0.0-2.0-14.1-0.1","battery-v0.2","","""event"",""trial"",""time""
""fullscreenenter"",""1"",""4873""
""blur"",""58"",""597524""
""fullscreenexit"",""58"",""615275""
""focus"",""58"",""615319""
","""event"",""trial"",""time""
""blur"",""58"",""597524""
","""event"",""trial"",""time""
""focus"",""58"",""615319""
","""event"",""trial"",""time""
""fullscreenenter"",""1"",""4873""
","""event"",""trial"",""time""
""fullscreenexit"",""58"",""615275""
","","","-1","","","21","10006","393","&#9826;","elianto","#f73b6a7A","-1","-1","1","0","[]","0","0","3","","","","","","","",""
"pit-trial","65","650371","0.0-2.0-14.1-1.1","battery-v0.2","","""event"",""trial"",""time""
""fullscreenenter"",""1"",""4873""
""blur"",""58"",""597524""
""fullscreenexit"",""58"",""615275""
""focus"",""58"",""615319""
","""event"",""trial"",""time""
""blur"",""58"",""597524""
","""event"",""trial"",""time""
""focus"",""58"",""615319""
","""event"",""trial"",""time""
""fullscreenenter"",""1"",""4873""
","""event"",""trial"",""time""
""fullscreenexit"",""58"",""615275""
","","","-1","","","21","10006","393","&#9826;","elianto","#f73b6a7A","-1","-1","1","0","[]","0","0","3","","","","","","","",""
"pit-trial","66","655260","0.0-2.0-14.1-2.1","battery-v0.2","","""event"",""trial"",""time""
""fullscreenenter"",""1"",""4873""
""blur"",""58"",""597524""
""fullscreenexit"",""58"",""615275""
""focus"",""58"",""615319""
","""event"",""trial"",""time""
""blur"",""58"",""597524""
","""event"",""trial"",""time""
""focus"",""58"",""615319""
","""event"",""trial"",""time""
""fullscreenenter"",""1"",""4873""
","""event"",""trial"",""time""
""fullscreenexit"",""58"",""615275""
","","","-1","","","21","10006","393","&#9826;","elianto","#f73b6a7A","-1","-1","1","0","[]","0","0","3","","","","","","","",""
"pit-trial","67","660151","0.0-2.0-14.1-3.1","battery-v0.2","","""event"",""trial"",""time""
""fullscreenenter"",""1"",""4873""
""blur"",""58"",""597524""
""fullscreenexit"",""58"",""615275""
""focus"",""58"",""615319""
","""event"",""trial"",""time""
""blur"",""58"",""597524""
","""event"",""trial"",""time""
""focus"",""58"",""615319""
","""event"",""trial"",""time""
""fullscreenenter"",""1"",""4873""
","""event"",""trial"",""time""
""fullscreenexit"",""58"",""615275""
","","","-1","","","21","10006","393","&#9826;","elianto","#f73b6a7A","-1","-1","1","-10","[]","0","0","3","","","","","","","",""
"pit-trial","68","665040","0.0-2.0-14.1-4.1","battery-v0.2","","""event"",""trial"",""time""
""fullscreenenter"",""1"",""4873""
""blur"",""58"",""597524""
""fullscreenexit"",""58"",""615275""
""focus"",""58"",""615319""
","""event"",""trial"",""time""
""blur"",""58"",""597524""
","""event"",""trial"",""time""
""focus"",""58"",""615319""
","""event"",""trial"",""time""
""fullscreenenter"",""1"",""4873""
","""event"",""trial"",""time""
""fullscreenexit"",""58"",""615275""
","","","-1","","","21","10006","393","&#9826;","elianto","#f73b6a7A","-1","-1","1","0","[]","0","0","3","","","","","","","",""
"pit-trial","69","669931","0.0-2.0-14.2-0.2","battery-v0.2","","""event"",""trial"",""time""
""fullscreenenter"",""1"",""4873""
""blur"",""58"",""597524""
""fullscreenexit"",""58"",""615275""
""focus"",""58"",""615319""
","""event"",""trial"",""time""
""blur"",""58"",""597524""
","""event"",""trial"",""time""
""focus"",""58"",""615319""
","""event"",""trial"",""time""
""fullscreenenter"",""1"",""4873""
","""event"",""trial"",""time""
""fullscreenexit"",""58"",""615275""
","","","-1","","","21","10006","393","&#9826;","elianto","#f73b6a7A","-1","-1","1","0","[]","0","0","3","","","","","","","",""
"pit-trial","70","674820","0.0-2.0-14.2-1.2","battery-v0.2","","""event"",""trial"",""time""
""fullscreenenter"",""1"",""4873""
""blur"",""58"",""597524""
""fullscreenexit"",""58"",""615275""
""focus"",""58"",""615319""
","""event"",""trial"",""time""
""blur"",""58"",""597524""
","""event"",""trial"",""time""
""focus"",""58"",""615319""
","""event"",""trial"",""time""
""fullscreenenter"",""1"",""4873""
","""event"",""trial"",""time""
""fullscreenexit"",""58"",""615275""
","","","-1","","","21","10006","393","&#9826;","elianto","#f73b6a7A","-1","-1","1","0","[]","0","0","3","","","","","","","",""
"pit-trial","71","679711","0.0-2.0-14.2-2.2","battery-v0.2","","""event"",""trial"",""time""
""fullscreenenter"",""1"",""4873""
""blur"",""58"",""597524""
""fullscreenexit"",""58"",""615275""
""focus"",""58"",""615319""
","""event"",""trial"",""time""
""blur"",""58"",""597524""
","""event"",""trial"",""time""
""focus"",""58"",""615319""
","""event"",""trial"",""time""
""fullscreenenter"",""1"",""4873""
","""event"",""trial"",""time""
""fullscreenexit"",""58"",""615275""
","","","-1","","","21","10006","393","&#9826;","elianto","#f73b6a7A","-1","-1","1","0","[]","0","0","3","","","","","","","",""
"pit-trial","72","684600","0.0-2.0-14.2-3.2","battery-v0.2","","""event"",""trial"",""time""
""fullscreenenter"",""1"",""4873""
""blur"",""58"",""597524""
""fullscreenexit"",""58"",""615275""
""focus"",""58"",""615319""
","""event"",""trial"",""time""
""blur"",""58"",""597524""
","""event"",""trial"",""time""
""focus"",""58"",""615319""
","""event"",""trial"",""time""
""fullscreenenter"",""1"",""4873""
","""event"",""trial"",""time""
""fullscreenexit"",""58"",""615275""
","","","-1","","","21","10006","393","&#9826;","elianto","#f73b6a7A","-1","-1","1","-10","[]","0","0","3","","","","","","","",""
"pit-trial","73","689489","0.0-2.0-14.2-4.2","battery-v0.2","","""event"",""trial"",""time""
""fullscreenenter"",""1"",""4873""
""blur"",""58"",""597524""
""fullscreenexit"",""58"",""615275""
""focus"",""58"",""615319""
","""event"",""trial"",""time""
""blur"",""58"",""597524""
","""event"",""trial"",""time""
""focus"",""58"",""615319""
","""event"",""trial"",""time""
""fullscreenenter"",""1"",""4873""
","""event"",""trial"",""time""
""fullscreenexit"",""58"",""615275""
","","","-1","","","21","10006","393","&#9826;","elianto","#f73b6a7A","-1","-1","1","0","[]","0","0","3","","","","","","","",""
"pit-trial","74","694380","0.0-2.0-14.3-0.3","battery-v0.2","","""event"",""trial"",""time""
""fullscreenenter"",""1"",""4873""
""blur"",""58"",""597524""
""fullscreenexit"",""58"",""615275""
""focus"",""58"",""615319""
","""event"",""trial"",""time""
""blur"",""58"",""597524""
","""event"",""trial"",""time""
""focus"",""58"",""615319""
","""event"",""trial"",""time""
""fullscreenenter"",""1"",""4873""
","""event"",""trial"",""time""
""fullscreenexit"",""58"",""615275""
","","","-1","","","21","10006","393","&#9826;","elianto","#f73b6a7A","-1","-1","1","0","[]","0","0","3","","","","","","","",""
"pit-trial","75","699270","0.0-2.0-14.3-1.3","battery-v0.2","","""event"",""trial"",""time""
""fullscreenenter"",""1"",""4873""
""blur"",""58"",""597524""
""fullscreenexit"",""58"",""615275""
""focus"",""58"",""615319""
","""event"",""trial"",""time""
""blur"",""58"",""597524""
","""event"",""trial"",""time""
""focus"",""58"",""615319""
","""event"",""trial"",""time""
""fullscreenenter"",""1"",""4873""
","""event"",""trial"",""time""
""fullscreenexit"",""58"",""615275""
","","","-1","","","21","10006","393","&#9826;","elianto","#f73b6a7A","-1","-1","1","0","[]","0","0","3","","","","","","","",""
"pit-trial","76","704159","0.0-2.0-14.3-2.3","battery-v0.2","","""event"",""trial"",""time""
""fullscreenenter"",""1"",""4873""
""blur"",""58"",""597524""
""fullscreenexit"",""58"",""615275""
""focus"",""58"",""615319""
","""event"",""trial"",""time""
""blur"",""58"",""597524""
","""event"",""trial"",""time""
""focus"",""58"",""615319""
","""event"",""trial"",""time""
""fullscreenenter"",""1"",""4873""
","""event"",""trial"",""time""
""fullscreenexit"",""58"",""615275""
","","","-1","","","21","10006","393","&#9826;","elianto","#f73b6a7A","-1","-1","1","0","[]","0","0","3","","","","","","","",""
"pit-trial","77","709050","0.0-2.0-14.3-3.3","battery-v0.2","","""event"",""trial"",""time""
""fullscreenenter"",""1"",""4873""
""blur"",""58"",""597524""
""fullscreenexit"",""58"",""615275""
""focus"",""58"",""615319""
","""event"",""trial"",""time""
""blur"",""58"",""597524""
","""event"",""trial"",""time""
""focus"",""58"",""615319""
","""event"",""trial"",""time""
""fullscreenenter"",""1"",""4873""
","""event"",""trial"",""time""
""fullscreenexit"",""58"",""615275""
","","","-1","","","21","10006","393","&#9826;","elianto","#f73b6a7A","-1","-1","1","-10","[]","0","0","3","","","","","","","",""
"pit-trial","78","713940","0.0-2.0-14.3-4.3","battery-v0.2","","""event"",""trial"",""time""
""fullscreenenter"",""1"",""4873""
""blur"",""58"",""597524""
""fullscreenexit"",""58"",""615275""
""focus"",""58"",""615319""
","""event"",""trial"",""time""
""blur"",""58"",""597524""
","""event"",""trial"",""time""
""focus"",""58"",""615319""
","""event"",""trial"",""time""
""fullscreenenter"",""1"",""4873""
","""event"",""trial"",""time""
""fullscreenexit"",""58"",""615275""
","","","-1","","","21","10006","393","&#9826;","elianto","#f73b6a7A","-1","-1","1","0","[]","0","0","3","","","","","","","",""
"call-function","79","713943","0.0-2.0-15.0","battery-v0.2","","""event"",""trial"",""time""
""fullscreenenter"",""1"",""4873""
""blur"",""58"",""597524""
""fullscreenexit"",""58"",""615275""
""focus"",""58"",""615319""
","""event"",""trial"",""time""
""blur"",""58"",""597524""
","""event"",""trial"",""time""
""focus"",""58"",""615319""
","""event"",""trial"",""time""
""fullscreenenter"",""1"",""4873""
","""event"",""trial"",""time""
""fullscreenexit"",""58"",""615275""
","","","","","","","","","","","","","","","","","","","","","","","","","","",""
"pit-instructions","80","740655","0.0-2.0-16.0","battery-v0.2","","""event"",""trial"",""time""
""fullscreenenter"",""1"",""4873""
""blur"",""58"",""597524""
""fullscreenexit"",""58"",""615275""
""focus"",""58"",""615319""
","""event"",""trial"",""time""
""blur"",""58"",""597524""
","""event"",""trial"",""time""
""focus"",""58"",""615319""
","""event"",""trial"",""time""
""fullscreenenter"",""1"",""4873""
","""event"",""trial"",""time""
""fullscreenexit"",""58"",""615275""
","","[{""page_index"":0,""viewing_time"":6431},{""page_index"":1,""viewing_time"":11172},{""page_index"":2,""viewing_time"":4445},{""page_index"":3,""viewing_time"":4663}]","26712","","","","","","","","","","","","","","","","","","","","","","","",""
"pit-trial","81","744303","0.0-2.0-17.0-0.0","battery-v0.2","","""event"",""trial"",""time""
""fullscreenenter"",""1"",""4873""
""blur"",""58"",""597524""
""fullscreenexit"",""58"",""615275""
""focus"",""58"",""615319""
","""event"",""trial"",""time""
""blur"",""58"",""597524""
","""event"",""trial"",""time""
""focus"",""58"",""615319""
","""event"",""trial"",""time""
""fullscreenenter"",""1"",""4873""
","""event"",""trial"",""time""
""fullscreenexit"",""58"",""615275""
","","","793.9999999998836","","","21","10006","393","&#9789;","elianto","#f73b6a7A"," "," ","1","0","[1644]","1","0","4","","","","","","","",""
"pit-trial","82","747650","0.0-2.0-17.0-1.0","battery-v0.2","","""event"",""trial"",""time""
""fullscreenenter"",""1"",""4873""
""blur"",""58"",""597524""
""fullscreenexit"",""58"",""615275""
""focus"",""58"",""615319""
","""event"",""trial"",""time""
""blur"",""58"",""597524""
","""event"",""trial"",""time""
""focus"",""58"",""615319""
","""event"",""trial"",""time""
""fullscreenenter"",""1"",""4873""
","""event"",""trial"",""time""
""fullscreenexit"",""58"",""615275""
","","","492.9999999998836","","","21","10006","393","&#9789;","elianto","#f73b6a7A"," "," ","1","0","[1343.9999999998836]","1","0","4","","","","","","","",""
"pit-trial","83","750877","0.0-2.0-17.0-2.0","battery-v0.2","","""event"",""trial"",""time""
""fullscreenenter"",""1"",""4873""
""blur"",""58"",""597524""
""fullscreenexit"",""58"",""615275""
""focus"",""58"",""615319""
","""event"",""trial"",""time""
""blur"",""58"",""597524""
","""event"",""trial"",""time""
""focus"",""58"",""615319""
","""event"",""trial"",""time""
""fullscreenenter"",""1"",""4873""
","""event"",""trial"",""time""
""fullscreenexit"",""58"",""615275""
","","","373","","","21","10006","393","&#9789;","elianto","#f73b6a7A"," "," ","1","0","[1224]","1","0","4","","","","","","","",""
"pit-trial","84","754064","0.0-2.0-17.0-3.0","battery-v0.2","","""event"",""trial"",""time""
""fullscreenenter"",""1"",""4873""
""blur"",""58"",""597524""
""fullscreenexit"",""58"",""615275""
""focus"",""58"",""615319""
","""event"",""trial"",""time""
""blur"",""58"",""597524""
","""event"",""trial"",""time""
""focus"",""58"",""615319""
","""event"",""trial"",""time""
""fullscreenenter"",""1"",""4873""
","""event"",""trial"",""time""
""fullscreenexit"",""58"",""615275""
","","","329","","","21","10006","393","&#9789;","elianto","#f73b6a7A"," "," ","1","-10","[1180]","1","0","4","","","","","","","",""
"pit-trial","85","757211","0.0-2.0-17.0-4.0","battery-v0.2","","""event"",""trial"",""time""
""fullscreenenter"",""1"",""4873""
""blur"",""58"",""597524""
""fullscreenexit"",""58"",""615275""
""focus"",""58"",""615319""
","""event"",""trial"",""time""
""blur"",""58"",""597524""
","""event"",""trial"",""time""
""focus"",""58"",""615319""
","""event"",""trial"",""time""
""fullscreenenter"",""1"",""4873""
","""event"",""trial"",""time""
""fullscreenexit"",""58"",""615275""
","","","292","","","21","10006","393","&#9789;","elianto","#f73b6a7A"," "," ","1","0","[1143]","1","0","4","","","","","","","",""
"pit-trial","86","760368","0.0-2.0-17.1-0.1","battery-v0.2","","""event"",""trial"",""time""
""fullscreenenter"",""1"",""4873""
""blur"",""58"",""597524""
""fullscreenexit"",""58"",""615275""
""focus"",""58"",""615319""
","""event"",""trial"",""time""
""blur"",""58"",""597524""
","""event"",""trial"",""time""
""focus"",""58"",""615319""
","""event"",""trial"",""time""
""fullscreenenter"",""1"",""4873""
","""event"",""trial"",""time""
""fullscreenexit"",""58"",""615275""
","","","301","","","21","10006","393","&#9789;","elianto","#f73b6a7A"," "," ","1","0","[1152]","1","0","4","","","","","","","",""
"pit-trial","87","765225","0.0-2.0-17.1-1.1","battery-v0.2","","""event"",""trial"",""time""
""fullscreenenter"",""1"",""4873""
""blur"",""58"",""597524""
""fullscreenexit"",""58"",""615275""
""focus"",""58"",""615319""
","""event"",""trial"",""time""
""blur"",""58"",""597524""
","""event"",""trial"",""time""
""focus"",""58"",""615319""
","""event"",""trial"",""time""
""fullscreenenter"",""1"",""4873""
","""event"",""trial"",""time""
""fullscreenexit"",""58"",""615275""
","","","-1","","","21","10006","393","&#9789;","elianto","#f73b6a7A"," ","-1","0","-10","[]","0","0","4","","","","","","","",""
"pit-trial","88","768409","0.0-2.0-17.1-2.1","battery-v0.2","","""event"",""trial"",""time""
""fullscreenenter"",""1"",""4873""
""blur"",""58"",""597524""
""fullscreenexit"",""58"",""615275""
""focus"",""58"",""615319""
","""event"",""trial"",""time""
""blur"",""58"",""597524""
","""event"",""trial"",""time""
""focus"",""58"",""615319""
","""event"",""trial"",""time""
""fullscreenenter"",""1"",""4873""
","""event"",""trial"",""time""
""fullscreenexit"",""58"",""615275""
","","","331","","","21","10006","393","&#9789;","elianto","#f73b6a7A"," "," ","1","0","[1182]","1","0","4","","","","","","","",""
"pit-trial","89","771567","0.0-2.0-17.1-3.1","battery-v0.2","","""event"",""trial"",""time""
""fullscreenenter"",""1"",""4873""
""blur"",""58"",""597524""
""fullscreenexit"",""58"",""615275""
""focus"",""58"",""615319""
","""event"",""trial"",""time""
""blur"",""58"",""597524""
","""event"",""trial"",""time""
""focus"",""58"",""615319""
","""event"",""trial"",""time""
""fullscreenenter"",""1"",""4873""
","""event"",""trial"",""time""
""fullscreenexit"",""58"",""615275""
","","","302","","","21","10006","393","&#9789;","elianto","#f73b6a7A"," "," ","1","-10","[1153]","1","0","4","","","","","","","",""
"pit-trial","90","774660","0.0-2.0-17.1-4.1","battery-v0.2","","""event"",""trial"",""time""
""fullscreenenter"",""1"",""4873""
""blur"",""58"",""597524""
""fullscreenexit"",""58"",""615275""
""focus"",""58"",""615319""
","""event"",""trial"",""time""
""blur"",""58"",""597524""
","""event"",""trial"",""time""
""focus"",""58"",""615319""
","""event"",""trial"",""time""
""fullscreenenter"",""1"",""4873""
","""event"",""trial"",""time""
""fullscreenexit"",""58"",""615275""
","","","239","","","21","10006","393","&#9789;","elianto","#f73b6a7A"," "," ","1","0","[1089]","1","0","4","","","","","","","",""
"pit-trial","91","777903","0.0-2.0-17.2-0.2","battery-v0.2","","""event"",""trial"",""time""
""fullscreenenter"",""1"",""4873""
""blur"",""58"",""597524""
""fullscreenexit"",""58"",""615275""
""focus"",""58"",""615319""
","""event"",""trial"",""time""
""blur"",""58"",""597524""
","""event"",""trial"",""time""
""focus"",""58"",""615319""
","""event"",""trial"",""time""
""fullscreenenter"",""1"",""4873""
","""event"",""trial"",""time""
""fullscreenexit"",""58"",""615275""
","","","388","","","21","10006","393","&#9789;","elianto","#f73b6a7A"," "," ","1","0","[1239]","1","0","4","","","","","","","",""
"pit-trial","92","781041","0.0-2.0-17.2-1.2","battery-v0.2","","""event"",""trial"",""time""
""fullscreenenter"",""1"",""4873""
""blur"",""58"",""597524""
""fullscreenexit"",""58"",""615275""
""focus"",""58"",""615319""
","""event"",""trial"",""time""
""blur"",""58"",""597524""
","""event"",""trial"",""time""
""focus"",""58"",""615319""
","""event"",""trial"",""time""
""fullscreenenter"",""1"",""4873""
","""event"",""trial"",""time""
""fullscreenexit"",""58"",""615275""
","","","282","","","21","10006","393","&#9789;","elianto","#f73b6a7A"," "," ","1","0","[1133]","1","0","4","","","","","","","",""
"pit-trial","93","784130","0.0-2.0-17.2-2.2","battery-v0.2","","""event"",""trial"",""time""
""fullscreenenter"",""1"",""4873""
""blur"",""58"",""597524""
""fullscreenexit"",""58"",""615275""
""focus"",""58"",""615319""
","""event"",""trial"",""time""
""blur"",""58"",""597524""
","""event"",""trial"",""time""
""focus"",""58"",""615319""
","""event"",""trial"",""time""
""fullscreenenter"",""1"",""4873""
","""event"",""trial"",""time""
""fullscreenexit"",""58"",""615275""
","","","232","","","21","10006","393","&#9789;","elianto","#f73b6a7A"," "," ","1","0","[1083]","1","0","4","","","","","","","",""
"pit-trial","94","787244","0.0-2.0-17.2-3.2","battery-v0.2","","""event"",""trial"",""time""
""fullscreenenter"",""1"",""4873""
""blur"",""58"",""597524""
""fullscreenexit"",""58"",""615275""
""focus"",""58"",""615319""
","""event"",""trial"",""time""
""blur"",""58"",""597524""
","""event"",""trial"",""time""
""focus"",""58"",""615319""
","""event"",""trial"",""time""
""fullscreenenter"",""1"",""4873""
","""event"",""trial"",""time""
""fullscreenexit"",""58"",""615275""
","","","259","","","21","10006","393","&#9789;","elianto","#f73b6a7A"," "," ","1","-10","[1110]","1","0","4","","","","","","","",""
"pit-trial","95","790426","0.0-2.0-17.2-4.2","battery-v0.2","","""event"",""trial"",""time""
""fullscreenenter"",""1"",""4873""
""blur"",""58"",""597524""
""fullscreenexit"",""58"",""615275""
""focus"",""58"",""615319""
","""event"",""trial"",""time""
""blur"",""58"",""597524""
","""event"",""trial"",""time""
""focus"",""58"",""615319""
","""event"",""trial"",""time""
""fullscreenenter"",""1"",""4873""
","""event"",""trial"",""time""
""fullscreenexit"",""58"",""615275""
","","","328","","","21","10006","393","&#9789;","elianto","#f73b6a7A"," "," ","1","0","[693,1178]","2","0","4","","","","","","","",""
"pit-trial","96","794092","0.0-2.0-17.3-0.3","battery-v0.2","","""event"",""trial"",""time""
""fullscreenenter"",""1"",""4873""
""blur"",""58"",""597524""
""fullscreenexit"",""58"",""615275""
""focus"",""58"",""615319""
","""event"",""trial"",""time""
""blur"",""58"",""597524""
","""event"",""trial"",""time""
""focus"",""58"",""615319""
","""event"",""trial"",""time""
""fullscreenenter"",""1"",""4873""
","""event"",""trial"",""time""
""fullscreenexit"",""58"",""615275""
","","","813","","","21","10006","393","&#9789;","elianto","#f73b6a7A"," "," ","1","0","[1662]","1","0","4","","","","","","","",""
"pit-trial","97","797148","0.0-2.0-17.3-1.3","battery-v0.2","","""event"",""trial"",""time""
""fullscreenenter"",""1"",""4873""
""blur"",""58"",""597524""
""fullscreenexit"",""58"",""615275""
""focus"",""58"",""615319""
","""event"",""trial"",""time""
""blur"",""58"",""597524""
","""event"",""trial"",""time""
""focus"",""58"",""615319""
","""event"",""trial"",""time""
""fullscreenenter"",""1"",""4873""
","""event"",""trial"",""time""
""fullscreenexit"",""58"",""615275""
","","","200","","","21","10006","393","&#9789;","elianto","#f73b6a7A"," "," ","1","0","[1051]","1","0","4","","","","","","","",""
"pit-trial","98","800190","0.0-2.0-17.3-2.3","battery-v0.2","","""event"",""trial"",""time""
""fullscreenenter"",""1"",""4873""
""blur"",""58"",""597524""
""fullscreenexit"",""58"",""615275""
""focus"",""58"",""615319""
","""event"",""trial"",""time""
""blur"",""58"",""597524""
","""event"",""trial"",""time""
""focus"",""58"",""615319""
","""event"",""trial"",""time""
""fullscreenenter"",""1"",""4873""
","""event"",""trial"",""time""
""fullscreenexit"",""58"",""615275""
","","","187","","","21","10006","393","&#9789;","elianto","#f73b6a7A"," "," ","1","0","[1038]","1","0","4","","","","","","","",""
"pit-trial","99","803111","0.0-2.0-17.3-3.3","battery-v0.2","","""event"",""trial"",""time""
""fullscreenenter"",""1"",""4873""
""blur"",""58"",""597524""
""fullscreenexit"",""58"",""615275""
""focus"",""58"",""615319""
","""event"",""trial"",""time""
""blur"",""58"",""597524""
","""event"",""trial"",""time""
""focus"",""58"",""615319""
","""event"",""trial"",""time""
""fullscreenenter"",""1"",""4873""
","""event"",""trial"",""time""
""fullscreenexit"",""58"",""615275""
","","","66","","","21","10006","393","&#9789;","elianto","#f73b6a7A"," "," ","1","-10","[916]","1","0","4","","","","","","","",""
"pit-trial","100","806055","0.0-2.0-17.3-4.3","battery-v0.2","","""event"",""trial"",""time""
""fullscreenenter"",""1"",""4873""
""blur"",""58"",""597524""
""fullscreenexit"",""58"",""615275""
""focus"",""58"",""615319""
","""event"",""trial"",""time""
""blur"",""58"",""597524""
","""event"",""trial"",""time""
""focus"",""58"",""615319""
","""event"",""trial"",""time""
""fullscreenenter"",""1"",""4873""
","""event"",""trial"",""time""
""fullscreenexit"",""58"",""615275""
","","","90","","","21","10006","393","&#9789;","elianto","#f73b6a7A"," "," ","1","0","[941]","1","0","4","","","","","","","",""
"call-function","101","806057","0.0-2.0-18.0","battery-v0.2","","""event"",""trial"",""time""
""fullscreenenter"",""1"",""4873""
""blur"",""58"",""597524""
""fullscreenexit"",""58"",""615275""
""focus"",""58"",""615319""
","""event"",""trial"",""time""
""blur"",""58"",""597524""
","""event"",""trial"",""time""
""focus"",""58"",""615319""
","""event"",""trial"",""time""
""fullscreenenter"",""1"",""4873""
","""event"",""trial"",""time""
""fullscreenexit"",""58"",""615275""
","","","","","","","","","","","","","","","","","","","","","","","","","","",""
"pit-instructions","102","882596","0.0-2.0-19.0","battery-v0.2","","""event"",""trial"",""time""
""fullscreenenter"",""1"",""4873""
""blur"",""58"",""597524""
""fullscreenexit"",""58"",""615275""
""focus"",""58"",""615319""
","""event"",""trial"",""time""
""blur"",""58"",""597524""
","""event"",""trial"",""time""
""focus"",""58"",""615319""
","""event"",""trial"",""time""
""fullscreenenter"",""1"",""4873""
","""event"",""trial"",""time""
""fullscreenexit"",""58"",""615275""
","","[{""page_index"":0,""viewing_time"":6764},{""page_index"":1,""viewing_time"":5727.000000000116},{""page_index"":2,""viewing_time"":8678.999999999884},{""page_index"":3,""viewing_time"":7035},{""page_index"":4,""viewing_time"":7942},{""page_index"":5,""viewing_time"":5006},{""page_index"":4,""viewing_time"":7042},{""page_index"":5,""viewing_time"":8747},{""page_index"":6,""viewing_time"":10331},{""page_index"":7,""viewing_time"":5674},{""page_index"":8,""viewing_time"":3593}]","76540","","","","","","","","","","","","","","","","","","","","","","","",""
"pit-comprehension","103","887008","0.0-2.0-20.0-0.0","battery-v0.2","","""event"",""trial"",""time""
""fullscreenenter"",""1"",""4873""
""blur"",""58"",""597524""
""fullscreenexit"",""58"",""615275""
""focus"",""58"",""615319""
","""event"",""trial"",""time""
""blur"",""58"",""597524""
","""event"",""trial"",""time""
""focus"",""58"",""615319""
","""event"",""trial"",""time""
""fullscreenenter"",""1"",""4873""
","""event"",""trial"",""time""
""fullscreenexit"",""58"",""615275""
","","","4409","[""SPACE""]","0","21","10006","393","","","","","","","","","","","","","","","","","","",""
"pit-instructions","104","889558","0.0-2.0-20.0-1.0","battery-v0.2","","""event"",""trial"",""time""
""fullscreenenter"",""1"",""4873""
""blur"",""58"",""597524""
""fullscreenexit"",""58"",""615275""
""focus"",""58"",""615319""
","""event"",""trial"",""time""
""blur"",""58"",""597524""
","""event"",""trial"",""time""
""focus"",""58"",""615319""
","""event"",""trial"",""time""
""fullscreenenter"",""1"",""4873""
","""event"",""trial"",""time""
""fullscreenexit"",""58"",""615275""
","","[{""page_index"":0,""viewing_time"":2503.0000000001164}]","2504","","","","","","","","","","","","","","","","","","","","","","","",""
"pit-comprehension","105","894162","0.0-2.0-21.0-0.0","battery-v0.2","","""event"",""trial"",""time""
""fullscreenenter"",""1"",""4873""
""blur"",""58"",""597524""
""fullscreenexit"",""58"",""615275""
""focus"",""58"",""615319""
","""event"",""trial"",""time""
""blur"",""58"",""597524""
","""event"",""trial"",""time""
""focus"",""58"",""615319""
","""event"",""trial"",""time""
""fullscreenenter"",""1"",""4873""
","""event"",""trial"",""time""
""fullscreenexit"",""58"",""615275""
","","","4600","[""10""]","0","21","10006","393","","","","","","","","","","","","","","","","","","",""
"pit-instructions","106","896516","0.0-2.0-21.0-1.0","battery-v0.2","","""event"",""trial"",""time""
""fullscreenenter"",""1"",""4873""
""blur"",""58"",""597524""
""fullscreenexit"",""58"",""615275""
""focus"",""58"",""615319""
","""event"",""trial"",""time""
""blur"",""58"",""597524""
","""event"",""trial"",""time""
""focus"",""58"",""615319""
","""event"",""trial"",""time""
""fullscreenenter"",""1"",""4873""
","""event"",""trial"",""time""
""fullscreenexit"",""58"",""615275""
","","[{""page_index"":0,""viewing_time"":2308}]","2308","","","","","","","","","","","","","","","","","","","","","","","",""
"pit-comprehension","107","903974","0.0-2.0-22.0-0.0","battery-v0.2","","""event"",""trial"",""time""
""fullscreenenter"",""1"",""4873""
""blur"",""58"",""597524""
""fullscreenexit"",""58"",""615275""
""focus"",""58"",""615319""
","""event"",""trial"",""time""
""blur"",""58"",""597524""
","""event"",""trial"",""time""
""focus"",""58"",""615319""
","""event"",""trial"",""time""
""fullscreenenter"",""1"",""4873""
","""event"",""trial"",""time""
""fullscreenexit"",""58"",""615275""
","","","7454","[""-10""]","1","21","10006","393","","","","","","","","","","","","","","","","","","",""
"pit-instructions","108","907565","0.0-2.0-22.0-1.0","battery-v0.2","","""event"",""trial"",""time""
""fullscreenenter"",""1"",""4873""
""blur"",""58"",""597524""
""fullscreenexit"",""58"",""615275""
""focus"",""58"",""615319""
","""event"",""trial"",""time""
""blur"",""58"",""597524""
","""event"",""trial"",""time""
""focus"",""58"",""615319""
","""event"",""trial"",""time""
""fullscreenenter"",""1"",""4873""
","""event"",""trial"",""time""
""fullscreenexit"",""58"",""615275""
","","[{""page_index"":0,""viewing_time"":3544}]","3545","","","","","","","","","","","","","","","","","","","","","","","",""
"pit-instructions","109","908581","0.0-2.0-22.0-2.0-0.0","battery-v0.2","","""event"",""trial"",""time""
""fullscreenenter"",""1"",""4873""
""blur"",""58"",""597524""
""fullscreenexit"",""58"",""615275""
""focus"",""58"",""615319""
","""event"",""trial"",""time""
""blur"",""58"",""597524""
","""event"",""trial"",""time""
""focus"",""58"",""615319""
","""event"",""trial"",""time""
""fullscreenenter"",""1"",""4873""
","""event"",""trial"",""time""
""fullscreenexit"",""58"",""615275""
","","[{""page_index"":0,""viewing_time"":1012.0000000001164}]","1012.0000000001164","","","","","","","","","","","","","","","","","","","","","","","",""
"pit-comprehension","110","915157","0.0-2.0-22.1-0.1","battery-v0.2","","""event"",""trial"",""time""
""fullscreenenter"",""1"",""4873""
""blur"",""58"",""597524""
""fullscreenexit"",""58"",""615275""
""focus"",""58"",""615319""
","""event"",""trial"",""time""
""blur"",""58"",""597524""
","""event"",""trial"",""time""
""focus"",""58"",""615319""
","""event"",""trial"",""time""
""fullscreenenter"",""1"",""4873""
","""event"",""trial"",""time""
""fullscreenexit"",""58"",""615275""
","","","6573","[""0""]","0","21","10006","393","","","","","","","","","","","","","","","","","","",""
"pit-instructions","111","917828","0.0-2.0-22.1-1.1","battery-v0.2","","""event"",""trial"",""time""
""fullscreenenter"",""1"",""4873""
""blur"",""58"",""597524""
""fullscreenexit"",""58"",""615275""
""focus"",""58"",""615319""
","""event"",""trial"",""time""
""blur"",""58"",""597524""
","""event"",""trial"",""time""
""focus"",""58"",""615319""
","""event"",""trial"",""time""
""fullscreenenter"",""1"",""4873""
","""event"",""trial"",""time""
""fullscreenexit"",""58"",""615275""
","","[{""page_index"":0,""viewing_time"":2620}]","2620","","","","","","","","","","","","","","","","","","","","","","","",""
"pit-comprehension","112","926252","0.0-2.0-23.0-0.0","battery-v0.2","","""event"",""trial"",""time""
""fullscreenenter"",""1"",""4873""
""blur"",""58"",""597524""
""fullscreenexit"",""58"",""615275""
""focus"",""58"",""615319""
","""event"",""trial"",""time""
""blur"",""58"",""597524""
","""event"",""trial"",""time""
""focus"",""58"",""615319""
","""event"",""trial"",""time""
""fullscreenenter"",""1"",""4873""
","""event"",""trial"",""time""
""fullscreenexit"",""58"",""615275""
","","","8408.999999999884","[""True""]","0","21","10006","393","","","","","","","","","","","","","","","","","","",""
"pit-instructions","113","928480","0.0-2.0-23.0-1.0","battery-v0.2","","""event"",""trial"",""time""
""fullscreenenter"",""1"",""4873""
""blur"",""58"",""597524""
""fullscreenexit"",""58"",""615275""
""focus"",""58"",""615319""
","""event"",""trial"",""time""
""blur"",""58"",""597524""
","""event"",""trial"",""time""
""focus"",""58"",""615319""
","""event"",""trial"",""time""
""fullscreenenter"",""1"",""4873""
","""event"",""trial"",""time""
""fullscreenexit"",""58"",""615275""
","","[{""page_index"":0,""viewing_time"":2176}]","2176","","","","","","","","","","","","","","","","","","","","","","","",""
"pit-comprehension","114","936235","0.0-2.0-24.0-0.0","battery-v0.2","","""event"",""trial"",""time""
""fullscreenenter"",""1"",""4873""
""blur"",""58"",""597524""
""fullscreenexit"",""58"",""615275""
""focus"",""58"",""615319""
","""event"",""trial"",""time""
""blur"",""58"",""597524""
","""event"",""trial"",""time""
""focus"",""58"",""615319""
","""event"",""trial"",""time""
""fullscreenenter"",""1"",""4873""
","""event"",""trial"",""time""
""fullscreenexit"",""58"",""615275""
","","","7745.999999999884","[""True""]","0","21","10006","393","","","","","","","","","","","","","","","","","","",""
"pit-instructions","115","938617","0.0-2.0-24.0-1.0","battery-v0.2","","""event"",""trial"",""time""
""fullscreenenter"",""1"",""4873""
""blur"",""58"",""597524""
""fullscreenexit"",""58"",""615275""
""focus"",""58"",""615319""
","""event"",""trial"",""time""
""blur"",""58"",""597524""
","""event"",""trial"",""time""
""focus"",""58"",""615319""
","""event"",""trial"",""time""
""fullscreenenter"",""1"",""4873""
","""event"",""trial"",""time""
""fullscreenexit"",""58"",""615275""
","","[{""page_index"":0,""viewing_time"":2330}]","2330","","","","","","","","","","","","","","","","","","","","","","","",""
"pit-comprehension","116","945487","0.0-2.0-25.0-0.0","battery-v0.2","","""event"",""trial"",""time""
""fullscreenenter"",""1"",""4873""
""blur"",""58"",""597524""
""fullscreenexit"",""58"",""615275""
""focus"",""58"",""615319""
","""event"",""trial"",""time""
""blur"",""58"",""597524""
","""event"",""trial"",""time""
""focus"",""58"",""615319""
","""event"",""trial"",""time""
""fullscreenenter"",""1"",""4873""
","""event"",""trial"",""time""
""fullscreenexit"",""58"",""615275""
","","","6863","[""True""]","0","21","10006","393","","","","","","","","","","","","","","","","","","",""
"pit-instructions","117","948625","0.0-2.0-25.0-1.0","battery-v0.2","","""event"",""trial"",""time""
""fullscreenenter"",""1"",""4873""
""blur"",""58"",""597524""
""fullscreenexit"",""58"",""615275""
""focus"",""58"",""615319""
","""event"",""trial"",""time""
""blur"",""58"",""597524""
","""event"",""trial"",""time""
""focus"",""58"",""615319""
","""event"",""trial"",""time""
""fullscreenenter"",""1"",""4873""
","""event"",""trial"",""time""
""fullscreenexit"",""58"",""615275""
","","[{""page_index"":0,""viewing_time"":3087}]","3087","","","","","","","","","","","","","","","","","","","","","","","",""
"pit-comprehension","118","953352","0.0-2.0-26.0-0.0","battery-v0.2","","""event"",""trial"",""time""
""fullscreenenter"",""1"",""4873""
""blur"",""58"",""597524""
""fullscreenexit"",""58"",""615275""
""focus"",""58"",""615319""
","""event"",""trial"",""time""
""blur"",""58"",""597524""
","""event"",""trial"",""time""
""focus"",""58"",""615319""
","""event"",""trial"",""time""
""fullscreenenter"",""1"",""4873""
","""event"",""trial"",""time""
""fullscreenexit"",""58"",""615275""
","","","4723","[""False""]","0","21","10006","393","","","","","","","","","","","","","","","","","","",""
"pit-instructions","119","963433","0.0-2.0-26.0-1.0","battery-v0.2","","""event"",""trial"",""time""
""fullscreenenter"",""1"",""4873""
""blur"",""58"",""597524""
""fullscreenexit"",""58"",""615275""
""focus"",""58"",""615319""
","""event"",""trial"",""time""
""blur"",""58"",""597524""
","""event"",""trial"",""time""
""focus"",""58"",""615319""
","""event"",""trial"",""time""
""fullscreenenter"",""1"",""4873""
","""event"",""trial"",""time""
""fullscreenexit"",""58"",""615275""
","","[{""page_index"":0,""viewing_time"":10029}]","10029","","","","","","","","","","","","","","","","","","","","","","","",""
"pit-instructions","120","979934","0.0-3.0","battery-v0.2","","""event"",""trial"",""time""
""fullscreenenter"",""1"",""4873""
""blur"",""58"",""597524""
""fullscreenexit"",""58"",""615275""
""focus"",""58"",""615319""
","""event"",""trial"",""time""
""blur"",""58"",""597524""
","""event"",""trial"",""time""
""focus"",""58"",""615319""
","""event"",""trial"",""time""
""fullscreenenter"",""1"",""4873""
","""event"",""trial"",""time""
""fullscreenexit"",""58"",""615275""
","","[{""page_index"":0,""viewing_time"":3922},{""page_index"":1,""viewing_time"":5375},{""page_index"":2,""viewing_time"":7200}]","16498","","","","","","","","","","","","","","","","","","","","","","","",""
"pit-trial","121","984794","0.0-4.0","battery-v0.2","","""event"",""trial"",""time""
""fullscreenenter"",""1"",""4873""
""blur"",""58"",""597524""
""fullscreenexit"",""58"",""615275""
""focus"",""58"",""615319""
","""event"",""trial"",""time""
""blur"",""58"",""597524""
","""event"",""trial"",""time""
""focus"",""58"",""615319""
","""event"",""trial"",""time""
""fullscreenenter"",""1"",""4873""
","""event"",""trial"",""time""
""fullscreenexit"",""58"",""615275""
","","","-1","","","21","10006","393","&#9752;","elianto","#f73b6a7A"," ","-1","0","-10","[]","0","1","","","10006","1","3","3","lose","go","0"
"pit-trial","122","988366","0.0-5.0","battery-v0.2","","""event"",""trial"",""time""
""fullscreenenter"",""1"",""4873""
""blur"",""58"",""597524""
""fullscreenexit"",""58"",""615275""
""focus"",""58"",""615319""
","""event"",""trial"",""time""
""blur"",""58"",""597524""
","""event"",""trial"",""time""
""focus"",""58"",""615319""
","""event"",""trial"",""time""
""fullscreenenter"",""1"",""4873""
","""event"",""trial"",""time""
""fullscreenexit"",""58"",""615275""
","","","713","","","21","10006","393","&#9728;","elianto","#f73b6a7A","-1"," ","0","0","[1564]","1","1","","","10006","2","0","4","lose","no-go","1"
"pit-trial","123","992120","0.0-6.0","battery-v0.2","","""event"",""trial"",""time""
""fullscreenenter"",""1"",""4873""
""blur"",""58"",""597524""
""fullscreenexit"",""58"",""615275""
""focus"",""58"",""615319""
","""event"",""trial"",""time""
""blur"",""58"",""597524""
","""event"",""trial"",""time""
""focus"",""58"",""615319""
","""event"",""trial"",""time""
""fullscreenenter"",""1"",""4873""
","""event"",""trial"",""time""
""fullscreenexit"",""58"",""615275""
","","","897.9999999998836","","","21","10006","393","&#9733;","elianto","#3366ff99","-1"," ","0","0","[1748.9999999998836]","1","1","","","10006","3","2","2","win","no-go","0"
"pit-trial","124","995677","0.0-7.0","battery-v0.2","","""event"",""trial"",""time""
""fullscreenenter"",""1"",""4873""
""blur"",""58"",""597524""
""fullscreenexit"",""58"",""615275""
""focus"",""58"",""615319""
","""event"",""trial"",""time""
""blur"",""58"",""597524""
","""event"",""trial"",""time""
""focus"",""58"",""615319""
","""event"",""trial"",""time""
""fullscreenenter"",""1"",""4873""
","""event"",""trial"",""time""
""fullscreenexit"",""58"",""615275""
","","","700","","","21","10006","393","&#9730;","elianto","#3366ff99"," "," ","1","+10","[1551]","1","1","","","10006","4","1","1","win","go","0"
"pit-trial","125","999272","0.0-8.0","battery-v0.2","","""event"",""trial"",""time""
""fullscreenenter"",""1"",""4873""
""blur"",""58"",""597524""
""fullscreenexit"",""58"",""615275""
""focus"",""58"",""615319""
","""event"",""trial"",""time""
""blur"",""58"",""597524""
","""event"",""trial"",""time""
""focus"",""58"",""615319""
","""event"",""trial"",""time""
""fullscreenenter"",""1"",""4873""
","""event"",""trial"",""time""
""fullscreenexit"",""58"",""615275""
","","","735.9999999998836","","","21","10006","393","&#9733;","elianto","#3366ff99","-1"," ","0","0","[1586.9999999998836]","1","1","","","10006","5","2","2","win","no-go","0"
"pit-trial","126","1003438","0.0-9.0","battery-v0.2","","""event"",""trial"",""time""
""fullscreenenter"",""1"",""4873""
""blur"",""58"",""597524""
""fullscreenexit"",""58"",""615275""
""focus"",""58"",""615319""
","""event"",""trial"",""time""
""blur"",""58"",""597524""
","""event"",""trial"",""time""
""focus"",""58"",""615319""
","""event"",""trial"",""time""
""fullscreenenter"",""1"",""4873""
","""event"",""trial"",""time""
""fullscreenexit"",""58"",""615275""
","","","1309","","","21","10006","393","&#9728;","elianto","#f73b6a7A","-1"," ","0","0","[2160]","1","1","","","10006","6","0","4","lose","no-go","1"
"pit-trial","127","1008295","0.0-10.0","battery-v0.2","","""event"",""trial"",""time""
""fullscreenenter"",""1"",""4873""
""blur"",""58"",""597524""
""fullscreenexit"",""58"",""615275""
""focus"",""58"",""615319""
","""event"",""trial"",""time""
""blur"",""58"",""597524""
","""event"",""trial"",""time""
""focus"",""58"",""615319""
","""event"",""trial"",""time""
""fullscreenenter"",""1"",""4873""
","""event"",""trial"",""time""
""fullscreenexit"",""58"",""615275""
","","","-1","","","21","10006","393","&#9752;","elianto","#f73b6a7A"," ","-1","0","-10","[]","0","1","","","10006","7","3","3","lose","go","0"
"pit-trial","128","1011998","0.0-11.0","battery-v0.2","","""event"",""trial"",""time""
""fullscreenenter"",""1"",""4873""
""blur"",""58"",""597524""
""fullscreenexit"",""58"",""615275""
""focus"",""58"",""615319""
","""event"",""trial"",""time""
""blur"",""58"",""597524""
","""event"",""trial"",""time""
""focus"",""58"",""615319""
","""event"",""trial"",""time""
""fullscreenenter"",""1"",""4873""
","""event"",""trial"",""time""
""fullscreenexit"",""58"",""615275""
","","","845","","","21","10006","393","&#9730;","elianto","#3366ff99"," "," ","1","+10","[1696]","1","1","","","10006","8","1","1","win","go","0"
"pit-trial","129","1015593","0.0-12.0","battery-v0.2","","""event"",""trial"",""time""
""fullscreenenter"",""1"",""4873""
""blur"",""58"",""597524""
""fullscreenexit"",""58"",""615275""
""focus"",""58"",""615319""
","""event"",""trial"",""time""
""blur"",""58"",""597524""
","""event"",""trial"",""time""
""focus"",""58"",""615319""
","""event"",""trial"",""time""
""fullscreenenter"",""1"",""4873""
","""event"",""trial"",""time""
""fullscreenexit"",""58"",""615275""
","","","739","","","21","10006","393","&#9733;","elianto","#3366ff99","-1"," ","0","0","[1590]","1","1","","","10006","9","2","2","win","no-go","0"
"pit-trial","130","1019888","0.0-13.0","battery-v0.2","","""event"",""trial"",""time""
""fullscreenenter"",""1"",""4873""
""blur"",""58"",""597524""
""fullscreenexit"",""58"",""615275""
""focus"",""58"",""615319""
","""event"",""trial"",""time""
""blur"",""58"",""597524""
","""event"",""trial"",""time""
""focus"",""58"",""615319""
","""event"",""trial"",""time""
""fullscreenenter"",""1"",""4873""
","""event"",""trial"",""time""
""fullscreenexit"",""58"",""615275""
","","","1439","","","21","10006","393","&#9728;","elianto","#f73b6a7A","-1"," ","0","-10","[2290]","1","1","","","10006","10","0","4","lose","no-go","0"
"pit-trial","131","1023702","0.0-14.0","battery-v0.2","","""event"",""trial"",""time""
""fullscreenenter"",""1"",""4873""
""blur"",""58"",""597524""
""fullscreenexit"",""58"",""615275""
""focus"",""58"",""615319""
","""event"",""trial"",""time""
""blur"",""58"",""597524""
","""event"",""trial"",""time""
""focus"",""58"",""615319""
","""event"",""trial"",""time""
""fullscreenenter"",""1"",""4873""
","""event"",""trial"",""time""
""fullscreenexit"",""58"",""615275""
","","","956","","","21","10006","393","&#9730;","elianto","#3366ff99"," "," ","1","0","[1807]","1","1","","","10006","11","1","1","win","go","1"
"pit-trial","132","1028416","0.0-15.0","battery-v0.2","","""event"",""trial"",""time""
""fullscreenenter"",""1"",""4873""
""blur"",""58"",""597524""
""fullscreenexit"",""58"",""615275""
""focus"",""58"",""615319""
","""event"",""trial"",""time""
""blur"",""58"",""597524""
","""event"",""trial"",""time""
""focus"",""58"",""615319""
","""event"",""trial"",""time""
""fullscreenenter"",""1"",""4873""
","""event"",""trial"",""time""
""fullscreenexit"",""58"",""615275""
","","","1859.9999999998836","","","21","10006","393","&#9752;","elianto","#f73b6a7A"," "," ","1","0","[2710]","1","1","","","10006","12","3","3","lose","go","0"
"pit-trial","133","1033273","0.0-16.0","battery-v0.2","","""event"",""trial"",""time""
""fullscreenenter"",""1"",""4873""
""blur"",""58"",""597524""
""fullscreenexit"",""58"",""615275""
""focus"",""58"",""615319""
","""event"",""trial"",""time""
""blur"",""58"",""597524""
","""event"",""trial"",""time""
""focus"",""58"",""615319""
","""event"",""trial"",""time""
""fullscreenenter"",""1"",""4873""
","""event"",""trial"",""time""
""fullscreenexit"",""58"",""615275""
","","","-1","","","21","10006","393","&#9730;","elianto","#3366ff99"," ","-1","0","0","[]","0","1","","","10006","13","1","1","win","go","0"
"pit-trial","134","1037110","0.0-17.0","battery-v0.2","","""event"",""trial"",""time""
""fullscreenenter"",""1"",""4873""
""blur"",""58"",""597524""
""fullscreenexit"",""58"",""615275""
""focus"",""58"",""615319""
","""event"",""trial"",""time""
""blur"",""58"",""597524""
","""event"",""trial"",""time""
""focus"",""58"",""615319""
","""event"",""trial"",""time""
""fullscreenenter"",""1"",""4873""
","""event"",""trial"",""time""
""fullscreenexit"",""58"",""615275""
","","","981","","","21","10006","393","&#9733;","elianto","#3366ff99","-1"," ","0","0","[1831.9999999998836]","1","1","","","10006","14","2","2","win","no-go","0"
"pit-trial","135","1041967","0.0-18.0","battery-v0.2","","""event"",""trial"",""time""
""fullscreenenter"",""1"",""4873""
""blur"",""58"",""597524""
""fullscreenexit"",""58"",""615275""
""focus"",""58"",""615319""
","""event"",""trial"",""time""
""blur"",""58"",""597524""
","""event"",""trial"",""time""
""focus"",""58"",""615319""
","""event"",""trial"",""time""
""fullscreenenter"",""1"",""4873""
","""event"",""trial"",""time""
""fullscreenexit"",""58"",""615275""
","","","-1","","","21","10006","393","&#9728;","elianto","#f73b6a7A","-1","-1","1","0","[]","0","1","","","10006","15","0","4","lose","no-go","0"
"pit-trial","136","1046646","0.0-19.0","battery-v0.2","","""event"",""trial"",""time""
""fullscreenenter"",""1"",""4873""
""blur"",""58"",""597524""
""fullscreenexit"",""58"",""615275""
""focus"",""58"",""615319""
","""event"",""trial"",""time""
""blur"",""58"",""597524""
","""event"",""trial"",""time""
""focus"",""58"",""615319""
","""event"",""trial"",""time""
""fullscreenenter"",""1"",""4873""
","""event"",""trial"",""time""
""fullscreenexit"",""58"",""615275""
","","","1820.9999999998836","","","21","10006","393","&#9752;","elianto","#f73b6a7A"," "," ","1","0","[2672]","1","1","","","10006","16","3","3","lose","go","0"
"pit-trial","137","1050403","0.0-20.0","battery-v0.2","","""event"",""trial"",""time""
""fullscreenenter"",""1"",""4873""
""blur"",""58"",""597524""
""fullscreenexit"",""58"",""615275""
""focus"",""58"",""615319""
","""event"",""trial"",""time""
""blur"",""58"",""597524""
","""event"",""trial"",""time""
""focus"",""58"",""615319""
","""event"",""trial"",""time""
""fullscreenenter"",""1"",""4873""
","""event"",""trial"",""time""
""fullscreenexit"",""58"",""615275""
","","","901","","","21","10006","393","&#9752;","elianto","#f73b6a7A"," "," ","1","0","[1752.0000000001164]","1","1","","","10006","17","3","3","lose","go","0"
"pit-trial","138","1054433","0.0-21.0","battery-v0.2","","""event"",""trial"",""time""
""fullscreenenter"",""1"",""4873""
""blur"",""58"",""597524""
""fullscreenexit"",""58"",""615275""
""focus"",""58"",""615319""
","""event"",""trial"",""time""
""blur"",""58"",""597524""
","""event"",""trial"",""time""
""focus"",""58"",""615319""
","""event"",""trial"",""time""
""fullscreenenter"",""1"",""4873""
","""event"",""trial"",""time""
""fullscreenexit"",""58"",""615275""
","","","1174","","","21","10006","393","&#9733;","elianto","#3366ff99","-1"," ","0","0","[2025]","1","1","","","10006","18","2","2","win","no-go","0"
"pit-trial","139","1057845","0.0-22.0","battery-v0.2","","""event"",""trial"",""time""
""fullscreenenter"",""1"",""4873""
""blur"",""58"",""597524""
""fullscreenexit"",""58"",""615275""
""focus"",""58"",""615319""
","""event"",""trial"",""time""
""blur"",""58"",""597524""
","""event"",""trial"",""time""
""focus"",""58"",""615319""
","""event"",""trial"",""time""
""fullscreenenter"",""1"",""4873""
","""event"",""trial"",""time""
""fullscreenexit"",""58"",""615275""
","","","555.0000000002328","","","21","10006","393","&#9730;","elianto","#3366ff99"," "," ","1","+10","[1407.0000000002328]","1","1","","","10006","19","1","1","win","go","0"
"pit-trial","140","1062701","0.0-23.0","battery-v0.2","","""event"",""trial"",""time""
""fullscreenenter"",""1"",""4873""
""blur"",""58"",""597524""
""fullscreenexit"",""58"",""615275""
""focus"",""58"",""615319""
","""event"",""trial"",""time""
""blur"",""58"",""597524""
","""event"",""trial"",""time""
""focus"",""58"",""615319""
","""event"",""trial"",""time""
""fullscreenenter"",""1"",""4873""
","""event"",""trial"",""time""
""fullscreenexit"",""58"",""615275""
","","","-1","","","21","10006","393","&#9728;","elianto","#f73b6a7A","-1","-1","1","0","[]","0","1","","","10006","20","0","4","lose","no-go","0"
"pit-instructions","141","1075887","0.0-24.0","battery-v0.2","","""event"",""trial"",""time""
""fullscreenenter"",""1"",""4873""
""blur"",""58"",""597524""
""fullscreenexit"",""58"",""615275""
""focus"",""58"",""615319""
","""event"",""trial"",""time""
""blur"",""58"",""597524""
","""event"",""trial"",""time""
""focus"",""58"",""615319""
","""event"",""trial"",""time""
""fullscreenenter"",""1"",""4873""
","""event"",""trial"",""time""
""fullscreenexit"",""58"",""615275""
","","[{""page_index"":0,""viewing_time"":6822},{""page_index"":1,""viewing_time"":6358}]","13180","","","","","","","","","","","","","","","","","","","","","","","",""
"pit-trial","142","1079702","0.0-25.0","battery-v0.2","","""event"",""trial"",""time""
""fullscreenenter"",""1"",""4873""
""blur"",""58"",""597524""
""fullscreenexit"",""58"",""615275""
""focus"",""58"",""615319""
","""event"",""trial"",""time""
""blur"",""58"",""597524""
","""event"",""trial"",""time""
""focus"",""58"",""615319""
","""event"",""trial"",""time""
""fullscreenenter"",""1"",""4873""
","""event"",""trial"",""time""
""fullscreenexit"",""58"",""615275""
","","","957","","","21","10006","393","u","elianto","#f73b6a7A","-1"," ","0","-10","[1808]","1","2","","","10006","21","0","4","lose","no-go","0"
"pit-trial","143","1083529","0.0-26.0","battery-v0.2","","""event"",""trial"",""time""
""fullscreenenter"",""1"",""4873""
""blur"",""58"",""597524""
""fullscreenexit"",""58"",""615275""
""focus"",""58"",""615319""
","""event"",""trial"",""time""
""blur"",""58"",""597524""
","""event"",""trial"",""time""
""focus"",""58"",""615319""
","""event"",""trial"",""time""
""fullscreenenter"",""1"",""4873""
","""event"",""trial"",""time""
""fullscreenexit"",""58"",""615275""
","","","971","","","21","10006","393","l","elianto","#3366ff99"," "," ","1","+10","[1822]","1","2","","","10006","22","1","1","win","go","0"
"pit-trial","144","1087307","0.0-27.0","battery-v0.2","","""event"",""trial"",""time""
""fullscreenenter"",""1"",""4873""
""blur"",""58"",""597524""
""fullscreenexit"",""58"",""615275""
""focus"",""58"",""615319""
","""event"",""trial"",""time""
""blur"",""58"",""597524""
","""event"",""trial"",""time""
""focus"",""58"",""615319""
","""event"",""trial"",""time""
""fullscreenenter"",""1"",""4873""
","""event"",""trial"",""time""
""fullscreenexit"",""58"",""615275""
","","","923","","","21","10006","393","g","elianto","#f73b6a7A"," "," ","1","0","[1774]","1","2","","","10006","23","3","3","lose","go","0"
"pit-trial","145","1091105","0.0-28.0","battery-v0.2","","""event"",""trial"",""time""
""fullscreenenter"",""1"",""4873""
""blur"",""58"",""597524""
""fullscreenexit"",""58"",""615275""
""focus"",""58"",""615319""
","""event"",""trial"",""time""
""blur"",""58"",""597524""
","""event"",""trial"",""time""
""focus"",""58"",""615319""
","""event"",""trial"",""time""
""fullscreenenter"",""1"",""4873""
","""event"",""trial"",""time""
""fullscreenexit"",""58"",""615275""
","","","942","","","21","10006","393","a","elianto","#f73b6a7A","-1"," ","0","-10","[1792]","1","2","","","10006","24","2","4","lose","no-go","0"
"pit-trial","146","1095961","0.0-29.0","battery-v0.2","","""event"",""trial"",""time""
""fullscreenenter"",""1"",""4873""
""blur"",""58"",""597524""
""fullscreenexit"",""58"",""615275""
""focus"",""58"",""615319""
","""event"",""trial"",""time""
""blur"",""58"",""597524""
","""event"",""trial"",""time""
""focus"",""58"",""615319""
","""event"",""trial"",""time""
""fullscreenenter"",""1"",""4873""
","""event"",""trial"",""time""
""fullscreenexit"",""58"",""615275""
","","","-1","","","21","10006","393","u","elianto","#f73b6a7A","-1","-1","1","0","[]","0","2","","","10006","25","0","4","lose","no-go","0"
"pit-trial","147","1099568","0.0-30.0","battery-v0.2","","""event"",""trial"",""time""
""fullscreenenter"",""1"",""4873""
""blur"",""58"",""597524""
""fullscreenexit"",""58"",""615275""
""focus"",""58"",""615319""
","""event"",""trial"",""time""
""blur"",""58"",""597524""
","""event"",""trial"",""time""
""focus"",""58"",""615319""
","""event"",""trial"",""time""
""fullscreenenter"",""1"",""4873""
","""event"",""trial"",""time""
""fullscreenexit"",""58"",""615275""
","","","750","","","21","10006","393","g","elianto","#f73b6a7A"," "," ","1","0","[1602]","1","2","","","10006","26","3","3","lose","go","0"
"pit-trial","148","1103422","0.0-31.0","battery-v0.2","","""event"",""trial"",""time""
""fullscreenenter"",""1"",""4873""
""blur"",""58"",""597524""
""fullscreenexit"",""58"",""615275""
""focus"",""58"",""615319""
","""event"",""trial"",""time""
""blur"",""58"",""597524""
","""event"",""trial"",""time""
""focus"",""58"",""615319""
","""event"",""trial"",""time""
""fullscreenenter"",""1"",""4873""
","""event"",""trial"",""time""
""fullscreenexit"",""58"",""615275""
","","","997","","","21","10006","393","l","elianto","#3366ff99"," "," ","1","+10","[1847]","1","2","","","10006","27","1","1","win","go","0"
"pit-trial","149","1108279","0.0-32.0","battery-v0.2","","""event"",""trial"",""time""
""fullscreenenter"",""1"",""4873""
""blur"",""58"",""597524""
""fullscreenexit"",""58"",""615275""
""focus"",""58"",""615319""
","""event"",""trial"",""time""
""blur"",""58"",""597524""
","""event"",""trial"",""time""
""focus"",""58"",""615319""
","""event"",""trial"",""time""
""fullscreenenter"",""1"",""4873""
","""event"",""trial"",""time""
""fullscreenexit"",""58"",""615275""
","","","-1","","","21","10006","393","a","elianto","#f73b6a7A","-1","-1","1","0","[]","0","2","","","10006","28","2","4","lose","no-go","0"
"pit-trial","150","1113137","0.0-33.0","battery-v0.2","","""event"",""trial"",""time""
""fullscreenenter"",""1"",""4873""
""blur"",""58"",""597524""
""fullscreenexit"",""58"",""615275""
""focus"",""58"",""615319""
","""event"",""trial"",""time""
""blur"",""58"",""597524""
","""event"",""trial"",""time""
""focus"",""58"",""615319""
","""event"",""trial"",""time""
""fullscreenenter"",""1"",""4873""
","""event"",""trial"",""time""
""fullscreenexit"",""58"",""615275""
","","","-1","","","21","10006","393","a","elianto","#f73b6a7A","-1","-1","1","-10","[]","0","2","","","10006","29","2","4","lose","no-go","1"
"pit-trial","151","1116899","0.0-34.0","battery-v0.2","","""event"",""trial"",""time""
""fullscreenenter"",""1"",""4873""
""blur"",""58"",""597524""
""fullscreenexit"",""58"",""615275""
""focus"",""58"",""615319""
","""event"",""trial"",""time""
""blur"",""58"",""597524""
","""event"",""trial"",""time""
""focus"",""58"",""615319""
","""event"",""trial"",""time""
""fullscreenenter"",""1"",""4873""
","""event"",""trial"",""time""
""fullscreenexit"",""58"",""615275""
","","","904","","","21","10006","393","l","elianto","#3366ff99"," "," ","1","0","[1754]","1","2","","","10006","30","1","1","win","go","1"
"pit-trial","152","1121758","0.0-35.0","battery-v0.2","","""event"",""trial"",""time""
""fullscreenenter"",""1"",""4873""
""blur"",""58"",""597524""
""fullscreenexit"",""58"",""615275""
""focus"",""58"",""615319""
","""event"",""trial"",""time""
""blur"",""58"",""597524""
","""event"",""trial"",""time""
""focus"",""58"",""615319""
","""event"",""trial"",""time""
""fullscreenenter"",""1"",""4873""
","""event"",""trial"",""time""
""fullscreenexit"",""58"",""615275""
","","","-1","","","21","10006","393","u","elianto","#f73b6a7A","-1","-1","1","0","[]","0","2","","","10006","31","0","4","lose","no-go","0"
"pit-trial","153","1126466","0.0-36.0","battery-v0.2","","""event"",""trial"",""time""
""fullscreenenter"",""1"",""4873""
""blur"",""58"",""597524""
""fullscreenexit"",""58"",""615275""
""focus"",""58"",""615319""
","""event"",""trial"",""time""
""blur"",""58"",""597524""
","""event"",""trial"",""time""
""focus"",""58"",""615319""
","""event"",""trial"",""time""
""fullscreenenter"",""1"",""4873""
","""event"",""trial"",""time""
""fullscreenexit"",""58"",""615275""
","","","1851","","","21","10006","393","g","elianto","#f73b6a7A"," "," ","1","0","[2702]","1","2","","","10006","32","3","3","lose","go","0"
"pit-trial","154","1131325","0.0-37.0","battery-v0.2","","""event"",""trial"",""time""
""fullscreenenter"",""1"",""4873""
""blur"",""58"",""597524""
""fullscreenexit"",""58"",""615275""
""focus"",""58"",""615319""
","""event"",""trial"",""time""
""blur"",""58"",""597524""
","""event"",""trial"",""time""
""focus"",""58"",""615319""
","""event"",""trial"",""time""
""fullscreenenter"",""1"",""4873""
","""event"",""trial"",""time""
""fullscreenexit"",""58"",""615275""
","","","-1","","","21","10006","393","u","elianto","#f73b6a7A","-1","-1","1","0","[]","0","2","","","10006","33","0","4","lose","no-go","0"
"pit-trial","155","1135836","0.0-38.0","battery-v0.2","","""event"",""trial"",""time""
""fullscreenenter"",""1"",""4873""
""blur"",""58"",""597524""
""fullscreenexit"",""58"",""615275""
""focus"",""58"",""615319""
","""event"",""trial"",""time""
""blur"",""58"",""597524""
","""event"",""trial"",""time""
""focus"",""58"",""615319""
","""event"",""trial"",""time""
""fullscreenenter"",""1"",""4873""
","""event"",""trial"",""time""
""fullscreenexit"",""58"",""615275""
","","","1656","","","21","10006","393","g","elianto","#f73b6a7A"," "," ","1","-10","[2506]","1","2","","","10006","34","3","3","lose","go","1"
"pit-trial","156","1140691","0.0-39.0","battery-v0.2","","""event"",""trial"",""time""
""fullscreenenter"",""1"",""4873""
""blur"",""58"",""597524""
""fullscreenexit"",""58"",""615275""
""focus"",""58"",""615319""
","""event"",""trial"",""time""
""blur"",""58"",""597524""
","""event"",""trial"",""time""
""focus"",""58"",""615319""
","""event"",""trial"",""time""
""fullscreenenter"",""1"",""4873""
","""event"",""trial"",""time""
""fullscreenexit"",""58"",""615275""
","","","-1","","","21","10006","393","a","elianto","#f73b6a7A","-1","-1","1","0","[]","0","2","","","10006","35","2","4","lose","no-go","0"
"pit-trial","157","1145548","0.0-40.0","battery-v0.2","","""event"",""trial"",""time""
""fullscreenenter"",""1"",""4873""
""blur"",""58"",""597524""
""fullscreenexit"",""58"",""615275""
""focus"",""58"",""615319""
","""event"",""trial"",""time""
""blur"",""58"",""597524""
","""event"",""trial"",""time""
""focus"",""58"",""615319""
","""event"",""trial"",""time""
""fullscreenenter"",""1"",""4873""
","""event"",""trial"",""time""
""fullscreenexit"",""58"",""615275""
","","","-1","","","21","10006","393","l","elianto","#3366ff99"," ","-1","0","0","[]","0","2","","","10006","36","1","1","win","go","0"
"pit-trial","158","1149440","0.0-41.0","battery-v0.2","","""event"",""trial"",""time""
""fullscreenenter"",""1"",""4873""
""blur"",""58"",""597524""
""fullscreenexit"",""58"",""615275""
""focus"",""58"",""615319""
","""event"",""trial"",""time""
""blur"",""58"",""597524""
","""event"",""trial"",""time""
""focus"",""58"",""615319""
","""event"",""trial"",""time""
""fullscreenenter"",""1"",""4873""
","""event"",""trial"",""time""
""fullscreenexit"",""58"",""615275""
","","","1036","","","21","10006","393","l","elianto","#3366ff99"," "," ","1","+10","[1887]","1","2","","","10006","37","1","1","win","go","0"
"pit-trial","159","1154296","0.0-42.0","battery-v0.2","","""event"",""trial"",""time""
""fullscreenenter"",""1"",""4873""
""blur"",""58"",""597524""
""fullscreenexit"",""58"",""615275""
""focus"",""58"",""615319""
","""event"",""trial"",""time""
""blur"",""58"",""597524""
","""event"",""trial"",""time""
""focus"",""58"",""615319""
","""event"",""trial"",""time""
""fullscreenenter"",""1"",""4873""
","""event"",""trial"",""time""
""fullscreenexit"",""58"",""615275""
","","","-1","","","21","10006","393","g","elianto","#f73b6a7A"," ","-1","0","0","[2946.000000000233]","1","2","","","10006","38","3","3","lose","go","1"
"pit-trial","160","1159153","0.0-43.0","battery-v0.2","","""event"",""trial"",""time""
""fullscreenenter"",""1"",""4873""
""blur"",""58"",""597524""
""fullscreenexit"",""58"",""615275""
""focus"",""58"",""615319""
","""event"",""trial"",""time""
""blur"",""58"",""597524""
","""event"",""trial"",""time""
""focus"",""58"",""615319""
","""event"",""trial"",""time""
""fullscreenenter"",""1"",""4873""
","""event"",""trial"",""time""
""fullscreenexit"",""58"",""615275""
","","","-1","","","21","10006","393","u","elianto","#f73b6a7A","-1","-1","1","0","[]","0","2","","","10006","39","0","4","lose","no-go","0"
"pit-trial","161","1164009","0.0-44.0","battery-v0.2","","""event"",""trial"",""time""
""fullscreenenter"",""1"",""4873""
""blur"",""58"",""597524""
""fullscreenexit"",""58"",""615275""
""focus"",""58"",""615319""
","""event"",""trial"",""time""
""blur"",""58"",""597524""
","""event"",""trial"",""time""
""focus"",""58"",""615319""
","""event"",""trial"",""time""
""fullscreenenter"",""1"",""4873""
","""event"",""trial"",""time""
""fullscreenexit"",""58"",""615275""
","","","-1","","","21","10006","393","a","elianto","#f73b6a7A","-1","-1","1","-10","[]","0","2","","","10006","40","2","4","lose","no-go","1"
"pit-trial","162","1167574","0.0-45.0","battery-v0.2","","""event"",""trial"",""time""
""fullscreenenter"",""1"",""4873""
""blur"",""58"",""597524""
""fullscreenexit"",""58"",""615275""
""focus"",""58"",""615319""
","""event"",""trial"",""time""
""blur"",""58"",""597524""
","""event"",""trial"",""time""
""focus"",""58"",""615319""
","""event"",""trial"",""time""
""fullscreenenter"",""1"",""4873""
","""event"",""trial"",""time""
""fullscreenexit"",""58"",""615275""
","","","710","","","21","10006","393","l","elianto","#3366ff99"," "," ","1","+10","[1561]","1","2","","","10006","41","1","1","win","go","0"
"pit-trial","163","1172431","0.0-46.0","battery-v0.2","","""event"",""trial"",""time""
""fullscreenenter"",""1"",""4873""
""blur"",""58"",""597524""
""fullscreenexit"",""58"",""615275""
""focus"",""58"",""615319""
","""event"",""trial"",""time""
""blur"",""58"",""597524""
","""event"",""trial"",""time""
""focus"",""58"",""615319""
","""event"",""trial"",""time""
""fullscreenenter"",""1"",""4873""
","""event"",""trial"",""time""
""fullscreenexit"",""58"",""615275""
","","","-1","","","21","10006","393","a","elianto","#f73b6a7A","-1","-1","1","0","[]","0","2","","","10006","42","2","4","lose","no-go","0"
"pit-trial","164","1176699","0.0-47.0","battery-v0.2","","""event"",""trial"",""time""
""fullscreenenter"",""1"",""4873""
""blur"",""58"",""597524""
""fullscreenexit"",""58"",""615275""
""focus"",""58"",""615319""
","""event"",""trial"",""time""
""blur"",""58"",""597524""
","""event"",""trial"",""time""
""focus"",""58"",""615319""
","""event"",""trial"",""time""
""fullscreenenter"",""1"",""4873""
","""event"",""trial"",""time""
""fullscreenexit"",""58"",""615275""
","","","1411","","","21","10006","393","g","elianto","#f73b6a7A"," "," ","1","0","[2262]","1","2","","","10006","43","3","3","lose","go","0"
"pit-trial","165","1181557","0.0-48.0","battery-v0.2","","""event"",""trial"",""time""
""fullscreenenter"",""1"",""4873""
""blur"",""58"",""597524""
""fullscreenexit"",""58"",""615275""
""focus"",""58"",""615319""
","""event"",""trial"",""time""
""blur"",""58"",""597524""
","""event"",""trial"",""time""
""focus"",""58"",""615319""
","""event"",""trial"",""time""
""fullscreenenter"",""1"",""4873""
","""event"",""trial"",""time""
""fullscreenexit"",""58"",""615275""
","","","-1","","","21","10006","393","u","elianto","#f73b6a7A","-1","-1","1","0","[]","0","2","","","10006","44","0","4","lose","no-go","0"
"pit-trial","166","1186416","0.0-49.0","battery-v0.2","","""event"",""trial"",""time""
""fullscreenenter"",""1"",""4873""
""blur"",""58"",""597524""
""fullscreenexit"",""58"",""615275""
""focus"",""58"",""615319""
","""event"",""trial"",""time""
""blur"",""58"",""597524""
","""event"",""trial"",""time""
""focus"",""58"",""615319""
","""event"",""trial"",""time""
""fullscreenenter"",""1"",""4873""
","""event"",""trial"",""time""
""fullscreenexit"",""58"",""615275""
","","","-1","","","21","10006","393","u","elianto","#f73b6a7A","-1","-1","1","0","[]","0","2","","","10006","45","0","4","lose","no-go","0"
"pit-trial","167","1191275","0.0-50.0","battery-v0.2","","""event"",""trial"",""time""
""fullscreenenter"",""1"",""4873""
""blur"",""58"",""597524""
""fullscreenexit"",""58"",""615275""
""focus"",""58"",""615319""
","""event"",""trial"",""time""
""blur"",""58"",""597524""
","""event"",""trial"",""time""
""focus"",""58"",""615319""
","""event"",""trial"",""time""
""fullscreenenter"",""1"",""4873""
","""event"",""trial"",""time""
""fullscreenexit"",""58"",""615275""
","","","-1","","","21","10006","393","a","elianto","#f73b6a7A","-1","-1","1","0","[]","0","2","","","10006","46","2","4","lose","no-go","0"
"pit-trial","168","1195289","0.0-51.0","battery-v0.2","","""event"",""trial"",""time""
""fullscreenenter"",""1"",""4873""
""blur"",""58"",""597524""
""fullscreenexit"",""58"",""615275""
""focus"",""58"",""615319""
","""event"",""trial"",""time""
""blur"",""58"",""597524""
","""event"",""trial"",""time""
""focus"",""58"",""615319""
","""event"",""trial"",""time""
""fullscreenenter"",""1"",""4873""
","""event"",""trial"",""time""
""fullscreenexit"",""58"",""615275""
","","","1155","","","21","10006","393","g","elianto","#f73b6a7A"," "," ","1","0","[2006]","1","2","","","10006","47","3","3","lose","go","0"
"pit-trial","169","1199109","0.0-52.0","battery-v0.2","","""event"",""trial"",""time""
""fullscreenenter"",""1"",""4873""
""blur"",""58"",""597524""
""fullscreenexit"",""58"",""615275""
""focus"",""58"",""615319""
","""event"",""trial"",""time""
""blur"",""58"",""597524""
","""event"",""trial"",""time""
""focus"",""58"",""615319""
","""event"",""trial"",""time""
""fullscreenenter"",""1"",""4873""
","""event"",""trial"",""time""
""fullscreenexit"",""58"",""615275""
","","","962","","","21","10006","393","p","elianto","#3366ff99","-1"," ","0","0","[1812]","1","2","","","10006","48","4","2","win","no-go","0"
"pit-trial","170","1203964","0.0-53.0","battery-v0.2","","""event"",""trial"",""time""
""fullscreenenter"",""1"",""4873""
""blur"",""58"",""597524""
""fullscreenexit"",""58"",""615275""
""focus"",""58"",""615319""
","""event"",""trial"",""time""
""blur"",""58"",""597524""
","""event"",""trial"",""time""
""focus"",""58"",""615319""
","""event"",""trial"",""time""
""fullscreenenter"",""1"",""4873""
","""event"",""trial"",""time""
""fullscreenexit"",""58"",""615275""
","","","-1","","","21","10006","393","u","elianto","#f73b6a7A","-1","-1","1","0","[]","0","2","","","10006","49","0","4","lose","no-go","0"
"pit-trial","171","1207532","0.0-54.0","battery-v0.2","","""event"",""trial"",""time""
""fullscreenenter"",""1"",""4873""
""blur"",""58"",""597524""
""fullscreenexit"",""58"",""615275""
""focus"",""58"",""615319""
","""event"",""trial"",""time""
""blur"",""58"",""597524""
","""event"",""trial"",""time""
""focus"",""58"",""615319""
","""event"",""trial"",""time""
""fullscreenenter"",""1"",""4873""
","""event"",""trial"",""time""
""fullscreenexit"",""58"",""615275""
","","","712","","","21","10006","393","l","elianto","#3366ff99"," "," ","1","+10","[1563]","1","2","","","10006","50","1","1","win","go","0"
"pit-trial","172","1211644","0.0-55.0","battery-v0.2","","""event"",""trial"",""time""
""fullscreenenter"",""1"",""4873""
""blur"",""58"",""597524""
""fullscreenexit"",""58"",""615275""
""focus"",""58"",""615319""
","""event"",""trial"",""time""
""blur"",""58"",""597524""
","""event"",""trial"",""time""
""focus"",""58"",""615319""
","""event"",""trial"",""time""
""fullscreenenter"",""1"",""4873""
","""event"",""trial"",""time""
""fullscreenexit"",""58"",""615275""
","","","1255","","","21","10006","393","g","elianto","#f73b6a7A"," "," ","1","0","[2106]","1","2","","","10006","51","3","3","lose","go","0"
"pit-trial","173","1215255","0.0-56.0","battery-v0.2","","""event"",""trial"",""time""
""fullscreenenter"",""1"",""4873""
""blur"",""58"",""597524""
""fullscreenexit"",""58"",""615275""
""focus"",""58"",""615319""
","""event"",""trial"",""time""
""blur"",""58"",""597524""
","""event"",""trial"",""time""
""focus"",""58"",""615319""
","""event"",""trial"",""time""
""fullscreenenter"",""1"",""4873""
","""event"",""trial"",""time""
""fullscreenexit"",""58"",""615275""
","","","754.0000000002328","","","21","10006","393","p","elianto","#3366ff99","-1"," ","0","0","[1605.0000000002328]","1","2","","","10006","52","4","2","win","no-go","0"
"pit-trial","174","1220112","0.0-57.0","battery-v0.2","","""event"",""trial"",""time""
""fullscreenenter"",""1"",""4873""
""blur"",""58"",""597524""
""fullscreenexit"",""58"",""615275""
""focus"",""58"",""615319""
","""event"",""trial"",""time""
""blur"",""58"",""597524""
","""event"",""trial"",""time""
""focus"",""58"",""615319""
","""event"",""trial"",""time""
""fullscreenenter"",""1"",""4873""
","""event"",""trial"",""time""
""fullscreenexit"",""58"",""615275""
","","","-1","","","21","10006","393","a","elianto","#f73b6a7A","-1","-1","1","0","[]","0","2","","","10006","53","2","4","lose","no-go","0"
"pit-trial","175","1223721","0.0-58.0","battery-v0.2","","""event"",""trial"",""time""
""fullscreenenter"",""1"",""4873""
""blur"",""58"",""597524""
""fullscreenexit"",""58"",""615275""
""focus"",""58"",""615319""
","""event"",""trial"",""time""
""blur"",""58"",""597524""
","""event"",""trial"",""time""
""focus"",""58"",""615319""
","""event"",""trial"",""time""
""fullscreenenter"",""1"",""4873""
","""event"",""trial"",""time""
""fullscreenexit"",""58"",""615275""
","","","754","","","21","10006","393","l","elianto","#3366ff99"," "," ","1","+10","[1605]","1","2","","","10006","54","1","1","win","go","0"
"pit-trial","176","1227465","0.0-59.0","battery-v0.2","","""event"",""trial"",""time""
""fullscreenenter"",""1"",""4873""
""blur"",""58"",""597524""
""fullscreenexit"",""58"",""615275""
""focus"",""58"",""615319""
","""event"",""trial"",""time""
""blur"",""58"",""597524""
","""event"",""trial"",""time""
""focus"",""58"",""615319""
","""event"",""trial"",""time""
""fullscreenenter"",""1"",""4873""
","""event"",""trial"",""time""
""fullscreenexit"",""58"",""615275""
","","","885","","","21","10006","393","p","elianto","#3366ff99","-1"," ","0","0","[1736]","1","2","","","10006","55","4","2","win","no-go","0"
"pit-trial","177","1232322","0.0-60.0","battery-v0.2","","""event"",""trial"",""time""
""fullscreenenter"",""1"",""4873""
""blur"",""58"",""597524""
""fullscreenexit"",""58"",""615275""
""focus"",""58"",""615319""
","""event"",""trial"",""time""
""blur"",""58"",""597524""
","""event"",""trial"",""time""
""focus"",""58"",""615319""
","""event"",""trial"",""time""
""fullscreenenter"",""1"",""4873""
","""event"",""trial"",""time""
""fullscreenexit"",""58"",""615275""
","","","-1","","","21","10006","393","u","elianto","#f73b6a7A","-1","-1","1","-10","[]","0","2","","","10006","56","0","4","lose","no-go","1"
"pit-trial","178","1235865","0.0-61.0","battery-v0.2","","""event"",""trial"",""time""
""fullscreenenter"",""1"",""4873""
""blur"",""58"",""597524""
""fullscreenexit"",""58"",""615275""
""focus"",""58"",""615319""
","""event"",""trial"",""time""
""blur"",""58"",""597524""
","""event"",""trial"",""time""
""focus"",""58"",""615319""
","""event"",""trial"",""time""
""fullscreenenter"",""1"",""4873""
","""event"",""trial"",""time""
""fullscreenexit"",""58"",""615275""
","","","687","","","21","10006","393","l","elianto","#3366ff99"," "," ","1","0","[1538]","1","2","","","10006","57","1","1","win","go","1"
"pit-trial","179","1240724","0.0-62.0","battery-v0.2","","""event"",""trial"",""time""
""fullscreenenter"",""1"",""4873""
""blur"",""58"",""597524""
""fullscreenexit"",""58"",""615275""
""focus"",""58"",""615319""
","""event"",""trial"",""time""
""blur"",""58"",""597524""
","""event"",""trial"",""time""
""focus"",""58"",""615319""
","""event"",""trial"",""time""
""fullscreenenter"",""1"",""4873""
","""event"",""trial"",""time""
""fullscreenexit"",""58"",""615275""
","","","-1","","","21","10006","393","u","elianto","#f73b6a7A","-1","-1","1","0","[]","0","2","","","10006","58","0","4","lose","no-go","0"
"pit-trial","180","1244874","0.0-63.0","battery-v0.2","","""event"",""trial"",""time""
""fullscreenenter"",""1"",""4873""
""blur"",""58"",""597524""
""fullscreenexit"",""58"",""615275""
""focus"",""58"",""615319""
","""event"",""trial"",""time""
""blur"",""58"",""597524""
","""event"",""trial"",""time""
""focus"",""58"",""615319""
","""event"",""trial"",""time""
""fullscreenenter"",""1"",""4873""
","""event"",""trial"",""time""
""fullscreenexit"",""58"",""615275""
