"trial_type","trial_index","time_elapsed","internal_node_id","task_version","subject_id","interactions","blur_events","focus_events","fullscreenenter_events","fullscreenexit_events","success","view_history","rt","responses","num_errors","age","subject","participantId","rune","rune_set","hex","correct","choice","accuracy","outcome","keys","total_keys","block","practice","value","sub","trial","stimulus","robot","valence","action","sham"
"pavlovia","0","26","0.0-0.0","battery-v0.2","","""event"",""trial"",""time""
""fullscreenenter"",""1"",""3555""
","
","
","""event"",""trial"",""time""
""fullscreenenter"",""1"",""3555""
","
","","","","","","","","","","","","","","","","","","","","","","","","","","",""
"fullscreen","1","4539","0.0-1.0","battery-v0.2","","""event"",""trial"",""time""
""fullscreenenter"",""1"",""3555""
","
","
","""event"",""trial"",""time""
""fullscreenenter"",""1"",""3555""
","
","true","","","","","","","","","","","","","","","","","","","","","","","","","",""
"pit-instructions","2","17442","0.0-2.0-0.0","battery-v0.2","","""event"",""trial"",""time""
""fullscreenenter"",""1"",""3555""
","
","
","""event"",""trial"",""time""
""fullscreenenter"",""1"",""3555""
","
","","[{""page_index"":0,""viewing_time"":12881.100000023842}]","12881.5","","","","","","","","","","","","","","","","","","","","","","","",""
"pit-comprehension","3","21962","0.0-2.0-1.0-0.0","battery-v0.2","","""event"",""trial"",""time""
""fullscreenenter"",""1"",""3555""
","
","
","""event"",""trial"",""time""
""fullscreenenter"",""1"",""3555""
","
","","","4513.200000047684","[""shark""]","0","25","11610","5422","","","","","","","","","","","","","","","","","","",""
"pit-instructions","4","27682","0.0-2.0-1.0-1.0","battery-v0.2","","""event"",""trial"",""time""
""fullscreenenter"",""1"",""3555""
","
","
","""event"",""trial"",""time""
""fullscreenenter"",""1"",""3555""
","
","","[{""page_index"":0,""viewing_time"":5674.200000047684}]","5674.5","","","","","","","","","","","","","","","","","","","","","","","",""
"pit-comprehension","5","32446","0.0-2.0-2.0-0.0","battery-v0.2","","""event"",""trial"",""time""
""fullscreenenter"",""1"",""3555""
","
","
","""event"",""trial"",""time""
""fullscreenenter"",""1"",""3555""
","
","","","4756.299999952316","[""tiger""]","0","25","11610","5422","","","","","","","","","","","","","","","","","","",""
"pit-instructions","6","41902","0.0-2.0-2.0-1.0","battery-v0.2","","""event"",""trial"",""time""
""fullscreenenter"",""1"",""3555""
","
","
","""event"",""trial"",""time""
""fullscreenenter"",""1"",""3555""
","
","","[{""page_index"":0,""viewing_time"":9449.399999976158}]","9449.699999928474","","","","","","","","","","","","","","","","","","","","","","","",""
"pit-instructions","7","178130","0.0-2.0-3.0","battery-v0.2","","""event"",""trial"",""time""
""fullscreenenter"",""1"",""3555""
","
","
","""event"",""trial"",""time""
""fullscreenenter"",""1"",""3555""
","
","","[{""page_index"":0,""viewing_time"":11606.899999976158},{""page_index"":1,""viewing_time"":10280.600000023842},{""page_index"":2,""viewing_time"":6071.200000047684},{""page_index"":3,""viewing_time"":5867.699999928474},{""page_index"":4,""viewing_time"":8061.899999976158},{""page_index"":5,""viewing_time"":7095.900000095367},{""page_index"":6,""viewing_time"":9738.799999952316},{""page_index"":7,""viewing_time"":11218},{""page_index"":8,""viewing_time"":6819.5},{""page_index"":9,""viewing_time"":24874.700000047684},{""page_index"":10,""viewing_time"":8752.099999904633},{""page_index"":11,""viewing_time"":9964.900000095367},{""page_index"":12,""viewing_time"":7365.199999928474},{""page_index"":13,""viewing_time"":8502.200000047684}]","136220.10000002384","","","","","","","","","","","","","","","","","","","","","","","",""
"pit-trial","8","181046","0.0-2.0-4.0-0.0","battery-v0.2","","""event"",""trial"",""time""
""fullscreenenter"",""1"",""3555""
","
","
","""event"",""trial"",""time""
""fullscreenenter"",""1"",""3555""
","
","","","39.89999997615814","","","25","11610","5422","&#9784;","elianto","#FFFFF080"," "," ","1","&#10004","[898.1000000238419]","1","0","0","","","","","","","",""
"pit-trial","9","184035","0.0-2.0-4.1-0.1","battery-v0.2","","""event"",""trial"",""time""
""fullscreenenter"",""1"",""3555""
","
","
","""event"",""trial"",""time""
""fullscreenenter"",""1"",""3555""
","
","","","104.10000002384186","","","25","11610","5422","&#9784;","elianto","#FFFFF080"," "," ","1","&#10004","[956.7000000476837]","1","0","0","","","","","","","",""
"pit-trial","10","187614","0.0-2.0-4.2-0.2","battery-v0.2","","""event"",""trial"",""time""
""fullscreenenter"",""1"",""3555""
","
","
","""event"",""trial"",""time""
""fullscreenenter"",""1"",""3555""
","
","","","716.8999999761581","","","25","11610","5422","&#9784;","elianto","#FFFFF080"," "," ","1","&#10004","[208.89999997615814,1568.2999999523163]","2","0","0","","","","","","","",""
"pit-trial","11","191114","0.0-2.0-4.3-0.3","battery-v0.2","","""event"",""trial"",""time""
""fullscreenenter"",""1"",""3555""
","
","
","""event"",""trial"",""time""
""fullscreenenter"",""1"",""3555""
","
","","","629.8999999761581","","","25","11610","5422","&#9784;","elianto","#FFFFF080"," "," ","1","&#10004","[1484.8999999761581]","1","0","0","","","","","","","",""
"pit-trial","12","194044","0.0-2.0-4.4-0.4","battery-v0.2","","""event"",""trial"",""time""
""fullscreenenter"",""1"",""3555""
","
","
","""event"",""trial"",""time""
""fullscreenenter"",""1"",""3555""
","
","","","54.60000002384186","","","25","11610","5422","&#9784;","elianto","#FFFFF080"," "," ","1","&#10004","[906.1000000238419,2873.7999999523163]","2","0","0","","","","","","","",""
"pit-instructions","13","233103","0.0-2.0-5.0","battery-v0.2","","""event"",""trial"",""time""
""fullscreenenter"",""1"",""3555""
","
","
","""event"",""trial"",""time""
""fullscreenenter"",""1"",""3555""
","
","","[{""page_index"":0,""viewing_time"":6100.799999952316},{""page_index"":1,""viewing_time"":7756.200000047684},{""page_index"":2,""viewing_time"":19298.699999928474},{""page_index"":3,""viewing_time"":5892.900000095367}]","39049.699999928474","","","","","","","","","","","","","","","","","","","","","","","",""
"pit-trial","14","237974","0.0-2.0-6.0-0.0","battery-v0.2","","""event"",""trial"",""time""
""fullscreenenter"",""1"",""3555""
","
","
","""event"",""trial"",""time""
""fullscreenenter"",""1"",""3555""
","
","","","-1","","","25","11610","5422","&#9854;","elianto","#FFFFF080","-1","-1","1","&#10004","[]","0","0","1","","","","","","","",""
"pit-trial","15","242840","0.0-2.0-6.1-0.1","battery-v0.2","","""event"",""trial"",""time""
""fullscreenenter"",""1"",""3555""
","
","
","""event"",""trial"",""time""
""fullscreenenter"",""1"",""3555""
","
","","","-1","","","25","11610","5422","&#9854;","elianto","#FFFFF080","-1","-1","1","&#10004","[]","0","0","1","","","","","","","",""
"pit-trial","16","247730","0.0-2.0-6.2-0.2","battery-v0.2","","""event"",""trial"",""time""
""fullscreenenter"",""1"",""3555""
","
","
","""event"",""trial"",""time""
""fullscreenenter"",""1"",""3555""
","
","","","-1","","","25","11610","5422","&#9854;","elianto","#FFFFF080","-1","-1","1","&#10004","[]","0","0","1","","","","","","","",""
"pit-trial","17","252606","0.0-2.0-6.3-0.3","battery-v0.2","","""event"",""trial"",""time""
""fullscreenenter"",""1"",""3555""
","
","
","""event"",""trial"",""time""
""fullscreenenter"",""1"",""3555""
","
","","","-1","","","25","11610","5422","&#9854;","elianto","#FFFFF080","-1","-1","1","&#10004","[]","0","0","1","","","","","","","",""
"pit-trial","18","257475","0.0-2.0-6.4-0.4","battery-v0.2","","""event"",""trial"",""time""
""fullscreenenter"",""1"",""3555""
","
","
","""event"",""trial"",""time""
""fullscreenenter"",""1"",""3555""
","
","","","-1","","","25","11610","5422","&#9854;","elianto","#FFFFF080","-1","-1","1","&#10004","[]","0","0","1","","","","","","","",""
"pit-instructions","19","557625","0.0-2.0-7.0","battery-v0.2","","""event"",""trial"",""time""
""fullscreenenter"",""1"",""3555""
","
","
","""event"",""trial"",""time""
""fullscreenenter"",""1"",""3555""
","
","","[{""page_index"":0,""viewing_time"":18591.899999976158},{""page_index"":1,""viewing_time"":12605.799999952316},{""page_index"":2,""viewing_time"":7496.100000023842},{""page_index"":3,""viewing_time"":8325.800000071526},{""page_index"":4,""viewing_time"":8476.899999976158},{""page_index"":5,""viewing_time"":6800.600000023842},{""page_index"":6,""viewing_time"":9718.099999904633},{""page_index"":7,""viewing_time"":10268.600000023842},{""page_index"":8,""viewing_time"":22194.600000023842},{""page_index"":9,""viewing_time"":95499},{""page_index"":10,""viewing_time"":8027.600000023842},{""page_index"":11,""viewing_time"":9676.600000023842},{""page_index"":12,""viewing_time"":9197.699999928474},{""page_index"":13,""viewing_time"":12788.800000071526},{""page_index"":14,""viewing_time"":19984.099999904633},{""page_index"":15,""viewing_time"":15007.200000047684},{""page_index"":16,""viewing_time"":8149.700000047684},{""page_index"":17,""viewing_time"":17328.5}]","300138","","","","","","","","","","","","","","","","","","","","","","","",""
"pit-trial","20","562030","0.0-2.0-8.0-0.0","battery-v0.2","","""event"",""trial"",""time""
""fullscreenenter"",""1"",""3555""
","
","
","""event"",""trial"",""time""
""fullscreenenter"",""1"",""3555""
","
","","","1533.7999999523163","","","25","11610","5422","&#9776;","elianto","#3366ff99"," "," ","1","+10","[2385.4000000953674]","1","0","1","","","","","","","",""
"pit-trial","21","565780","0.0-2.0-8.0-1.0","battery-v0.2","","""event"",""trial"",""time""
""fullscreenenter"",""1"",""3555""
","
","
","""event"",""trial"",""time""
""fullscreenenter"",""1"",""3555""
","
","","","884.1999999284744","","","25","11610","5422","&#9776;","elianto","#3366ff99"," "," ","1","+10","[1739.5]","1","0","1","","","","","","","",""
"pit-trial","22","570030","0.0-2.0-8.0-2.0","battery-v0.2","","""event"",""trial"",""time""
""fullscreenenter"",""1"",""3555""
","
","
","""event"",""trial"",""time""
""fullscreenenter"",""1"",""3555""
","
","","","1387.6999999284744","","","25","11610","5422","&#9776;","elianto","#3366ff99"," "," ","1","+10","[2239.399999976158]","1","0","1","","","","","","","",""
"pit-trial","23","573550","0.0-2.0-8.0-3.0","battery-v0.2","","""event"",""trial"",""time""
""fullscreenenter"",""1"",""3555""
","
","
","""event"",""trial"",""time""
""fullscreenenter"",""1"",""3555""
","
","","","639.1000000238419","","","25","11610","5422","&#9776;","elianto","#3366ff99"," "," ","1","0","[1495]","1","0","1","","","","","","","",""
"pit-trial","24","578099","0.0-2.0-8.0-4.0","battery-v0.2","","""event"",""trial"",""time""
""fullscreenenter"",""1"",""3555""
","
","
","""event"",""trial"",""time""
""fullscreenenter"",""1"",""3555""
","
","","","1681.8999999761581","","","25","11610","5422","&#9776;","elianto","#3366ff99"," "," ","1","+10","[2538.6999999284744]","1","0","1","","","","","","","",""
"pit-trial","25","581992","0.0-2.0-8.1-0.1","battery-v0.2","","""event"",""trial"",""time""
""fullscreenenter"",""1"",""3555""
","
","
","""event"",""trial"",""time""
""fullscreenenter"",""1"",""3555""
","
","","","1014.7000000476837","","","25","11610","5422","&#9776;","elianto","#3366ff99"," "," ","1","+10","[1872]","1","0","1","","","","","","","",""
"pit-trial","26","585317","0.0-2.0-8.1-1.1","battery-v0.2","","""event"",""trial"",""time""
""fullscreenenter"",""1"",""3555""
","
","
","""event"",""trial"",""time""
""fullscreenenter"",""1"",""3555""
","
","","","465.09999990463257","","","25","11610","5422","&#9776;","elianto","#3366ff99"," "," ","1","+10","[1316.5999999046326]","1","0","1","","","","","","","",""
"pit-trial","27","588738","0.0-2.0-8.1-2.1","battery-v0.2","","""event"",""trial"",""time""
""fullscreenenter"",""1"",""3555""
","
","
","""event"",""trial"",""time""
""fullscreenenter"",""1"",""3555""
","
","","","556.2000000476837","","","25","11610","5422","&#9776;","elianto","#3366ff99"," "," ","1","+10","[1409.5]","1","0","1","","","","","","","",""
"pit-trial","28","592324","0.0-2.0-8.1-3.1","battery-v0.2","","""event"",""trial"",""time""
""fullscreenenter"",""1"",""3555""
","
","
","""event"",""trial"",""time""
""fullscreenenter"",""1"",""3555""
","
","","","728.2000000476837","","","25","11610","5422","&#9776;","elianto","#3366ff99"," "," ","1","0","[1579.3000000715256]","1","0","1","","","","","","","",""
"pit-trial","29","596689","0.0-2.0-8.1-4.1","battery-v0.2","","""event"",""trial"",""time""
""fullscreenenter"",""1"",""3555""
","
","
","""event"",""trial"",""time""
""fullscreenenter"",""1"",""3555""
","
","","","1504","","","25","11610","5422","&#9776;","elianto","#3366ff99"," "," ","1","+10","[2358.600000023842]","1","0","1","","","","","","","",""
"pit-trial","30","600134","0.0-2.0-8.2-0.2","battery-v0.2","","""event"",""trial"",""time""
""fullscreenenter"",""1"",""3555""
","
","
","""event"",""trial"",""time""
""fullscreenenter"",""1"",""3555""
","
","","","583","","","25","11610","5422","&#9776;","elianto","#3366ff99"," "," ","1","+10","[1433.6000000238419]","1","0","1","","","","","","","",""
"pit-trial","31","604052","0.0-2.0-8.2-1.2","battery-v0.2","","""event"",""trial"",""time""
""fullscreenenter"",""1"",""3555""
","
","
","""event"",""trial"",""time""
""fullscreenenter"",""1"",""3555""
","
","","","1058.2999999523163","","","25","11610","5422","&#9776;","elianto","#3366ff99"," "," ","1","+10","[1908.6000000238419]","1","0","1","","","","","","","",""
"pit-trial","32","608119","0.0-2.0-8.2-2.2","battery-v0.2","","""event"",""trial"",""time""
""fullscreenenter"",""1"",""3555""
","
","
","""event"",""trial"",""time""
""fullscreenenter"",""1"",""3555""
","
","","","1203.2000000476837","","","25","11610","5422","&#9776;","elianto","#3366ff99"," "," ","1","+10","[2055.3000000715256]","1","0","1","","","","","","","",""
"pit-trial","33","611849","0.0-2.0-8.2-3.2","battery-v0.2","","""event"",""trial"",""time""
""fullscreenenter"",""1"",""3555""
","
","
","""event"",""trial"",""time""
""fullscreenenter"",""1"",""3555""
","
","","","872.1000000238419","","","25","11610","5422","&#9776;","elianto","#3366ff99"," "," ","1","0","[1723.1000000238419]","1","0","1","","","","","","","",""
"pit-trial","34","615153","0.0-2.0-8.2-4.2","battery-v0.2","","""event"",""trial"",""time""
""fullscreenenter"",""1"",""3555""
","
","
","""event"",""trial"",""time""
""fullscreenenter"",""1"",""3555""
","
","","","436.60000002384186","","","25","11610","5422","&#9776;","elianto","#3366ff99"," "," ","1","+10","[1296]","1","0","1","","","","","","","",""
"call-function","35","615157","0.0-2.0-9.0","battery-v0.2","","""event"",""trial"",""time""
""fullscreenenter"",""1"",""3555""
","
","
","""event"",""trial"",""time""
""fullscreenenter"",""1"",""3555""
","
","","","","","","","","","","","","","","","","","","","","","","","","","","",""
"pit-instructions","36","668911","0.0-2.0-10.0","battery-v0.2","","""event"",""trial"",""time""
""fullscreenenter"",""1"",""3555""
","
","
","""event"",""trial"",""time""
""fullscreenenter"",""1"",""3555""
","
","","[{""page_index"":0,""viewing_time"":6161.599999904633},{""page_index"":1,""viewing_time"":12445.300000071526},{""page_index"":2,""viewing_time"":14825.399999976158},{""page_index"":3,""viewing_time"":11274.600000023842},{""page_index"":4,""viewing_time"":9044.799999952316}]","53752.199999928474","","","","","","","","","","","","","","","","","","","","","","","",""
"pit-trial","37","672954","0.0-2.0-11.0-0.0","battery-v0.2","","""event"",""trial"",""time""
""fullscreenenter"",""1"",""3555""
","
","
","""event"",""trial"",""time""
""fullscreenenter"",""1"",""3555""
","
","","","1174.1999999284744","","","25","11610","5422","&#9761;","elianto","#3366ff99","-1"," ","0","0","[2025.8999999761581]","1","0","2","","","","","","","",""
"pit-trial","38","676400","0.0-2.0-11.0-1.0","battery-v0.2","","""event"",""trial"",""time""
""fullscreenenter"",""1"",""3555""
","
","
","""event"",""trial"",""time""
""fullscreenenter"",""1"",""3555""
","
","","","583","","","25","11610","5422","&#9761;","elianto","#3366ff99","-1"," ","0","0","[1435.8000000715256]","1","0","2","","","","","","","",""
"pit-trial","39","679924","0.0-2.0-11.0-2.0","battery-v0.2","","""event"",""trial"",""time""
""fullscreenenter"",""1"",""3555""
","
","
","""event"",""trial"",""time""
""fullscreenenter"",""1"",""3555""
","
","","","655.1000000238419","","","25","11610","5422","&#9761;","elianto","#3366ff99","-1"," ","0","0","[1507]","1","0","2","","","","","","","",""
"pit-trial","40","683621","0.0-2.0-11.0-3.0","battery-v0.2","","""event"",""trial"",""time""
""fullscreenenter"",""1"",""3555""
","
","
","""event"",""trial"",""time""
""fullscreenenter"",""1"",""3555""
","
","","","831.7999999523163","","","25","11610","5422","&#9761;","elianto","#3366ff99","-1"," ","0","+10","[1688.1000000238419]","1","0","2","","","","","","","",""
"pit-trial","41","687135","0.0-2.0-11.0-4.0","battery-v0.2","","""event"",""trial"",""time""
""fullscreenenter"",""1"",""3555""
","
","
","""event"",""trial"",""time""
""fullscreenenter"",""1"",""3555""
","
","","","650.7000000476837","","","25","11610","5422","&#9761;","elianto","#3366ff99","-1"," ","0","0","[1502.5]","1","0","2","","","","","","","",""
"pit-trial","42","692014","0.0-2.0-11.1-0.1","battery-v0.2","","""event"",""trial"",""time""
""fullscreenenter"",""1"",""3555""
","
","
","""event"",""trial"",""time""
""fullscreenenter"",""1"",""3555""
","
","","","-1","","","25","11610","5422","&#9761;","elianto","#3366ff99","-1","-1","1","+10","[]","0","0","2","","","","","","","",""
"pit-trial","43","696894","0.0-2.0-11.1-1.1","battery-v0.2","","""event"",""trial"",""time""
""fullscreenenter"",""1"",""3555""
","
","
","""event"",""trial"",""time""
""fullscreenenter"",""1"",""3555""
","
","","","-1","","","25","11610","5422","&#9761;","elianto","#3366ff99","-1","-1","1","+10","[]","0","0","2","","","","","","","",""
"pit-trial","44","701764","0.0-2.0-11.1-2.1","battery-v0.2","","""event"",""trial"",""time""
""fullscreenenter"",""1"",""3555""
","
","
","""event"",""trial"",""time""
""fullscreenenter"",""1"",""3555""
","
","","","-1","","","25","11610","5422","&#9761;","elianto","#3366ff99","-1","-1","1","+10","[]","0","0","2","","","","","","","",""
"pit-trial","45","706625","0.0-2.0-11.1-3.1","battery-v0.2","","""event"",""trial"",""time""
""fullscreenenter"",""1"",""3555""
","
","
","""event"",""trial"",""time""
""fullscreenenter"",""1"",""3555""
","
","","","-1","","","25","11610","5422","&#9761;","elianto","#3366ff99","-1","-1","1","0","[]","0","0","2","","","","","","","",""
"pit-trial","46","711485","0.0-2.0-11.1-4.1","battery-v0.2","","""event"",""trial"",""time""
""fullscreenenter"",""1"",""3555""
","
","
","""event"",""trial"",""time""
""fullscreenenter"",""1"",""3555""
","
","","","-1","","","25","11610","5422","&#9761;","elianto","#3366ff99","-1","-1","1","+10","[]","0","0","2","","","","","","","",""
"pit-trial","47","716348","0.0-2.0-11.2-0.2","battery-v0.2","","""event"",""trial"",""time""
""fullscreenenter"",""1"",""3555""
","
","
","""event"",""trial"",""time""
""fullscreenenter"",""1"",""3555""
","
","","","-1","","","25","11610","5422","&#9761;","elianto","#3366ff99","-1","-1","1","+10","[]","0","0","2","","","","","","","",""
"pit-trial","48","721212","0.0-2.0-11.2-1.2","battery-v0.2","","""event"",""trial"",""time""
""fullscreenenter"",""1"",""3555""
","
","
","""event"",""trial"",""time""
""fullscreenenter"",""1"",""3555""
","
","","","-1","","","25","11610","5422","&#9761;","elianto","#3366ff99","-1","-1","1","+10","[]","0","0","2","","","","","","","",""
"pit-trial","49","726069","0.0-2.0-11.2-2.2","battery-v0.2","","""event"",""trial"",""time""
""fullscreenenter"",""1"",""3555""
","
","
","""event"",""trial"",""time""
""fullscreenenter"",""1"",""3555""
","
","","","-1","","","25","11610","5422","&#9761;","elianto","#3366ff99","-1","-1","1","+10","[]","0","0","2","","","","","","","",""
"pit-trial","50","731003","0.0-2.0-11.2-3.2","battery-v0.2","","""event"",""trial"",""time""
""fullscreenenter"",""1"",""3555""
","
","
","""event"",""trial"",""time""
""fullscreenenter"",""1"",""3555""
","
","","","-1","","","25","11610","5422","&#9761;","elianto","#3366ff99","-1","-1","1","0","[]","0","0","2","","","","","","","",""
"pit-trial","51","735985","0.0-2.0-11.2-4.2","battery-v0.2","","""event"",""trial"",""time""
""fullscreenenter"",""1"",""3555""
","
","
","""event"",""trial"",""time""
""fullscreenenter"",""1"",""3555""
","
","","","-1","","","25","11610","5422","&#9761;","elianto","#3366ff99","-1","-1","1","+10","[]","0","0","2","","","","","","","",""
"pit-trial","52","740916","0.0-2.0-11.3-0.3","battery-v0.2","","""event"",""trial"",""time""
""fullscreenenter"",""1"",""3555""
","
","
","""event"",""trial"",""time""
""fullscreenenter"",""1"",""3555""
","
","","","-1","","","25","11610","5422","&#9761;","elianto","#3366ff99","-1","-1","1","+10","[]","0","0","2","","","","","","","",""
"pit-trial","53","745777","0.0-2.0-11.3-1.3","battery-v0.2","","""event"",""trial"",""time""
""fullscreenenter"",""1"",""3555""
","
","
","""event"",""trial"",""time""
""fullscreenenter"",""1"",""3555""
","
","","","-1","","","25","11610","5422","&#9761;","elianto","#3366ff99","-1","-1","1","+10","[]","0","0","2","","","","","","","",""
"pit-trial","54","750652","0.0-2.0-11.3-2.3","battery-v0.2","","""event"",""trial"",""time""
""fullscreenenter"",""1"",""3555""
","
","
","""event"",""trial"",""time""
""fullscreenenter"",""1"",""3555""
","
","","","-1","","","25","11610","5422","&#9761;","elianto","#3366ff99","-1","-1","1","+10","[]","0","0","2","","","","","","","",""
"pit-trial","55","755516","0.0-2.0-11.3-3.3","battery-v0.2","","""event"",""trial"",""time""
""fullscreenenter"",""1"",""3555""
","
","
","""event"",""trial"",""time""
""fullscreenenter"",""1"",""3555""
","
","","","-1","","","25","11610","5422","&#9761;","elianto","#3366ff99","-1","-1","1","0","[]","0","0","2","","","","","","","",""
"pit-trial","56","760391","0.0-2.0-11.3-4.3","battery-v0.2","","""event"",""trial"",""time""
""fullscreenenter"",""1"",""3555""
","
","
","""event"",""trial"",""time""
""fullscreenenter"",""1"",""3555""
","
","","","-1","","","25","11610","5422","&#9761;","elianto","#3366ff99","-1","-1","1","+10","[]","0","0","2","","","","","","","",""
"call-function","57","760393","0.0-2.0-12.0","battery-v0.2","","""event"",""trial"",""time""
""fullscreenenter"",""1"",""3555""
","
","
","""event"",""trial"",""time""
""fullscreenenter"",""1"",""3555""
","
","","","","","","","","","","","","","","","","","","","","","","","","","","",""
"pit-instructions","58","809495","0.0-2.0-13.0","battery-v0.2","","""event"",""trial"",""time""
""fullscreenenter"",""1"",""3555""
","
","
","""event"",""trial"",""time""
""fullscreenenter"",""1"",""3555""
","
","","[{""page_index"":0,""viewing_time"":6071.100000023842},{""page_index"":1,""viewing_time"":8028.899999976158},{""page_index"":2,""viewing_time"":11852.700000047684},{""page_index"":3,""viewing_time"":11277.699999928474},{""page_index"":4,""viewing_time"":11860.5}]","49091.39999997616","","","","","","","","","","","","","","","","","","","","","","","",""
"pit-trial","59","813285","0.0-2.0-14.0-0.0","battery-v0.2","","""event"",""trial"",""time""
""fullscreenenter"",""1"",""3555""
","
","
","""event"",""trial"",""time""
""fullscreenenter"",""1"",""3555""
","
","","","932.7999999523163","","","25","11610","5422","&#9826;","elianto","#f73b6a7A","-1"," ","0","-10","[1783.3000000715256]","1","0","3","","","","","","","",""
"pit-trial","60","816675","0.0-2.0-14.0-1.0","battery-v0.2","","""event"",""trial"",""time""
""fullscreenenter"",""1"",""3555""
","
","
","""event"",""trial"",""time""
""fullscreenenter"",""1"",""3555""
","
","","","520.1999999284744","","","25","11610","5422","&#9826;","elianto","#f73b6a7A","-1"," ","0","-10","[1374.6999999284744]","1","0","3","","","","","","","",""
"pit-trial","61","821555","0.0-2.0-14.0-2.0","battery-v0.2","","""event"",""trial"",""time""
""fullscreenenter"",""1"",""3555""
","
","
","""event"",""trial"",""time""
""fullscreenenter"",""1"",""3555""
","
","","","-1","","","25","11610","5422","&#9826;","elianto","#f73b6a7A","-1","-1","1","0","[]","0","0","3","","","","","","","",""
"pit-trial","62","826444","0.0-2.0-14.0-3.0","battery-v0.2","","""event"",""trial"",""time""
""fullscreenenter"",""1"",""3555""
","
","
","""event"",""trial"",""time""
""fullscreenenter"",""1"",""3555""
","
","","","-1","","","25","11610","5422","&#9826;","elianto","#f73b6a7A","-1","-1","1","-10","[]","0","0","3","","","","","","","",""
"pit-trial","63","831320","0.0-2.0-14.0-4.0","battery-v0.2","","""event"",""trial"",""time""
""fullscreenenter"",""1"",""3555""
","
","
","""event"",""trial"",""time""
""fullscreenenter"",""1"",""3555""
","
","","","-1","","","25","11610","5422","&#9826;","elianto","#f73b6a7A","-1","-1","1","0","[]","0","0","3","","","","","","","",""
"pit-trial","64","836186","0.0-2.0-14.1-0.1","battery-v0.2","","""event"",""trial"",""time""
""fullscreenenter"",""1"",""3555""
","
","
","""event"",""trial"",""time""
""fullscreenenter"",""1"",""3555""
","
","","","-1","","","25","11610","5422","&#9826;","elianto","#f73b6a7A","-1","-1","1","0","[]","0","0","3","","","","","","","",""
"pit-trial","65","841062","0.0-2.0-14.1-1.1","battery-v0.2","","""event"",""trial"",""time""
""fullscreenenter"",""1"",""3555""
","
","
","""event"",""trial"",""time""
""fullscreenenter"",""1"",""3555""
","
","","","-1","","","25","11610","5422","&#9826;","elianto","#f73b6a7A","-1","-1","1","0","[]","0","0","3","","","","","","","",""
"pit-trial","66","845925","0.0-2.0-14.1-2.1","battery-v0.2","","""event"",""trial"",""time""
""fullscreenenter"",""1"",""3555""
","
","
","""event"",""trial"",""time""
""fullscreenenter"",""1"",""3555""
","
","","","-1","","","25","11610","5422","&#9826;","elianto","#f73b6a7A","-1","-1","1","0","[]","0","0","3","","","","","","","",""
"pit-trial","67","850787","0.0-2.0-14.1-3.1","battery-v0.2","","""event"",""trial"",""time""
""fullscreenenter"",""1"",""3555""
","
","
","""event"",""trial"",""time""
""fullscreenenter"",""1"",""3555""
","
","","","-1","","","25","11610","5422","&#9826;","elianto","#f73b6a7A","-1","-1","1","-10","[]","0","0","3","","","","","","","",""
"pit-trial","68","855650","0.0-2.0-14.1-4.1","battery-v0.2","","""event"",""trial"",""time""
""fullscreenenter"",""1"",""3555""
","
","
","""event"",""trial"",""time""
""fullscreenenter"",""1"",""3555""
","
","","","-1","","","25","11610","5422","&#9826;","elianto","#f73b6a7A","-1","-1","1","0","[]","0","0","3","","","","","","","",""
"pit-trial","69","860515","0.0-2.0-14.2-0.2","battery-v0.2","","""event"",""trial"",""time""
""fullscreenenter"",""1"",""3555""
","
","
","""event"",""trial"",""time""
""fullscreenenter"",""1"",""3555""
","
","","","-1","","","25","11610","5422","&#9826;","elianto","#f73b6a7A","-1","-1","1","0","[]","0","0","3","","","","","","","",""
"pit-trial","70","865381","0.0-2.0-14.2-1.2","battery-v0.2","","""event"",""trial"",""time""
""fullscreenenter"",""1"",""3555""
","
","
","""event"",""trial"",""time""
""fullscreenenter"",""1"",""3555""
","
","","","-1","","","25","11610","5422","&#9826;","elianto","#f73b6a7A","-1","-1","1","0","[]","0","0","3","","","","","","","",""
"pit-trial","71","870242","0.0-2.0-14.2-2.2","battery-v0.2","","""event"",""trial"",""time""
""fullscreenenter"",""1"",""3555""
","
","
","""event"",""trial"",""time""
""fullscreenenter"",""1"",""3555""
","
","","","-1","","","25","11610","5422","&#9826;","elianto","#f73b6a7A","-1","-1","1","0","[]","0","0","3","","","","","","","",""
"pit-trial","72","875104","0.0-2.0-14.2-3.2","battery-v0.2","","""event"",""trial"",""time""
""fullscreenenter"",""1"",""3555""
","
","
","""event"",""trial"",""time""
""fullscreenenter"",""1"",""3555""
","
","","","-1","","","25","11610","5422","&#9826;","elianto","#f73b6a7A","-1","-1","1","-10","[]","0","0","3","","","","","","","",""
"pit-trial","73","879973","0.0-2.0-14.2-4.2","battery-v0.2","","""event"",""trial"",""time""
""fullscreenenter"",""1"",""3555""
","
","
","""event"",""trial"",""time""
""fullscreenenter"",""1"",""3555""
","
","","","-1","","","25","11610","5422","&#9826;","elianto","#f73b6a7A","-1","-1","1","0","[]","0","0","3","","","","","","","",""
"pit-trial","74","884845","0.0-2.0-14.3-0.3","battery-v0.2","","""event"",""trial"",""time""
""fullscreenenter"",""1"",""3555""
","
","
","""event"",""trial"",""time""
""fullscreenenter"",""1"",""3555""
","
","","","-1","","","25","11610","5422","&#9826;","elianto","#f73b6a7A","-1","-1","1","0","[]","0","0","3","","","","","","","",""
"pit-trial","75","889704","0.0-2.0-14.3-1.3","battery-v0.2","","""event"",""trial"",""time""
""fullscreenenter"",""1"",""3555""
","
","
","""event"",""trial"",""time""
""fullscreenenter"",""1"",""3555""
","
","","","-1","","","25","11610","5422","&#9826;","elianto","#f73b6a7A","-1","-1","1","0","[]","0","0","3","","","","","","","",""
"pit-trial","76","894568","0.0-2.0-14.3-2.3","battery-v0.2","","""event"",""trial"",""time""
""fullscreenenter"",""1"",""3555""
","
","
","""event"",""trial"",""time""
""fullscreenenter"",""1"",""3555""
","
","","","-1","","","25","11610","5422","&#9826;","elianto","#f73b6a7A","-1","-1","1","0","[]","0","0","3","","","","","","","",""
"pit-trial","77","899444","0.0-2.0-14.3-3.3","battery-v0.2","","""event"",""trial"",""time""
""fullscreenenter"",""1"",""3555""
","
","
","""event"",""trial"",""time""
""fullscreenenter"",""1"",""3555""
","
","","","-1","","","25","11610","5422","&#9826;","elianto","#f73b6a7A","-1","-1","1","-10","[]","0","0","3","","","","","","","",""
"pit-trial","78","904313","0.0-2.0-14.3-4.3","battery-v0.2","","""event"",""trial"",""time""
""fullscreenenter"",""1"",""3555""
","
","
","""event"",""trial"",""time""
""fullscreenenter"",""1"",""3555""
","
","","","-1","","","25","11610","5422","&#9826;","elianto","#f73b6a7A","-1","-1","1","0","[]","0","0","3","","","","","","","",""
"call-function","79","904317","0.0-2.0-15.0","battery-v0.2","","""event"",""trial"",""time""
""fullscreenenter"",""1"",""3555""
","
","
","""event"",""trial"",""time""
""fullscreenenter"",""1"",""3555""
","
","","","","","","","","","","","","","","","","","","","","","","","","","","",""
"pit-instructions","80","934717","0.0-2.0-16.0","battery-v0.2","","""event"",""trial"",""time""
""fullscreenenter"",""1"",""3555""
","
","
","""event"",""trial"",""time""
""fullscreenenter"",""1"",""3555""
","
","","[{""page_index"":0,""viewing_time"":7177.200000047684},{""page_index"":1,""viewing_time"":8912.099999904633},{""page_index"":2,""viewing_time"":9906.400000095367},{""page_index"":3,""viewing_time"":4402.399999976158}]","30398.899999976158","","","","","","","","","","","","","","","","","","","","","","","",""
"pit-trial","81","939064","0.0-2.0-17.0-0.0","battery-v0.2","","""event"",""trial"",""time""
""fullscreenenter"",""1"",""3555""
","
","
","""event"",""trial"",""time""
""fullscreenenter"",""1"",""3555""
","
","","","1486.5","","","25","11610","5422","&#9789;","elianto","#f73b6a7A"," "," ","1","0","[2337]","1","0","4","","","","","","","",""
"pit-trial","82","942245","0.0-2.0-17.0-1.0","battery-v0.2","","""event"",""trial"",""time""
""fullscreenenter"",""1"",""3555""
","
","
","""event"",""trial"",""time""
""fullscreenenter"",""1"",""3555""
","
","","","313","","","25","11610","5422","&#9789;","elianto","#f73b6a7A"," "," ","1","0","[1169.6000000238419]","1","0","4","","","","","","","",""
"pit-trial","83","945554","0.0-2.0-17.0-2.0","battery-v0.2","","""event"",""trial"",""time""
""fullscreenenter"",""1"",""3555""
","
","
","""event"",""trial"",""time""
""fullscreenenter"",""1"",""3555""
","
","","","440","","","25","11610","5422","&#9789;","elianto","#f73b6a7A"," "," ","1","0","[1291.5]","1","0","4","","","","","","","",""
"pit-trial","84","948816","0.0-2.0-17.0-3.0","battery-v0.2","","""event"",""trial"",""time""
""fullscreenenter"",""1"",""3555""
","
","
","""event"",""trial"",""time""
""fullscreenenter"",""1"",""3555""
","
","","","400.39999997615814","","","25","11610","5422","&#9789;","elianto","#f73b6a7A"," "," ","1","-10","[1258.3999999761581]","1","0","4","","","","","","","",""
"pit-trial","85","952135","0.0-2.0-17.0-4.0","battery-v0.2","","""event"",""trial"",""time""
""fullscreenenter"",""1"",""3555""
","
","
","""event"",""trial"",""time""
""fullscreenenter"",""1"",""3555""
","
","","","456.7000000476837","","","25","11610","5422","&#9789;","elianto","#f73b6a7A"," "," ","1","0","[1312.1999999284744]","1","0","4","","","","","","","",""
"pit-trial","86","955925","0.0-2.0-17.1-0.1","battery-v0.2","","""event"",""trial"",""time""
""fullscreenenter"",""1"",""3555""
","
","
","""event"",""trial"",""time""
""fullscreenenter"",""1"",""3555""
","
","","","910.7000000476837","","","25","11610","5422","&#9789;","elianto","#f73b6a7A"," "," ","1","0","[1770.4000000953674]","1","0","4","","","","","","","",""
"pit-trial","87","959234","0.0-2.0-17.1-1.1","battery-v0.2","","""event"",""trial"",""time""
""fullscreenenter"",""1"",""3555""
","
","
","""event"",""trial"",""time""
""fullscreenenter"",""1"",""3555""
","
","","","441.39999997615814","","","25","11610","5422","&#9789;","elianto","#f73b6a7A"," "," ","1","0","[1293]","1","0","4","","","","","","","",""
"pit-trial","88","962514","0.0-2.0-17.1-2.1","battery-v0.2","","""event"",""trial"",""time""
""fullscreenenter"",""1"",""3555""
","
","
","""event"",""trial"",""time""
""fullscreenenter"",""1"",""3555""
","
","","","423.2000000476837","","","25","11610","5422","&#9789;","elianto","#f73b6a7A"," "," ","1","0","[1275.7000000476837]","1","0","4","","","","","","","",""
"pit-trial","89","965894","0.0-2.0-17.1-3.1","battery-v0.2","","""event"",""trial"",""time""
""fullscreenenter"",""1"",""3555""
","
","
","""event"",""trial"",""time""
""fullscreenenter"",""1"",""3555""
","
","","","514.3000000715256","","","25","11610","5422","&#9789;","elianto","#f73b6a7A"," "," ","1","-10","[1367.2000000476837]","1","0","4","","","","","","","",""
"pit-trial","90","969236","0.0-2.0-17.1-4.1","battery-v0.2","","""event"",""trial"",""time""
""fullscreenenter"",""1"",""3555""
","
","
","""event"",""trial"",""time""
""fullscreenenter"",""1"",""3555""
","
","","","477.1999999284744","","","25","11610","5422","&#9789;","elianto","#f73b6a7A"," "," ","1","0","[1334.5]","1","0","4","","","","","","","",""
"pit-trial","91","972665","0.0-2.0-17.2-0.2","battery-v0.2","","""event"",""trial"",""time""
""fullscreenenter"",""1"",""3555""
","
","
","""event"",""trial"",""time""
""fullscreenenter"",""1"",""3555""
","
","","","566.7000000476837","","","25","11610","5422","&#9789;","elianto","#f73b6a7A"," "," ","1","0","[1418.2999999523163]","1","0","4","","","","","","","",""
"pit-trial","92","975927","0.0-2.0-17.2-1.2","battery-v0.2","","""event"",""trial"",""time""
""fullscreenenter"",""1"",""3555""
","
","
","""event"",""trial"",""time""
""fullscreenenter"",""1"",""3555""
","
","","","406.39999997615814","","","25","11610","5422","&#9789;","elianto","#f73b6a7A"," "," ","1","0","[1256.8999999761581]","1","0","4","","","","","","","",""
"pit-trial","93","979174","0.0-2.0-17.2-2.2","battery-v0.2","","""event"",""trial"",""time""
""fullscreenenter"",""1"",""3555""
","
","
","""event"",""trial"",""time""
""fullscreenenter"",""1"",""3555""
","
","","","390.59999990463257","","","25","11610","5422","&#9789;","elianto","#f73b6a7A"," "," ","1","0","[1242]","1","0","4","","","","","","","",""
"pit-trial","94","982510","0.0-2.0-17.2-3.2","battery-v0.2","","""event"",""trial"",""time""
""fullscreenenter"",""1"",""3555""
","
","
","""event"",""trial"",""time""
""fullscreenenter"",""1"",""3555""
","
","","","472","","","25","11610","5422","&#9789;","elianto","#f73b6a7A"," "," ","1","-10","[1324.3999999761581]","1","0","4","","","","","","","",""
"pit-trial","95","986361","0.0-2.0-17.2-4.2","battery-v0.2","","""event"",""trial"",""time""
""fullscreenenter"",""1"",""3555""
","
","
","""event"",""trial"",""time""
""fullscreenenter"",""1"",""3555""
","
","","","991.5","","","25","11610","5422","&#9789;","elianto","#f73b6a7A"," "," ","1","0","[1844.5]","1","0","4","","","","","","","",""
"pit-trial","96","991191","0.0-2.0-17.3-0.3","battery-v0.2","","""event"",""trial"",""time""
""fullscreenenter"",""1"",""3555""
","
","
","""event"",""trial"",""time""
""fullscreenenter"",""1"",""3555""
","
","","","1960.1999999284744","","","25","11610","5422","&#9789;","elianto","#f73b6a7A"," "," ","1","0","[2816.899999976158]","1","0","4","","","","","","","",""
"pit-trial","97","996054","0.0-2.0-17.3-1.3","battery-v0.2","","""event"",""trial"",""time""
""fullscreenenter"",""1"",""3555""
","
","
","""event"",""trial"",""time""
""fullscreenenter"",""1"",""3555""
","
","","","2002","","","25","11610","5422","&#9789;","elianto","#f73b6a7A"," "," ","1","0","[2854.100000023842]","1","0","4","","","","","","","",""
"pit-trial","98","999343","0.0-2.0-17.3-2.3","battery-v0.2","","""event"",""trial"",""time""
""fullscreenenter"",""1"",""3555""
","
","
","""event"",""trial"",""time""
""fullscreenenter"",""1"",""3555""
","
","","","428.8000000715256","","","25","11610","5422","&#9789;","elianto","#f73b6a7A"," "," ","1","0","[1280.8000000715256]","1","0","4","","","","","","","",""
"pit-trial","99","1002538","0.0-2.0-17.3-3.3","battery-v0.2","","""event"",""trial"",""time""
""fullscreenenter"",""1"",""3555""
","
","
","""event"",""trial"",""time""
""fullscreenenter"",""1"",""3555""
","
","","","339.7999999523163","","","25","11610","5422","&#9789;","elianto","#f73b6a7A"," "," ","1","-10","[1190]","1","0","4","","","","","","","",""
"pit-trial","100","1005685","0.0-2.0-17.3-4.3","battery-v0.2","","""event"",""trial"",""time""
""fullscreenenter"",""1"",""3555""
","
","
","""event"",""trial"",""time""
""fullscreenenter"",""1"",""3555""
","
","","","288.2999999523163","","","25","11610","5422","&#9789;","elianto","#f73b6a7A"," "," ","1","0","[1141]","1","0","4","","","","","","","",""
"call-function","101","1005689","0.0-2.0-18.0","battery-v0.2","","""event"",""trial"",""time""
""fullscreenenter"",""1"",""3555""
","
","
","""event"",""trial"",""time""
""fullscreenenter"",""1"",""3555""
","
","","","","","","","","","","","","","","","","","","","","","","","","","","",""
"pit-instructions","102","1099428","0.0-2.0-19.0","battery-v0.2","","""event"",""trial"",""time""
""fullscreenenter"",""1"",""3555""
","
","
","""event"",""trial"",""time""
""fullscreenenter"",""1"",""3555""
","
","","[{""page_index"":0,""viewing_time"":8673.100000023842},{""page_index"":1,""viewing_time"":6513},{""page_index"":2,""viewing_time"":14149.399999976158},{""page_index"":3,""viewing_time"":9533.399999976158},{""page_index"":4,""viewing_time"":9994.900000095367},{""page_index"":5,""viewing_time"":10838.5},{""page_index"":6,""viewing_time"":10472.899999976158},{""page_index"":7,""viewing_time"":8092.199999928474},{""page_index"":8,""viewing_time"":15469.5}]","93737.20000004768","","","","","","","","","","","","","","","","","","","","","","","",""
"pit-comprehension","103","1106003","0.0-2.0-20.0-0.0","battery-v0.2","","""event"",""trial"",""time""
""fullscreenenter"",""1"",""3555""
","
","
","""event"",""trial"",""time""
""fullscreenenter"",""1"",""3555""
","
","","","6571.399999976158","[""SPACE""]","0","25","11610","5422","","","","","","","","","","","","","","","","","","",""
"pit-instructions","104","1111579","0.0-2.0-20.0-1.0","battery-v0.2","","""event"",""trial"",""time""
""fullscreenenter"",""1"",""3555""
","
","
","""event"",""trial"",""time""
""fullscreenenter"",""1"",""3555""
","
","","[{""page_index"":0,""viewing_time"":5518.600000023842}]","5518.899999976158","","","","","","","","","","","","","","","","","","","","","","","",""
"pit-comprehension","105","1116922","0.0-2.0-21.0-0.0","battery-v0.2","","""event"",""trial"",""time""
""fullscreenenter"",""1"",""3555""
","
","
","""event"",""trial"",""time""
""fullscreenenter"",""1"",""3555""
","
","","","5339.399999976158","[""10""]","0","25","11610","5422","","","","","","","","","","","","","","","","","","",""
"pit-instructions","106","1123730","0.0-2.0-21.0-1.0","battery-v0.2","","""event"",""trial"",""time""
""fullscreenenter"",""1"",""3555""
","
","
","""event"",""trial"",""time""
""fullscreenenter"",""1"",""3555""
","
","","[{""page_index"":0,""viewing_time"":6759.899999976158}]","6760.200000047684","","","","","","","","","","","","","","","","","","","","","","","",""
"pit-comprehension","107","1130293","0.0-2.0-22.0-0.0","battery-v0.2","","""event"",""trial"",""time""
""fullscreenenter"",""1"",""3555""
","
","
","""event"",""trial"",""time""
""fullscreenenter"",""1"",""3555""
","
","","","6560.5","[""0""]","0","25","11610","5422","","","","","","","","","","","","","","","","","","",""
"pit-instructions","108","1138905","0.0-2.0-22.0-1.0","battery-v0.2","","""event"",""trial"",""time""
""fullscreenenter"",""1"",""3555""
","
","
","""event"",""trial"",""time""
""fullscreenenter"",""1"",""3555""
","
","","[{""page_index"":0,""viewing_time"":8563.600000023842}]","8564","","","","","","","","","","","","","","","","","","","","","","","",""
"pit-comprehension","109","1166190","0.0-2.0-23.0-0.0","battery-v0.2","","""event"",""trial"",""time""
""fullscreenenter"",""1"",""3555""
","
","
","""event"",""trial"",""time""
""fullscreenenter"",""1"",""3555""
","
","","","27279.700000047684","[""True""]","0","25","11610","5422","","","","","","","","","","","","","","","","","","",""
"pit-instructions","110","1168366","0.0-2.0-23.0-1.0","battery-v0.2","","""event"",""trial"",""time""
""fullscreenenter"",""1"",""3555""
","
","
","""event"",""trial"",""time""
""fullscreenenter"",""1"",""3555""
","
","","[{""page_index"":0,""viewing_time"":2119}]","2119.3000000715256","","","","","","","","","","","","","","","","","","","","","","","",""
"pit-comprehension","111","1176988","0.0-2.0-24.0-0.0","battery-v0.2","","""event"",""trial"",""time""
""fullscreenenter"",""1"",""3555""
","
","
","""event"",""trial"",""time""
""fullscreenenter"",""1"",""3555""
","
","","","8616.699999928474","[""True""]","0","25","11610","5422","","","","","","","","","","","","","","","","","","",""
"pit-instructions","112","1179562","0.0-2.0-24.0-1.0","battery-v0.2","","""event"",""trial"",""time""
""fullscreenenter"",""1"",""3555""
","
","
","""event"",""trial"",""time""
""fullscreenenter"",""1"",""3555""
","
","","[{""page_index"":0,""viewing_time"":2522.7999999523163}]","2523.399999976158","","","","","","","","","","","","","","","","","","","","","","","",""
"pit-comprehension","113","1186186","0.0-2.0-25.0-0.0","battery-v0.2","","""event"",""trial"",""time""
""fullscreenenter"",""1"",""3555""
","
","
","""event"",""trial"",""time""
""fullscreenenter"",""1"",""3555""
","
","","","6618.100000023842","[""True""]","0","25","11610","5422","","","","","","","","","","","","","","","","","","",""
"pit-instructions","114","1188669","0.0-2.0-25.0-1.0","battery-v0.2","","""event"",""trial"",""time""
""fullscreenenter"",""1"",""3555""
","
","
","""event"",""trial"",""time""
""fullscreenenter"",""1"",""3555""
","
","","[{""page_index"":0,""viewing_time"":2433.600000023842}]","2434","","","","","","","","","","","","","","","","","","","","","","","",""
"pit-comprehension","115","1197198","0.0-2.0-26.0-0.0","battery-v0.2","","""event"",""trial"",""time""
""fullscreenenter"",""1"",""3555""
","
","
","""event"",""trial"",""time""
""fullscreenenter"",""1"",""3555""
","
","","","8522","[""False""]","0","25","11610","5422","","","","","","","","","","","","","","","","","","",""
"pit-instructions","116","1199627","0.0-2.0-26.0-1.0","battery-v0.2","","""event"",""trial"",""time""
""fullscreenenter"",""1"",""3555""
","
","
","""event"",""trial"",""time""
""fullscreenenter"",""1"",""3555""
","
","","[{""page_index"":0,""viewing_time"":2370.3000000715256}]","2370.9000000953674","","","","","","","","","","","","","","","","","","","","","","","",""
"pit-instructions","117","1225120","0.0-3.0","battery-v0.2","","""event"",""trial"",""time""
""fullscreenenter"",""1"",""3555""
","
","
","""event"",""trial"",""time""
""fullscreenenter"",""1"",""3555""
","
","","[{""page_index"":0,""viewing_time"":11231.100000023842},{""page_index"":1,""viewing_time"":5728.700000047684},{""page_index"":2,""viewing_time"":8528.5}]","25489","","","","","","","","","","","","","","","","","","","","","","","",""
"pit-trial","118","1229054","0.0-4.0","battery-v0.2","","""event"",""trial"",""time""
""fullscreenenter"",""1"",""3555""
","
","
","""event"",""trial"",""time""
""fullscreenenter"",""1"",""3555""
","
","","","1056.6999999284744","","","25","11610","5422","&#9730;","elianto","#3366ff99"," "," ","1","+10","[1906.7999999523163]","1","1","","","11610","1","1","1","win","go","0"
"pit-trial","119","1232509","0.0-5.0","battery-v0.2","","""event"",""trial"",""time""
""fullscreenenter"",""1"",""3555""
","
","
","""event"",""trial"",""time""
""fullscreenenter"",""1"",""3555""
","
","","","590.3999999761581","","","25","11610","5422","&#9733;","elianto","#3366ff99","-1"," ","0","0","[1441.1000000238419]","1","1","","","11610","2","2","2","win","no-go","0"
"pit-trial","120","1236968","0.0-6.0","battery-v0.2","","""event"",""trial"",""time""
""fullscreenenter"",""1"",""3555""
","
","
","""event"",""trial"",""time""
""fullscreenenter"",""1"",""3555""
","
","","","1590","","","25","11610","5422","&#9752;","elianto","#f73b6a7A"," "," ","1","0","[2450.399999976158]","1","1","","","11610","3","3","3","lose","go","0"
"pit-trial","121","1240914","0.0-7.0","battery-v0.2","","""event"",""trial"",""time""
""fullscreenenter"",""1"",""3555""
","
","
","""event"",""trial"",""time""
""fullscreenenter"",""1"",""3555""
","
","","","1083.2000000476837","","","25","11610","5422","&#9728;","elianto","#f73b6a7A","-1"," ","0","-10","[1933.6000000238419]","1","1","","","11610","4","0","4","lose","no-go","0"
"pit-trial","122","1244753","0.0-8.0","battery-v0.2","","""event"",""trial"",""time""
""fullscreenenter"",""1"",""3555""
","
","
","""event"",""trial"",""time""
""fullscreenenter"",""1"",""3555""
","
","","","980.4000000953674","","","25","11610","5422","&#9733;","elianto","#3366ff99","-1"," ","0","0","[1833.7000000476837]","1","1","","","11610","5","2","2","win","no-go","0"
"pit-trial","123","1249264","0.0-9.0","battery-v0.2","","""event"",""trial"",""time""
""fullscreenenter"",""1"",""3555""
","
","
","""event"",""trial"",""time""
""fullscreenenter"",""1"",""3555""
","
","","","1635.3000000715256","","","25","11610","5422","&#9752;","elianto","#f73b6a7A"," "," ","1","-10","[2497.100000023842]","1","1","","","11610","6","3","3","lose","go","1"
"pit-trial","124","1253230","0.0-10.0","battery-v0.2","","""event"",""trial"",""time""
""fullscreenenter"",""1"",""3555""
","
","
","""event"",""trial"",""time""
""fullscreenenter"",""1"",""3555""
","
","","","1102.3999999761581","","","25","11610","5422","&#9730;","elianto","#3366ff99"," "," ","1","0","[1954.3999999761581]","1","1","","","11610","7","1","1","win","go","1"
"pit-trial","125","1257503","0.0-11.0","battery-v0.2","","""event"",""trial"",""time""
""fullscreenenter"",""1"",""3555""
","
","
","""event"",""trial"",""time""
""fullscreenenter"",""1"",""3555""
","
","","","1398.6999999284744","","","25","11610","5422","&#9728;","elianto","#f73b6a7A","-1"," ","0","-10","[2250.0999999046326]","1","1","","","11610","8","0","4","lose","no-go","0"
"pit-trial","126","1262375","0.0-12.0","battery-v0.2","","""event"",""trial"",""time""
""fullscreenenter"",""1"",""3555""
","
","
","""event"",""trial"",""time""
""fullscreenenter"",""1"",""3555""
","
","","","-1","","","25","11610","5422","&#9728;","elianto","#f73b6a7A","-1","-1","1","0","[]","0","1","","","11610","9","0","4","lose","no-go","0"
"pit-trial","127","1267232","0.0-13.0","battery-v0.2","","""event"",""trial"",""time""
""fullscreenenter"",""1"",""3555""
","
","
","""event"",""trial"",""time""
""fullscreenenter"",""1"",""3555""
","
","","","-1","","","25","11610","5422","&#9730;","elianto","#3366ff99"," ","-1","0","0","[]","0","1","","","11610","10","1","1","win","go","0"
"pit-trial","128","1272103","0.0-14.0","battery-v0.2","","""event"",""trial"",""time""
""fullscreenenter"",""1"",""3555""
","
","
","""event"",""trial"",""time""
""fullscreenenter"",""1"",""3555""
","
","","","-1","","","25","11610","5422","&#9752;","elianto","#f73b6a7A"," ","-1","0","0","[]","0","1","","","11610","11","3","3","lose","go","1"
"pit-trial","129","1276083","0.0-15.0","battery-v0.2","","""event"",""trial"",""time""
""fullscreenenter"",""1"",""3555""
","
","
","""event"",""trial"",""time""
""fullscreenenter"",""1"",""3555""
","
","","","1112.2000000476837","","","25","11610","5422","&#9733;","elianto","#3366ff99","-1"," ","0","+10","[1967.2000000476837]","1","1","","","11610","12","2","2","win","no-go","1"
"pit-trial","130","1279503","0.0-16.0","battery-v0.2","","""event"",""trial"",""time""
""fullscreenenter"",""1"",""3555""
","
","
","""event"",""trial"",""time""
""fullscreenenter"",""1"",""3555""
","
","","","559.6000000238419","","","25","11610","5422","&#9733;","elianto","#3366ff99","-1"," ","0","+10","[1411.5]","1","1","","","11610","13","2","2","win","no-go","1"
"pit-trial","131","1284168","0.0-17.0","battery-v0.2","","""event"",""trial"",""time""
""fullscreenenter"",""1"",""3555""
","
","
","""event"",""trial"",""time""
""fullscreenenter"",""1"",""3555""
","
","","","1797.2999999523163","","","25","11610","5422","&#9752;","elianto","#f73b6a7A"," "," ","1","0","[2652.399999976158]","1","1","","","11610","14","3","3","lose","go","0"
"pit-trial","132","1288600","0.0-18.0","battery-v0.2","","""event"",""trial"",""time""
""fullscreenenter"",""1"",""3555""
","
","
","""event"",""trial"",""time""
""fullscreenenter"",""1"",""3555""
","
","","","1567.8000000715256","","","25","11610","5422","&#9730;","elianto","#3366ff99"," "," ","1","+10","[2423.7999999523163]","1","1","","","11610","15","1","1","win","go","0"
"pit-trial","133","1293473","0.0-19.0","battery-v0.2","","""event"",""trial"",""time""
""fullscreenenter"",""1"",""3555""
","
","
","""event"",""trial"",""time""
""fullscreenenter"",""1"",""3555""
","
","","","-1","","","25","11610","5422","&#9728;","elianto","#f73b6a7A","-1","-1","1","0","[]","0","1","","","11610","16","0","4","lose","no-go","0"
"pit-trial","134","1297126","0.0-20.0","battery-v0.2","","""event"",""trial"",""time""
""fullscreenenter"",""1"",""3555""
","
","
","""event"",""trial"",""time""
""fullscreenenter"",""1"",""3555""
","
","","","795.1999999284744","","","25","11610","5422","&#9733;","elianto","#3366ff99","-1"," ","0","+10","[1645.2000000476837]","1","1","","","11610","17","2","2","win","no-go","1"
"pit-trial","135","1300534","0.0-21.0","battery-v0.2","","""event"",""trial"",""time""
""fullscreenenter"",""1"",""3555""
","
","
","""event"",""trial"",""time""
""fullscreenenter"",""1"",""3555""
","
","","","548.7000000476837","","","25","11610","5422","&#9730;","elianto","#3366ff99"," "," ","1","+10","[1399.3000000715256]","1","1","","","11610","18","1","1","win","go","0"
"pit-trial","136","1305387","0.0-22.0","battery-v0.2","","""event"",""trial"",""time""
""fullscreenenter"",""1"",""3555""
","
","
","""event"",""trial"",""time""
""fullscreenenter"",""1"",""3555""
","
","","","-1","","","25","11610","5422","&#9728;","elianto","#f73b6a7A","-1","-1","1","0","[]","0","1","","","11610","19","0","4","lose","no-go","0"
"pit-trial","137","1309589","0.0-23.0","battery-v0.2","","""event"",""trial"",""time""
""fullscreenenter"",""1"",""3555""
","
","
","""event"",""trial"",""time""
""fullscreenenter"",""1"",""3555""
","
","","","1336.2999999523163","","","25","11610","5422","&#9752;","elianto","#f73b6a7A"," "," ","1","0","[2189.899999976158]","1","1","","","11610","20","3","3","lose","go","0"
"pit-instructions","138","1326150","0.0-24.0","battery-v0.2","","""event"",""trial"",""time""
""fullscreenenter"",""1"",""3555""
","
","
","""event"",""trial"",""time""
""fullscreenenter"",""1"",""3555""
","
","","[{""page_index"":0,""viewing_time"":7360.799999952316},{""page_index"":1,""viewing_time"":9198}]","16559.200000047684","","","","","","","","","","","","","","","","","","","","","","","",""
"pit-trial","139","1329967","0.0-25.0","battery-v0.2","","""event"",""trial"",""time""
""fullscreenenter"",""1"",""3555""
","
","
","""event"",""trial"",""time""
""fullscreenenter"",""1"",""3555""
","
","","","933.9000000953674","","","25","11610","5422","a","elianto","#f73b6a7A"," "," ","1","-10","[1796.5]","1","2","","","11610","21","2","3","lose","go","1"
"pit-trial","140","1333977","0.0-26.0","battery-v0.2","","""event"",""trial"",""time""
""fullscreenenter"",""1"",""3555""
","
","
","""event"",""trial"",""time""
""fullscreenenter"",""1"",""3555""
","
","","","1149.6000000238419","","","25","11610","5422","g","elianto","#f73b6a7A","-1"," ","0","-10","[2001.7999999523163]","1","2","","","11610","22","3","4","lose","no-go","0"
"pit-trial","141","1338407","0.0-27.0","battery-v0.2","","""event"",""trial"",""time""
""fullscreenenter"",""1"",""3555""
","
","
","""event"",""trial"",""time""
""fullscreenenter"",""1"",""3555""
","
","","","1558","","","25","11610","5422","u","elianto","#f73b6a7A"," "," ","1","0","[2409.2000000476837]","1","2","","","11610","23","0","3","lose","go","0"
"pit-trial","142","1342197","0.0-28.0","battery-v0.2","","""event"",""trial"",""time""
""fullscreenenter"",""1"",""3555""
","
","
","""event"",""trial"",""time""
""fullscreenenter"",""1"",""3555""
","
","","","907.2000000476837","","","25","11610","5422","l","elianto","#3366ff99","-1"," ","0","0","[1763.5]","1","2","","","11610","24","1","2","win","no-go","0"
"pit-trial","143","1346357","0.0-29.0","battery-v0.2","","""event"",""trial"",""time""
""fullscreenenter"",""1"",""3555""
","
","
","""event"",""trial"",""time""
""fullscreenenter"",""1"",""3555""
","
","","","1294.9000000953674","","","25","11610","5422","a","elianto","#f73b6a7A"," "," ","1","-10","[2154.2000000476837]","1","2","","","11610","25","2","3","lose","go","1"
"pit-trial","144","1350168","0.0-30.0","battery-v0.2","","""event"",""trial"",""time""
""fullscreenenter"",""1"",""3555""
","
","
","""event"",""trial"",""time""
""fullscreenenter"",""1"",""3555""
","
","","","926.6000000238419","","","25","11610","5422","l","elianto","#3366ff99","-1"," ","0","0","[1783.1000000238419]","1","2","","","11610","26","1","2","win","no-go","0"
"pit-trial","145","1355047","0.0-31.0","battery-v0.2","","""event"",""trial"",""time""
""fullscreenenter"",""1"",""3555""
","
","
","""event"",""trial"",""time""
""fullscreenenter"",""1"",""3555""
","
","","","-1","","","25","11610","5422","u","elianto","#f73b6a7A"," ","-1","0","0","[]","0","2","","","11610","27","0","3","lose","go","1"
"pit-trial","146","1358610","0.0-32.0","battery-v0.2","","""event"",""trial"",""time""
""fullscreenenter"",""1"",""3555""
","
","
","""event"",""trial"",""time""
""fullscreenenter"",""1"",""3555""
","
","","","693.1999999284744","","","25","11610","5422","g","elianto","#f73b6a7A","-1"," ","0","-10","[1551.2999999523163]","1","2","","","11610","28","3","4","lose","no-go","0"
"pit-trial","147","1362065","0.0-33.0","battery-v0.2","","""event"",""trial"",""time""
""fullscreenenter"",""1"",""3555""
","
","
","""event"",""trial"",""time""
""fullscreenenter"",""1"",""3555""
","
","","","594.2000000476837","","","25","11610","5422","a","elianto","#f73b6a7A"," "," ","1","0","[1448]","1","2","","","11610","29","2","3","lose","go","0"
"pit-trial","148","1365812","0.0-34.0","battery-v0.2","","""event"",""trial"",""time""
""fullscreenenter"",""1"",""3555""
","
","
","""event"",""trial"",""time""
""fullscreenenter"",""1"",""3555""
","
","","","882.8999999761581","","","25","11610","5422","l","elianto","#3366ff99","-1"," ","0","0","[1736.1000000238419]","1","2","","","11610","30","1","2","win","no-go","0"
"pit-trial","149","1370229","0.0-35.0","battery-v0.2","","""event"",""trial"",""time""
""fullscreenenter"",""1"",""3555""
","
","
","""event"",""trial"",""time""
""fullscreenenter"",""1"",""3555""
","
","","","1560","","","25","11610","5422","g","elianto","#f73b6a7A","-1"," ","0","-10","[2411.2000000476837]","1","2","","","11610","31","3","4","lose","no-go","0"
"pit-trial","150","1375084","0.0-36.0","battery-v0.2","","""event"",""trial"",""time""
""fullscreenenter"",""1"",""3555""
","
","
","""event"",""trial"",""time""
""fullscreenenter"",""1"",""3555""
","
","","","-1","","","25","11610","5422","u","elianto","#f73b6a7A"," ","-1","0","-10","[]","0","2","","","11610","32","0","3","lose","go","0"
"pit-trial","151","1378576","0.0-37.0","battery-v0.2","","""event"",""trial"",""time""
""fullscreenenter"",""1"",""3555""
","
","
","""event"",""trial"",""time""
""fullscreenenter"",""1"",""3555""
","
","","","631.5","","","25","11610","5422","u","elianto","#f73b6a7A"," "," ","1","-10","[1486.6000000238419]","1","2","","","11610","33","0","3","lose","go","1"
"pit-trial","152","1382049","0.0-38.0","battery-v0.2","","""event"",""trial"",""time""
""fullscreenenter"",""1"",""3555""
","
","
","""event"",""trial"",""time""
""fullscreenenter"",""1"",""3555""
","
","","","604.2999999523163","","","25","11610","5422","a","elianto","#f73b6a7A"," "," ","1","0","[1462.2999999523163]","1","2","","","11610","34","2","3","lose","go","0"
"pit-trial","153","1385515","0.0-39.0","battery-v0.2","","""event"",""trial"",""time""
""fullscreenenter"",""1"",""3555""
","
","
","""event"",""trial"",""time""
""fullscreenenter"",""1"",""3555""
","
","","","602.1000000238419","","","25","11610","5422","l","elianto","#3366ff99","-1"," ","0","0","[1454.3999999761581]","1","2","","","11610","35","1","2","win","no-go","0"
"pit-trial","154","1389530","0.0-40.0","battery-v0.2","","""event"",""trial"",""time""
""fullscreenenter"",""1"",""3555""
","
","
","""event"",""trial"",""time""
""fullscreenenter"",""1"",""3555""
","
","","","1153.6000000238419","","","25","11610","5422","g","elianto","#f73b6a7A","-1"," ","0","-10","[2009.3999999761581]","1","2","","","11610","36","3","4","lose","no-go","0"
"pit-trial","155","1394405","0.0-41.0","battery-v0.2","","""event"",""trial"",""time""
""fullscreenenter"",""1"",""3555""
","
","
","""event"",""trial"",""time""
""fullscreenenter"",""1"",""3555""
","
","","","-1","","","25","11610","5422","g","elianto","#f73b6a7A","-1","-1","1","0","[]","0","2","","","11610","37","3","4","lose","no-go","0"
"pit-trial","156","1398142","0.0-42.0","battery-v0.2","","""event"",""trial"",""time""
""fullscreenenter"",""1"",""3555""
","
","
","""event"",""trial"",""time""
""fullscreenenter"",""1"",""3555""
","
","","","874.3999999761581","","","25","11610","5422","a","elianto","#f73b6a7A"," "," ","1","0","[1732.2999999523163]","1","2","","","11610","38","2","3","lose","go","0"
"pit-trial","157","1401911","0.0-43.0","battery-v0.2","","""event"",""trial"",""time""
""fullscreenenter"",""1"",""3555""
","
","
","""event"",""trial"",""time""
""fullscreenenter"",""1"",""3555""
","
","","","900.5","","","25","11610","5422","l","elianto","#3366ff99","-1"," ","0","0","[1758.1999999284744]","1","2","","","11610","39","1","2","win","no-go","0"
"pit-trial","158","1405829","0.0-44.0","battery-v0.2","","""event"",""trial"",""time""
""fullscreenenter"",""1"",""3555""
","
","
","""event"",""trial"",""time""
""fullscreenenter"",""1"",""3555""
","
","","","1060.9000000953674","","","25","11610","5422","u","elianto","#f73b6a7A"," "," ","1","-10","[1912.5]","1","2","","","11610","40","0","3","lose","go","1"
"pit-trial","159","1410689","0.0-45.0","battery-v0.2","","""event"",""trial"",""time""
""fullscreenenter"",""1"",""3555""
","
","
","""event"",""trial"",""time""
""fullscreenenter"",""1"",""3555""
","
","","","-1","","","25","11610","5422","g","elianto","#f73b6a7A","-1","-1","1","0","[]","0","2","","","11610","41","3","4","lose","no-go","0"
"pit-trial","160","1415551","0.0-46.0","battery-v0.2","","""event"",""trial"",""time""
""fullscreenenter"",""1"",""3555""
","
","
","""event"",""trial"",""time""
""fullscreenenter"",""1"",""3555""
","
","","","-1","","","25","11610","5422","l","elianto","#3366ff99","-1","-1","1","0","[]","0","2","","","11610","42","1","2","win","no-go","1"
"pit-trial","161","1419672","0.0-47.0","battery-v0.2","","""event"",""trial"",""time""
""fullscreenenter"",""1"",""3555""
","
","
","""event"",""trial"",""time""
""fullscreenenter"",""1"",""3555""
","
","","","1254.6000000238419","","","25","11610","5422","a","elianto","#f73b6a7A"," "," ","1","0","[2110.2999999523163]","1","2","","","11610","43","2","3","lose","go","0"
"pit-trial","162","1424077","0.0-48.0","battery-v0.2","","""event"",""trial"",""time""
""fullscreenenter"",""1"",""3555""
","
","
","""event"",""trial"",""time""
""fullscreenenter"",""1"",""3555""
","
","","","1541.8000000715256","","","25","11610","5422","u","elianto","#f73b6a7A"," "," ","1","0","[2398.8000000715256]","1","2","","","11610","44","0","3","lose","go","0"
"pit-trial","163","1427999","0.0-49.0","battery-v0.2","","""event"",""trial"",""time""
""fullscreenenter"",""1"",""3555""
","
","
","""event"",""trial"",""time""
""fullscreenenter"",""1"",""3555""
","
","","","1066.2999999523163","","","25","11610","5422","u","elianto","#f73b6a7A"," "," ","1","0","[1916.8999999761581]","1","2","","","11610","45","0","3","lose","go","0"
"pit-trial","164","1432867","0.0-50.0","battery-v0.2","","""event"",""trial"",""time""
""fullscreenenter"",""1"",""3555""
","
","
","""event"",""trial"",""time""
""fullscreenenter"",""1"",""3555""
","
","","","-1","","","25","11610","5422","g","elianto","#f73b6a7A","-1","-1","1","0","[]","0","2","","","11610","46","3","4","lose","no-go","0"
"pit-trial","165","1436267","0.0-51.0","battery-v0.2","","""event"",""trial"",""time""
""fullscreenenter"",""1"",""3555""
","
","
","""event"",""trial"",""time""
""fullscreenenter"",""1"",""3555""
","
","","","540","","","25","11610","5422","l","elianto","#3366ff99","-1"," ","0","0","[1392.2999999523163]","1","2","","","11610","47","1","2","win","no-go","0"
"pit-trial","166","1440699","0.0-52.0","battery-v0.2","","""event"",""trial"",""time""
""fullscreenenter"",""1"",""3555""
","
","
","""event"",""trial"",""time""
""fullscreenenter"",""1"",""3555""
","
","","","1573.0999999046326","","","25","11610","5422","a","elianto","#f73b6a7A"," "," ","1","0","[2424.899999976158]","1","2","","","11610","48","2","3","lose","go","0"
"pit-trial","167","1444980","0.0-53.0","battery-v0.2","","""event"",""trial"",""time""
""fullscreenenter"",""1"",""3555""
","
","
","""event"",""trial"",""time""
""fullscreenenter"",""1"",""3555""
","
","","","1422","","","25","11610","5422","u","elianto","#f73b6a7A"," "," ","1","0","[2274.8000000715256]","1","2","","","11610","49","0","3","lose","go","0"
"pit-trial","168","1448959","0.0-54.0","battery-v0.2","","""event"",""trial"",""time""
""fullscreenenter"",""1"",""3555""
","
","
","""event"",""trial"",""time""
""fullscreenenter"",""1"",""3555""
","
","","","1122.6000000238419","","","25","11610","5422","a","elianto","#f73b6a7A"," "," ","1","0","[1975.3000000715256]","1","2","","","11610","50","2","3","lose","go","0"
"pit-trial","169","1452774","0.0-55.0","battery-v0.2","","""event"",""trial"",""time""
""fullscreenenter"",""1"",""3555""
","
","
","""event"",""trial"",""time""
""fullscreenenter"",""1"",""3555""
","
","","","959.2999999523163","","","25","11610","5422","l","elianto","#3366ff99","-1"," ","0","0","[1810.3000000715256]","1","2","","","11610","51","1","2","win","no-go","0"
"pit-trial","170","1457429","0.0-56.0","battery-v0.2","","""event"",""trial"",""time""
""fullscreenenter"",""1"",""3555""
","
","
","""event"",""trial"",""time""
""fullscreenenter"",""1"",""3555""
","
","","","1799.7999999523163","","","25","11610","5422","g","elianto","#f73b6a7A","-1"," ","0","-10","[2650.7999999523163]","1","2","","","11610","52","3","4","lose","no-go","0"
"pit-trial","171","1462246","0.0-57.0","battery-v0.2","","""event"",""trial"",""time""
""fullscreenenter"",""1"",""3555""
","
","
","""event"",""trial"",""time""
""fullscreenenter"",""1"",""3555""
","
","","","1951.5","","","25","11610","5422","g","elianto","#f73b6a7A","-1"," ","0","-10","[2807.5]","1","2","","","11610","53","3","4","lose","no-go","0"
"pit-trial","172","1465862","0.0-58.0","battery-v0.2","","""event"",""trial"",""time""
""fullscreenenter"",""1"",""3555""
","
","
","""event"",""trial"",""time""
""fullscreenenter"",""1"",""3555""
","
","","","749.7999999523163","","","25","11610","5422","a","elianto","#f73b6a7A"," "," ","1","0","[1605.0999999046326]","1","2","","","11610","54","2","3","lose","go","0"
"pit-trial","173","1470727","0.0-59.0","battery-v0.2","","""event"",""trial"",""time""
""fullscreenenter"",""1"",""3555""
","
","
","""event"",""trial"",""time""
""fullscreenenter"",""1"",""3555""
","
","","","-1","","","25","11610","5422","l","elianto","#3366ff99","-1","-1","1","+10","[]","0","2","","","11610","55","1","2","win","no-go","0"
"pit-trial","174","1474878","0.0-60.0","battery-v0.2","","""event"",""trial"",""time""
""fullscreenenter"",""1"",""3555""
","
","
","""event"",""trial"",""time""
""fullscreenenter"",""1"",""3555""
","
","","","1285.1000000238419","","","25","11610","5422","u","elianto","#f73b6a7A"," "," ","1","0","[2140.399999976158]","1","2","","","11610","56","0","3","lose","go","0"
"pit-trial","175","1478902","0.0-61.0","battery-v0.2","","""event"",""trial"",""time""
""fullscreenenter"",""1"",""3555""
","
","
","""event"",""trial"",""time""
""fullscreenenter"",""1"",""3555""
","
","","","1161.5","","","25","11610","5422","a","elianto","#f73b6a7A"," "," ","1","0","[2013]","1","2","","","11610","57","2","3","lose","go","0"
"pit-trial","176","1482766","0.0-62.0","battery-v0.2","","""event"",""trial"",""time""
""fullscreenenter"",""1"",""3555""
","
","
","""event"",""trial"",""time""
""fullscreenenter"",""1"",""3555""
","
","","","1000.2000000476837","","","25","11610","5422","p","elianto","#3366ff99"," "," ","1","+10","[1853.2000000476837]","1","2","","","11610","58","4","1","win","go","0"
"pit-trial","177","1487627","0.0-63.0","battery-v0.2","","""event"",""trial"",""time""
""fullscreenenter"",""1"",""3555""
","
","
","""event"",""trial"",""time""
""fullscreenenter"",""1"",""3555""
","
","","","-1","","","25","11610","5422","u","elianto","#f73b6a7A"," ","-1","0","-10","[]","0","2","","","11610","59","0","3","lose","go","0"
"pit-trial","178","1491932","0.0-64.0","battery-v0.2","","""event"",""trial"",""time""
""fullscreenenter"",""1"",""3555""
","
","
","""event"",""trial"",""time""
""fullscreenenter"",""1"",""3555""
","
","","","1446.1999999284744","","","25","11610","5422","g","elianto","#f73b6a7A","-1"," ","0","-10","[2298.2999999523163]","1","2","","","11610","60","3","4","lose","no-go","0"
"pit-trial","179","1496814","0.0-65.0","battery-v0.2","","""event"",""trial"",""time""
""fullscreenenter"",""1"",""3555""
","
","
","""event"",""trial"",""time""
""fullscreenenter"",""1"",""3555""
","
","","","-1","","","25","11610","5422","g","elianto","#f73b6a7A","-1","-1","1","0","[]","0","2","","","11610","61","3","4","lose","no-go","0"
"pit-trial","180","1500433","0.0-66.0","battery-v0.2","","""event"",""trial"",""time""
""fullscreenenter"",""1"",""3555""
","
","
","""event"",""trial"",""time""
""fullscreenenter"",""1"",""3555""
","
","","","759.2999999523163","","","25","11610","5422","p","elianto","#3366ff99"," "," ","1","0","[1613.1999999284744]","1","2","","","11610","62","4","1","win","go","1"
"pit-trial","181","1504575","0.0-67.0","battery-v0.2","","""event"",""trial"",""time""
""fullscreenenter"",""1"",""3555""
","
","
","""event"",""trial"",""time""
""fullscreenenter"",""1"",""3555""
","
","","","1270.6000000238419","","","25","11610","5422","a","elianto","#f73b6a7A"," "," ","1","0","[2128.5]","1","2","","","11610","63","2","3","lose","go","0"
"pit-trial","182","1509439","0.0-68.0","battery-v0.2","","""event"",""trial"",""time""
""fullscreenenter"",""1"",""3555""
","
","
","""event"",""trial"",""time""
""fullscreenenter"",""1"",""3555""
","
","","","-1","","","25","11610","5422","l","elianto","#3366ff99","-1","-1","1","+10","[]","0","2","","","11610","64","1","2","win","no-go","0"
"pit-trial","183","1514072","0.0-69.0","battery-v0.2","","""event"",""trial"",""time""
""fullscreenenter"",""1"",""3555""
","
","
","""event"",""trial"",""time""
""fullscreenenter"",""1"",""3555""
","
","","","1768.9000000953674","","","25","11610","5422","g","elianto","#f73b6a7A","-1"," ","0","0","[2621.2999999523163]","1","2","","","11610","65","3","4","lose","no-go","1"
"pit-trial","184","1518940","0.0-70.0","battery-v0.2","","""event"",""trial"",""time""
""fullscreenenter"",""1"",""3555""
","
","
","""event"",""trial"",""time""
""fullscreenenter"",""1"",""3555""
","
","","","-1","","","25","11610","5422","l","elianto","#3366ff99","-1","-1","1","+10","[]","0","2","","","11610","66","1","2","win","no-go","0"
"pit-trial","185","1522767","0.0-71.0","battery-v0.2","","""event"",""trial"",""time""
""fullscreenenter"",""1"",""3555""
","
","
","""event"",""trial"",""time""
""fullscreenenter"",""1"",""3555""
","
","","","964.8999999761581","","","25","11610","5422","s","elianto","#3366ff99","-1"," ","0","0","[1815.7999999523163]","1","2","","","11610","67","5","2","win","no-go","0"
"pit-trial","186","1526717","0.0-72.0","battery-v0.2","","""event"",""trial"",""time""
""fullscreenenter"",""1"",""3555""
","
","
","""event"",""trial"",""time""
""fullscreenenter"",""1"",""3555""
","
","","","1083.2000000476837","","","25","11610","5422","p","elianto","#3366ff99"," "," ","1","+10","[1940.5]","1","2","","","11610","68","4","1","win","go","0"
"pit-trial","187","1531214","0.0-73.0","battery-v0.2","","""event"",""trial"",""time""
""fullscreenenter"",""1"",""3555""
","
","
","""event"",""trial"",""time""
""fullscreenenter"",""1"",""3555""
","
","","","1632.8999999761581","","","25","11610","5422","a","elianto","#f73b6a7A"," "," ","1","-10","[2488.399999976158]","1","2","","","11610","69","2","3","lose","go","1"
"pit-trial","188","1536078","0.0-74.0","battery-v0.2","","""event"",""trial"",""time""
""fullscreenenter"",""1"",""3555""
","
","
","""event"",""trial"",""time""
""fullscreenenter"",""1"",""3555""
","
","","","-1","","","25","11610","5422","s","elianto","#3366ff99","-1","-1","1","+10","[3065.600000023842]","1","2","","","11610","70","5","2","win","no-go","0"
"pit-trial","189","1539789","0.0-75.0","battery-v0.2","","""event"",""trial"",""time""
""fullscreenenter"",""1"",""3555""
","
","
","""event"",""trial"",""time""
""fullscreenenter"",""1"",""3555""
","
","","","848.7000000476837","","","25","11610","5422","l","elianto","#3366ff99","-1"," ","0","0","[1701.8999999761581]","1","2","","","11610","71","1","2","win","no-go","0"
"pit-trial","190","1543497","0.0-76.0","battery-v0.2","","""event"",""trial"",""time""
""fullscreenenter"",""1"",""3555""
","
","
","""event"",""trial"",""time""
""fullscreenenter"",""1"",""3555""
","
","","","846.5","","","25","11610","5422","p","elianto","#3366ff99"," "," ","1","+10","[1698.5]","1","2","","","11610","72","4","1","win","go","0"
"pit-trial","191","1547050","0.0-77.0","battery-v0.2","","""event"",""trial"",""time""
""fullscreenenter"",""1"",""3555""
","
","
","""event"",""trial"",""time""
""fullscreenenter"",""1"",""3555""
","
","","","690","","","25","11610","5422","p","elianto","#3366ff99"," "," ","1","+10","[1543.3000000715256]","1","2","","","11610","73","4","1","win","go","0"
"pit-trial","192","1551103","0.0-78.0","battery-v0.2","","""event"",""trial"",""time""
""fullscreenenter"",""1"",""3555""
","
","
","""event"",""trial"",""time""
""fullscreenenter"",""1"",""3555""
","
","","","1195.3000000715256","","","25","11610","5422","g","elianto","#f73b6a7A","-1"," ","0","-10","[2045.3999999761581]","1","2","","","11610","74","3","4","lose","no-go","0"
"pit-trial","193","1555024","0.0-79.0","battery-v0.2","","""event"",""trial"",""time""
""fullscreenenter"",""1"",""3555""
","
","
","""event"",""trial"",""time""
""fullscreenenter"",""1"",""3555""
","
","","","1056.6999999284744","","","25","11610","5422","s","elianto","#3366ff99","-1"," ","0","0","[1909.5]","1","2","","","11610","75","5","2","win","no-go","0"
"pit-trial","194","1558645","0.0-80.0","battery-v0.2","","""event"",""trial"",""time""
""fullscreenenter"",""1"",""3555""
","
","
","""event"",""trial"",""time""
""fullscreenenter"",""1"",""3555""
","
","","","755.7000000476837","","","25","11610","5422","l","elianto","#3366ff99","-1"," ","0","0","[1612.8999999761581]","1","2","","","11610","76","1","2","win","no-go","0"
"pit-trial","195","1562180","0.0-81.0","battery-v0.2","","""event"",""trial"",""time""
""fullscreenenter"",""1"",""3555""
","
","
","""event"",""trial"",""time""
""fullscreenenter"",""1"",""3555""
","
","","","669.2999999523163","","","25","11610","5422","p","elianto","#3366ff99"," "," ","1","0","[1525.1000000238419]","1","2","","","11610","77","4","1","win","go","1"
"pit-trial","196","1565700","0.0-82.0","battery-v0.2","","""event"",""trial"",""time""
""fullscreenenter"",""1"",""3555""
","
","
","""event"",""trial"",""time""
""fullscreenenter"",""1"",""3555""
","
","","","659.4000000953674","","","25","11610","5422","p","elianto","#3366ff99"," "," ","1","+10","[1512.2000000476837]","1","2","","","11610","78","4","1","win","go","0"
"pit-trial","197","1569628","0.0-83.0","battery-v0.2","","""event"",""trial"",""time""
""fullscreenenter"",""1"",""3555""
","
","
","""event"",""trial"",""time""
""fullscreenenter"",""1"",""3555""
","
","","","1065.5999999046326","","","25","11610","5422","g","elianto","#f73b6a7A","-1"," ","0","-10","[1918.8000000715256]","1","2","","","11610","79","3","4","lose","no-go","0"
"pit-trial","198","1574495","0.0-84.0","battery-v0.2","","""event"",""trial"",""time""
""fullscreenenter"",""1"",""3555""
","
","
","""event"",""trial"",""time""
""fullscreenenter"",""1"",""3555""
","
","","","-1","","","25","11610","5422","s","elianto","#3366ff99","-1","-1","1","+10","[]","0","2","","","11610","80","5","2","win","no-go","0"
"pit-trial","199","1578419","0.0-85.0","battery-v0.2","","""event"",""trial"",""time""
""fullscreenenter"",""1"",""3555""
","
","
","""event"",""trial"",""time""
""fullscreenenter"",""1"",""3555""
","
","","","1066.2999999523163","","","25","11610","5422","e","elianto","#f73b6a7A","-1"," ","0","-10","[1918.5]","1","2","","","11610","81","7","4","lose","no-go","0"
"pit-trial","200","1583281","0.0-86.0","battery-v0.2","","""event"",""trial"",""time""
""fullscreenenter"",""1"",""3555""
","
","
","""event"",""trial"",""time""
""fullscreenenter"",""1"",""3555""
","
","","","-1","","","25","11610","5422","g","elianto","#f73b6a7A","-1","-1","1","0","[]","0","2","","","11610","82","3","4","lose","no-go","0"
"pit-trial","201","1588141","0.0-87.0","battery-v0.2","","""event"",""trial"",""time""
""fullscreenenter"",""1"",""3555""
","
","
","""event"",""trial"",""time""
""fullscreenenter"",""1"",""3555""
","
","","","-1","","","25","11610","5422","s","elianto","#3366ff99","-1","-1","1","+10","[]","0","2","","","11610","83","5","2","win","no-go","0"
"pit-trial","202","1592098","0.0-88.0","battery-v0.2","","""event"",""trial"",""time""
""fullscreenenter"",""1"",""3555""
","
","
","""event"",""trial"",""time""
""fullscreenenter"",""1"",""3555""
","
","","","1094.6999999284744","","","25","11610","5422","p","elianto","#3366ff99"," "," ","1","0","[1948.6000000238419]","1","2","","","11610","84","4","1","win","go","1"
"pit-trial","203","1596967","0.0-89.0","battery-v0.2","","""event"",""trial"",""time""
""fullscreenenter"",""1"",""3555""
","
","
","""event"",""trial"",""time""
""fullscreenenter"",""1"",""3555""
","
","","","-1","","","25","11610","5422","s","elianto","#3366ff99","-1","-1","1","0","[]","0","2","","","11610","85","5","2","win","no-go","1"
"pit-trial","204","1600693","0.0-90.0","battery-v0.2","","""event"",""trial"",""time""
""fullscreenenter"",""1"",""3555""
","
","
","""event"",""trial"",""time""
""fullscreenenter"",""1"",""3555""
","
","","","862.7000000476837","","","25","11610","5422","p","elianto","#3366ff99"," "," ","1","+10","[1717.1000000238419]","1","2","","","11610","86","4","1","win","go","0"
"pit-trial","205","1605555","0.0-91.0","battery-v0.2","","""event"",""trial"",""time""
""fullscreenenter"",""1"",""3555""
","
","
","""event"",""trial"",""time""
""fullscreenenter"",""1"",""3555""
","
","","","-1","","","25","11610","5422","e","elianto","#f73b6a7A","-1","-1","1","0","[]","0","2","","","11610","87","7","4","lose","no-go","0"
"pit-trial","206","1609570","0.0-92.0","battery-v0.2","","""event"",""trial"",""time""
""fullscreenenter"",""1"",""3555""
","
","
","""event"",""trial"",""time""
""fullscreenenter"",""1"",""3555""
","
","","","1156.5","","","25","11610","5422","w","elianto","#f73b6a7A"," "," ","1","0","[2008.5]","1","2","","","11610","88","6","3","lose","go","0"
"pit-trial","207","1614436","0.0-93.0","battery-v0.2","","""event"",""trial"",""time""
""fullscreenenter"",""1"",""3555""
","
","
","""event"",""trial"",""time""
""fullscreenenter"",""1"",""3555""
","
","","","-1","","","25","11610","5422","s","elianto","#3366ff99","-1","-1","1","0","[]","0","2","","","11610","89","5","2","win","no-go","1"
"pit-trial","208","1619008","0.0-94.0","battery-v0.2","","""event"",""trial"",""time""
""fullscreenenter"",""1"",""3555""
","
","
","""event"",""trial"",""time""
""fullscreenenter"",""1"",""3555""
","
","","","1712.3999999761581","","","25","11610","5422","p","elianto","#3366ff99"," "," ","1","+10","[2566.6999999284744]","1","2","","","11610","90","4","1","win","go","0"
"pit-trial","209","1623875","0.0-95.0","battery-v0.2","","""event"",""trial"",""time""
""fullscreenenter"",""1"",""3555""
","
","
","""event"",""trial"",""time""
""fullscreenenter"",""1"",""3555""
","
","","","-1","","","25","11610","5422","e","elianto","#f73b6a7A","-1","-1","1","0","[]","0","2","","","11610","91","7","4","lose","no-go","0"
"pit-trial","210","1628744","0.0-96.0","battery-v0.2","","""event"",""trial"",""time""
""fullscreenenter"",""1"",""3555""
","
","
","""event"",""trial"",""time""
""fullscreenenter"",""1"",""3555""
","
","","","-1","","","25","11610","5422","w","elianto","#f73b6a7A"," ","-1","0","-10","[]","0","2","","","11610","92","6","3","lose","go","0"
"pit-trial","211","1632452","0.0-97.0","battery-v0.2","","""event"",""trial"",""time""
""fullscreenenter"",""1"",""3555""
","
","
","""event"",""trial"",""time""
""fullscreenenter"",""1"",""3555""
","
","","","841.6999999284744","","","25","11610","5422","d","elianto","#3366ff99"," "," ","1","+10","[1700.2000000476837]","1","2","","","11610","93","8","1","win","go","0"
"pit-trial","212","1637323","0.0-98.0","battery-v0.2","","""event"",""trial"",""time""
""fullscreenenter"",""1"",""3555""
","
","
","""event"",""trial"",""time""
""fullscreenenter"",""1"",""3555""
","
","","","-1","","","25","11610","5422","s","elianto","#3366ff99","-1","-1","1","+10","[]","0","2","","","11610","94","5","2","win","no-go","0"
"pit-trial","213","1642198","0.0-99.0","battery-v0.2","","""event"",""trial"",""time""
""fullscreenenter"",""1"",""3555""
","
","
","""event"",""trial"",""time""
""fullscreenenter"",""1"",""3555""
","
","","","-1","","","25","11610","5422","e","elianto","#f73b6a7A","-1","-1","1","0","[]","0","2","","","11610","95","7","4","lose","no-go","0"
"pit-trial","214","1645941","0.0-100.0","battery-v0.2","","""event"",""trial"",""time""
""fullscreenenter"",""1"",""3555""
","
","
","""event"",""trial"",""time""
""fullscreenenter"",""1"",""3555""
","
","","","877.2000000476837","","","25","11610","5422","w","elianto","#f73b6a7A"," "," ","1","-10","[1734.2000000476837]","1","2","","","11610","96","6","3","lose","go","1"
"pit-trial","215","1650804","0.0-101.0","battery-v0.2","","""event"",""trial"",""time""
""fullscreenenter"",""1"",""3555""
","
","
","""event"",""trial"",""time""
""fullscreenenter"",""1"",""3555""
","
","","","-1","","","25","11610","5422","s","elianto","#3366ff99","-1","-1","1","+10","[]","0","2","","","11610","97","5","2","win","no-go","0"
"pit-trial","216","1655671","0.0-102.0","battery-v0.2","","""event"",""trial"",""time""
""fullscreenenter"",""1"",""3555""
","
","
","""event"",""trial"",""time""
""fullscreenenter"",""1"",""3555""
","
","","","-1","","","25","11610","5422","e","elianto","#f73b6a7A","-1","-1","1","0","[]","0","2","","","11610","98","7","4","lose","no-go","0"
"pit-trial","217","1660538","0.0-103.0","battery-v0.2","","""event"",""trial"",""time""
""fullscreenenter"",""1"",""3555""
","
","
","""event"",""trial"",""time""
""fullscreenenter"",""1"",""3555""
","
","","","-1","","","25","11610","5422","w","elianto","#f73b6a7A"," ","-1","0","-10","[]","0","2","","","11610","99","6","3","lose","go","0"
"pit-trial","218","1664163","0.0-104.0","battery-v0.2","","""event"",""trial"",""time""
""fullscreenenter"",""1"",""3555""
","
","
","""event"",""trial"",""time""
""fullscreenenter"",""1"",""3555""
","
","","","766.2999999523163","","","25","11610","5422","d","elianto","#3366ff99"," "," ","1","0","[1617.6999999284744]","1","2","","","11610","100","8","1","win","go","1"
"pit-trial","219","1667809","0.0-105.0","battery-v0.2","","""event"",""trial"",""time""
""fullscreenenter"",""1"",""3555""
","
","
","""event"",""trial"",""time""
""fullscreenenter"",""1"",""3555""
","
","","","782.7999999523163","","","25","11610","5422","d","elianto","#3366ff99"," "," ","1","+10","[1633.8999999761581]","1","2","","","11610","101","8","1","win","go","0"
"pit-trial","220","1671649","0.0-106.0","battery-v0.2","","""event"",""trial"",""time""
""fullscreenenter"",""1"",""3555""
","
","
","""event"",""trial"",""time""
""fullscreenenter"",""1"",""3555""
","
","","","980.0999999046326","","","25","11610","5422","s","elianto","#3366ff99","-1"," ","0","0","[1831.6999999284744]","1","2","","","11610","102","5","2","win","no-go","0"
"pit-trial","221","1675369","0.0-107.0","battery-v0.2","","""event"",""trial"",""time""
""fullscreenenter"",""1"",""3555""
","
","
","""event"",""trial"",""time""
""fullscreenenter"",""1"",""3555""
","
","","","851.5","","","25","11610","5422","j","elianto","#3366ff99"," "," ","1","+10","[1708.6999999284744]","1","2","","","11610","103","9","1","win","go","0"
"pit-trial","222","1680234","0.0-108.0","battery-v0.2","","""event"",""trial"",""time""
""fullscreenenter"",""1"",""3555""
","
","
","""event"",""trial"",""time""
""fullscreenenter"",""1"",""3555""
","
","","","-1","","","25","11610","5422","e","elianto","#f73b6a7A","-1","-1","1","0","[]","0","2","","","11610","104","7","4","lose","no-go","0"
"pit-trial","223","1684072","0.0-109.0","battery-v0.2","","""event"",""trial"",""time""
""fullscreenenter"",""1"",""3555""
","
","
","""event"",""trial"",""time""
""fullscreenenter"",""1"",""3555""
","
","","","970.6999999284744","","","25","11610","5422","p","elianto","#3366ff99"," "," ","1","+10","[1824.5999999046326]","1","2","","","11610","105","4","1","win","go","0"
"pit-trial","224","1688117","0.0-110.0","battery-v0.2","","""event"",""trial"",""time""
""fullscreenenter"",""1"",""3555""
","
","
","""event"",""trial"",""time""
""fullscreenenter"",""1"",""3555""
","
","","","1183.6000000238419","","","25","11610","5422","w","elianto","#f73b6a7A"," "," ","1","0","[2036.3999999761581]","1","2","","","11610","106","6","3","lose","go","0"
"pit-trial","225","1691781","0.0-111.0","battery-v0.2","","""event"",""trial"",""time""
""fullscreenenter"",""1"",""3555""
","
","
","""event"",""trial"",""time""
""fullscreenenter"",""1"",""3555""
","
","","","798.5","","","25","11610","5422","j","elianto","#3366ff99"," "," ","1","0","[1651]","1","2","","","11610","107","9","1","win","go","1"
"pit-trial","226","1696641","0.0-112.0","battery-v0.2","","""event"",""trial"",""time""
""fullscreenenter"",""1"",""3555""
","
","
","""event"",""trial"",""time""
""fullscreenenter"",""1"",""3555""
","
","","","-1","","","25","11610","5422","d","elianto","#3366ff99"," ","-1","0","0","[]","0","2","","","11610","108","8","1","win","go","0"
"pit-trial","227","1701516","0.0-113.0","battery-v0.2","","""event"",""trial"",""time""
""fullscreenenter"",""1"",""3555""
","
","
","""event"",""trial"",""time""
""fullscreenenter"",""1"",""3555""
","
","","","-1","","","25","11610","5422","w","elianto","#f73b6a7A"," ","-1","0","-10","[]","0","2","","","11610","109","6","3","lose","go","0"
"pit-trial","228","1706388","0.0-114.0","battery-v0.2","","""event"",""trial"",""time""
""fullscreenenter"",""1"",""3555""
","
","
","""event"",""trial"",""time""
""fullscreenenter"",""1"",""3555""
","
","","","-1","","","25","11610","5422","j","elianto","#3366ff99"," ","-1","0","0","[3583]","1","2","","","11610","110","9","1","win","go","0"
"pit-trial","229","1710506","0.0-115.0","battery-v0.2","","""event"",""trial"",""time""
""fullscreenenter"",""1"",""3555""
","
","
","""event"",""trial"",""time""
""fullscreenenter"",""1"",""3555""
","
","","","1245.3000000715256","","","25","11610","5422","s","elianto","#3366ff99","-1"," ","0","0","[2101.7000000476837]","1","2","","","11610","111","5","2","win","no-go","0"
"pit-trial","230","1715373","0.0-116.0","battery-v0.2","","""event"",""trial"",""time""
""fullscreenenter"",""1"",""3555""
","
","
","""event"",""trial"",""time""
""fullscreenenter"",""1"",""3555""
","
","","","-1","","","25","11610","5422","d","elianto","#3366ff99"," ","-1","0","0","[]","0","2","","","11610","112","8","1","win","go","0"
"pit-trial","231","1720241","0.0-117.0","battery-v0.2","","""event"",""trial"",""time""
""fullscreenenter"",""1"",""3555""
","
","
","""event"",""trial"",""time""
""fullscreenenter"",""1"",""3555""
","
","","","-1","","","25","11610","5422","d","elianto","#3366ff99"," ","-1","0","+10","[]","0","2","","","11610","113","8","1","win","go","1"
"pit-trial","232","1724420","0.0-118.0","battery-v0.2","","""event"",""trial"",""time""
""fullscreenenter"",""1"",""3555""
","
","
","""event"",""trial"",""time""
""fullscreenenter"",""1"",""3555""
","
","","","1318.6999999284744","","","25","11610","5422","s","elianto","#3366ff99","-1"," ","0","0","[2168.7999999523163]","1","2","","","11610","114","5","2","win","no-go","0"
"pit-trial","233","1729038","0.0-119.0","battery-v0.2","","""event"",""trial"",""time""
""fullscreenenter"",""1"",""3555""
","
","
","""event"",""trial"",""time""
""fullscreenenter"",""1"",""3555""
","
","","","1753.2000000476837","","","25","11610","5422","j","elianto","#3366ff99"," "," ","1","0","[2604.100000023842]","1","2","","","11610","115","9","1","win","go","1"
"pit-trial","234","1733919","0.0-120.0","battery-v0.2","","""event"",""trial"",""time""
""fullscreenenter"",""1"",""3555""
","
","
","""event"",""trial"",""time""
""fullscreenenter"",""1"",""3555""
","
","","","-1","","","25","11610","5422","w","elianto","#f73b6a7A"," ","-1","0","-10","[]","0","2","","","11610","116","6","3","lose","go","0"
"pit-trial","235","1737456","0.0-121.0","battery-v0.2","","""event"",""trial"",""time""
""fullscreenenter"",""1"",""3555""
","
","
","""event"",""trial"",""time""
""fullscreenenter"",""1"",""3555""
","
","","","672.6000000238419","","","25","11610","5422","s","elianto","#3366ff99","-1"," ","0","0","[1524.2000000476837]","1","2","","","11610","117","5","2","win","no-go","0"
"pit-trial","236","1741252","0.0-122.0","battery-v0.2","","""event"",""trial"",""time""
""fullscreenenter"",""1"",""3555""
","
","
","""event"",""trial"",""time""
""fullscreenenter"",""1"",""3555""
","
","","","932","","","25","11610","5422","w","elianto","#f73b6a7A"," "," ","1","0","[1784.8999999761581]","1","2","","","11610","118","6","3","lose","go","0"
"pit-trial","237","1744989","0.0-123.0","battery-v0.2","","""event"",""trial"",""time""
""fullscreenenter"",""1"",""3555""
","
","
","""event"",""trial"",""time""
""fullscreenenter"",""1"",""3555""
","
","","","879.7999999523163","","","25","11610","5422","j","elianto","#3366ff99"," "," ","1","+10","[1729.8000000715256]","1","2","","","11610","119","9","1","win","go","0"
"pit-trial","238","1749859","0.0-124.0","battery-v0.2","","""event"",""trial"",""time""
""fullscreenenter"",""1"",""3555""
","
","
","""event"",""trial"",""time""
""fullscreenenter"",""1"",""3555""
","
","","","-1","","","25","11610","5422","d","elianto","#3366ff99"," ","-1","0","0","[3416.3000000715256]","1","2","","","11610","120","8","1","win","go","0"
"pit-trial","239","1754728","0.0-125.0","battery-v0.2","","""event"",""trial"",""time""
""fullscreenenter"",""1"",""3555""
","
","
","""event"",""trial"",""time""
""fullscreenenter"",""1"",""3555""
","
","","","-1","","","25","11610","5422","w","elianto","#f73b6a7A"," ","-1","0","-10","[]","0","2","","","11610","121","6","3","lose","go","0"
"pit-trial","240","1758145","0.0-126.0","battery-v0.2","","""event"",""trial"",""time""
""fullscreenenter"",""1"",""3555""
","
","
","""event"",""trial"",""time""
""fullscreenenter"",""1"",""3555""
","
","","","552.1999999284744","","","25","11610","5422","d","elianto","#3366ff99"," "," ","1","+10","[1405.8999999761581]","1","2","","","11610","122","8","1","win","go","0"
"pit-trial","241","1761703","0.0-127.0","battery-v0.2","","""event"",""trial"",""time""
""fullscreenenter"",""1"",""3555""
","
","
","""event"",""trial"",""time""
""fullscreenenter"",""1"",""3555""
","
","","","690.8000000715256","","","25","11610","5422","j","elianto","#3366ff99"," "," ","1","+10","[1548]","1","2","","","11610","123","9","1","win","go","0"
"pit-trial","242","1765679","0.0-128.0","battery-v0.2","","""event"",""trial"",""time""
""fullscreenenter"",""1"",""3555""
","
","
","""event"",""trial"",""time""
""fullscreenenter"",""1"",""3555""
","
","","","1117.1000000238419","","","25","11610","5422","e","elianto","#f73b6a7A","-1"," ","0","-10","[1969.5]","1","2","","","11610","124","7","4","lose","no-go","0"
"pit-trial","243","1769218","0.0-129.0","battery-v0.2","","""event"",""trial"",""time""
""fullscreenenter"",""1"",""3555""
","
","
","""event"",""trial"",""time""
""fullscreenenter"",""1"",""3555""
","
","","","681.5","","","25","11610","5422","d","elianto","#3366ff99"," "," ","1","+10","[1531.6999999284744]","1","2","","","11610","125","8","1","win","go","0"
"pit-trial","244","1774085","0.0-130.0","battery-v0.2","","""event"",""trial"",""time""
""fullscreenenter"",""1"",""3555""
","
","
","""event"",""trial"",""time""
""fullscreenenter"",""1"",""3555""
","
","","","-1","","","25","11610","5422","e","elianto","#f73b6a7A","-1","-1","1","0","[]","0","2","","","11610","126","7","4","lose","no-go","0"
"pit-trial","245","1778113","0.0-131.0","battery-v0.2","","""event"",""trial"",""time""
""fullscreenenter"",""1"",""3555""
","
","
","""event"",""trial"",""time""
""fullscreenenter"",""1"",""3555""
","
","","","1165.1999999284744","","","25","11610","5422","w","elianto","#f73b6a7A"," "," ","1","-10","[2019]","1","2","","","11610","127","6","3","lose","go","1"
"pit-trial","246","1781558","0.0-132.0","battery-v0.2","","""event"",""trial"",""time""
""fullscreenenter"",""1"",""3555""
","
","
","""event"",""trial"",""time""
""fullscreenenter"",""1"",""3555""
","
","","","578.6000000238419","","","25","11610","5422","j","elianto","#3366ff99"," "," ","1","+10","[1435.5]","1","2","","","11610","128","9","1","win","go","0"
"pit-trial","247","1785363","0.0-133.0","battery-v0.2","","""event"",""trial"",""time""
""fullscreenenter"",""1"",""3555""
","
","
","""event"",""trial"",""time""
""fullscreenenter"",""1"",""3555""
","
","","","947.7999999523163","","","25","11610","5422","d","elianto","#3366ff99"," "," ","1","+10","[1799.0999999046326]","1","2","","","11610","129","8","1","win","go","0"
"pit-trial","248","1790239","0.0-134.0","battery-v0.2","","""event"",""trial"",""time""
""fullscreenenter"",""1"",""3555""
","
","
","""event"",""trial"",""time""
""fullscreenenter"",""1"",""3555""
","
","","","-1","","","25","11610","5422","w","elianto","#f73b6a7A"," ","-1","0","0","[]","0","2","","","11610","130","6","3","lose","go","1"
"pit-trial","249","1794233","0.0-135.0","battery-v0.2","","""event"",""trial"",""time""
""fullscreenenter"",""1"",""3555""
","
","
","""event"",""trial"",""time""
""fullscreenenter"",""1"",""3555""
","
","","","1129.5","","","25","11610","5422","e","elianto","#f73b6a7A","-1"," ","0","-10","[1981.1000000238419]","1","2","","","11610","131","7","4","lose","no-go","0"
"pit-trial","250","1797582","0.0-136.0","battery-v0.2","","""event"",""trial"",""time""
""fullscreenenter"",""1"",""3555""
","
","
","""event"",""trial"",""time""
""fullscreenenter"",""1"",""3555""
","
","","","489.2000000476837","","","25","11610","5422","j","elianto","#3366ff99"," "," ","1","+10","[1342.2999999523163]","1","2","","","11610","132","9","1","win","go","0"
"pit-trial","251","1801138","0.0-137.0","battery-v0.2","","""event"",""trial"",""time""
""fullscreenenter"",""1"",""3555""
","
","
","""event"",""trial"",""time""
""fullscreenenter"",""1"",""3555""
","
","","","693","","","25","11610","5422","d","elianto","#3366ff99"," "," ","1","+10","[1545]","1","2","","","11610","133","8","1","win","go","0"
"pit-trial","252","1804609","0.0-138.0","battery-v0.2","","""event"",""trial"",""time""
""fullscreenenter"",""1"",""3555""
","
","
","""event"",""trial"",""time""
""fullscreenenter"",""1"",""3555""
","
","","","606.7000000476837","","","25","11610","5422","j","elianto","#3366ff99"," "," ","1","+10","[1462.3999999761581]","1","2","","","11610","134","9","1","win","go","0"
"pit-trial","253","1809472","0.0-139.0","battery-v0.2","","""event"",""trial"",""time""
""fullscreenenter"",""1"",""3555""
","
","
","""event"",""trial"",""time""
""fullscreenenter"",""1"",""3555""
","
","","","-1","","","25","11610","5422","w","elianto","#f73b6a7A"," ","-1","0","-10","[]","0","2","","","11610","135","6","3","lose","go","0"
"pit-trial","254","1813048","0.0-140.0","battery-v0.2","","""event"",""trial"",""time""
""fullscreenenter"",""1"",""3555""
","
","
","""event"",""trial"",""time""
""fullscreenenter"",""1"",""3555""
","
","","","710.2999999523163","","","25","11610","5422","e","elianto","#f73b6a7A","-1"," ","0","-10","[1569.5999999046326]","1","2","","","11610","136","7","4","lose","no-go","0"
"pit-trial","255","1816936","0.0-141.0","battery-v0.2","","""event"",""trial"",""time""
""fullscreenenter"",""1"",""3555""
","
","
","""event"",""trial"",""time""
""fullscreenenter"",""1"",""3555""
","
","","","1017.3000000715256","","","25","11610","5422","w","elianto","#f73b6a7A"," "," ","1","0","[1876.5]","1","2","","","11610","137","6","3","lose","go","0"
"pit-trial","256","1820374","0.0-142.0","battery-v0.2","","""event"",""trial"",""time""
""fullscreenenter"",""1"",""3555""
","
","
","""event"",""trial"",""time""
""fullscreenenter"",""1"",""3555""
","
","","","579.3999999761581","","","25","11610","5422","d","elianto","#3366ff99"," "," ","1","+10","[1433.6999999284744]","1","2","","","11610","138","8","1","win","go","0"
"pit-trial","257","1824153","0.0-143.0","battery-v0.2","","""event"",""trial"",""time""
""fullscreenenter"",""1"",""3555""
","
","
","""event"",""trial"",""time""
""fullscreenenter"",""1"",""3555""
","
","","","914.5","","","25","11610","5422","e","elianto","#f73b6a7A","-1"," ","0","-10","[1768.6000000238419]","1","2","","","11610","139","7","4","lose","no-go","0"
"pit-trial","258","1827496","0.0-144.0","battery-v0.2","","""event"",""trial"",""time""
""fullscreenenter"",""1"",""3555""
","
","
","""event"",""trial"",""time""
""fullscreenenter"",""1"",""3555""
","
","","","480.10000002384186","","","25","11610","5422","j","elianto","#3366ff99"," "," ","1","+10","[1338.3000000715256]","1","2","","","11610","140","9","1","win","go","0"
"pit-instructions","259","1882838","0.0-145.0","battery-v0.2","","""event"",""trial"",""time""
""fullscreenenter"",""1"",""3555""
","
","
","""event"",""trial"",""time""
""fullscreenenter"",""1"",""3555""
","
","","[{""page_index"":0,""viewing_time"":45271.40000009537},{""page_index"":1,""viewing_time"":10073.299999952316}]","55345.200000047684","","","","","","","","","","","","","","","","","","","","","","","",""
"pit-trial","260","1887159","0.0-146.0","battery-v0.2","","""event"",""trial"",""time""
""fullscreenenter"",""1"",""3555""
","
","
","""event"",""trial"",""time""
""fullscreenenter"",""1"",""3555""
","
","","","1445.2999999523163","","","25","11610","5422","n","elianto","#f73b6a7A","-1"," ","0","-10","[2297.5]","1","3","","","11610","141","0","4","lose","no-go","0"
"pit-trial","261","1890550","0.0-147.0","battery-v0.2","","""event"",""trial"",""time""
""fullscreenenter"",""1"",""3555""
","
","
","""event"",""trial"",""time""
""fullscreenenter"",""1"",""3555""
","
","","","535.6000000238419","","","25","11610","5422","t","elianto","#f73b6a7A","-1"," ","0","-10","[1388.2999999523163]","1","3","","","11610","142","2","4","lose","no-go","0"
"pit-trial","262","1894120","0.0-148.0","battery-v0.2","","""event"",""trial"",""time""
""fullscreenenter"",""1"",""3555""
","
","
","""event"",""trial"",""time""
""fullscreenenter"",""1"",""3555""
","
","","","694.7000000476837","","","25","11610","5422","b","elianto","#f73b6a7A"," "," ","1","-10","[1551]","1","3","","","11610","143","3","3","lose","go","1"
"pit-trial","263","1897940","0.0-149.0","battery-v0.2","","""event"",""trial"",""time""
""fullscreenenter"",""1"",""3555""
","
","
","""event"",""trial"",""time""
""fullscreenenter"",""1"",""3555""
","
","","","948.5","","","25","11610","5422","f","elianto","#3366ff99"," "," ","1","+10","[1804.1000000238419]","1","3","","","11610","144","1","1","win","go","0"
"pit-trial","264","1902820","0.0-150.0","battery-v0.2","","""event"",""trial"",""time""
""fullscreenenter"",""1"",""3555""
","
","
","""event"",""trial"",""time""
""fullscreenenter"",""1"",""3555""
","
","","","-1","","","25","11610","5422","b","elianto","#f73b6a7A"," ","-1","0","0","[]","0","3","","","11610","145","3","3","lose","go","1"
