"trial_type","trial_index","time_elapsed","internal_node_id","task_version","subject_id","interactions","blur_events","focus_events","fullscreenenter_events","fullscreenexit_events","success","view_history","rt","responses","num_errors","age","subject","participantId","rune","rune_set","hex","correct","choice","accuracy","outcome","keys","total_keys","block","practice","value","sub","trial","stimulus","robot","valence","action","sham"
"pavlovia","0","19","0.0-0.0","battery-v0.2","","""event"",""trial"",""time""
""fullscreenenter"",""1"",""39397""
","
","
","""event"",""trial"",""time""
""fullscreenenter"",""1"",""39397""
","
","","","","","","","","","","","","","","","","","","","","","","","","","","",""
"fullscreen","1","40393","0.0-1.0","battery-v0.2","","""event"",""trial"",""time""
""fullscreenenter"",""1"",""39397""
","
","
","""event"",""trial"",""time""
""fullscreenenter"",""1"",""39397""
","
","true","","","","","","","","","","","","","","","","","","","","","","","","","",""
"pit-instructions","2","46922","0.0-2.0-0.0","battery-v0.2","","""event"",""trial"",""time""
""fullscreenenter"",""1"",""39397""
","
","
","""event"",""trial"",""time""
""fullscreenenter"",""1"",""39397""
","
","","[{""page_index"":0,""viewing_time"":6524.299999999988}]","6524.699999999953","","","","","","","","","","","","","","","","","","","","","","","",""
"pit-comprehension","3","49668","0.0-2.0-1.0-0.0","battery-v0.2","","""event"",""trial"",""time""
""fullscreenenter"",""1"",""39397""
","
","
","""event"",""trial"",""time""
""fullscreenenter"",""1"",""39397""
","
","","","2741.9000000000233","[""shark""]","0","25","7689","3932","","","","","","","","","","","","","","","","","","",""
"pit-instructions","4","53672","0.0-2.0-1.0-1.0","battery-v0.2","","""event"",""trial"",""time""
""fullscreenenter"",""1"",""39397""
","
","
","""event"",""trial"",""time""
""fullscreenenter"",""1"",""39397""
","
","","[{""page_index"":0,""viewing_time"":3992.4000000000233}]","3992.7000000000116","","","","","","","","","","","","","","","","","","","","","","","",""
"pit-comprehension","5","57494","0.0-2.0-2.0-0.0","battery-v0.2","","""event"",""trial"",""time""
""fullscreenenter"",""1"",""39397""
","
","
","""event"",""trial"",""time""
""fullscreenenter"",""1"",""39397""
","
","","","3818.2999999999884","[""tiger""]","0","25","7689","3932","","","","","","","","","","","","","","","","","","",""
"pit-instructions","6","58961","0.0-2.0-2.0-1.0","battery-v0.2","","""event"",""trial"",""time""
""fullscreenenter"",""1"",""39397""
","
","
","""event"",""trial"",""time""
""fullscreenenter"",""1"",""39397""
","
","","[{""page_index"":0,""viewing_time"":1463.5}]","1464.3000000000466","","","","","","","","","","","","","","","","","","","","","","","",""
"pit-instructions","7","162618","0.0-2.0-3.0","battery-v0.2","","""event"",""trial"",""time""
""fullscreenenter"",""1"",""39397""
","
","
","""event"",""trial"",""time""
""fullscreenenter"",""1"",""39397""
","
","","[{""page_index"":0,""viewing_time"":7672.099999999977},{""page_index"":1,""viewing_time"":5840.600000000035},{""page_index"":2,""viewing_time"":6194.200000000012},{""page_index"":3,""viewing_time"":6280.799999999988},{""page_index"":4,""viewing_time"":7100.700000000012},{""page_index"":5,""viewing_time"":6529.5},{""page_index"":6,""viewing_time"":6582.599999999977},{""page_index"":7,""viewing_time"":11347.799999999988},{""page_index"":8,""viewing_time"":6448.900000000023},{""page_index"":9,""viewing_time"":9701.399999999965},{""page_index"":10,""viewing_time"":7070.100000000035},{""page_index"":11,""viewing_time"":7998.5},{""page_index"":12,""viewing_time"":8716.5},{""page_index"":13,""viewing_time"":6170.299999999988}]","103654.29999999999","","","","","","","","","","","","","","","","","","","","","","","",""
"pit-trial","8","166105","0.0-2.0-4.0-0.0","battery-v0.2","","""event"",""trial"",""time""
""fullscreenenter"",""1"",""39397""
","
","
","""event"",""trial"",""time""
""fullscreenenter"",""1"",""39397""
","
","","","628.5999999999767","","","25","7689","3932","&#9784;","elianto","#FFFFF080"," "," ","1","&#10004","[1480.8000000000466]","1","0","0","","","","","","","",""
"pit-trial","9","169591","0.0-2.0-4.1-0.1","battery-v0.2","","""event"",""trial"",""time""
""fullscreenenter"",""1"",""39397""
","
","
","""event"",""trial"",""time""
""fullscreenenter"",""1"",""39397""
","
","","","629.2999999999884","","","25","7689","3932","&#9784;","elianto","#FFFFF080"," "," ","1","&#10004","[1480.7999999999884]","1","0","0","","","","","","","",""
"pit-trial","10","172941","0.0-2.0-4.2-0.2","battery-v0.2","","""event"",""trial"",""time""
""fullscreenenter"",""1"",""39397""
","
","
","""event"",""trial"",""time""
""fullscreenenter"",""1"",""39397""
","
","","","477.69999999995343","","","25","7689","3932","&#9784;","elianto","#FFFFF080"," "," ","1","&#10004","[1333.6999999999534]","1","0","0","","","","","","","",""
"pit-trial","11","176296","0.0-2.0-4.3-0.3","battery-v0.2","","""event"",""trial"",""time""
""fullscreenenter"",""1"",""39397""
","
","
","""event"",""trial"",""time""
""fullscreenenter"",""1"",""39397""
","
","","","500.29999999998836","","","25","7689","3932","&#9784;","elianto","#FFFFF080"," "," ","1","&#10004","[1350.5999999999767]","1","0","0","","","","","","","",""
"pit-trial","12","179756","0.0-2.0-4.4-0.4","battery-v0.2","","""event"",""trial"",""time""
""fullscreenenter"",""1"",""39397""
","
","
","""event"",""trial"",""time""
""fullscreenenter"",""1"",""39397""
","
","","","592.0999999999767","","","25","7689","3932","&#9784;","elianto","#FFFFF080"," "," ","1","&#10004","[1450.4000000000233]","1","0","0","","","","","","","",""
"pit-instructions","13","206666","0.0-2.0-5.0","battery-v0.2","","""event"",""trial"",""time""
""fullscreenenter"",""1"",""39397""
","
","
","""event"",""trial"",""time""
""fullscreenenter"",""1"",""39397""
","
","","[{""page_index"":0,""viewing_time"":5960.400000000023},{""page_index"":1,""viewing_time"":6017.299999999988},{""page_index"":2,""viewing_time"":6051.299999999988},{""page_index"":3,""viewing_time"":8877.900000000023}]","26907.20000000001","","","","","","","","","","","","","","","","","","","","","","","",""
"pit-trial","14","211532","0.0-2.0-6.0-0.0","battery-v0.2","","""event"",""trial"",""time""
""fullscreenenter"",""1"",""39397""
","
","
","""event"",""trial"",""time""
""fullscreenenter"",""1"",""39397""
","
","","","-1","","","25","7689","3932","&#9854;","elianto","#FFFFF080","-1","-1","1","&#10004","[]","0","0","1","","","","","","","",""
"pit-trial","15","216403","0.0-2.0-6.1-0.1","battery-v0.2","","""event"",""trial"",""time""
""fullscreenenter"",""1"",""39397""
","
","
","""event"",""trial"",""time""
""fullscreenenter"",""1"",""39397""
","
","","","-1","","","25","7689","3932","&#9854;","elianto","#FFFFF080","-1","-1","1","&#10004","[]","0","0","1","","","","","","","",""
"pit-trial","16","221267","0.0-2.0-6.2-0.2","battery-v0.2","","""event"",""trial"",""time""
""fullscreenenter"",""1"",""39397""
","
","
","""event"",""trial"",""time""
""fullscreenenter"",""1"",""39397""
","
","","","-1","","","25","7689","3932","&#9854;","elianto","#FFFFF080","-1","-1","1","&#10004","[]","0","0","1","","","","","","","",""
"pit-trial","17","226138","0.0-2.0-6.3-0.3","battery-v0.2","","""event"",""trial"",""time""
""fullscreenenter"",""1"",""39397""
","
","
","""event"",""trial"",""time""
""fullscreenenter"",""1"",""39397""
","
","","","-1","","","25","7689","3932","&#9854;","elianto","#FFFFF080","-1","-1","1","&#10004","[]","0","0","1","","","","","","","",""
"pit-trial","18","231002","0.0-2.0-6.4-0.4","battery-v0.2","","""event"",""trial"",""time""
""fullscreenenter"",""1"",""39397""
","
","
","""event"",""trial"",""time""
""fullscreenenter"",""1"",""39397""
","
","","","-1","","","25","7689","3932","&#9854;","elianto","#FFFFF080","-1","-1","1","&#10004","[]","0","0","1","","","","","","","",""
"pit-instructions","19","356292","0.0-2.0-7.0","battery-v0.2","","""event"",""trial"",""time""
""fullscreenenter"",""1"",""39397""
","
","
","""event"",""trial"",""time""
""fullscreenenter"",""1"",""39397""
","
","","[{""page_index"":0,""viewing_time"":5731.400000000023},{""page_index"":1,""viewing_time"":8704},{""page_index"":2,""viewing_time"":7501.099999999977},{""page_index"":3,""viewing_time"":6269.600000000035},{""page_index"":4,""viewing_time"":6235.000000000029},{""page_index"":5,""viewing_time"":5699.599999999977},{""page_index"":6,""viewing_time"":5148.399999999907},{""page_index"":7,""viewing_time"":8389.900000000023},{""page_index"":8,""viewing_time"":6365.800000000047},{""page_index"":9,""viewing_time"":6896.699999999953},{""page_index"":10,""viewing_time"":6476.5},{""page_index"":11,""viewing_time"":8155.099999999977},{""page_index"":12,""viewing_time"":8899.20000000007},{""page_index"":13,""viewing_time"":7304.29999999993},{""page_index"":14,""viewing_time"":7898.900000000023},{""page_index"":15,""viewing_time"":6251.900000000023},{""page_index"":16,""viewing_time"":6759.199999999953},{""page_index"":17,""viewing_time"":6600}]","125286.99999999997","","","","","","","","","","","","","","","","","","","","","","","",""
"pit-trial","20","360947","0.0-2.0-8.0-0.0","battery-v0.2","","""event"",""trial"",""time""
""fullscreenenter"",""1"",""39397""
","
","
","""event"",""trial"",""time""
""fullscreenenter"",""1"",""39397""
","
","","","1794.8000000000466","","","25","7689","3932","&#9776;","elianto","#3366ff99"," "," ","1","+10","[2648.5]","1","0","1","","","","","","","",""
"pit-trial","21","364941","0.0-2.0-8.0-1.0","battery-v0.2","","""event"",""trial"",""time""
""fullscreenenter"",""1"",""39397""
","
","
","""event"",""trial"",""time""
""fullscreenenter"",""1"",""39397""
","
","","","1131.3999999999069","","","25","7689","3932","&#9776;","elianto","#3366ff99"," "," ","1","+10","[1986]","1","0","1","","","","","","","",""
"pit-trial","22","368354","0.0-2.0-8.0-2.0","battery-v0.2","","""event"",""trial"",""time""
""fullscreenenter"",""1"",""39397""
","
","
","""event"",""trial"",""time""
""fullscreenenter"",""1"",""39397""
","
","","","550","","","25","7689","3932","&#9776;","elianto","#3366ff99"," "," ","1","+10","[1402.9000000000233]","1","0","1","","","","","","","",""
"pit-trial","23","371849","0.0-2.0-8.0-3.0","battery-v0.2","","""event"",""trial"",""time""
""fullscreenenter"",""1"",""39397""
","
","
","""event"",""trial"",""time""
""fullscreenenter"",""1"",""39397""
","
","","","620.5","","","25","7689","3932","&#9776;","elianto","#3366ff99"," "," ","1","0","[1484.5]","1","0","1","","","","","","","",""
"pit-trial","24","375187","0.0-2.0-8.0-4.0","battery-v0.2","","""event"",""trial"",""time""
""fullscreenenter"",""1"",""39397""
","
","
","""event"",""trial"",""time""
""fullscreenenter"",""1"",""39397""
","
","","","469.69999999995343","","","25","7689","3932","&#9776;","elianto","#3366ff99"," "," ","1","+10","[1327.5999999999767]","1","0","1","","","","","","","",""
"pit-trial","25","378913","0.0-2.0-8.1-0.1","battery-v0.2","","""event"",""trial"",""time""
""fullscreenenter"",""1"",""39397""
","
","
","""event"",""trial"",""time""
""fullscreenenter"",""1"",""39397""
","
","","","858.8000000000466","","","25","7689","3932","&#9776;","elianto","#3366ff99"," "," ","1","+10","[1718.9000000000233]","1","0","1","","","","","","","",""
"pit-trial","26","382216","0.0-2.0-8.1-1.1","battery-v0.2","","""event"",""trial"",""time""
""fullscreenenter"",""1"",""39397""
","
","
","""event"",""trial"",""time""
""fullscreenenter"",""1"",""39397""
","
","","","445.5","","","25","7689","3932","&#9776;","elianto","#3366ff99"," "," ","1","+10","[1299.1000000000931]","1","0","1","","","","","","","",""
"pit-trial","27","385369","0.0-2.0-8.1-2.1","battery-v0.2","","""event"",""trial"",""time""
""fullscreenenter"",""1"",""39397""
","
","
","""event"",""trial"",""time""
""fullscreenenter"",""1"",""39397""
","
","","","289.5999999999767","","","25","7689","3932","&#9776;","elianto","#3366ff99"," "," ","1","+10","[1144.8000000000466]","1","0","1","","","","","","","",""
"pit-trial","28","388400","0.0-2.0-8.1-3.1","battery-v0.2","","""event"",""trial"",""time""
""fullscreenenter"",""1"",""39397""
","
","
","""event"",""trial"",""time""
""fullscreenenter"",""1"",""39397""
","
","","","174.19999999995343","","","25","7689","3932","&#9776;","elianto","#3366ff99"," "," ","1","0","[1027.6999999999534]","1","0","1","","","","","","","",""
"pit-trial","29","391482","0.0-2.0-8.1-4.1","battery-v0.2","","""event"",""trial"",""time""
""fullscreenenter"",""1"",""39397""
","
","
","""event"",""trial"",""time""
""fullscreenenter"",""1"",""39397""
","
","","","226.09999999997672","","","25","7689","3932","&#9776;","elianto","#3366ff99"," "," ","1","+10","[1076.4000000000233]","1","0","1","","","","","","","",""
"pit-trial","30","394425","0.0-2.0-8.2-0.2","battery-v0.2","","""event"",""trial"",""time""
""fullscreenenter"",""1"",""39397""
","
","
","""event"",""trial"",""time""
""fullscreenenter"",""1"",""39397""
","
","","","85","","","25","7689","3932","&#9776;","elianto","#3366ff99"," "," ","1","+10","[471.5,935.3000000000466,1703.4000000000233]","3","0","1","","","","","","","",""
"pit-trial","31","397322","0.0-2.0-8.2-1.2","battery-v0.2","","""event"",""trial"",""time""
""fullscreenenter"",""1"",""39397""
","
","
","""event"",""trial"",""time""
""fullscreenenter"",""1"",""39397""
","
","","","36.90000000002328","","","25","7689","3932","&#9776;","elianto","#3366ff99"," "," ","1","+10","[890.7000000000698]","1","0","1","","","","","","","",""
"pit-trial","32","400817","0.0-2.0-8.2-2.2","battery-v0.2","","""event"",""trial"",""time""
""fullscreenenter"",""1"",""39397""
","
","
","""event"",""trial"",""time""
""fullscreenenter"",""1"",""39397""
","
","","","638.3999999999069","","","25","7689","3932","&#9776;","elianto","#3366ff99"," "," ","1","+10","[788.5999999999767,1490.8999999999069]","2","0","1","","","","","","","",""
"pit-trial","33","403812","0.0-2.0-8.2-3.2","battery-v0.2","","""event"",""trial"",""time""
""fullscreenenter"",""1"",""39397""
","
","
","""event"",""trial"",""time""
""fullscreenenter"",""1"",""39397""
","
","","","125.69999999995343","","","25","7689","3932","&#9776;","elianto","#3366ff99"," "," ","1","0","[983.6999999999534]","1","0","1","","","","","","","",""
"pit-trial","34","406969","0.0-2.0-8.2-4.2","battery-v0.2","","""event"",""trial"",""time""
""fullscreenenter"",""1"",""39397""
","
","
","""event"",""trial"",""time""
""fullscreenenter"",""1"",""39397""
","
","","","292.5","","","25","7689","3932","&#9776;","elianto","#3366ff99"," "," ","1","+10","[1150.2999999999302]","1","0","1","","","","","","","",""
"call-function","35","406971","0.0-2.0-9.0","battery-v0.2","","""event"",""trial"",""time""
""fullscreenenter"",""1"",""39397""
","
","
","""event"",""trial"",""time""
""fullscreenenter"",""1"",""39397""
","
","","","","","","","","","","","","","","","","","","","","","","","","","","",""
"pit-instructions","36","447721","0.0-2.0-10.0","battery-v0.2","","""event"",""trial"",""time""
""fullscreenenter"",""1"",""39397""
","
","
","""event"",""trial"",""time""
""fullscreenenter"",""1"",""39397""
","
","","[{""page_index"":0,""viewing_time"":6371},{""page_index"":1,""viewing_time"":6884.5},{""page_index"":2,""viewing_time"":9162.199999999953},{""page_index"":3,""viewing_time"":10137.400000000023},{""page_index"":4,""viewing_time"":8193.79999999993}]","40749.19999999995","","","","","","","","","","","","","","","","","","","","","","","",""
"pit-trial","37","451067","0.0-2.0-11.0-0.0","battery-v0.2","","""event"",""trial"",""time""
""fullscreenenter"",""1"",""39397""
","
","
","""event"",""trial"",""time""
""fullscreenenter"",""1"",""39397""
","
","","","480.5","","","25","7689","3932","&#9761;","elianto","#3366ff99","-1"," ","0","0","[1333.2999999999302]","1","0","2","","","","","","","",""
"pit-trial","38","454218","0.0-2.0-11.0-1.0","battery-v0.2","","""event"",""trial"",""time""
""fullscreenenter"",""1"",""39397""
","
","
","""event"",""trial"",""time""
""fullscreenenter"",""1"",""39397""
","
","","","292.9000000000233","","","25","7689","3932","&#9761;","elianto","#3366ff99","-1"," ","0","0","[1145.6999999999534]","1","0","2","","","","","","","",""
"pit-trial","39","457248","0.0-2.0-11.0-2.0","battery-v0.2","","""event"",""trial"",""time""
""fullscreenenter"",""1"",""39397""
","
","
","""event"",""trial"",""time""
""fullscreenenter"",""1"",""39397""
","
","","","171.20000000006985","","","25","7689","3932","&#9761;","elianto","#3366ff99","-1"," ","0","0","[1026.2999999999302]","1","0","2","","","","","","","",""
"pit-trial","40","460256","0.0-2.0-11.0-3.0","battery-v0.2","","""event"",""trial"",""time""
""fullscreenenter"",""1"",""39397""
","
","
","""event"",""trial"",""time""
""fullscreenenter"",""1"",""39397""
","
","","","143.79999999993015","","","25","7689","3932","&#9761;","elianto","#3366ff99","-1"," ","0","+10","[1002.4000000000233]","1","0","2","","","","","","","",""
"pit-trial","41","463316","0.0-2.0-11.0-4.0","battery-v0.2","","""event"",""trial"",""time""
""fullscreenenter"",""1"",""39397""
","
","
","""event"",""trial"",""time""
""fullscreenenter"",""1"",""39397""
","
","","","192.29999999993015","","","25","7689","3932","&#9761;","elianto","#3366ff99","-1"," ","0","0","[1046,2104.5]","2","0","2","","","","","","","",""
"pit-trial","42","466450","0.0-2.0-11.1-0.1","battery-v0.2","","""event"",""trial"",""time""
""fullscreenenter"",""1"",""39397""
","
","
","""event"",""trial"",""time""
""fullscreenenter"",""1"",""39397""
","
","","","271.20000000006985","","","25","7689","3932","&#9761;","elianto","#3366ff99","-1"," ","0","0","[1121.5]","1","0","2","","","","","","","",""
"pit-trial","43","469536","0.0-2.0-11.1-1.1","battery-v0.2","","""event"",""trial"",""time""
""fullscreenenter"",""1"",""39397""
","
","
","""event"",""trial"",""time""
""fullscreenenter"",""1"",""39397""
","
","","","227.20000000006985","","","25","7689","3932","&#9761;","elianto","#3366ff99","-1"," ","0","0","[1080.5]","1","0","2","","","","","","","",""
"pit-trial","44","472528","0.0-2.0-11.1-2.1","battery-v0.2","","""event"",""trial"",""time""
""fullscreenenter"",""1"",""39397""
","
","
","""event"",""trial"",""time""
""fullscreenenter"",""1"",""39397""
","
","","","130.59999999997672","","","25","7689","3932","&#9761;","elianto","#3366ff99","-1"," ","0","0","[203.30000000004657,984.9000000000233,2206.8000000000466]","3","0","2","","","","","","","",""
"pit-trial","45","475994","0.0-2.0-11.1-3.1","battery-v0.2","","""event"",""trial"",""time""
""fullscreenenter"",""1"",""39397""
","
","
","""event"",""trial"",""time""
""fullscreenenter"",""1"",""39397""
","
","","","604.0999999999767","","","25","7689","3932","&#9761;","elianto","#3366ff99","-1"," ","0","+10","[1457.6999999999534]","1","0","2","","","","","","","",""
"pit-trial","46","479321","0.0-2.0-11.1-4.1","battery-v0.2","","""event"",""trial"",""time""
""fullscreenenter"",""1"",""39397""
","
","
","""event"",""trial"",""time""
""fullscreenenter"",""1"",""39397""
","
","","","464.29999999993015","","","25","7689","3932","&#9761;","elianto","#3366ff99","-1"," ","0","0","[1320.9000000000233]","1","0","2","","","","","","","",""
"pit-trial","47","482531","0.0-2.0-11.2-0.2","battery-v0.2","","""event"",""trial"",""time""
""fullscreenenter"",""1"",""39397""
","
","
","""event"",""trial"",""time""
""fullscreenenter"",""1"",""39397""
","
","","","347.30000000004657","","","25","7689","3932","&#9761;","elianto","#3366ff99","-1"," ","0","0","[1197.5]","1","0","2","","","","","","","",""
"pit-trial","48","485544","0.0-2.0-11.2-1.2","battery-v0.2","","""event"",""trial"",""time""
""fullscreenenter"",""1"",""39397""
","
","
","""event"",""trial"",""time""
""fullscreenenter"",""1"",""39397""
","
","","","152.70000000006985","","","25","7689","3932","&#9761;","elianto","#3366ff99","-1"," ","0","0","[1004.5999999999767]","1","0","2","","","","","","","",""
"pit-trial","49","488876","0.0-2.0-11.2-2.2","battery-v0.2","","""event"",""trial"",""time""
""fullscreenenter"",""1"",""39397""
","
","
","""event"",""trial"",""time""
""fullscreenenter"",""1"",""39397""
","
","","","462.19999999995343","","","25","7689","3932","&#9761;","elianto","#3366ff99","-1"," ","0","0","[1320,2498.1999999999534]","2","0","2","","","","","","","",""
"pit-trial","50","492184","0.0-2.0-11.2-3.2","battery-v0.2","","""event"",""trial"",""time""
""fullscreenenter"",""1"",""39397""
","
","
","""event"",""trial"",""time""
""fullscreenenter"",""1"",""39397""
","
","","","448.0999999999767","","","25","7689","3932","&#9761;","elianto","#3366ff99","-1"," ","0","+10","[1301,3269.5]","2","0","2","","","","","","","",""
"pit-trial","51","495447","0.0-2.0-11.2-4.2","battery-v0.2","","""event"",""trial"",""time""
""fullscreenenter"",""1"",""39397""
","
","
","""event"",""trial"",""time""
""fullscreenenter"",""1"",""39397""
","
","","","400.0999999999767","","","25","7689","3932","&#9761;","elianto","#3366ff99","-1"," ","0","0","[1258.5999999999767]","1","0","2","","","","","","","",""
"pit-trial","52","498524","0.0-2.0-11.3-0.3","battery-v0.2","","""event"",""trial"",""time""
""fullscreenenter"",""1"",""39397""
","
","
","""event"",""trial"",""time""
""fullscreenenter"",""1"",""39397""
","
","","","207.40000000002328","","","25","7689","3932","&#9761;","elianto","#3366ff99","-1"," ","0","0","[1064.7000000000698]","1","0","2","","","","","","","",""
"pit-trial","53","501752","0.0-2.0-11.3-1.3","battery-v0.2","","""event"",""trial"",""time""
""fullscreenenter"",""1"",""39397""
","
","
","""event"",""trial"",""time""
""fullscreenenter"",""1"",""39397""
","
","","","366.20000000006985","","","25","7689","3932","&#9761;","elianto","#3366ff99","-1"," ","0","0","[1218.2999999999302]","1","0","2","","","","","","","",""
"pit-trial","54","504776","0.0-2.0-11.3-2.3","battery-v0.2","","""event"",""trial"",""time""
""fullscreenenter"",""1"",""39397""
","
","
","""event"",""trial"",""time""
""fullscreenenter"",""1"",""39397""
","
","","","163","","","25","7689","3932","&#9761;","elianto","#3366ff99","-1"," ","0","0","[1020.5]","1","0","2","","","","","","","",""
"pit-trial","55","508015","0.0-2.0-11.3-3.3","battery-v0.2","","""event"",""trial"",""time""
""fullscreenenter"",""1"",""39397""
","
","
","""event"",""trial"",""time""
""fullscreenenter"",""1"",""39397""
","
","","","366.70000000006985","","","25","7689","3932","&#9761;","elianto","#3366ff99","-1"," ","0","+10","[1235.7000000000698]","1","0","2","","","","","","","",""
"pit-trial","56","511296","0.0-2.0-11.3-4.3","battery-v0.2","","""event"",""trial"",""time""
""fullscreenenter"",""1"",""39397""
","
","
","""event"",""trial"",""time""
""fullscreenenter"",""1"",""39397""
","
","","","424.9000000000233","","","25","7689","3932","&#9761;","elianto","#3366ff99","-1"," ","0","0","[1275.2000000000698]","1","0","2","","","","","","","",""
"call-function","57","511298","0.0-2.0-12.0","battery-v0.2","","""event"",""trial"",""time""
""fullscreenenter"",""1"",""39397""
","
","
","""event"",""trial"",""time""
""fullscreenenter"",""1"",""39397""
","
","","","","","","","","","","","","","","","","","","","","","","","","","","",""
"pit-instructions","58","545341","0.0-2.0-13.0","battery-v0.2","","""event"",""trial"",""time""
""fullscreenenter"",""1"",""39397""
","
","
","""event"",""trial"",""time""
""fullscreenenter"",""1"",""39397""
","
","","[{""page_index"":0,""viewing_time"":5424.300000000047},{""page_index"":1,""viewing_time"":6764.599999999977},{""page_index"":2,""viewing_time"":4743.5},{""page_index"":3,""viewing_time"":10975.199999999953},{""page_index"":4,""viewing_time"":6134.600000000093}]","34042.80000000005","","","","","","","","","","","","","","","","","","","","","","","",""
"pit-trial","59","550209","0.0-2.0-14.0-0.0","battery-v0.2","","""event"",""trial"",""time""
""fullscreenenter"",""1"",""39397""
","
","
","""event"",""trial"",""time""
""fullscreenenter"",""1"",""39397""
","
","","","-1","","","25","7689","3932","&#9826;","elianto","#f73b6a7A","-1","-1","1","0","[]","0","0","3","","","","","","","",""
"pit-trial","60","555074","0.0-2.0-14.0-1.0","battery-v0.2","","""event"",""trial"",""time""
""fullscreenenter"",""1"",""39397""
","
","
","""event"",""trial"",""time""
""fullscreenenter"",""1"",""39397""
","
","","","-1","","","25","7689","3932","&#9826;","elianto","#f73b6a7A","-1","-1","1","0","[]","0","0","3","","","","","","","",""
"pit-trial","61","559938","0.0-2.0-14.0-2.0","battery-v0.2","","""event"",""trial"",""time""
""fullscreenenter"",""1"",""39397""
","
","
","""event"",""trial"",""time""
""fullscreenenter"",""1"",""39397""
","
","","","-1","","","25","7689","3932","&#9826;","elianto","#f73b6a7A","-1","-1","1","0","[]","0","0","3","","","","","","","",""
"pit-trial","62","564803","0.0-2.0-14.0-3.0","battery-v0.2","","""event"",""trial"",""time""
""fullscreenenter"",""1"",""39397""
","
","
","""event"",""trial"",""time""
""fullscreenenter"",""1"",""39397""
","
","","","-1","","","25","7689","3932","&#9826;","elianto","#f73b6a7A","-1","-1","1","-10","[]","0","0","3","","","","","","","",""
"pit-trial","63","569668","0.0-2.0-14.0-4.0","battery-v0.2","","""event"",""trial"",""time""
""fullscreenenter"",""1"",""39397""
","
","
","""event"",""trial"",""time""
""fullscreenenter"",""1"",""39397""
","
","","","-1","","","25","7689","3932","&#9826;","elianto","#f73b6a7A","-1","-1","1","0","[]","0","0","3","","","","","","","",""
"pit-trial","64","573104","0.0-2.0-14.1-0.1","battery-v0.2","","""event"",""trial"",""time""
""fullscreenenter"",""1"",""39397""
","
","
","""event"",""trial"",""time""
""fullscreenenter"",""1"",""39397""
","
","","","567.8000000000466","","","25","7689","3932","&#9826;","elianto","#f73b6a7A","-1"," ","0","-10","[1426.7000000000698]","1","0","3","","","","","","","",""
"pit-trial","65","576305","0.0-2.0-14.1-1.1","battery-v0.2","","""event"",""trial"",""time""
""fullscreenenter"",""1"",""39397""
","
","
","""event"",""trial"",""time""
""fullscreenenter"",""1"",""39397""
","
","","","340.0999999999767","","","25","7689","3932","&#9826;","elianto","#f73b6a7A","-1"," ","0","-10","[1194.3999999999069]","1","0","3","","","","","","","",""
"pit-trial","66","579561","0.0-2.0-14.1-2.1","battery-v0.2","","""event"",""trial"",""time""
""fullscreenenter"",""1"",""39397""
","
","
","""event"",""trial"",""time""
""fullscreenenter"",""1"",""39397""
","
","","","389","","","25","7689","3932","&#9826;","elianto","#f73b6a7A","-1"," ","0","-10","[1246.8000000000466]","1","0","3","","","","","","","",""
"pit-trial","67","582876","0.0-2.0-14.1-3.1","battery-v0.2","","""event"",""trial"",""time""
""fullscreenenter"",""1"",""39397""
","
","
","""event"",""trial"",""time""
""fullscreenenter"",""1"",""39397""
","
","","","451.30000000004657","","","25","7689","3932","&#9826;","elianto","#f73b6a7A","-1"," ","0","0","[1306.2000000000698]","1","0","3","","","","","","","",""
"pit-trial","68","587746","0.0-2.0-14.1-4.1","battery-v0.2","","""event"",""trial"",""time""
""fullscreenenter"",""1"",""39397""
","
","
","""event"",""trial"",""time""
""fullscreenenter"",""1"",""39397""
","
","","","-1","","","25","7689","3932","&#9826;","elianto","#f73b6a7A","-1","-1","1","0","[]","0","0","3","","","","","","","",""
"pit-trial","69","592611","0.0-2.0-14.2-0.2","battery-v0.2","","""event"",""trial"",""time""
""fullscreenenter"",""1"",""39397""
","
","
","""event"",""trial"",""time""
""fullscreenenter"",""1"",""39397""
","
","","","-1","","","25","7689","3932","&#9826;","elianto","#f73b6a7A","-1","-1","1","0","[]","0","0","3","","","","","","","",""
"pit-trial","70","597476","0.0-2.0-14.2-1.2","battery-v0.2","","""event"",""trial"",""time""
""fullscreenenter"",""1"",""39397""
","
","
","""event"",""trial"",""time""
""fullscreenenter"",""1"",""39397""
","
","","","-1","","","25","7689","3932","&#9826;","elianto","#f73b6a7A","-1","-1","1","0","[]","0","0","3","","","","","","","",""
"pit-trial","71","602340","0.0-2.0-14.2-2.2","battery-v0.2","","""event"",""trial"",""time""
""fullscreenenter"",""1"",""39397""
","
","
","""event"",""trial"",""time""
""fullscreenenter"",""1"",""39397""
","
","","","-1","","","25","7689","3932","&#9826;","elianto","#f73b6a7A","-1","-1","1","0","[]","0","0","3","","","","","","","",""
"pit-trial","72","607211","0.0-2.0-14.2-3.2","battery-v0.2","","""event"",""trial"",""time""
""fullscreenenter"",""1"",""39397""
","
","
","""event"",""trial"",""time""
""fullscreenenter"",""1"",""39397""
","
","","","-1","","","25","7689","3932","&#9826;","elianto","#f73b6a7A","-1","-1","1","-10","[]","0","0","3","","","","","","","",""
"pit-trial","73","612075","0.0-2.0-14.2-4.2","battery-v0.2","","""event"",""trial"",""time""
""fullscreenenter"",""1"",""39397""
","
","
","""event"",""trial"",""time""
""fullscreenenter"",""1"",""39397""
","
","","","-1","","","25","7689","3932","&#9826;","elianto","#f73b6a7A","-1","-1","1","0","[]","0","0","3","","","","","","","",""
"pit-trial","74","616940","0.0-2.0-14.3-0.3","battery-v0.2","","""event"",""trial"",""time""
""fullscreenenter"",""1"",""39397""
","
","
","""event"",""trial"",""time""
""fullscreenenter"",""1"",""39397""
","
","","","-1","","","25","7689","3932","&#9826;","elianto","#f73b6a7A","-1","-1","1","0","[]","0","0","3","","","","","","","",""
"pit-trial","75","621804","0.0-2.0-14.3-1.3","battery-v0.2","","""event"",""trial"",""time""
""fullscreenenter"",""1"",""39397""
","
","
","""event"",""trial"",""time""
""fullscreenenter"",""1"",""39397""
","
","","","-1","","","25","7689","3932","&#9826;","elianto","#f73b6a7A","-1","-1","1","0","[]","0","0","3","","","","","","","",""
"pit-trial","76","626675","0.0-2.0-14.3-2.3","battery-v0.2","","""event"",""trial"",""time""
""fullscreenenter"",""1"",""39397""
","
","
","""event"",""trial"",""time""
""fullscreenenter"",""1"",""39397""
","
","","","-1","","","25","7689","3932","&#9826;","elianto","#f73b6a7A","-1","-1","1","0","[]","0","0","3","","","","","","","",""
"pit-trial","77","631539","0.0-2.0-14.3-3.3","battery-v0.2","","""event"",""trial"",""time""
""fullscreenenter"",""1"",""39397""
","
","
","""event"",""trial"",""time""
""fullscreenenter"",""1"",""39397""
","
","","","-1","","","25","7689","3932","&#9826;","elianto","#f73b6a7A","-1","-1","1","-10","[]","0","0","3","","","","","","","",""
"pit-trial","78","636404","0.0-2.0-14.3-4.3","battery-v0.2","","""event"",""trial"",""time""
""fullscreenenter"",""1"",""39397""
","
","
","""event"",""trial"",""time""
""fullscreenenter"",""1"",""39397""
","
","","","-1","","","25","7689","3932","&#9826;","elianto","#f73b6a7A","-1","-1","1","0","[]","0","0","3","","","","","","","",""
"call-function","79","636405","0.0-2.0-15.0","battery-v0.2","","""event"",""trial"",""time""
""fullscreenenter"",""1"",""39397""
","
","
","""event"",""trial"",""time""
""fullscreenenter"",""1"",""39397""
","
","","","","","","","","","","","","","","","","","","","","","","","","","","",""
"pit-instructions","80","660692","0.0-2.0-16.0","battery-v0.2","","""event"",""trial"",""time""
""fullscreenenter"",""1"",""39397""
","
","
","""event"",""trial"",""time""
""fullscreenenter"",""1"",""39397""
","
","","[{""page_index"":0,""viewing_time"":7148},{""page_index"":1,""viewing_time"":8568.5},{""page_index"":2,""viewing_time"":4173},{""page_index"":3,""viewing_time"":4396.300000000047}]","24286.099999999977","","","","","","","","","","","","","","","","","","","","","","","",""
"pit-trial","81","664232","0.0-2.0-17.0-0.0","battery-v0.2","","""event"",""trial"",""time""
""fullscreenenter"",""1"",""39397""
","
","
","""event"",""trial"",""time""
""fullscreenenter"",""1"",""39397""
","
","","","680.6999999999534","","","25","7689","3932","&#9789;","elianto","#f73b6a7A"," "," ","1","0","[1536.5999999999767]","1","0","4","","","","","","","",""
"pit-trial","82","667948","0.0-2.0-17.0-1.0","battery-v0.2","","""event"",""trial"",""time""
""fullscreenenter"",""1"",""39397""
","
","
","""event"",""trial"",""time""
""fullscreenenter"",""1"",""39397""
","
","","","848.8999999999069","","","25","7689","3932","&#9789;","elianto","#f73b6a7A"," "," ","1","0","[1705.7999999999302]","1","0","4","","","","","","","",""
"pit-trial","83","671217","0.0-2.0-17.0-2.0","battery-v0.2","","""event"",""trial"",""time""
""fullscreenenter"",""1"",""39397""
","
","
","""event"",""trial"",""time""
""fullscreenenter"",""1"",""39397""
","
","","","406.4000000000233","","","25","7689","3932","&#9789;","elianto","#f73b6a7A"," "," ","1","0","[1258.5]","1","0","4","","","","","","","",""
"pit-trial","84","674351","0.0-2.0-17.0-3.0","battery-v0.2","","""event"",""trial"",""time""
""fullscreenenter"",""1"",""39397""
","
","
","""event"",""trial"",""time""
""fullscreenenter"",""1"",""39397""
","
","","","278","","","25","7689","3932","&#9789;","elianto","#f73b6a7A"," "," ","1","-10","[1130.2000000000698]","1","0","4","","","","","","","",""
"pit-trial","85","677504","0.0-2.0-17.0-4.0","battery-v0.2","","""event"",""trial"",""time""
""fullscreenenter"",""1"",""39397""
","
","
","""event"",""trial"",""time""
""fullscreenenter"",""1"",""39397""
","
","","","287.0999999999767","","","25","7689","3932","&#9789;","elianto","#f73b6a7A"," "," ","1","0","[1143.4000000000233]","1","0","4","","","","","","","",""
"pit-trial","86","682368","0.0-2.0-17.1-0.1","battery-v0.2","","""event"",""trial"",""time""
""fullscreenenter"",""1"",""39397""
","
","
","""event"",""trial"",""time""
""fullscreenenter"",""1"",""39397""
","
","","","-1","","","25","7689","3932","&#9789;","elianto","#f73b6a7A"," ","-1","0","-10","[]","0","0","4","","","","","","","",""
"pit-trial","87","687233","0.0-2.0-17.1-1.1","battery-v0.2","","""event"",""trial"",""time""
""fullscreenenter"",""1"",""39397""
","
","
","""event"",""trial"",""time""
""fullscreenenter"",""1"",""39397""
","
","","","-1","","","25","7689","3932","&#9789;","elianto","#f73b6a7A"," ","-1","0","-10","[]","0","0","4","","","","","","","",""
"pit-trial","88","692099","0.0-2.0-17.1-2.1","battery-v0.2","","""event"",""trial"",""time""
""fullscreenenter"",""1"",""39397""
","
","
","""event"",""trial"",""time""
""fullscreenenter"",""1"",""39397""
","
","","","-1","","","25","7689","3932","&#9789;","elianto","#f73b6a7A"," ","-1","0","-10","[]","0","0","4","","","","","","","",""
"pit-trial","89","696964","0.0-2.0-17.1-3.1","battery-v0.2","","""event"",""trial"",""time""
""fullscreenenter"",""1"",""39397""
","
","
","""event"",""trial"",""time""
""fullscreenenter"",""1"",""39397""
","
","","","-1","","","25","7689","3932","&#9789;","elianto","#f73b6a7A"," ","-1","0","0","[]","0","0","4","","","","","","","",""
"pit-trial","90","701834","0.0-2.0-17.1-4.1","battery-v0.2","","""event"",""trial"",""time""
""fullscreenenter"",""1"",""39397""
","
","
","""event"",""trial"",""time""
""fullscreenenter"",""1"",""39397""
","
","","","-1","","","25","7689","3932","&#9789;","elianto","#f73b6a7A"," ","-1","0","-10","[]","0","0","4","","","","","","","",""
"pit-trial","91","706699","0.0-2.0-17.2-0.2","battery-v0.2","","""event"",""trial"",""time""
""fullscreenenter"",""1"",""39397""
","
","
","""event"",""trial"",""time""
""fullscreenenter"",""1"",""39397""
","
","","","-1","","","25","7689","3932","&#9789;","elianto","#f73b6a7A"," ","-1","0","-10","[]","0","0","4","","","","","","","",""
"pit-trial","92","711563","0.0-2.0-17.2-1.2","battery-v0.2","","""event"",""trial"",""time""
""fullscreenenter"",""1"",""39397""
","
","
","""event"",""trial"",""time""
""fullscreenenter"",""1"",""39397""
","
","","","-1","","","25","7689","3932","&#9789;","elianto","#f73b6a7A"," ","-1","0","-10","[]","0","0","4","","","","","","","",""
"pit-trial","93","716428","0.0-2.0-17.2-2.2","battery-v0.2","","""event"",""trial"",""time""
""fullscreenenter"",""1"",""39397""
","
","
","""event"",""trial"",""time""
""fullscreenenter"",""1"",""39397""
","
","","","-1","","","25","7689","3932","&#9789;","elianto","#f73b6a7A"," ","-1","0","-10","[]","0","0","4","","","","","","","",""
"pit-trial","94","721298","0.0-2.0-17.2-3.2","battery-v0.2","","""event"",""trial"",""time""
""fullscreenenter"",""1"",""39397""
","
","
","""event"",""trial"",""time""
""fullscreenenter"",""1"",""39397""
","
","","","-1","","","25","7689","3932","&#9789;","elianto","#f73b6a7A"," ","-1","0","0","[]","0","0","4","","","","","","","",""
"pit-trial","95","726163","0.0-2.0-17.2-4.2","battery-v0.2","","""event"",""trial"",""time""
""fullscreenenter"",""1"",""39397""
","
","
","""event"",""trial"",""time""
""fullscreenenter"",""1"",""39397""
","
","","","-1","","","25","7689","3932","&#9789;","elianto","#f73b6a7A"," ","-1","0","-10","[]","0","0","4","","","","","","","",""
"pit-trial","96","731028","0.0-2.0-17.3-0.3","battery-v0.2","","""event"",""trial"",""time""
""fullscreenenter"",""1"",""39397""
","
","
","""event"",""trial"",""time""
""fullscreenenter"",""1"",""39397""
","
","","","-1","","","25","7689","3932","&#9789;","elianto","#f73b6a7A"," ","-1","0","-10","[]","0","0","4","","","","","","","",""
"pit-trial","97","735892","0.0-2.0-17.3-1.3","battery-v0.2","","""event"",""trial"",""time""
""fullscreenenter"",""1"",""39397""
","
","
","""event"",""trial"",""time""
""fullscreenenter"",""1"",""39397""
","
","","","-1","","","25","7689","3932","&#9789;","elianto","#f73b6a7A"," ","-1","0","-10","[]","0","0","4","","","","","","","",""
"pit-trial","98","740762","0.0-2.0-17.3-2.3","battery-v0.2","","""event"",""trial"",""time""
""fullscreenenter"",""1"",""39397""
","
","
","""event"",""trial"",""time""
""fullscreenenter"",""1"",""39397""
","
","","","-1","","","25","7689","3932","&#9789;","elianto","#f73b6a7A"," ","-1","0","-10","[]","0","0","4","","","","","","","",""
"pit-trial","99","745627","0.0-2.0-17.3-3.3","battery-v0.2","","""event"",""trial"",""time""
""fullscreenenter"",""1"",""39397""
","
","
","""event"",""trial"",""time""
""fullscreenenter"",""1"",""39397""
","
","","","-1","","","25","7689","3932","&#9789;","elianto","#f73b6a7A"," ","-1","0","0","[]","0","0","4","","","","","","","",""
"pit-trial","100","750492","0.0-2.0-17.3-4.3","battery-v0.2","","""event"",""trial"",""time""
""fullscreenenter"",""1"",""39397""
","
","
","""event"",""trial"",""time""
""fullscreenenter"",""1"",""39397""
","
","","","-1","","","25","7689","3932","&#9789;","elianto","#f73b6a7A"," ","-1","0","-10","[]","0","0","4","","","","","","","",""
"call-function","101","750493","0.0-2.0-18.0","battery-v0.2","","""event"",""trial"",""time""
""fullscreenenter"",""1"",""39397""
","
","
","""event"",""trial"",""time""
""fullscreenenter"",""1"",""39397""
","
","","","","","","","","","","","","","","","","","","","","","","","","","","",""
"pit-instructions","102","822312","0.0-2.0-19.0","battery-v0.2","","""event"",""trial"",""time""
""fullscreenenter"",""1"",""39397""
","
","
","""event"",""trial"",""time""
""fullscreenenter"",""1"",""39397""
","
","","[{""page_index"":0,""viewing_time"":6901.599999999977},{""page_index"":1,""viewing_time"":5751.599999999977},{""page_index"":2,""viewing_time"":14844.5},{""page_index"":3,""viewing_time"":7885.800000000047},{""page_index"":4,""viewing_time"":8662},{""page_index"":5,""viewing_time"":8253.800000000047},{""page_index"":6,""viewing_time"":8528.899999999907},{""page_index"":7,""viewing_time"":6741.5},{""page_index"":8,""viewing_time"":4240.800000000047}]","71810.80000000005","","","","","","","","","","","","","","","","","","","","","","","",""
"pit-comprehension","103","826853","0.0-2.0-20.0-0.0","battery-v0.2","","""event"",""trial"",""time""
""fullscreenenter"",""1"",""39397""
","
","
","""event"",""trial"",""time""
""fullscreenenter"",""1"",""39397""
","
","","","4538","[""SPACE""]","0","25","7689","3932","","","","","","","","","","","","","","","","","","",""
"pit-instructions","104","829789","0.0-2.0-20.0-1.0","battery-v0.2","","""event"",""trial"",""time""
""fullscreenenter"",""1"",""39397""
","
","
","""event"",""trial"",""time""
""fullscreenenter"",""1"",""39397""
","
","","[{""page_index"":0,""viewing_time"":2901.8000000000466}]","2902.5","","","","","","","","","","","","","","","","","","","","","","","",""
"pit-comprehension","105","839634","0.0-2.0-21.0-0.0","battery-v0.2","","""event"",""trial"",""time""
""fullscreenenter"",""1"",""39397""
","
","
","""event"",""trial"",""time""
""fullscreenenter"",""1"",""39397""
","
","","","9842.5","[""10""]","0","25","7689","3932","","","","","","","","","","","","","","","","","","",""
"pit-instructions","106","841564","0.0-2.0-21.0-1.0","battery-v0.2","","""event"",""trial"",""time""
""fullscreenenter"",""1"",""39397""
","
","
","""event"",""trial"",""time""
""fullscreenenter"",""1"",""39397""
","
","","[{""page_index"":0,""viewing_time"":1892.1999999999534}]","1892.6000000000931","","","","","","","","","","","","","","","","","","","","","","","",""
"pit-comprehension","107","852445","0.0-2.0-22.0-0.0","battery-v0.2","","""event"",""trial"",""time""
""fullscreenenter"",""1"",""39397""
","
","
","""event"",""trial"",""time""
""fullscreenenter"",""1"",""39397""
","
","","","10878.300000000047","[""0""]","0","25","7689","3932","","","","","","","","","","","","","","","","","","",""
"pit-instructions","108","854304","0.0-2.0-22.0-1.0","battery-v0.2","","""event"",""trial"",""time""
""fullscreenenter"",""1"",""39397""
","
","
","""event"",""trial"",""time""
""fullscreenenter"",""1"",""39397""
","
","","[{""page_index"":0,""viewing_time"":1825.3000000000466}]","1825.7000000001863","","","","","","","","","","","","","","","","","","","","","","","",""
"pit-comprehension","109","863742","0.0-2.0-23.0-0.0","battery-v0.2","","""event"",""trial"",""time""
""fullscreenenter"",""1"",""39397""
","
","
","""event"",""trial"",""time""
""fullscreenenter"",""1"",""39397""
","
","","","9435.299999999814","[""True""]","0","25","7689","3932","","","","","","","","","","","","","","","","","","",""
"pit-instructions","110","865896","0.0-2.0-23.0-1.0","battery-v0.2","","""event"",""trial"",""time""
""fullscreenenter"",""1"",""39397""
","
","
","""event"",""trial"",""time""
""fullscreenenter"",""1"",""39397""
","
","","[{""page_index"":0,""viewing_time"":2119.8000000000466}]","2120.0999999998603","","","","","","","","","","","","","","","","","","","","","","","",""
"pit-comprehension","111","876730","0.0-2.0-24.0-0.0","battery-v0.2","","""event"",""trial"",""time""
""fullscreenenter"",""1"",""39397""
","
","
","""event"",""trial"",""time""
""fullscreenenter"",""1"",""39397""
","
","","","10830.800000000047","[""True""]","0","25","7689","3932","","","","","","","","","","","","","","","","","","",""
"pit-instructions","112","878591","0.0-2.0-24.0-1.0","battery-v0.2","","""event"",""trial"",""time""
""fullscreenenter"",""1"",""39397""
","
","
","""event"",""trial"",""time""
""fullscreenenter"",""1"",""39397""
","
","","[{""page_index"":0,""viewing_time"":1822.1999999999534}]","1822.6999999999534","","","","","","","","","","","","","","","","","","","","","","","",""
"pit-comprehension","113","886019","0.0-2.0-25.0-0.0","battery-v0.2","","""event"",""trial"",""time""
""fullscreenenter"",""1"",""39397""
","
","
","""event"",""trial"",""time""
""fullscreenenter"",""1"",""39397""
","
","","","7424.699999999953","[""True""]","0","25","7689","3932","","","","","","","","","","","","","","","","","","",""
"pit-instructions","114","888097","0.0-2.0-25.0-1.0","battery-v0.2","","""event"",""trial"",""time""
""fullscreenenter"",""1"",""39397""
","
","
","""event"",""trial"",""time""
""fullscreenenter"",""1"",""39397""
","
","","[{""page_index"":0,""viewing_time"":2043.5}]","2044.1000000000931","","","","","","","","","","","","","","","","","","","","","","","",""
"pit-comprehension","115","896929","0.0-2.0-26.0-0.0","battery-v0.2","","""event"",""trial"",""time""
""fullscreenenter"",""1"",""39397""
","
","
","""event"",""trial"",""time""
""fullscreenenter"",""1"",""39397""
","
","","","8829.399999999907","[""False""]","0","25","7689","3932","","","","","","","","","","","","","","","","","","",""
"pit-instructions","116","899252","0.0-2.0-26.0-1.0","battery-v0.2","","""event"",""trial"",""time""
""fullscreenenter"",""1"",""39397""
","
","
","""event"",""trial"",""time""
""fullscreenenter"",""1"",""39397""
","
","","[{""page_index"":0,""viewing_time"":2287.1999999999534}]","2287.5999999998603","","","","","","","","","","","","","","","","","","","","","","","",""
"pit-instructions","117","916873","0.0-3.0","battery-v0.2","","""event"",""trial"",""time""
""fullscreenenter"",""1"",""39397""
","
","
","""event"",""trial"",""time""
""fullscreenenter"",""1"",""39397""
","
","","[{""page_index"":0,""viewing_time"":4088.6999999999534},{""page_index"":1,""viewing_time"":5751.699999999953},{""page_index"":2,""viewing_time"":7778.600000000093}]","17619.300000000047","","","","","","","","","","","","","","","","","","","","","","","",""
"pit-trial","118","921745","0.0-4.0","battery-v0.2","","""event"",""trial"",""time""
""fullscreenenter"",""1"",""39397""
","
","
","""event"",""trial"",""time""
""fullscreenenter"",""1"",""39397""
","
","","","-1","","","25","7689","3932","&#9752;","elianto","#f73b6a7A"," ","-1","0","-10","[]","0","1","","","7689","1","3","3","lose","go","0"
"pit-trial","119","925424","0.0-5.0","battery-v0.2","","""event"",""trial"",""time""
""fullscreenenter"",""1"",""39397""
","
","
","""event"",""trial"",""time""
""fullscreenenter"",""1"",""39397""
","
","","","816.8000000000466","","","25","7689","3932","&#9733;","elianto","#3366ff99","-1"," ","0","0","[1674.6999999999534]","1","1","","","7689","2","2","2","win","no-go","0"
"pit-trial","120","929156","0.0-6.0","battery-v0.2","","""event"",""trial"",""time""
""fullscreenenter"",""1"",""39397""
","
","
","""event"",""trial"",""time""
""fullscreenenter"",""1"",""39397""
","
","","","865.8999999999069","","","25","7689","3932","&#9730;","elianto","#3366ff99"," "," ","1","+10","[1718.8000000000466]","1","1","","","7689","3","1","1","win","go","0"
"pit-trial","121","934028","0.0-7.0","battery-v0.2","","""event"",""trial"",""time""
""fullscreenenter"",""1"",""39397""
","
","
","""event"",""trial"",""time""
""fullscreenenter"",""1"",""39397""
","
","","","-1","","","25","7689","3932","&#9728;","elianto","#f73b6a7A","-1","-1","1","0","[]","0","1","","","7689","4","0","4","lose","no-go","0"
"pit-trial","122","937539","0.0-8.0","battery-v0.2","","""event"",""trial"",""time""
""fullscreenenter"",""1"",""39397""
","
","
","""event"",""trial"",""time""
""fullscreenenter"",""1"",""39397""
","
","","","649","","","25","7689","3932","&#9733;","elianto","#3366ff99","-1"," ","0","0","[1501.3000000000466]","1","1","","","7689","5","2","2","win","no-go","0"
"pit-trial","123","942403","0.0-9.0","battery-v0.2","","""event"",""trial"",""time""
""fullscreenenter"",""1"",""39397""
","
","
","""event"",""trial"",""time""
""fullscreenenter"",""1"",""39397""
","
","","","-1","","","25","7689","3932","&#9728;","elianto","#f73b6a7A","-1","-1","1","0","[]","0","1","","","7689","6","0","4","lose","no-go","0"
"pit-trial","124","947263","0.0-10.0","battery-v0.2","","""event"",""trial"",""time""
""fullscreenenter"",""1"",""39397""
","
","
","""event"",""trial"",""time""
""fullscreenenter"",""1"",""39397""
","
","","","-1","","","25","7689","3932","&#9752;","elianto","#f73b6a7A"," ","-1","0","-10","[]","0","1","","","7689","7","3","3","lose","go","0"
"pit-trial","125","950728","0.0-11.0","battery-v0.2","","""event"",""trial"",""time""
""fullscreenenter"",""1"",""39397""
","
","
","""event"",""trial"",""time""
""fullscreenenter"",""1"",""39397""
","
","","","597.9000000001397","","","25","7689","3932","&#9730;","elianto","#3366ff99"," "," ","1","+10","[1454.3999999999069]","1","1","","","7689","8","1","1","win","go","0"
"pit-trial","126","954392","0.0-12.0","battery-v0.2","","""event"",""trial"",""time""
""fullscreenenter"",""1"",""39397""
","
","
","""event"",""trial"",""time""
""fullscreenenter"",""1"",""39397""
","
","","","805.8999999999069","","","25","7689","3932","&#9730;","elianto","#3366ff99"," "," ","1","+10","[1656.8999999999069]","1","1","","","7689","9","1","1","win","go","0"
"pit-trial","127","959256","0.0-13.0","battery-v0.2","","""event"",""trial"",""time""
""fullscreenenter"",""1"",""39397""
","
","
","""event"",""trial"",""time""
""fullscreenenter"",""1"",""39397""
","
","","","-1","","","25","7689","3932","&#9752;","elianto","#f73b6a7A"," ","-1","0","-10","[]","0","1","","","7689","10","3","3","lose","go","0"
"pit-trial","128","964121","0.0-14.0","battery-v0.2","","""event"",""trial"",""time""
""fullscreenenter"",""1"",""39397""
","
","
","""event"",""trial"",""time""
""fullscreenenter"",""1"",""39397""
","
","","","-1","","","25","7689","3932","&#9728;","elianto","#f73b6a7A","-1","-1","1","0","[]","0","1","","","7689","11","0","4","lose","no-go","0"
"pit-trial","129","968138","0.0-15.0","battery-v0.2","","""event"",""trial"",""time""
""fullscreenenter"",""1"",""39397""
","
","
","""event"",""trial"",""time""
""fullscreenenter"",""1"",""39397""
","
","","","1147","","","25","7689","3932","&#9733;","elianto","#3366ff99","-1"," ","0","+10","[2007.1999999999534]","1","1","","","7689","12","2","2","win","no-go","1"
"pit-trial","130","973003","0.0-16.0","battery-v0.2","","""event"",""trial"",""time""
""fullscreenenter"",""1"",""39397""
","
","
","""event"",""trial"",""time""
""fullscreenenter"",""1"",""39397""
","
","","","-1","","","25","7689","3932","&#9728;","elianto","#f73b6a7A","-1","-1","1","0","[]","0","1","","","7689","13","0","4","lose","no-go","0"
"pit-trial","131","976474","0.0-17.0","battery-v0.2","","""event"",""trial"",""time""
""fullscreenenter"",""1"",""39397""
","
","
","""event"",""trial"",""time""
""fullscreenenter"",""1"",""39397""
","
","","","608.1999999999534","","","25","7689","3932","&#9730;","elianto","#3366ff99"," "," ","1","0","[1459.9000000001397]","1","1","","","7689","14","1","1","win","go","1"
"pit-trial","132","981339","0.0-18.0","battery-v0.2","","""event"",""trial"",""time""
""fullscreenenter"",""1"",""39397""
","
","
","""event"",""trial"",""time""
""fullscreenenter"",""1"",""39397""
","
","","","-1","","","25","7689","3932","&#9733;","elianto","#3366ff99","-1","-1","1","+10","[]","0","1","","","7689","15","2","2","win","no-go","0"
"pit-trial","133","986203","0.0-19.0","battery-v0.2","","""event"",""trial"",""time""
""fullscreenenter"",""1"",""39397""
","
","
","""event"",""trial"",""time""
""fullscreenenter"",""1"",""39397""
","
","","","-1","","","25","7689","3932","&#9752;","elianto","#f73b6a7A"," ","-1","0","-10","[]","0","1","","","7689","16","3","3","lose","go","0"
"pit-trial","134","991068","0.0-20.0","battery-v0.2","","""event"",""trial"",""time""
""fullscreenenter"",""1"",""39397""
","
","
","""event"",""trial"",""time""
""fullscreenenter"",""1"",""39397""
","
","","","-1","","","25","7689","3932","&#9728;","elianto","#f73b6a7A","-1","-1","1","0","[]","0","1","","","7689","17","0","4","lose","no-go","0"
"pit-trial","135","994527","0.0-21.0","battery-v0.2","","""event"",""trial"",""time""
""fullscreenenter"",""1"",""39397""
","
","
","""event"",""trial"",""time""
""fullscreenenter"",""1"",""39397""
","
","","","594.4000000001397","","","25","7689","3932","&#9730;","elianto","#3366ff99"," "," ","1","+10","[1455.1000000000931]","1","1","","","7689","18","1","1","win","go","0"
"pit-trial","136","999392","0.0-22.0","battery-v0.2","","""event"",""trial"",""time""
""fullscreenenter"",""1"",""39397""
","
","
","""event"",""trial"",""time""
""fullscreenenter"",""1"",""39397""
","
","","","-1","","","25","7689","3932","&#9752;","elianto","#f73b6a7A"," ","-1","0","-10","[]","0","1","","","7689","19","3","3","lose","go","0"
"pit-trial","137","1004257","0.0-23.0","battery-v0.2","","""event"",""trial"",""time""
""fullscreenenter"",""1"",""39397""
","
","
","""event"",""trial"",""time""
""fullscreenenter"",""1"",""39397""
","
","","","-1","","","25","7689","3932","&#9733;","elianto","#3366ff99","-1","-1","1","+10","[]","0","1","","","7689","20","2","2","win","no-go","0"
"pit-instructions","138","1017018","0.0-24.0","battery-v0.2","","""event"",""trial"",""time""
""fullscreenenter"",""1"",""39397""
","
","
","""event"",""trial"",""time""
""fullscreenenter"",""1"",""39397""
","
","","[{""page_index"":0,""viewing_time"":5624.100000000093},{""page_index"":1,""viewing_time"":7135.299999999814}]","12759.699999999953","","","","","","","","","","","","","","","","","","","","","","","",""
"pit-trial","139","1021880","0.0-25.0","battery-v0.2","","""event"",""trial"",""time""
""fullscreenenter"",""1"",""39397""
","
","
","""event"",""trial"",""time""
""fullscreenenter"",""1"",""39397""
","
","","","-1","","","25","7689","3932","m","elianto","#f73b6a7A"," ","-1","0","-10","[]","0","2","","","7689","21","0","3","lose","go","0"
"pit-trial","140","1026745","0.0-26.0","battery-v0.2","","""event"",""trial"",""time""
""fullscreenenter"",""1"",""39397""
","
","
","""event"",""trial"",""time""
""fullscreenenter"",""1"",""39397""
","
","","","-1","","","25","7689","3932","y","elianto","#f73b6a7A"," ","-1","0","0","[]","0","2","","","7689","22","2","3","lose","go","1"
"pit-trial","141","1030244","0.0-27.0","battery-v0.2","","""event"",""trial"",""time""
""fullscreenenter"",""1"",""39397""
","
","
","""event"",""trial"",""time""
""fullscreenenter"",""1"",""39397""
","
","","","633.6999999999534","","","25","7689","3932","r","elianto","#3366ff99","-1"," ","0","0","[1490.6000000000931]","1","2","","","7689","23","1","2","win","no-go","0"
"pit-trial","142","1035116","0.0-28.0","battery-v0.2","","""event"",""trial"",""time""
""fullscreenenter"",""1"",""39397""
","
","
","""event"",""trial"",""time""
""fullscreenenter"",""1"",""39397""
","
","","","-1","","","25","7689","3932","h","elianto","#f73b6a7A","-1","-1","1","0","[]","0","2","","","7689","24","3","4","lose","no-go","0"
"pit-trial","143","1039987","0.0-29.0","battery-v0.2","","""event"",""trial"",""time""
""fullscreenenter"",""1"",""39397""
","
","
","""event"",""trial"",""time""
""fullscreenenter"",""1"",""39397""
","
","","","-1","","","25","7689","3932","h","elianto","#f73b6a7A","-1","-1","1","-10","[]","0","2","","","7689","25","3","4","lose","no-go","1"
"pit-trial","144","1044848","0.0-30.0","battery-v0.2","","""event"",""trial"",""time""
""fullscreenenter"",""1"",""39397""
","
","
","""event"",""trial"",""time""
""fullscreenenter"",""1"",""39397""
","
","","","-1","","","25","7689","3932","m","elianto","#f73b6a7A"," ","-1","0","-10","[]","0","2","","","7689","26","0","3","lose","go","0"
"pit-trial","145","1049711","0.0-31.0","battery-v0.2","","""event"",""trial"",""time""
""fullscreenenter"",""1"",""39397""
","
","
","""event"",""trial"",""time""
""fullscreenenter"",""1"",""39397""
","
","","","-1","","","25","7689","3932","y","elianto","#f73b6a7A"," ","-1","0","-10","[]","0","2","","","7689","27","2","3","lose","go","0"
"pit-trial","146","1054576","0.0-32.0","battery-v0.2","","""event"",""trial"",""time""
""fullscreenenter"",""1"",""39397""
","
","
","""event"",""trial"",""time""
""fullscreenenter"",""1"",""39397""
","
","","","-1","","","25","7689","3932","r","elianto","#3366ff99","-1","-1","1","+10","[]","0","2","","","7689","28","1","2","win","no-go","0"
"pit-trial","147","1059441","0.0-33.0","battery-v0.2","","""event"",""trial"",""time""
""fullscreenenter"",""1"",""39397""
","
","
","""event"",""trial"",""time""
""fullscreenenter"",""1"",""39397""
","
","","","-1","","","25","7689","3932","r","elianto","#3366ff99","-1","-1","1","+10","[]","0","2","","","7689","29","1","2","win","no-go","0"
"pit-trial","148","1064305","0.0-34.0","battery-v0.2","","""event"",""trial"",""time""
""fullscreenenter"",""1"",""39397""
","
","
","""event"",""trial"",""time""
""fullscreenenter"",""1"",""39397""
","
","","","-1","","","25","7689","3932","m","elianto","#f73b6a7A"," ","-1","0","0","[]","0","2","","","7689","30","0","3","lose","go","1"
"pit-trial","149","1069169","0.0-35.0","battery-v0.2","","""event"",""trial"",""time""
""fullscreenenter"",""1"",""39397""
","
","
","""event"",""trial"",""time""
""fullscreenenter"",""1"",""39397""
","
","","","-1","","","25","7689","3932","h","elianto","#f73b6a7A","-1","-1","1","-10","[]","0","2","","","7689","31","3","4","lose","no-go","1"
"pit-trial","150","1074034","0.0-36.0","battery-v0.2","","""event"",""trial"",""time""
""fullscreenenter"",""1"",""39397""
","
","
","""event"",""trial"",""time""
""fullscreenenter"",""1"",""39397""
","
","","","-1","","","25","7689","3932","y","elianto","#f73b6a7A"," ","-1","0","0","[]","0","2","","","7689","32","2","3","lose","go","1"
"pit-trial","151","1077795","0.0-37.0","battery-v0.2","","""event"",""trial"",""time""
""fullscreenenter"",""1"",""39397""
","
","
","""event"",""trial"",""time""
""fullscreenenter"",""1"",""39397""
","
","","","897.4000000001397","","","25","7689","3932","r","elianto","#3366ff99","-1"," ","0","+10","[1748.6999999999534]","1","2","","","7689","33","1","2","win","no-go","1"
"pit-trial","152","1082659","0.0-38.0","battery-v0.2","","""event"",""trial"",""time""
""fullscreenenter"",""1"",""39397""
","
","
","""event"",""trial"",""time""
""fullscreenenter"",""1"",""39397""
","
","","","-1","","","25","7689","3932","m","elianto","#f73b6a7A"," ","-1","0","0","[]","0","2","","","7689","34","0","3","lose","go","1"
"pit-trial","153","1087523","0.0-39.0","battery-v0.2","","""event"",""trial"",""time""
""fullscreenenter"",""1"",""39397""
","
","
","""event"",""trial"",""time""
""fullscreenenter"",""1"",""39397""
","
","","","-1","","","25","7689","3932","y","elianto","#f73b6a7A"," ","-1","0","0","[]","0","2","","","7689","35","2","3","lose","go","1"
"pit-trial","154","1092384","0.0-40.0","battery-v0.2","","""event"",""trial"",""time""
""fullscreenenter"",""1"",""39397""
","
","
","""event"",""trial"",""time""
""fullscreenenter"",""1"",""39397""
","
","","","-1","","","25","7689","3932","h","elianto","#f73b6a7A","-1","-1","1","-10","[]","0","2","","","7689","36","3","4","lose","no-go","1"
"pit-trial","155","1097080","0.0-41.0","battery-v0.2","","""event"",""trial"",""time""
""fullscreenenter"",""1"",""39397""
","
","
","""event"",""trial"",""time""
""fullscreenenter"",""1"",""39397""
","
","","","1837.8999999999069","","","25","7689","3932","r","elianto","#3366ff99","-1"," ","0","+10","[2689.3000000000466]","1","2","","","7689","37","1","2","win","no-go","1"
"pit-trial","156","1101944","0.0-42.0","battery-v0.2","","""event"",""trial"",""time""
""fullscreenenter"",""1"",""39397""
","
","
","""event"",""trial"",""time""
""fullscreenenter"",""1"",""39397""
","
","","","-1","","","25","7689","3932","y","elianto","#f73b6a7A"," ","-1","0","-10","[]","0","2","","","7689","38","2","3","lose","go","0"
"pit-trial","157","1106809","0.0-43.0","battery-v0.2","","""event"",""trial"",""time""
""fullscreenenter"",""1"",""39397""
","
","
","""event"",""trial"",""time""
""fullscreenenter"",""1"",""39397""
","
","","","-1","","","25","7689","3932","h","elianto","#f73b6a7A","-1","-1","1","0","[]","0","2","","","7689","39","3","4","lose","no-go","0"
"pit-trial","158","1111674","0.0-44.0","battery-v0.2","","""event"",""trial"",""time""
""fullscreenenter"",""1"",""39397""
","
","
","""event"",""trial"",""time""
""fullscreenenter"",""1"",""39397""
","
","","","-1","","","25","7689","3932","m","elianto","#f73b6a7A"," ","-1","0","-10","[]","0","2","","","7689","40","0","3","lose","go","0"
"pit-trial","159","1116538","0.0-45.0","battery-v0.2","","""event"",""trial"",""time""
""fullscreenenter"",""1"",""39397""
","
","
","""event"",""trial"",""time""
""fullscreenenter"",""1"",""39397""
","
","","","-1","","","25","7689","3932","h","elianto","#f73b6a7A","-1","-1","1","0","[]","0","2","","","7689","41","3","4","lose","no-go","0"
"pit-trial","160","1121403","0.0-46.0","battery-v0.2","","""event"",""trial"",""time""
""fullscreenenter"",""1"",""39397""
","
","
","""event"",""trial"",""time""
""fullscreenenter"",""1"",""39397""
","
","","","-1","","","25","7689","3932","y","elianto","#f73b6a7A"," ","-1","0","-10","[]","0","2","","","7689","42","2","3","lose","go","0"
"pit-trial","161","1126268","0.0-47.0","battery-v0.2","","""event"",""trial"",""time""
""fullscreenenter"",""1"",""39397""
","
","
","""event"",""trial"",""time""
""fullscreenenter"",""1"",""39397""
","
","","","-1","","","25","7689","3932","m","elianto","#f73b6a7A"," ","-1","0","0","[]","0","2","","","7689","43","0","3","lose","go","1"
"pit-trial","162","1131138","0.0-48.0","battery-v0.2","","""event"",""trial"",""time""
""fullscreenenter"",""1"",""39397""
","
","
","""event"",""trial"",""time""
""fullscreenenter"",""1"",""39397""
","
","","","-1","","","25","7689","3932","r","elianto","#3366ff99","-1","-1","1","+10","[]","0","2","","","7689","44","1","2","win","no-go","0"
"pit-trial","163","1136002","0.0-49.0","battery-v0.2","","""event"",""trial"",""time""
""fullscreenenter"",""1"",""39397""
","
","
","""event"",""trial"",""time""
""fullscreenenter"",""1"",""39397""
","
","","","-1","","","25","7689","3932","y","elianto","#f73b6a7A"," ","-1","0","-10","[]","0","2","","","7689","45","2","3","lose","go","0"
"pit-trial","164","1140866","0.0-50.0","battery-v0.2","","""event"",""trial"",""time""
""fullscreenenter"",""1"",""39397""
","
","
","""event"",""trial"",""time""
""fullscreenenter"",""1"",""39397""
","
","","","-1","","","25","7689","3932","h","elianto","#f73b6a7A","-1","-1","1","0","[]","0","2","","","7689","46","3","4","lose","no-go","0"
"pit-trial","165","1145732","0.0-51.0","battery-v0.2","","""event"",""trial"",""time""
""fullscreenenter"",""1"",""39397""
","
","
","""event"",""trial"",""time""
""fullscreenenter"",""1"",""39397""
","
","","","-1","","","25","7689","3932","r","elianto","#3366ff99","-1","-1","1","+10","[]","0","2","","","7689","47","1","2","win","no-go","0"
"pit-trial","166","1150596","0.0-52.0","battery-v0.2","","""event"",""trial"",""time""
""fullscreenenter"",""1"",""39397""
","
","
","""event"",""trial"",""time""
""fullscreenenter"",""1"",""39397""
","
","","","-1","","","25","7689","3932","m","elianto","#f73b6a7A"," ","-1","0","-10","[]","0","2","","","7689","48","0","3","lose","go","0"
"pit-trial","167","1155467","0.0-53.0","battery-v0.2","","""event"",""trial"",""time""
""fullscreenenter"",""1"",""39397""
","
","
","""event"",""trial"",""time""
""fullscreenenter"",""1"",""39397""
","
","","","-1","","","25","7689","3932","r","elianto","#3366ff99","-1","-1","1","+10","[]","0","2","","","7689","49","1","2","win","no-go","0"
"pit-trial","168","1160331","0.0-54.0","battery-v0.2","","""event"",""trial"",""time""
""fullscreenenter"",""1"",""39397""
","
","
","""event"",""trial"",""time""
""fullscreenenter"",""1"",""39397""
","
","","","-1","","","25","7689","3932","m","elianto","#f73b6a7A"," ","-1","0","-10","[]","0","2","","","7689","50","0","3","lose","go","0"
"pit-trial","169","1165196","0.0-55.0","battery-v0.2","","""event"",""trial"",""time""
""fullscreenenter"",""1"",""39397""
","
","
","""event"",""trial"",""time""
""fullscreenenter"",""1"",""39397""
","
","","","-1","","","25","7689","3932","y","elianto","#f73b6a7A"," ","-1","0","0","[]","0","2","","","7689","51","2","3","lose","go","1"
"pit-trial","170","1170067","0.0-56.0","battery-v0.2","","""event"",""trial"",""time""
""fullscreenenter"",""1"",""39397""
","
","
","""event"",""trial"",""time""
""fullscreenenter"",""1"",""39397""
","
","","","-1","","","25","7689","3932","h","elianto","#f73b6a7A","-1","-1","1","0","[]","0","2","","","7689","52","3","4","lose","no-go","0"
"pit-trial","171","1174931","0.0-57.0","battery-v0.2","","""event"",""trial"",""time""
""fullscreenenter"",""1"",""39397""
","
","
","""event"",""trial"",""time""
""fullscreenenter"",""1"",""39397""
","
","","","-1","","","25","7689","3932","h","elianto","#f73b6a7A","-1","-1","1","0","[]","0","2","","","7689","53","3","4","lose","no-go","0"
"pit-trial","172","1179795","0.0-58.0","battery-v0.2","","""event"",""trial"",""time""
""fullscreenenter"",""1"",""39397""
","
","
","""event"",""trial"",""time""
""fullscreenenter"",""1"",""39397""
","
","","","-1","","","25","7689","3932","y","elianto","#f73b6a7A"," ","-1","0","-10","[]","0","2","","","7689","54","2","3","lose","go","0"
"pit-trial","173","1184660","0.0-59.0","battery-v0.2","","""event"",""trial"",""time""
""fullscreenenter"",""1"",""39397""
","
","
","""event"",""trial"",""time""
""fullscreenenter"",""1"",""39397""
","
","","","-1","","","25","7689","3932","m","elianto","#f73b6a7A"," ","-1","0","-10","[]","0","2","","","7689","55","0","3","lose","go","0"
"pit-trial","174","1189530","0.0-60.0","battery-v0.2","","""event"",""trial"",""time""
""fullscreenenter"",""1"",""39397""
","
","
","""event"",""trial"",""time""
""fullscreenenter"",""1"",""39397""
","
","","","-1","","","25","7689","3932","r","elianto","#3366ff99","-1","-1","1","0","[]","0","2","","","7689","56","1","2","win","no-go","1"
"pit-trial","175","1194395","0.0-61.0","battery-v0.2","","""event"",""trial"",""time""
""fullscreenenter"",""1"",""39397""
","
","
","""event"",""trial"",""time""
""fullscreenenter"",""1"",""39397""
","
","","","-1","","","25","7689","3932","y","elianto","#f73b6a7A"," ","-1","0","-10","[]","0","2","","","7689","57","2","3","lose","go","0"
"pit-trial","176","1199259","0.0-62.0","battery-v0.2","","""event"",""trial"",""time""
""fullscreenenter"",""1"",""39397""
","
","
","""event"",""trial"",""time""
""fullscreenenter"",""1"",""39397""
","
","","","-1","","","25","7689","3932","z","elianto","#3366ff99"," ","-1","0","0","[]","0","2","","","7689","58","4","1","win","go","0"
"pit-trial","177","1204124","0.0-63.0","battery-v0.2","","""event"",""trial"",""time""
""fullscreenenter"",""1"",""39397""
","
","
","""event"",""trial"",""time""
""fullscreenenter"",""1"",""39397""
","
","","","-1","","","25","7689","3932","m","elianto","#f73b6a7A"," ","-1","0","-10","[]","0","2","","","7689","59","0","3","lose","go","0"
"pit-trial","178","1208995","0.0-64.0","battery-v0.2","","""event"",""trial"",""time""
""fullscreenenter"",""1"",""39397""
","
","
","""event"",""trial"",""time""
""fullscreenenter"",""1"",""39397""
","
","","","-1","","","25","7689","3932","h","elianto","#f73b6a7A","-1","-1","1","-10","[]","0","2","","","7689","60","3","4","lose","no-go","1"
"pit-trial","179","1213859","0.0-65.0","battery-v0.2","","""event"",""trial"",""time""
""fullscreenenter"",""1"",""39397""
","
","
","""event"",""trial"",""time""
""fullscreenenter"",""1"",""39397""
","
","","","-1","","","25","7689","3932","z","elianto","#3366ff99"," ","-1","0","0","[]","0","2","","","7689","61","4","1","win","go","0"
"pit-trial","180","1218723","0.0-66.0","battery-v0.2","","""event"",""trial"",""time""
""fullscreenenter"",""1"",""39397""
","
","
","""event"",""trial"",""time""
""fullscreenenter"",""1"",""39397""
","
","","","-1","","","25","7689","3932","r","elianto","#3366ff99","-1","-1","1","+10","[]","0","2","","","7689","62","1","2","win","no-go","0"
"pit-trial","181","1223588","0.0-67.0","battery-v0.2","","""event"",""trial"",""time""
""fullscreenenter"",""1"",""39397""
","
","
","""event"",""trial"",""time""
""fullscreenenter"",""1"",""39397""
","
","","","-1","","","25","7689","3932","h","elianto","#f73b6a7A","-1","-1","1","0","[]","0","2","","","7689","63","3","4","lose","no-go","0"
"pit-trial","182","1228453","0.0-68.0","battery-v0.2","","""event"",""trial"",""time""
""fullscreenenter"",""1"",""39397""
","
","
","""event"",""trial"",""time""
""fullscreenenter"",""1"",""39397""
","
","","","-1","","","25","7689","3932","y","elianto","#f73b6a7A"," ","-1","0","-10","[]","0","2","","","7689","64","2","3","lose","go","0"
"pit-trial","183","1233323","0.0-69.0","battery-v0.2","","""event"",""trial"",""time""
""fullscreenenter"",""1"",""39397""
","
","
","""event"",""trial"",""time""
""fullscreenenter"",""1"",""39397""
","
","","","-1","","","25","7689","3932","c","elianto","#3366ff99","-1","-1","1","+10","[]","0","2","","","7689","65","5","2","win","no-go","0"
"pit-trial","184","1238188","0.0-70.0","battery-v0.2","","""event"",""trial"",""time""
""fullscreenenter"",""1"",""39397""
","
","
","""event"",""trial"",""time""
""fullscreenenter"",""1"",""39397""
","
","","","-1","","","25","7689","3932","r","elianto","#3366ff99","-1","-1","1","+10","[]","0","2","","","7689","66","1","2","win","no-go","0"
"pit-trial","185","1243058","0.0-71.0","battery-v0.2","","""event"",""trial"",""time""
""fullscreenenter"",""1"",""39397""
","
","
","""event"",""trial"",""time""
""fullscreenenter"",""1"",""39397""
","
","","","-1","","","25","7689","3932","h","elianto","#f73b6a7A","-1","-1","1","0","[]","0","2","","","7689","67","3","4","lose","no-go","0"
"pit-trial","186","1247923","0.0-72.0","battery-v0.2","","""event"",""trial"",""time""
""fullscreenenter"",""1"",""39397""
","
","
","""event"",""trial"",""time""
""fullscreenenter"",""1"",""39397""
","
","","","-1","","","25","7689","3932","z","elianto","#3366ff99"," ","-1","0","0","[]","0","2","","","7689","68","4","1","win","go","0"
"pit-trial","187","1252787","0.0-73.0","battery-v0.2","","""event"",""trial"",""time""
""fullscreenenter"",""1"",""39397""
","
","
","""event"",""trial"",""time""
""fullscreenenter"",""1"",""39397""
","
","","","-1","","","25","7689","3932","c","elianto","#3366ff99","-1","-1","1","+10","[]","0","2","","","7689","69","5","2","win","no-go","0"
"pit-trial","188","1257652","0.0-74.0","battery-v0.2","","""event"",""trial"",""time""
""fullscreenenter"",""1"",""39397""
","
","
","""event"",""trial"",""time""
""fullscreenenter"",""1"",""39397""
","
","","","-1","","","25","7689","3932","y","elianto","#f73b6a7A"," ","-1","0","-10","[]","0","2","","","7689","70","2","3","lose","go","0"
"pit-trial","189","1262512","0.0-75.0","battery-v0.2","","""event"",""trial"",""time""
""fullscreenenter"",""1"",""39397""
","
","
","""event"",""trial"",""time""
""fullscreenenter"",""1"",""39397""
","
","","","-1","","","25","7689","3932","r","elianto","#3366ff99","-1","-1","1","+10","[]","0","2","","","7689","71","1","2","win","no-go","0"
"pit-trial","190","1267378","0.0-76.0","battery-v0.2","","""event"",""trial"",""time""
""fullscreenenter"",""1"",""39397""
","
","
","""event"",""trial"",""time""
""fullscreenenter"",""1"",""39397""
","
","","","-1","","","25","7689","3932","z","elianto","#3366ff99"," ","-1","0","0","[]","0","2","","","7689","72","4","1","win","go","0"
"pit-trial","191","1272240","0.0-77.0","battery-v0.2","","""event"",""trial"",""time""
""fullscreenenter"",""1"",""39397""
","
","
","""event"",""trial"",""time""
""fullscreenenter"",""1"",""39397""
","
","","","-1","","","25","7689","3932","r","elianto","#3366ff99","-1","-1","1","+10","[]","0","2","","","7689","73","1","2","win","no-go","0"
"pit-trial","192","1277104","0.0-78.0","battery-v0.2","","""event"",""trial"",""time""
""fullscreenenter"",""1"",""39397""
","
","
","""event"",""trial"",""time""
""fullscreenenter"",""1"",""39397""
","
","","","-1","","","25","7689","3932","z","elianto","#3366ff99"," ","-1","0","0","[]","0","2","","","7689","74","4","1","win","go","0"
"pit-trial","193","1281970","0.0-79.0","battery-v0.2","","""event"",""trial"",""time""
""fullscreenenter"",""1"",""39397""
","
","
","""event"",""trial"",""time""
""fullscreenenter"",""1"",""39397""
","
","","","-1","","","25","7689","3932","c","elianto","#3366ff99","-1","-1","1","+10","[]","0","2","","","7689","75","5","2","win","no-go","0"
"pit-trial","194","1286833","0.0-80.0","battery-v0.2","","""event"",""trial"",""time""
""fullscreenenter"",""1"",""39397""
","
","
","""event"",""trial"",""time""
""fullscreenenter"",""1"",""39397""
","
","","","-1","","","25","7689","3932","h","elianto","#f73b6a7A","-1","-1","1","0","[]","0","2","","","7689","76","3","4","lose","no-go","0"
"pit-trial","195","1291699","0.0-81.0","battery-v0.2","","""event"",""trial"",""time""
""fullscreenenter"",""1"",""39397""
","
","
","""event"",""trial"",""time""
""fullscreenenter"",""1"",""39397""
","
","","","-1","","","25","7689","3932","h","elianto","#f73b6a7A","-1","-1","1","-10","[]","0","2","","","7689","77","3","4","lose","no-go","1"
"pit-trial","196","1296562","0.0-82.0","battery-v0.2","","""event"",""trial"",""time""
""fullscreenenter"",""1"",""39397""
","
","
","""event"",""trial"",""time""
""fullscreenenter"",""1"",""39397""
","
","","","-1","","","25","7689","3932","z","elianto","#3366ff99"," ","-1","0","0","[]","0","2","","","7689","78","4","1","win","go","0"
"pit-trial","197","1301427","0.0-83.0","battery-v0.2","","""event"",""trial"",""time""
""fullscreenenter"",""1"",""39397""
","
","
","""event"",""trial"",""time""
""fullscreenenter"",""1"",""39397""
","
","","","-1","","","25","7689","3932","z","elianto","#3366ff99"," ","-1","0","0","[]","0","2","","","7689","79","4","1","win","go","0"
"pit-trial","198","1306292","0.0-84.0","battery-v0.2","","""event"",""trial"",""time""
""fullscreenenter"",""1"",""39397""
","
","
","""event"",""trial"",""time""
""fullscreenenter"",""1"",""39397""
","
","","","-1","","","25","7689","3932","c","elianto","#3366ff99","-1","-1","1","+10","[]","0","2","","","7689","80","5","2","win","no-go","0"
"pit-trial","199","1311152","0.0-85.0","battery-v0.2","","""event"",""trial"",""time""
""fullscreenenter"",""1"",""39397""
","
","
","""event"",""trial"",""time""
""fullscreenenter"",""1"",""39397""
","
","","","-1","","","25","7689","3932","h","elianto","#f73b6a7A","-1","-1","1","0","[]","0","2","","","7689","81","3","4","lose","no-go","0"
"pit-trial","200","1316016","0.0-86.0","battery-v0.2","","""event"",""trial"",""time""
""fullscreenenter"",""1"",""39397""
","
","
","""event"",""trial"",""time""
""fullscreenenter"",""1"",""39397""
","
","","","-1","","","25","7689","3932","c","elianto","#3366ff99","-1","-1","1","+10","[]","0","2","","","7689","82","5","2","win","no-go","0"
"pit-trial","201","1320881","0.0-87.0","battery-v0.2","","""event"",""trial"",""time""
""fullscreenenter"",""1"",""39397""
","
","
","""event"",""trial"",""time""
""fullscreenenter"",""1"",""39397""
","
","","","-1","","","25","7689","3932","t","elianto","#f73b6a7A","-1","-1","1","0","[]","0","2","","","7689","83","7","4","lose","no-go","0"
"pit-trial","202","1325745","0.0-88.0","battery-v0.2","","""event"",""trial"",""time""
""fullscreenenter"",""1"",""39397""
","
","
","""event"",""trial"",""time""
""fullscreenenter"",""1"",""39397""
","
","","","-1","","","25","7689","3932","z","elianto","#3366ff99"," ","-1","0","+10","[]","0","2","","","7689","84","4","1","win","go","1"
"pit-trial","203","1330610","0.0-89.0","battery-v0.2","","""event"",""trial"",""time""
""fullscreenenter"",""1"",""39397""
","
","
","""event"",""trial"",""time""
""fullscreenenter"",""1"",""39397""
","
","","","-1","","","25","7689","3932","t","elianto","#f73b6a7A","-1","-1","1","0","[]","0","2","","","7689","85","7","4","lose","no-go","0"
"pit-trial","204","1335474","0.0-90.0","battery-v0.2","","""event"",""trial"",""time""
""fullscreenenter"",""1"",""39397""
","
","
","""event"",""trial"",""time""
""fullscreenenter"",""1"",""39397""
","
","","","-1","","","25","7689","3932","c","elianto","#3366ff99","-1","-1","1","0","[]","0","2","","","7689","86","5","2","win","no-go","1"
"pit-trial","205","1340339","0.0-91.0","battery-v0.2","","""event"",""trial"",""time""
""fullscreenenter"",""1"",""39397""
","
","
","""event"",""trial"",""time""
""fullscreenenter"",""1"",""39397""
","
","","","-1","","","25","7689","3932","z","elianto","#3366ff99"," ","-1","0","0","[]","0","2","","","7689","87","4","1","win","go","0"
"pit-trial","206","1345203","0.0-92.0","battery-v0.2","","""event"",""trial"",""time""
""fullscreenenter"",""1"",""39397""
","
","
","""event"",""trial"",""time""
""fullscreenenter"",""1"",""39397""
","
","","","-1","","","25","7689","3932","b","elianto","#f73b6a7A"," ","-1","0","-10","[]","0","2","","","7689","88","6","3","lose","go","0"
"pit-trial","207","1350068","0.0-93.0","battery-v0.2","","""event"",""trial"",""time""
""fullscreenenter"",""1"",""39397""
","
","
","""event"",""trial"",""time""
""fullscreenenter"",""1"",""39397""
","
","","","-1","","","25","7689","3932","z","elianto","#3366ff99"," ","-1","0","0","[]","0","2","","","7689","89","4","1","win","go","0"
"pit-trial","208","1354933","0.0-94.0","battery-v0.2","","""event"",""trial"",""time""
""fullscreenenter"",""1"",""39397""
","
","
","""event"",""trial"",""time""
""fullscreenenter"",""1"",""39397""
","
","","","-1","","","25","7689","3932","b","elianto","#f73b6a7A"," ","-1","0","-10","[]","0","2","","","7689","90","6","3","lose","go","0"
"pit-trial","209","1359803","0.0-95.0","battery-v0.2","","""event"",""trial"",""time""
""fullscreenenter"",""1"",""39397""
","
","
","""event"",""trial"",""time""
""fullscreenenter"",""1"",""39397""
","
","","","-1","","","25","7689","3932","t","elianto","#f73b6a7A","-1","-1","1","0","[]","0","2","","","7689","91","7","4","lose","no-go","0"
"pit-trial","210","1364667","0.0-96.0","battery-v0.2","","""event"",""trial"",""time""
""fullscreenenter"",""1"",""39397""
","
","
","""event"",""trial"",""time""
""fullscreenenter"",""1"",""39397""
","
","","","-1","","","25","7689","3932","c","elianto","#3366ff99","-1","-1","1","+10","[]","0","2","","","7689","92","5","2","win","no-go","0"
"pit-trial","211","1369532","0.0-97.0","battery-v0.2","","""event"",""trial"",""time""
""fullscreenenter"",""1"",""39397""
","
","
","""event"",""trial"",""time""
""fullscreenenter"",""1"",""39397""
","
","","","-1","","","25","7689","3932","f","elianto","#3366ff99"," ","-1","0","0","[]","0","2","","","7689","93","8","1","win","go","0"
"pit-trial","212","1374402","0.0-98.0","battery-v0.2","","""event"",""trial"",""time""
""fullscreenenter"",""1"",""39397""
","
","
","""event"",""trial"",""time""
""fullscreenenter"",""1"",""39397""
","
","","","-1","","","25","7689","3932","t","elianto","#f73b6a7A","-1","-1","1","0","[]","0","2","","","7689","94","7","4","lose","no-go","0"
"pit-trial","213","1379267","0.0-99.0","battery-v0.2","","""event"",""trial"",""time""
""fullscreenenter"",""1"",""39397""
","
","
","""event"",""trial"",""time""
""fullscreenenter"",""1"",""39397""
","
","","","-1","","","25","7689","3932","b","elianto","#f73b6a7A"," ","-1","0","-10","[]","0","2","","","7689","95","6","3","lose","go","0"
"pit-trial","214","1384132","0.0-100.0","battery-v0.2","","""event"",""trial"",""time""
""fullscreenenter"",""1"",""39397""
","
","
","""event"",""trial"",""time""
""fullscreenenter"",""1"",""39397""
","
","","","-1","","","25","7689","3932","c","elianto","#3366ff99","-1","-1","1","+10","[]","0","2","","","7689","96","5","2","win","no-go","0"
"pit-trial","215","1388996","0.0-101.0","battery-v0.2","","""event"",""trial"",""time""
""fullscreenenter"",""1"",""39397""
","
","
","""event"",""trial"",""time""
""fullscreenenter"",""1"",""39397""
","
","","","-1","","","25","7689","3932","c","elianto","#3366ff99","-1","-1","1","+10","[]","0","2","","","7689","97","5","2","win","no-go","0"
"pit-trial","216","1393867","0.0-102.0","battery-v0.2","","""event"",""trial"",""time""
""fullscreenenter"",""1"",""39397""
","
","
","""event"",""trial"",""time""
""fullscreenenter"",""1"",""39397""
","
","","","-1","","","25","7689","3932","f","elianto","#3366ff99"," ","-1","0","0","[]","0","2","","","7689","98","8","1","win","go","0"
"pit-trial","217","1398737","0.0-103.0","battery-v0.2","","""event"",""trial"",""time""
""fullscreenenter"",""1"",""39397""
","
","
","""event"",""trial"",""time""
""fullscreenenter"",""1"",""39397""
","
","","","-1","","","25","7689","3932","b","elianto","#f73b6a7A"," ","-1","0","-10","[]","0","2","","","7689","99","6","3","lose","go","0"
"pit-trial","218","1403602","0.0-104.0","battery-v0.2","","""event"",""trial"",""time""
""fullscreenenter"",""1"",""39397""
","
","
","""event"",""trial"",""time""
""fullscreenenter"",""1"",""39397""
","
","","","-1","","","25","7689","3932","t","elianto","#f73b6a7A","-1","-1","1","0","[]","0","2","","","7689","100","7","4","lose","no-go","0"
"pit-trial","219","1408473","0.0-105.0","battery-v0.2","","""event"",""trial"",""time""
""fullscreenenter"",""1"",""39397""
","
","
","""event"",""trial"",""time""
""fullscreenenter"",""1"",""39397""
","
","","","-1","","","25","7689","3932","n","elianto","#3366ff99"," ","-1","0","0","[]","0","2","","","7689","101","9","1","win","go","0"
"pit-trial","220","1413337","0.0-106.0","battery-v0.2","","""event"",""trial"",""time""
""fullscreenenter"",""1"",""39397""
","
","
","""event"",""trial"",""time""
""fullscreenenter"",""1"",""39397""
","
","","","-1","","","25","7689","3932","t","elianto","#f73b6a7A","-1","-1","1","0","[]","0","2","","","7689","102","7","4","lose","no-go","0"
"pit-trial","221","1418200","0.0-107.0","battery-v0.2","","""event"",""trial"",""time""
""fullscreenenter"",""1"",""39397""
","
","
","""event"",""trial"",""time""
""fullscreenenter"",""1"",""39397""
","
","","","-1","","","25","7689","3932","f","elianto","#3366ff99"," ","-1","0","0","[]","0","2","","","7689","103","8","1","win","go","0"
"pit-trial","222","1423071","0.0-108.0","battery-v0.2","","""event"",""trial"",""time""
""fullscreenenter"",""1"",""39397""
","
","
","""event"",""trial"",""time""
""fullscreenenter"",""1"",""39397""
","
","","","-1","","","25","7689","3932","c","elianto","#3366ff99","-1","-1","1","+10","[]","0","2","","","7689","104","5","2","win","no-go","0"
"pit-trial","223","1427943","0.0-109.0","battery-v0.2","","""event"",""trial"",""time""
""fullscreenenter"",""1"",""39397""
","
","
","""event"",""trial"",""time""
""fullscreenenter"",""1"",""39397""
","
","","","-1","","","25","7689","3932","f","elianto","#3366ff99"," ","-1","0","0","[]","0","2","","","7689","105","8","1","win","go","0"
"pit-trial","224","1432817","0.0-110.0","battery-v0.2","","""event"",""trial"",""time""
""fullscreenenter"",""1"",""39397""
","
","
","""event"",""trial"",""time""
""fullscreenenter"",""1"",""39397""
","
","","","-1","","","25","7689","3932","z","elianto","#3366ff99"," ","-1","0","0","[]","0","2","","","7689","106","4","1","win","go","0"
"pit-trial","225","1437689","0.0-111.0","battery-v0.2","","""event"",""trial"",""time""
""fullscreenenter"",""1"",""39397""
","
","
","""event"",""trial"",""time""
""fullscreenenter"",""1"",""39397""
","
","","","-1","","","25","7689","3932","b","elianto","#f73b6a7A"," ","-1","0","-10","[]","0","2","","","7689","107","6","3","lose","go","0"
"pit-trial","226","1442553","0.0-112.0","battery-v0.2","","""event"",""trial"",""time""
""fullscreenenter"",""1"",""39397""
","
","
","""event"",""trial"",""time""
""fullscreenenter"",""1"",""39397""
","
","","","-1","","","25","7689","3932","n","elianto","#3366ff99"," ","-1","0","0","[]","0","2","","","7689","108","9","1","win","go","0"
"pit-trial","227","1447417","0.0-113.0","battery-v0.2","","""event"",""trial"",""time""
""fullscreenenter"",""1"",""39397""
","
","
","""event"",""trial"",""time""
""fullscreenenter"",""1"",""39397""
","
","","","-1","","","25","7689","3932","f","elianto","#3366ff99"," ","-1","0","0","[]","0","2","","","7689","109","8","1","win","go","0"
"pit-trial","228","1452282","0.0-114.0","battery-v0.2","","""event"",""trial"",""time""
""fullscreenenter"",""1"",""39397""
","
","
","""event"",""trial"",""time""
""fullscreenenter"",""1"",""39397""
","
","","","-1","","","25","7689","3932","b","elianto","#f73b6a7A"," ","-1","0","-10","[]","0","2","","","7689","110","6","3","lose","go","0"
"pit-trial","229","1457147","0.0-115.0","battery-v0.2","","""event"",""trial"",""time""
""fullscreenenter"",""1"",""39397""
","
","
","""event"",""trial"",""time""
""fullscreenenter"",""1"",""39397""
","
","","","-1","","","25","7689","3932","n","elianto","#3366ff99"," ","-1","0","0","[]","0","2","","","7689","111","9","1","win","go","0"
"pit-trial","230","1462011","0.0-116.0","battery-v0.2","","""event"",""trial"",""time""
""fullscreenenter"",""1"",""39397""
","
","
","""event"",""trial"",""time""
""fullscreenenter"",""1"",""39397""
","
","","","-1","","","25","7689","3932","c","elianto","#3366ff99","-1","-1","1","0","[]","0","2","","","7689","112","5","2","win","no-go","1"
"pit-trial","231","1466877","0.0-117.0","battery-v0.2","","""event"",""trial"",""time""
""fullscreenenter"",""1"",""39397""
","
","
","""event"",""trial"",""time""
""fullscreenenter"",""1"",""39397""
","
","","","-1","","","25","7689","3932","f","elianto","#3366ff99"," ","-1","0","+10","[]","0","2","","","7689","113","8","1","win","go","1"
"pit-trial","232","1471746","0.0-118.0","battery-v0.2","","""event"",""trial"",""time""
""fullscreenenter"",""1"",""39397""
","
","
","""event"",""trial"",""time""
""fullscreenenter"",""1"",""39397""
","
","","","-1","","","25","7689","3932","b","elianto","#f73b6a7A"," ","-1","0","-10","[]","0","2","","","7689","114","6","3","lose","go","0"
"pit-trial","233","1476611","0.0-119.0","battery-v0.2","","""event"",""trial"",""time""
""fullscreenenter"",""1"",""39397""
","
","
","""event"",""trial"",""time""
""fullscreenenter"",""1"",""39397""
","
","","","-1","","","25","7689","3932","n","elianto","#3366ff99"," ","-1","0","0","[]","0","2","","","7689","115","9","1","win","go","0"
"pit-trial","234","1481481","0.0-120.0","battery-v0.2","","""event"",""trial"",""time""
""fullscreenenter"",""1"",""39397""
","
","
","""event"",""trial"",""time""
""fullscreenenter"",""1"",""39397""
","
","","","-1","","","25","7689","3932","c","elianto","#3366ff99","-1","-1","1","+10","[]","0","2","","","7689","116","5","2","win","no-go","0"
"pit-trial","235","1486346","0.0-121.0","battery-v0.2","","""event"",""trial"",""time""
""fullscreenenter"",""1"",""39397""
","
","
","""event"",""trial"",""time""
""fullscreenenter"",""1"",""39397""
","
","","","-1","","","25","7689","3932","f","elianto","#3366ff99"," ","-1","0","0","[]","0","2","","","7689","117","8","1","win","go","0"
"pit-trial","236","1491210","0.0-122.0","battery-v0.2","","""event"",""trial"",""time""
""fullscreenenter"",""1"",""39397""
","
","
","""event"",""trial"",""time""
""fullscreenenter"",""1"",""39397""
","
","","","-1","","","25","7689","3932","n","elianto","#3366ff99"," ","-1","0","0","[]","0","2","","","7689","118","9","1","win","go","0"
"pit-trial","237","1496076","0.0-123.0","battery-v0.2","","""event"",""trial"",""time""
""fullscreenenter"",""1"",""39397""
","
","
","""event"",""trial"",""time""
""fullscreenenter"",""1"",""39397""
","
","","","-1","","","25","7689","3932","c","elianto","#3366ff99","-1","-1","1","0","[]","0","2","","","7689","119","5","2","win","no-go","1"
"pit-trial","238","1500939","0.0-124.0","battery-v0.2","","""event"",""trial"",""time""
""fullscreenenter"",""1"",""39397""
","
","
","""event"",""trial"",""time""
""fullscreenenter"",""1"",""39397""
","
","","","-1","","","25","7689","3932","b","elianto","#f73b6a7A"," ","-1","0","-10","[]","0","2","","","7689","120","6","3","lose","go","0"
"pit-trial","239","1505804","0.0-125.0","battery-v0.2","","""event"",""trial"",""time""
""fullscreenenter"",""1"",""39397""
","
","
","""event"",""trial"",""time""
""fullscreenenter"",""1"",""39397""
","
","","","-1","","","25","7689","3932","b","elianto","#f73b6a7A"," ","-1","0","0","[]","0","2","","","7689","121","6","3","lose","go","1"
"pit-trial","240","1510670","0.0-126.0","battery-v0.2","","""event"",""trial"",""time""
""fullscreenenter"",""1"",""39397""
","
","
","""event"",""trial"",""time""
""fullscreenenter"",""1"",""39397""
","
","","","-1","","","25","7689","3932","n","elianto","#3366ff99"," ","-1","0","0","[]","0","2","","","7689","122","9","1","win","go","0"
"pit-trial","241","1515545","0.0-127.0","battery-v0.2","","""event"",""trial"",""time""
""fullscreenenter"",""1"",""39397""
","
","
","""event"",""trial"",""time""
""fullscreenenter"",""1"",""39397""
","
","","","-1","","","25","7689","3932","f","elianto","#3366ff99"," ","-1","0","0","[]","0","2","","","7689","123","8","1","win","go","0"
"pit-trial","242","1520409","0.0-128.0","battery-v0.2","","""event"",""trial"",""time""
""fullscreenenter"",""1"",""39397""
","
","
","""event"",""trial"",""time""
""fullscreenenter"",""1"",""39397""
","
","","","-1","","","25","7689","3932","t","elianto","#f73b6a7A","-1","-1","1","0","[]","0","2","","","7689","124","7","4","lose","no-go","0"
"pit-trial","243","1525274","0.0-129.0","battery-v0.2","","""event"",""trial"",""time""
""fullscreenenter"",""1"",""39397""
","
","
","""event"",""trial"",""time""
""fullscreenenter"",""1"",""39397""
","
","","","-1","","","25","7689","3932","t","elianto","#f73b6a7A","-1","-1","1","-10","[]","0","2","","","7689","125","7","4","lose","no-go","1"
"pit-trial","244","1530140","0.0-130.0","battery-v0.2","","""event"",""trial"",""time""
""fullscreenenter"",""1"",""39397""
","
","
","""event"",""trial"",""time""
""fullscreenenter"",""1"",""39397""
","
","","","-1","","","25","7689","3932","f","elianto","#3366ff99"," ","-1","0","+10","[]","0","2","","","7689","126","8","1","win","go","1"
"pit-trial","245","1535004","0.0-131.0","battery-v0.2","","""event"",""trial"",""time""
""fullscreenenter"",""1"",""39397""
","
","
","""event"",""trial"",""time""
""fullscreenenter"",""1"",""39397""
","
","","","-1","","","25","7689","3932","n","elianto","#3366ff99"," ","-1","0","0","[]","0","2","","","7689","127","9","1","win","go","0"
"pit-trial","246","1539868","0.0-132.0","battery-v0.2","","""event"",""trial"",""time""
""fullscreenenter"",""1"",""39397""
","
","
","""event"",""trial"",""time""
""fullscreenenter"",""1"",""39397""
","
","","","-1","","","25","7689","3932","b","elianto","#f73b6a7A"," ","-1","0","-10","[]","0","2","","","7689","128","6","3","lose","go","0"
"pit-trial","247","1544732","0.0-133.0","battery-v0.2","","""event"",""trial"",""time""
""fullscreenenter"",""1"",""39397""
","
","
","""event"",""trial"",""time""
""fullscreenenter"",""1"",""39397""
","
","","","-1","","","25","7689","3932","n","elianto","#3366ff99"," ","-1","0","0","[]","0","2","","","7689","129","9","1","win","go","0"
"pit-trial","248","1549597","0.0-134.0","battery-v0.2","","""event"",""trial"",""time""
""fullscreenenter"",""1"",""39397""
","
","
","""event"",""trial"",""time""
""fullscreenenter"",""1"",""39397""
","
","","","-1","","","25","7689","3932","b","elianto","#f73b6a7A"," ","-1","0","0","[]","0","2","","","7689","130","6","3","lose","go","1"
"pit-trial","249","1554467","0.0-135.0","battery-v0.2","","""event"",""trial"",""time""
""fullscreenenter"",""1"",""39397""
","
","
","""event"",""trial"",""time""
""fullscreenenter"",""1"",""39397""
","
","","","-1","","","25","7689","3932","t","elianto","#f73b6a7A","-1","-1","1","0","[]","0","2","","","7689","131","7","4","lose","no-go","0"
"pit-trial","250","1559333","0.0-136.0","battery-v0.2","","""event"",""trial"",""time""
""fullscreenenter"",""1"",""39397""
","
","
","""event"",""trial"",""time""
""fullscreenenter"",""1"",""39397""
","
","","","-1","","","25","7689","3932","f","elianto","#3366ff99"," ","-1","0","+10","[]","0","2","","","7689","132","8","1","win","go","1"
"pit-trial","251","1564208","0.0-137.0","battery-v0.2","","""event"",""trial"",""time""
""fullscreenenter"",""1"",""39397""
","
","
","""event"",""trial"",""time""
""fullscreenenter"",""1"",""39397""
","
","","","-1","","","25","7689","3932","t","elianto","#f73b6a7A","-1","-1","1","0","[]","0","2","","","7689","133","7","4","lose","no-go","0"
"pit-trial","252","1569078","0.0-138.0","battery-v0.2","","""event"",""trial"",""time""
""fullscreenenter"",""1"",""39397""
","
","
","""event"",""trial"",""time""
""fullscreenenter"",""1"",""39397""
","
","","","-1","","","25","7689","3932","b","elianto","#f73b6a7A"," ","-1","0","-10","[]","0","2","","","7689","134","6","3","lose","go","0"
"pit-trial","253","1573950","0.0-139.0","battery-v0.2","","""event"",""trial"",""time""
""fullscreenenter"",""1"",""39397""
","
","
","""event"",""trial"",""time""
""fullscreenenter"",""1"",""39397""
","
","","","-1","","","25","7689","3932","f","elianto","#3366ff99"," ","-1","0","+10","[]","0","2","","","7689","135","8","1","win","go","1"
"pit-trial","254","1578819","0.0-140.0","battery-v0.2","","""event"",""trial"",""time""
""fullscreenenter"",""1"",""39397""
","
","
","""event"",""trial"",""time""
""fullscreenenter"",""1"",""39397""
","
","","","-1","","","25","7689","3932","n","elianto","#3366ff99"," ","-1","0","0","[]","0","2","","","7689","136","9","1","win","go","0"
"pit-trial","255","1583684","0.0-141.0","battery-v0.2","","""event"",""trial"",""time""
""fullscreenenter"",""1"",""39397""
","
","
","""event"",""trial"",""time""
""fullscreenenter"",""1"",""39397""
","
","","","-1","","","25","7689","3932","n","elianto","#3366ff99"," ","-1","0","0","[]","0","2","","","7689","137","9","1","win","go","0"
"pit-trial","256","1588550","0.0-142.0","battery-v0.2","","""event"",""trial"",""time""
""fullscreenenter"",""1"",""39397""
","
","
","""event"",""trial"",""time""
""fullscreenenter"",""1"",""39397""
","
","","","-1","","","25","7689","3932","t","elianto","#f73b6a7A","-1","-1","1","0","[]","0","2","","","7689","138","7","4","lose","no-go","0"
"pit-trial","257","1593419","0.0-143.0","battery-v0.2","","""event"",""trial"",""time""
""fullscreenenter"",""1"",""39397""
","
","
","""event"",""trial"",""time""
""fullscreenenter"",""1"",""39397""
","
","","","-1","","","25","7689","3932","f","elianto","#3366ff99"," ","-1","0","+10","[]","0","2","","","7689","139","8","1","win","go","1"
"pit-trial","258","1598283","0.0-144.0","battery-v0.2","","""event"",""trial"",""time""
""fullscreenenter"",""1"",""39397""
","
","
","""event"",""trial"",""time""
""fullscreenenter"",""1"",""39397""
","
","","","-1","","","25","7689","3932","b","elianto","#f73b6a7A"," ","-1","0","-10","[]","0","2","","","7689","140","6","3","lose","go","0"
"pit-instructions","259","1615329","0.0-145.0","battery-v0.2","","""event"",""trial"",""time""
""fullscreenenter"",""1"",""39397""
","
","
","""event"",""trial"",""time""
""fullscreenenter"",""1"",""39397""
","
","","[{""page_index"":0,""viewing_time"":7813.90000000014},{""page_index"":1,""viewing_time"":9230.399999999907}]","17045","","","","","","","","","","","","","","","","","","","","","","","",""
"pit-trial","260","1620194","0.0-146.0","battery-v0.2","","""event"",""trial"",""time""
""fullscreenenter"",""1"",""39397""
","
","
","""event"",""trial"",""time""
""fullscreenenter"",""1"",""39397""
","
","","","-1","","","25","7689","3932","w","elianto","#f73b6a7A"," ","-1","0","0","[]","0","3","","","7689","141","3","3","lose","go","1"
"pit-trial","261","1625058","0.0-147.0","battery-v0.2","","""event"",""trial"",""time""
""fullscreenenter"",""1"",""39397""
","
","
","""event"",""trial"",""time""
""fullscreenenter"",""1"",""39397""
","
","","","-1","","","25","7689","3932","e","elianto","#f73b6a7A","-1","-1","1","0","[]","0","3","","","7689","142","2","4","lose","no-go","0"
"pit-trial","262","1629531","0.0-148.0","battery-v0.2","","""event"",""trial"",""time""
""fullscreenenter"",""1"",""39397""
","
","
","""event"",""trial"",""time""
""fullscreenenter"",""1"",""39397""
","
","","","1607.6999999999534","","","25","7689","3932","d","elianto","#3366ff99"," "," ","1","+10","[2466.1999999999534]","1","3","","","7689","143","1","1","win","go","0"
"pit-trial","263","1634393","0.0-149.0","battery-v0.2","","""event"",""trial"",""time""
""fullscreenenter"",""1"",""39397""
","
","
","""event"",""trial"",""time""
""fullscreenenter"",""1"",""39397""
","
","","","-1","","","25","7689","3932","j","elianto","#f73b6a7A","-1","-1","1","0","[]","0","3","","","7689","144","0","4","lose","no-go","0"
"pit-trial","264","1639257","0.0-150.0","battery-v0.2","","""event"",""trial"",""time""
""fullscreenenter"",""1"",""39397""
","
","
","""event"",""trial"",""time""
""fullscreenenter"",""1"",""39397""
","
","","","-1","","","25","7689","3932","w","elianto","#f73b6a7A"," ","-1","0","-10","[]","0","3","","","7689","145","3","3","lose","go","0"
"pit-trial","265","1643097","0.0-151.0","battery-v0.2","","""event"",""trial"",""time""
""fullscreenenter"",""1"",""39397""
","
","
","""event"",""trial"",""time""
""fullscreenenter"",""1"",""39397""
","
","","","971.6999999999534","","","25","7689","3932","d","elianto","#3366ff99"," "," ","1","+10","[1832.5999999998603]","1","3","","","7689","146","1","1","win","go","0"
"pit-trial","266","1647966","0.0-152.0","battery-v0.2","","""event"",""trial"",""time""
""fullscreenenter"",""1"",""39397""
","
","
","""event"",""trial"",""time""
""fullscreenenter"",""1"",""39397""
","
","","","-1","","","25","7689","3932","e","elianto","#f73b6a7A","-1","-1","1","-10","[]","0","3","","","7689","147","2","4","lose","no-go","1"
"pit-trial","267","1652836","0.0-153.0","battery-v0.2","","""event"",""trial"",""time""
""fullscreenenter"",""1"",""39397""
","
","
","""event"",""trial"",""time""
""fullscreenenter"",""1"",""39397""
","
","","","-1","","","25","7689","3932","j","elianto","#f73b6a7A","-1","-1","1","-10","[]","0","3","","","7689","148","0","4","lose","no-go","1"
"pit-trial","268","1656721","0.0-154.0","battery-v0.2","","""event"",""trial"",""time""
""fullscreenenter"",""1"",""39397""
","
","
","""event"",""trial"",""time""
""fullscreenenter"",""1"",""39397""
","
","","","1024.9000000001397","","","25","7689","3932","d","elianto","#3366ff99"," "," ","1","+10","[1876.3000000000466]","1","3","","","7689","149","1","1","win","go","0"
"pit-trial","269","1661585","0.0-155.0","battery-v0.2","","""event"",""trial"",""time""
""fullscreenenter"",""1"",""39397""
","
","
","""event"",""trial"",""time""
""fullscreenenter"",""1"",""39397""
","
","","","-1","","","25","7689","3932","j","elianto","#f73b6a7A","-1","-1","1","0","[]","0","3","","","7689","150","0","4","lose","no-go","0"
"pit-trial","270","1666454","0.0-156.0","battery-v0.2","","""event"",""trial"",""time""
""fullscreenenter"",""1"",""39397""
","
","
","""event"",""trial"",""time""
""fullscreenenter"",""1"",""39397""
","
","","","-1","","","25","7689","3932","e","elianto","#f73b6a7A","-1","-1","1","0","[]","0","3","","","7689","151","2","4","lose","no-go","0"
