"trial_type","trial_index","time_elapsed","internal_node_id","task_version","subject_id","interactions","blur_events","focus_events","fullscreenenter_events","fullscreenexit_events","success","view_history","rt","responses","num_errors","age","subject","participantId","rune","rune_set","hex","correct","choice","accuracy","outcome","keys","total_keys","block","practice","value","sub","trial","stimulus","robot","valence","action","sham"
"pavlovia","0","8","0.0-0.0","battery-v0.2","","""event"",""trial"",""time""
""fullscreenenter"",""1"",""2946""
","
","
","""event"",""trial"",""time""
""fullscreenenter"",""1"",""2946""
","
","","","","","","","","","","","","","","","","","","","","","","","","","","",""
"fullscreen","1","3911","0.0-1.0","battery-v0.2","","""event"",""trial"",""time""
""fullscreenenter"",""1"",""2946""
","
","
","""event"",""trial"",""time""
""fullscreenenter"",""1"",""2946""
","
","true","","","","","","","","","","","","","","","","","","","","","","","","","",""
"pit-instructions","2","10598","0.0-2.0-0.0","battery-v0.2","","""event"",""trial"",""time""
""fullscreenenter"",""1"",""2946""
","
","
","""event"",""trial"",""time""
""fullscreenenter"",""1"",""2946""
","
","","[{""page_index"":0,""viewing_time"":6678.599999904633}]","6679","","","","","","","","","","","","","","","","","","","","","","","",""
"pit-comprehension","3","16124","0.0-2.0-1.0-0.0","battery-v0.2","","""event"",""trial"",""time""
""fullscreenenter"",""1"",""2946""
","
","
","""event"",""trial"",""time""
""fullscreenenter"",""1"",""2946""
","
","","","5522.099999904633","[""shark""]","0","21","10174","4862","","","","","","","","","","","","","","","","","","",""
"pit-instructions","4","18399","0.0-2.0-1.0-1.0","battery-v0.2","","""event"",""trial"",""time""
""fullscreenenter"",""1"",""2946""
","
","
","""event"",""trial"",""time""
""fullscreenenter"",""1"",""2946""
","
","","[{""page_index"":0,""viewing_time"":2259.7999997138977}]","2260.0999999046326","","","","","","","","","","","","","","","","","","","","","","","",""
"pit-comprehension","5","21863","0.0-2.0-2.0-0.0","battery-v0.2","","""event"",""trial"",""time""
""fullscreenenter"",""1"",""2946""
","
","
","""event"",""trial"",""time""
""fullscreenenter"",""1"",""2946""
","
","","","3460.5","[""tiger""]","0","21","10174","4862","","","","","","","","","","","","","","","","","","",""
"pit-instructions","6","25827","0.0-2.0-2.0-1.0","battery-v0.2","","""event"",""trial"",""time""
""fullscreenenter"",""1"",""2946""
","
","
","""event"",""trial"",""time""
""fullscreenenter"",""1"",""2946""
","
","","[{""page_index"":0,""viewing_time"":3960.4000000953674}]","3960.800000190735","","","","","","","","","","","","","","","","","","","","","","","",""
"pit-instructions","7","135000","0.0-2.0-3.0","battery-v0.2","","""event"",""trial"",""time""
""fullscreenenter"",""1"",""2946""
","
","
","""event"",""trial"",""time""
""fullscreenenter"",""1"",""2946""
","
","","[{""page_index"":0,""viewing_time"":8929.400000095367},{""page_index"":1,""viewing_time"":7510.099999904633},{""page_index"":2,""viewing_time"":8214.099999904633},{""page_index"":3,""viewing_time"":6153.200000286102},{""page_index"":4,""viewing_time"":7012.599999904633},{""page_index"":5,""viewing_time"":6310.799999713898},{""page_index"":6,""viewing_time"":8914.10000038147},{""page_index"":7,""viewing_time"":7597.5},{""page_index"":8,""viewing_time"":7576.299999713898},{""page_index"":9,""viewing_time"":9786.900000095367},{""page_index"":10,""viewing_time"":9023.199999809265},{""page_index"":11,""viewing_time"":8385.700000286102},{""page_index"":12,""viewing_time"":7363.699999809265},{""page_index"":13,""viewing_time"":6391.800000190735}]","109169.80000019073","","","","","","","","","","","","","","","","","","","","","","","",""
"pit-trial","8","138678","0.0-2.0-4.0-0.0","battery-v0.2","","""event"",""trial"",""time""
""fullscreenenter"",""1"",""2946""
","
","
","""event"",""trial"",""time""
""fullscreenenter"",""1"",""2946""
","
","","","815.5","","","21","10174","4862","&#9784;","elianto","#FFFFF080"," "," ","1","&#10004","[1667.5]","1","0","0","","","","","","","",""
"pit-trial","9","142362","0.0-2.0-4.1-0.1","battery-v0.2","","""event"",""trial"",""time""
""fullscreenenter"",""1"",""2946""
","
","
","""event"",""trial"",""time""
""fullscreenenter"",""1"",""2946""
","
","","","813.3000001907349","","","21","10174","4862","&#9784;","elianto","#FFFFF080"," "," ","1","&#10004","[1666.2000002861023]","1","0","0","","","","","","","",""
"pit-trial","10","145737","0.0-2.0-4.2-0.2","battery-v0.2","","""event"",""trial"",""time""
""fullscreenenter"",""1"",""2946""
","
","
","""event"",""trial"",""time""
""fullscreenenter"",""1"",""2946""
","
","","","504.09999990463257","","","21","10174","4862","&#9784;","elianto","#FFFFF080"," "," ","1","&#10004","[1359.6000003814697]","1","0","0","","","","","","","",""
"pit-trial","11","149115","0.0-2.0-4.3-0.3","battery-v0.2","","""event"",""trial"",""time""
""fullscreenenter"",""1"",""2946""
","
","
","""event"",""trial"",""time""
""fullscreenenter"",""1"",""2946""
","
","","","512.0999999046326","","","21","10174","4862","&#9784;","elianto","#FFFFF080"," "," ","1","&#10004","[1369.7999997138977]","1","0","0","","","","","","","",""
"pit-trial","12","152608","0.0-2.0-4.4-0.4","battery-v0.2","","""event"",""trial"",""time""
""fullscreenenter"",""1"",""2946""
","
","
","""event"",""trial"",""time""
""fullscreenenter"",""1"",""2946""
","
","","","629.7999997138977","","","21","10174","4862","&#9784;","elianto","#FFFFF080"," "," ","1","&#10004","[1480.7999997138977]","1","0","0","","","","","","","",""
"pit-instructions","13","175192","0.0-2.0-5.0","battery-v0.2","","""event"",""trial"",""time""
""fullscreenenter"",""1"",""2946""
","
","
","""event"",""trial"",""time""
""fullscreenenter"",""1"",""2946""
","
","","[{""page_index"":0,""viewing_time"":5466.39999961853},{""page_index"":1,""viewing_time"":5789.200000286102},{""page_index"":2,""viewing_time"":6111},{""page_index"":3,""viewing_time"":5208.5}]","22575.39999961853","","","","","","","","","","","","","","","","","","","","","","","",""
"pit-trial","14","180057","0.0-2.0-6.0-0.0","battery-v0.2","","""event"",""trial"",""time""
""fullscreenenter"",""1"",""2946""
","
","
","""event"",""trial"",""time""
""fullscreenenter"",""1"",""2946""
","
","","","-1","","","21","10174","4862","&#9854;","elianto","#FFFFF080","-1","-1","1","&#10004","[]","0","0","1","","","","","","","",""
"pit-trial","15","184935","0.0-2.0-6.1-0.1","battery-v0.2","","""event"",""trial"",""time""
""fullscreenenter"",""1"",""2946""
","
","
","""event"",""trial"",""time""
""fullscreenenter"",""1"",""2946""
","
","","","-1","","","21","10174","4862","&#9854;","elianto","#FFFFF080","-1","-1","1","&#10004","[]","0","0","1","","","","","","","",""
"pit-trial","16","189811","0.0-2.0-6.2-0.2","battery-v0.2","","""event"",""trial"",""time""
""fullscreenenter"",""1"",""2946""
","
","
","""event"",""trial"",""time""
""fullscreenenter"",""1"",""2946""
","
","","","-1","","","21","10174","4862","&#9854;","elianto","#FFFFF080","-1","-1","1","&#10004","[]","0","0","1","","","","","","","",""
"pit-trial","17","194686","0.0-2.0-6.3-0.3","battery-v0.2","","""event"",""trial"",""time""
""fullscreenenter"",""1"",""2946""
","
","
","""event"",""trial"",""time""
""fullscreenenter"",""1"",""2946""
","
","","","-1","","","21","10174","4862","&#9854;","elianto","#FFFFF080","-1","-1","1","&#10004","[]","0","0","1","","","","","","","",""
"pit-trial","18","199565","0.0-2.0-6.4-0.4","battery-v0.2","","""event"",""trial"",""time""
""fullscreenenter"",""1"",""2946""
","
","
","""event"",""trial"",""time""
""fullscreenenter"",""1"",""2946""
","
","","","-1","","","21","10174","4862","&#9854;","elianto","#FFFFF080","-1","-1","1","&#10004","[]","0","0","1","","","","","","","",""
"pit-instructions","19","321773","0.0-2.0-7.0","battery-v0.2","","""event"",""trial"",""time""
""fullscreenenter"",""1"",""2946""
","
","
","""event"",""trial"",""time""
""fullscreenenter"",""1"",""2946""
","
","","[{""page_index"":0,""viewing_time"":6009.199999809265},{""page_index"":1,""viewing_time"":7751.200000286102},{""page_index"":2,""viewing_time"":6305},{""page_index"":3,""viewing_time"":6453},{""page_index"":4,""viewing_time"":5982.599999904633},{""page_index"":5,""viewing_time"":5511.099999904633},{""page_index"":6,""viewing_time"":5088.200000286102},{""page_index"":7,""viewing_time"":8529.699999809265},{""page_index"":8,""viewing_time"":7291.699999809265},{""page_index"":9,""viewing_time"":6728},{""page_index"":10,""viewing_time"":6617.800000190735},{""page_index"":11,""viewing_time"":4775.199999809265},{""page_index"":12,""viewing_time"":7199.200000286102},{""page_index"":13,""viewing_time"":7793.699999809265},{""page_index"":14,""viewing_time"":7965},{""page_index"":15,""viewing_time"":7327.200000286102},{""page_index"":16,""viewing_time"":7184.599999904633},{""page_index"":17,""viewing_time"":7691.799999713898}]","122204.59999990463","","","","","","","","","","","","","","","","","","","","","","","",""
"pit-trial","20","325112","0.0-2.0-8.0-0.0","battery-v0.2","","""event"",""trial"",""time""
""fullscreenenter"",""1"",""2946""
","
","
","""event"",""trial"",""time""
""fullscreenenter"",""1"",""2946""
","
","","","476.59999990463257","","","21","10174","4862","&#9776;","elianto","#3366ff99"," "," ","1","+10","[1330.5999999046326]","1","0","1","","","","","","","",""
"pit-trial","21","328365","0.0-2.0-8.0-1.0","battery-v0.2","","""event"",""trial"",""time""
""fullscreenenter"",""1"",""2946""
","
","
","""event"",""trial"",""time""
""fullscreenenter"",""1"",""2946""
","
","","","372","","","21","10174","4862","&#9776;","elianto","#3366ff99"," "," ","1","+10","[1236.3999996185303]","1","0","1","","","","","","","",""
"pit-trial","22","331574","0.0-2.0-8.0-2.0","battery-v0.2","","""event"",""trial"",""time""
""fullscreenenter"",""1"",""2946""
","
","
","""event"",""trial"",""time""
""fullscreenenter"",""1"",""2946""
","
","","","338.80000019073486","","","21","10174","4862","&#9776;","elianto","#3366ff99"," "," ","1","+10","[1193.5]","1","0","1","","","","","","","",""
"pit-trial","23","334770","0.0-2.0-8.0-3.0","battery-v0.2","","""event"",""trial"",""time""
""fullscreenenter"",""1"",""2946""
","
","
","""event"",""trial"",""time""
""fullscreenenter"",""1"",""2946""
","
","","","328.19999980926514","","","21","10174","4862","&#9776;","elianto","#3366ff99"," "," ","1","0","[1179.5999999046326]","1","0","1","","","","","","","",""
"pit-trial","24","337958","0.0-2.0-8.0-4.0","battery-v0.2","","""event"",""trial"",""time""
""fullscreenenter"",""1"",""2946""
","
","
","""event"",""trial"",""time""
""fullscreenenter"",""1"",""2946""
","
","","","327.19999980926514","","","21","10174","4862","&#9776;","elianto","#3366ff99"," "," ","1","+10","[1178.8000001907349]","1","0","1","","","","","","","",""
"pit-trial","25","341157","0.0-2.0-8.1-0.1","battery-v0.2","","""event"",""trial"",""time""
""fullscreenenter"",""1"",""2946""
","
","
","""event"",""trial"",""time""
""fullscreenenter"",""1"",""2946""
","
","","","330.7000002861023","","","21","10174","4862","&#9776;","elianto","#3366ff99"," "," ","1","+10","[1181.9000000953674]","1","0","1","","","","","","","",""
"pit-trial","26","344285","0.0-2.0-8.1-1.1","battery-v0.2","","""event"",""trial"",""time""
""fullscreenenter"",""1"",""2946""
","
","
","""event"",""trial"",""time""
""fullscreenenter"",""1"",""2946""
","
","","","267.09999990463257","","","21","10174","4862","&#9776;","elianto","#3366ff99"," "," ","1","+10","[1120.0999999046326]","1","0","1","","","","","","","",""
"pit-trial","27","347420","0.0-2.0-8.1-2.1","battery-v0.2","","""event"",""trial"",""time""
""fullscreenenter"",""1"",""2946""
","
","
","""event"",""trial"",""time""
""fullscreenenter"",""1"",""2946""
","
","","","265.69999980926514","","","21","10174","4862","&#9776;","elianto","#3366ff99"," "," ","1","+10","[1119]","1","0","1","","","","","","","",""
"pit-trial","28","350472","0.0-2.0-8.1-3.1","battery-v0.2","","""event"",""trial"",""time""
""fullscreenenter"",""1"",""2946""
","
","
","""event"",""trial"",""time""
""fullscreenenter"",""1"",""2946""
","
","","","190.80000019073486","","","21","10174","4862","&#9776;","elianto","#3366ff99"," "," ","1","0","[1042.5]","1","0","1","","","","","","","",""
"pit-trial","29","353603","0.0-2.0-8.1-4.1","battery-v0.2","","""event"",""trial"",""time""
""fullscreenenter"",""1"",""2946""
","
","
","""event"",""trial"",""time""
""fullscreenenter"",""1"",""2946""
","
","","","273.90000009536743","","","21","10174","4862","&#9776;","elianto","#3366ff99"," "," ","1","+10","[1127]","1","0","1","","","","","","","",""
"pit-trial","30","356857","0.0-2.0-8.2-0.2","battery-v0.2","","""event"",""trial"",""time""
""fullscreenenter"",""1"",""2946""
","
","
","""event"",""trial"",""time""
""fullscreenenter"",""1"",""2946""
","
","","","398.09999990463257","","","21","10174","4862","&#9776;","elianto","#3366ff99"," "," ","1","+10","[1248.3000001907349]","1","0","1","","","","","","","",""
"pit-trial","31","359927","0.0-2.0-8.2-1.2","battery-v0.2","","""event"",""trial"",""time""
""fullscreenenter"",""1"",""2946""
","
","
","""event"",""trial"",""time""
""fullscreenenter"",""1"",""2946""
","
","","","212.09999990463257","","","21","10174","4862","&#9776;","elianto","#3366ff99"," "," ","1","+10","[1064.9000000953674]","1","0","1","","","","","","","",""
"pit-trial","32","363088","0.0-2.0-8.2-2.2","battery-v0.2","","""event"",""trial"",""time""
""fullscreenenter"",""1"",""2946""
","
","
","""event"",""trial"",""time""
""fullscreenenter"",""1"",""2946""
","
","","","303.09999990463257","","","21","10174","4862","&#9776;","elianto","#3366ff99"," "," ","1","+10","[1154]","1","0","1","","","","","","","",""
"pit-trial","33","366133","0.0-2.0-8.2-3.2","battery-v0.2","","""event"",""trial"",""time""
""fullscreenenter"",""1"",""2946""
","
","
","""event"",""trial"",""time""
""fullscreenenter"",""1"",""2946""
","
","","","188.5","","","21","10174","4862","&#9776;","elianto","#3366ff99"," "," ","1","0","[1039.0999999046326]","1","0","1","","","","","","","",""
"pit-trial","34","369178","0.0-2.0-8.2-4.2","battery-v0.2","","""event"",""trial"",""time""
""fullscreenenter"",""1"",""2946""
","
","
","""event"",""trial"",""time""
""fullscreenenter"",""1"",""2946""
","
","","","190","","","21","10174","4862","&#9776;","elianto","#3366ff99"," "," ","1","+10","[1040.2000002861023]","1","0","1","","","","","","","",""
"call-function","35","369183","0.0-2.0-9.0","battery-v0.2","","""event"",""trial"",""time""
""fullscreenenter"",""1"",""2946""
","
","
","""event"",""trial"",""time""
""fullscreenenter"",""1"",""2946""
","
","","","","","","","","","","","","","","","","","","","","","","","","","","",""
"pit-instructions","36","409869","0.0-2.0-10.0","battery-v0.2","","""event"",""trial"",""time""
""fullscreenenter"",""1"",""2946""
","
","
","""event"",""trial"",""time""
""fullscreenenter"",""1"",""2946""
","
","","[{""page_index"":0,""viewing_time"":7241.400000095367},{""page_index"":1,""viewing_time"":6949.5},{""page_index"":2,""viewing_time"":9581.89999961853},{""page_index"":3,""viewing_time"":8996.200000286102},{""page_index"":4,""viewing_time"":7914.699999809265}]","40684.09999990463","","","","","","","","","","","","","","","","","","","","","","","",""
"pit-trial","37","413045","0.0-2.0-11.0-0.0","battery-v0.2","","""event"",""trial"",""time""
""fullscreenenter"",""1"",""2946""
","
","
","""event"",""trial"",""time""
""fullscreenenter"",""1"",""2946""
","
","","","314.19999980926514","","","21","10174","4862","&#9761;","elianto","#3366ff99","-1"," ","0","0","[1170.5]","1","0","2","","","","","","","",""
"pit-trial","38","416218","0.0-2.0-11.0-1.0","battery-v0.2","","""event"",""trial"",""time""
""fullscreenenter"",""1"",""2946""
","
","
","""event"",""trial"",""time""
""fullscreenenter"",""1"",""2946""
","
","","","301.6000003814697","","","21","10174","4862","&#9761;","elianto","#3366ff99","-1"," ","0","0","[1163.0999999046326]","1","0","2","","","","","","","",""
"pit-trial","39","419328","0.0-2.0-11.0-2.0","battery-v0.2","","""event"",""trial"",""time""
""fullscreenenter"",""1"",""2946""
","
","
","""event"",""trial"",""time""
""fullscreenenter"",""1"",""2946""
","
","","","240.40000009536743","","","21","10174","4862","&#9761;","elianto","#3366ff99","-1"," ","0","0","[1096.8000001907349]","1","0","2","","","","","","","",""
"pit-trial","40","424206","0.0-2.0-11.0-3.0","battery-v0.2","","""event"",""trial"",""time""
""fullscreenenter"",""1"",""2946""
","
","
","""event"",""trial"",""time""
""fullscreenenter"",""1"",""2946""
","
","","","-1","","","21","10174","4862","&#9761;","elianto","#3366ff99","-1","-1","1","0","[]","0","0","2","","","","","","","",""
"pit-trial","41","429079","0.0-2.0-11.0-4.0","battery-v0.2","","""event"",""trial"",""time""
""fullscreenenter"",""1"",""2946""
","
","
","""event"",""trial"",""time""
""fullscreenenter"",""1"",""2946""
","
","","","-1","","","21","10174","4862","&#9761;","elianto","#3366ff99","-1","-1","1","+10","[]","0","0","2","","","","","","","",""
"pit-trial","42","433954","0.0-2.0-11.1-0.1","battery-v0.2","","""event"",""trial"",""time""
""fullscreenenter"",""1"",""2946""
","
","
","""event"",""trial"",""time""
""fullscreenenter"",""1"",""2946""
","
","","","-1","","","21","10174","4862","&#9761;","elianto","#3366ff99","-1","-1","1","+10","[]","0","0","2","","","","","","","",""
"pit-trial","43","438830","0.0-2.0-11.1-1.1","battery-v0.2","","""event"",""trial"",""time""
""fullscreenenter"",""1"",""2946""
","
","
","""event"",""trial"",""time""
""fullscreenenter"",""1"",""2946""
","
","","","-1","","","21","10174","4862","&#9761;","elianto","#3366ff99","-1","-1","1","+10","[]","0","0","2","","","","","","","",""
"pit-trial","44","443686","0.0-2.0-11.1-2.1","battery-v0.2","","""event"",""trial"",""time""
""fullscreenenter"",""1"",""2946""
","
","
","""event"",""trial"",""time""
""fullscreenenter"",""1"",""2946""
","
","","","-1","","","21","10174","4862","&#9761;","elianto","#3366ff99","-1","-1","1","+10","[]","0","0","2","","","","","","","",""
"pit-trial","45","448541","0.0-2.0-11.1-3.1","battery-v0.2","","""event"",""trial"",""time""
""fullscreenenter"",""1"",""2946""
","
","
","""event"",""trial"",""time""
""fullscreenenter"",""1"",""2946""
","
","","","-1","","","21","10174","4862","&#9761;","elianto","#3366ff99","-1","-1","1","0","[]","0","0","2","","","","","","","",""
"pit-trial","46","453395","0.0-2.0-11.1-4.1","battery-v0.2","","""event"",""trial"",""time""
""fullscreenenter"",""1"",""2946""
","
","
","""event"",""trial"",""time""
""fullscreenenter"",""1"",""2946""
","
","","","-1","","","21","10174","4862","&#9761;","elianto","#3366ff99","-1","-1","1","+10","[]","0","0","2","","","","","","","",""
"pit-trial","47","458250","0.0-2.0-11.2-0.2","battery-v0.2","","""event"",""trial"",""time""
""fullscreenenter"",""1"",""2946""
","
","
","""event"",""trial"",""time""
""fullscreenenter"",""1"",""2946""
","
","","","-1","","","21","10174","4862","&#9761;","elianto","#3366ff99","-1","-1","1","+10","[]","0","0","2","","","","","","","",""
"pit-trial","48","463120","0.0-2.0-11.2-1.2","battery-v0.2","","""event"",""trial"",""time""
""fullscreenenter"",""1"",""2946""
","
","
","""event"",""trial"",""time""
""fullscreenenter"",""1"",""2946""
","
","","","-1","","","21","10174","4862","&#9761;","elianto","#3366ff99","-1","-1","1","+10","[]","0","0","2","","","","","","","",""
"pit-trial","49","467977","0.0-2.0-11.2-2.2","battery-v0.2","","""event"",""trial"",""time""
""fullscreenenter"",""1"",""2946""
","
","
","""event"",""trial"",""time""
""fullscreenenter"",""1"",""2946""
","
","","","-1","","","21","10174","4862","&#9761;","elianto","#3366ff99","-1","-1","1","+10","[]","0","0","2","","","","","","","",""
"pit-trial","50","472833","0.0-2.0-11.2-3.2","battery-v0.2","","""event"",""trial"",""time""
""fullscreenenter"",""1"",""2946""
","
","
","""event"",""trial"",""time""
""fullscreenenter"",""1"",""2946""
","
","","","-1","","","21","10174","4862","&#9761;","elianto","#3366ff99","-1","-1","1","0","[]","0","0","2","","","","","","","",""
"pit-trial","51","477687","0.0-2.0-11.2-4.2","battery-v0.2","","""event"",""trial"",""time""
""fullscreenenter"",""1"",""2946""
","
","
","""event"",""trial"",""time""
""fullscreenenter"",""1"",""2946""
","
","","","-1","","","21","10174","4862","&#9761;","elianto","#3366ff99","-1","-1","1","+10","[]","0","0","2","","","","","","","",""
"pit-trial","52","482541","0.0-2.0-11.3-0.3","battery-v0.2","","""event"",""trial"",""time""
""fullscreenenter"",""1"",""2946""
","
","
","""event"",""trial"",""time""
""fullscreenenter"",""1"",""2946""
","
","","","-1","","","21","10174","4862","&#9761;","elianto","#3366ff99","-1","-1","1","+10","[]","0","0","2","","","","","","","",""
"pit-trial","53","486040","0.0-2.0-11.3-1.3","battery-v0.2","","""event"",""trial"",""time""
""fullscreenenter"",""1"",""2946""
","
","
","""event"",""trial"",""time""
""fullscreenenter"",""1"",""2946""
","
","","","642.5","","","21","10174","4862","&#9761;","elianto","#3366ff99","-1"," ","0","0","[1494]","1","0","2","","","","","","","",""
"pit-trial","54","490896","0.0-2.0-11.3-2.3","battery-v0.2","","""event"",""trial"",""time""
""fullscreenenter"",""1"",""2946""
","
","
","""event"",""trial"",""time""
""fullscreenenter"",""1"",""2946""
","
","","","-1","","","21","10174","4862","&#9761;","elianto","#3366ff99","-1","-1","1","+10","[]","0","0","2","","","","","","","",""
"pit-trial","55","495749","0.0-2.0-11.3-3.3","battery-v0.2","","""event"",""trial"",""time""
""fullscreenenter"",""1"",""2946""
","
","
","""event"",""trial"",""time""
""fullscreenenter"",""1"",""2946""
","
","","","-1","","","21","10174","4862","&#9761;","elianto","#3366ff99","-1","-1","1","0","[]","0","0","2","","","","","","","",""
"pit-trial","56","500124","0.0-2.0-11.3-4.3","battery-v0.2","","""event"",""trial"",""time""
""fullscreenenter"",""1"",""2946""
","
","
","""event"",""trial"",""time""
""fullscreenenter"",""1"",""2946""
","
","","","1519.7000002861023","","","21","10174","4862","&#9761;","elianto","#3366ff99","-1"," ","0","0","[2369.7999997138977]","1","0","2","","","","","","","",""
"call-function","57","500128","0.0-2.0-12.0","battery-v0.2","","""event"",""trial"",""time""
""fullscreenenter"",""1"",""2946""
","
","
","""event"",""trial"",""time""
""fullscreenenter"",""1"",""2946""
","
","","","","","","","","","","","","","","","","","","","","","","","","","","",""
"pit-instructions","58","532972","0.0-2.0-13.0","battery-v0.2","","""event"",""trial"",""time""
""fullscreenenter"",""1"",""2946""
","
","
","""event"",""trial"",""time""
""fullscreenenter"",""1"",""2946""
","
","","[{""page_index"":0,""viewing_time"":6165.099999904633},{""page_index"":1,""viewing_time"":7385.200000286102},{""page_index"":2,""viewing_time"":3758.0999999046326},{""page_index"":3,""viewing_time"":10425.900000095367},{""page_index"":4,""viewing_time"":5108.599999904633}]","32843.300000190735","","","","","","","","","","","","","","","","","","","","","","","",""
"pit-trial","59","536128","0.0-2.0-14.0-0.0","battery-v0.2","","""event"",""trial"",""time""
""fullscreenenter"",""1"",""2946""
","
","
","""event"",""trial"",""time""
""fullscreenenter"",""1"",""2946""
","
","","","289.2999997138977","","","21","10174","4862","&#9826;","elianto","#f73b6a7A","-1"," ","0","-10","[1147.1999998092651]","1","0","3","","","","","","","",""
"pit-trial","60","539395","0.0-2.0-14.0-1.0","battery-v0.2","","""event"",""trial"",""time""
""fullscreenenter"",""1"",""2946""
","
","
","""event"",""trial"",""time""
""fullscreenenter"",""1"",""2946""
","
","","","401.6000003814697","","","21","10174","4862","&#9826;","elianto","#f73b6a7A","-1"," ","0","-10","[1253.5999999046326]","1","0","3","","","","","","","",""
"pit-trial","61","542700","0.0-2.0-14.0-2.0","battery-v0.2","","""event"",""trial"",""time""
""fullscreenenter"",""1"",""2946""
","
","
","""event"",""trial"",""time""
""fullscreenenter"",""1"",""2946""
","
","","","434.59999990463257","","","21","10174","4862","&#9826;","elianto","#f73b6a7A","-1"," ","0","-10","[1285.5]","1","0","3","","","","","","","",""
"pit-trial","62","547566","0.0-2.0-14.0-3.0","battery-v0.2","","""event"",""trial"",""time""
""fullscreenenter"",""1"",""2946""
","
","
","""event"",""trial"",""time""
""fullscreenenter"",""1"",""2946""
","
","","","-1","","","21","10174","4862","&#9826;","elianto","#f73b6a7A","-1","-1","1","-10","[]","0","0","3","","","","","","","",""
"pit-trial","63","552435","0.0-2.0-14.0-4.0","battery-v0.2","","""event"",""trial"",""time""
""fullscreenenter"",""1"",""2946""
","
","
","""event"",""trial"",""time""
""fullscreenenter"",""1"",""2946""
","
","","","-1","","","21","10174","4862","&#9826;","elianto","#f73b6a7A","-1","-1","1","0","[]","0","0","3","","","","","","","",""
"pit-trial","64","557298","0.0-2.0-14.1-0.1","battery-v0.2","","""event"",""trial"",""time""
""fullscreenenter"",""1"",""2946""
","
","
","""event"",""trial"",""time""
""fullscreenenter"",""1"",""2946""
","
","","","-1","","","21","10174","4862","&#9826;","elianto","#f73b6a7A","-1","-1","1","0","[]","0","0","3","","","","","","","",""
"pit-trial","65","562181","0.0-2.0-14.1-1.1","battery-v0.2","","""event"",""trial"",""time""
""fullscreenenter"",""1"",""2946""
","
","
","""event"",""trial"",""time""
""fullscreenenter"",""1"",""2946""
","
","","","-1","","","21","10174","4862","&#9826;","elianto","#f73b6a7A","-1","-1","1","0","[]","0","0","3","","","","","","","",""
"pit-trial","66","567038","0.0-2.0-14.1-2.1","battery-v0.2","","""event"",""trial"",""time""
""fullscreenenter"",""1"",""2946""
","
","
","""event"",""trial"",""time""
""fullscreenenter"",""1"",""2946""
","
","","","-1","","","21","10174","4862","&#9826;","elianto","#f73b6a7A","-1","-1","1","0","[]","0","0","3","","","","","","","",""
"pit-trial","67","571894","0.0-2.0-14.1-3.1","battery-v0.2","","""event"",""trial"",""time""
""fullscreenenter"",""1"",""2946""
","
","
","""event"",""trial"",""time""
""fullscreenenter"",""1"",""2946""
","
","","","-1","","","21","10174","4862","&#9826;","elianto","#f73b6a7A","-1","-1","1","-10","[]","0","0","3","","","","","","","",""
"pit-trial","68","576749","0.0-2.0-14.1-4.1","battery-v0.2","","""event"",""trial"",""time""
""fullscreenenter"",""1"",""2946""
","
","
","""event"",""trial"",""time""
""fullscreenenter"",""1"",""2946""
","
","","","-1","","","21","10174","4862","&#9826;","elianto","#f73b6a7A","-1","-1","1","0","[]","0","0","3","","","","","","","",""
"pit-trial","69","581606","0.0-2.0-14.2-0.2","battery-v0.2","","""event"",""trial"",""time""
""fullscreenenter"",""1"",""2946""
","
","
","""event"",""trial"",""time""
""fullscreenenter"",""1"",""2946""
","
","","","-1","","","21","10174","4862","&#9826;","elianto","#f73b6a7A","-1","-1","1","0","[]","0","0","3","","","","","","","",""
"pit-trial","70","586461","0.0-2.0-14.2-1.2","battery-v0.2","","""event"",""trial"",""time""
""fullscreenenter"",""1"",""2946""
","
","
","""event"",""trial"",""time""
""fullscreenenter"",""1"",""2946""
","
","","","-1","","","21","10174","4862","&#9826;","elianto","#f73b6a7A","-1","-1","1","0","[]","0","0","3","","","","","","","",""
"pit-trial","71","591316","0.0-2.0-14.2-2.2","battery-v0.2","","""event"",""trial"",""time""
""fullscreenenter"",""1"",""2946""
","
","
","""event"",""trial"",""time""
""fullscreenenter"",""1"",""2946""
","
","","","-1","","","21","10174","4862","&#9826;","elianto","#f73b6a7A","-1","-1","1","0","[]","0","0","3","","","","","","","",""
"pit-trial","72","596172","0.0-2.0-14.2-3.2","battery-v0.2","","""event"",""trial"",""time""
""fullscreenenter"",""1"",""2946""
","
","
","""event"",""trial"",""time""
""fullscreenenter"",""1"",""2946""
","
","","","-1","","","21","10174","4862","&#9826;","elianto","#f73b6a7A","-1","-1","1","-10","[]","0","0","3","","","","","","","",""
"pit-trial","73","601029","0.0-2.0-14.2-4.2","battery-v0.2","","""event"",""trial"",""time""
""fullscreenenter"",""1"",""2946""
","
","
","""event"",""trial"",""time""
""fullscreenenter"",""1"",""2946""
","
","","","-1","","","21","10174","4862","&#9826;","elianto","#f73b6a7A","-1","-1","1","0","[]","0","0","3","","","","","","","",""
"pit-trial","74","605887","0.0-2.0-14.3-0.3","battery-v0.2","","""event"",""trial"",""time""
""fullscreenenter"",""1"",""2946""
","
","
","""event"",""trial"",""time""
""fullscreenenter"",""1"",""2946""
","
","","","-1","","","21","10174","4862","&#9826;","elianto","#f73b6a7A","-1","-1","1","0","[]","0","0","3","","","","","","","",""
"pit-trial","75","610742","0.0-2.0-14.3-1.3","battery-v0.2","","""event"",""trial"",""time""
""fullscreenenter"",""1"",""2946""
","
","
","""event"",""trial"",""time""
""fullscreenenter"",""1"",""2946""
","
","","","-1","","","21","10174","4862","&#9826;","elianto","#f73b6a7A","-1","-1","1","0","[]","0","0","3","","","","","","","",""
"pit-trial","76","615596","0.0-2.0-14.3-2.3","battery-v0.2","","""event"",""trial"",""time""
""fullscreenenter"",""1"",""2946""
","
","
","""event"",""trial"",""time""
""fullscreenenter"",""1"",""2946""
","
","","","-1","","","21","10174","4862","&#9826;","elianto","#f73b6a7A","-1","-1","1","0","[]","0","0","3","","","","","","","",""
"pit-trial","77","620452","0.0-2.0-14.3-3.3","battery-v0.2","","""event"",""trial"",""time""
""fullscreenenter"",""1"",""2946""
","
","
","""event"",""trial"",""time""
""fullscreenenter"",""1"",""2946""
","
","","","-1","","","21","10174","4862","&#9826;","elianto","#f73b6a7A","-1","-1","1","-10","[]","0","0","3","","","","","","","",""
"pit-trial","78","625307","0.0-2.0-14.3-4.3","battery-v0.2","","""event"",""trial"",""time""
""fullscreenenter"",""1"",""2946""
","
","
","""event"",""trial"",""time""
""fullscreenenter"",""1"",""2946""
","
","","","-1","","","21","10174","4862","&#9826;","elianto","#f73b6a7A","-1","-1","1","0","[]","0","0","3","","","","","","","",""
"call-function","79","625310","0.0-2.0-15.0","battery-v0.2","","""event"",""trial"",""time""
""fullscreenenter"",""1"",""2946""
","
","
","""event"",""trial"",""time""
""fullscreenenter"",""1"",""2946""
","
","","","","","","","","","","","","","","","","","","","","","","","","","","",""
"pit-instructions","80","652130","0.0-2.0-16.0","battery-v0.2","","""event"",""trial"",""time""
""fullscreenenter"",""1"",""2946""
","
","
","""event"",""trial"",""time""
""fullscreenenter"",""1"",""2946""
","
","","[{""page_index"":0,""viewing_time"":7527.599999904633},{""page_index"":1,""viewing_time"":8629.200000286102},{""page_index"":2,""viewing_time"":5087.599999904633},{""page_index"":3,""viewing_time"":5573.599999904633}]","26818.400000095367","","","","","","","","","","","","","","","","","","","","","","","",""
"pit-trial","81","655353","0.0-2.0-17.0-0.0","battery-v0.2","","""event"",""trial"",""time""
""fullscreenenter"",""1"",""2946""
","
","
","""event"",""trial"",""time""
""fullscreenenter"",""1"",""2946""
","
","","","359","","","21","10174","4862","&#9789;","elianto","#f73b6a7A"," "," ","1","0","[1214.7000002861023]","1","0","4","","","","","","","",""
"pit-trial","82","658517","0.0-2.0-17.0-1.0","battery-v0.2","","""event"",""trial"",""time""
""fullscreenenter"",""1"",""2946""
","
","
","""event"",""trial"",""time""
""fullscreenenter"",""1"",""2946""
","
","","","298","","","21","10174","4862","&#9789;","elianto","#f73b6a7A"," "," ","1","0","[1150.2000002861023]","1","0","4","","","","","","","",""
"pit-trial","83","661707","0.0-2.0-17.0-2.0","battery-v0.2","","""event"",""trial"",""time""
""fullscreenenter"",""1"",""2946""
","
","
","""event"",""trial"",""time""
""fullscreenenter"",""1"",""2946""
","
","","","322.69999980926514","","","21","10174","4862","&#9789;","elianto","#f73b6a7A"," "," ","1","0","[1173.6999998092651]","1","0","4","","","","","","","",""
"pit-trial","84","664811","0.0-2.0-17.0-3.0","battery-v0.2","","""event"",""trial"",""time""
""fullscreenenter"",""1"",""2946""
","
","
","""event"",""trial"",""time""
""fullscreenenter"",""1"",""2946""
","
","","","246.59999990463257","","","21","10174","4862","&#9789;","elianto","#f73b6a7A"," "," ","1","-10","[1097.0999999046326]","1","0","4","","","","","","","",""
"pit-trial","85","667921","0.0-2.0-17.0-4.0","battery-v0.2","","""event"",""trial"",""time""
""fullscreenenter"",""1"",""2946""
","
","
","""event"",""trial"",""time""
""fullscreenenter"",""1"",""2946""
","
","","","245.40000009536743","","","21","10174","4862","&#9789;","elianto","#f73b6a7A"," "," ","1","0","[1102.1999998092651]","1","0","4","","","","","","","",""
"pit-trial","86","670890","0.0-2.0-17.1-0.1","battery-v0.2","","""event"",""trial"",""time""
""fullscreenenter"",""1"",""2946""
","
","
","""event"",""trial"",""time""
""fullscreenenter"",""1"",""2946""
","
","","","108.89999961853027","","","21","10174","4862","&#9789;","elianto","#f73b6a7A"," "," ","1","0","[960.7999997138977]","1","0","4","","","","","","","",""
"pit-trial","87","674117","0.0-2.0-17.1-1.1","battery-v0.2","","""event"",""trial"",""time""
""fullscreenenter"",""1"",""2946""
","
","
","""event"",""trial"",""time""
""fullscreenenter"",""1"",""2946""
","
","","","348.7000002861023","","","21","10174","4862","&#9789;","elianto","#f73b6a7A"," "," ","1","0","[1211.6000003814697]","1","0","4","","","","","","","",""
"pit-trial","88","677112","0.0-2.0-17.1-2.1","battery-v0.2","","""event"",""trial"",""time""
""fullscreenenter"",""1"",""2946""
","
","
","""event"",""trial"",""time""
""fullscreenenter"",""1"",""2946""
","
","","","129.40000009536743","","","21","10174","4862","&#9789;","elianto","#f73b6a7A"," "," ","1","0","[981.1000003814697]","1","0","4","","","","","","","",""
"pit-trial","89","680059","0.0-2.0-17.1-3.1","battery-v0.2","","""event"",""trial"",""time""
""fullscreenenter"",""1"",""2946""
","
","
","""event"",""trial"",""time""
""fullscreenenter"",""1"",""2946""
","
","","","72","","","21","10174","4862","&#9789;","elianto","#f73b6a7A"," "," ","1","-10","[929.5]","1","0","4","","","","","","","",""
"pit-trial","90","683099","0.0-2.0-17.1-4.1","battery-v0.2","","""event"",""trial"",""time""
""fullscreenenter"",""1"",""2946""
","
","
","""event"",""trial"",""time""
""fullscreenenter"",""1"",""2946""
","
","","","171.89999961853027","","","21","10174","4862","&#9789;","elianto","#f73b6a7A"," "," ","1","0","[1034.7999997138977]","1","0","4","","","","","","","",""
"pit-trial","91","686074","0.0-2.0-17.2-0.2","battery-v0.2","","""event"",""trial"",""time""
""fullscreenenter"",""1"",""2946""
","
","
","""event"",""trial"",""time""
""fullscreenenter"",""1"",""2946""
","
","","","116.5","","","21","10174","4862","&#9789;","elianto","#f73b6a7A"," "," ","1","0","[970.1999998092651]","1","0","4","","","","","","","",""
"pit-trial","92","689003","0.0-2.0-17.2-1.2","battery-v0.2","","""event"",""trial"",""time""
""fullscreenenter"",""1"",""2946""
","
","
","""event"",""trial"",""time""
""fullscreenenter"",""1"",""2946""
","
","","","75.80000019073486","","","21","10174","4862","&#9789;","elianto","#f73b6a7A"," "," ","1","0","[926.1000003814697]","1","0","4","","","","","","","",""
"pit-trial","93","691983","0.0-2.0-17.2-2.2","battery-v0.2","","""event"",""trial"",""time""
""fullscreenenter"",""1"",""2946""
","
","
","""event"",""trial"",""time""
""fullscreenenter"",""1"",""2946""
","
","","","125.59999990463257","","","21","10174","4862","&#9789;","elianto","#f73b6a7A"," "," ","1","0","[976.0999999046326]","1","0","4","","","","","","","",""
"pit-trial","94","694968","0.0-2.0-17.2-3.2","battery-v0.2","","""event"",""trial"",""time""
""fullscreenenter"",""1"",""2946""
","
","
","""event"",""trial"",""time""
""fullscreenenter"",""1"",""2946""
","
","","","128.7000002861023","","","21","10174","4862","&#9789;","elianto","#f73b6a7A"," "," ","1","-10","[979.5999999046326]","1","0","4","","","","","","","",""
"pit-trial","95","697964","0.0-2.0-17.2-4.2","battery-v0.2","","""event"",""trial"",""time""
""fullscreenenter"",""1"",""2946""
","
","
","""event"",""trial"",""time""
""fullscreenenter"",""1"",""2946""
","
","","","140.2000002861023","","","21","10174","4862","&#9789;","elianto","#f73b6a7A"," "," ","1","0","[991]","1","0","4","","","","","","","",""
"pit-trial","96","700971","0.0-2.0-17.3-0.3","battery-v0.2","","""event"",""trial"",""time""
""fullscreenenter"",""1"",""2946""
","
","
","""event"",""trial"",""time""
""fullscreenenter"",""1"",""2946""
","
","","","152.2999997138977","","","21","10174","4862","&#9789;","elianto","#f73b6a7A"," "," ","1","0","[1002.4000000953674]","1","0","4","","","","","","","",""
"pit-trial","97","703870","0.0-2.0-17.3-1.3","battery-v0.2","","""event"",""trial"",""time""
""fullscreenenter"",""1"",""2946""
","
","
","""event"",""trial"",""time""
""fullscreenenter"",""1"",""2946""
","
","","","40","","","21","10174","4862","&#9789;","elianto","#f73b6a7A"," "," ","1","0","[894.7000002861023]","1","0","4","","","","","","","",""
"pit-trial","98","706848","0.0-2.0-17.3-2.3","battery-v0.2","","""event"",""trial"",""time""
""fullscreenenter"",""1"",""2946""
","
","
","""event"",""trial"",""time""
""fullscreenenter"",""1"",""2946""
","
","","","124","","","21","10174","4862","&#9789;","elianto","#f73b6a7A"," "," ","1","0","[974.1000003814697]","1","0","4","","","","","","","",""
"pit-trial","99","709817","0.0-2.0-17.3-3.3","battery-v0.2","","""event"",""trial"",""time""
""fullscreenenter"",""1"",""2946""
","
","
","""event"",""trial"",""time""
""fullscreenenter"",""1"",""2946""
","
","","","111.2000002861023","","","21","10174","4862","&#9789;","elianto","#f73b6a7A"," "," ","1","-10","[964]","1","0","4","","","","","","","",""
"pit-trial","100","712788","0.0-2.0-17.3-4.3","battery-v0.2","","""event"",""trial"",""time""
""fullscreenenter"",""1"",""2946""
","
","
","""event"",""trial"",""time""
""fullscreenenter"",""1"",""2946""
","
","","","115.90000009536743","","","21","10174","4862","&#9789;","elianto","#f73b6a7A"," "," ","1","0","[966.9000000953674]","1","0","4","","","","","","","",""
"call-function","101","712792","0.0-2.0-18.0","battery-v0.2","","""event"",""trial"",""time""
""fullscreenenter"",""1"",""2946""
","
","
","""event"",""trial"",""time""
""fullscreenenter"",""1"",""2946""
","
","","","","","","","","","","","","","","","","","","","","","","","","","","",""
"pit-instructions","102","784400","0.0-2.0-19.0","battery-v0.2","","""event"",""trial"",""time""
""fullscreenenter"",""1"",""2946""
","
","
","""event"",""trial"",""time""
""fullscreenenter"",""1"",""2946""
","
","","[{""page_index"":0,""viewing_time"":7128},{""page_index"":1,""viewing_time"":6553.5},{""page_index"":2,""viewing_time"":13989.099999904633},{""page_index"":3,""viewing_time"":7785.200000286102},{""page_index"":4,""viewing_time"":8507},{""page_index"":5,""viewing_time"":8707.599999904633},{""page_index"":6,""viewing_time"":8495.5},{""page_index"":7,""viewing_time"":6261.400000095367},{""page_index"":8,""viewing_time"":4180}]","71607.59999990463","","","","","","","","","","","","","","","","","","","","","","","",""
"pit-comprehension","103","789146","0.0-2.0-20.0-0.0","battery-v0.2","","""event"",""trial"",""time""
""fullscreenenter"",""1"",""2946""
","
","
","""event"",""trial"",""time""
""fullscreenenter"",""1"",""2946""
","
","","","4742","[""SPACE""]","0","21","10174","4862","","","","","","","","","","","","","","","","","","",""
"pit-instructions","104","792259","0.0-2.0-20.0-1.0","battery-v0.2","","""event"",""trial"",""time""
""fullscreenenter"",""1"",""2946""
","
","
","""event"",""trial"",""time""
""fullscreenenter"",""1"",""2946""
","
","","[{""page_index"":0,""viewing_time"":3069.5999999046326}]","3070.0999999046326","","","","","","","","","","","","","","","","","","","","","","","",""
"pit-comprehension","105","798715","0.0-2.0-21.0-0.0","battery-v0.2","","""event"",""trial"",""time""
""fullscreenenter"",""1"",""2946""
","
","
","""event"",""trial"",""time""
""fullscreenenter"",""1"",""2946""
","
","","","6452.400000095367","[""10""]","0","21","10174","4862","","","","","","","","","","","","","","","","","","",""
"pit-instructions","106","800648","0.0-2.0-21.0-1.0","battery-v0.2","","""event"",""trial"",""time""
""fullscreenenter"",""1"",""2946""
","
","
","""event"",""trial"",""time""
""fullscreenenter"",""1"",""2946""
","
","","[{""page_index"":0,""viewing_time"":1894.3999996185303}]","1894.7999997138977","","","","","","","","","","","","","","","","","","","","","","","",""
"pit-comprehension","107","811170","0.0-2.0-22.0-0.0","battery-v0.2","","""event"",""trial"",""time""
""fullscreenenter"",""1"",""2946""
","
","
","""event"",""trial"",""time""
""fullscreenenter"",""1"",""2946""
","
","","","10519.400000095367","[""0""]","0","21","10174","4862","","","","","","","","","","","","","","","","","","",""
"pit-instructions","108","812794","0.0-2.0-22.0-1.0","battery-v0.2","","""event"",""trial"",""time""
""fullscreenenter"",""1"",""2946""
","
","
","""event"",""trial"",""time""
""fullscreenenter"",""1"",""2946""
","
","","[{""page_index"":0,""viewing_time"":1589}]","1589.3000001907349","","","","","","","","","","","","","","","","","","","","","","","",""
"pit-comprehension","109","821675","0.0-2.0-23.0-0.0","battery-v0.2","","""event"",""trial"",""time""
""fullscreenenter"",""1"",""2946""
","
","
","""event"",""trial"",""time""
""fullscreenenter"",""1"",""2946""
","
","","","8878","[""True""]","0","21","10174","4862","","","","","","","","","","","","","","","","","","",""
"pit-instructions","110","823686","0.0-2.0-23.0-1.0","battery-v0.2","","""event"",""trial"",""time""
""fullscreenenter"",""1"",""2946""
","
","
","""event"",""trial"",""time""
""fullscreenenter"",""1"",""2946""
","
","","[{""page_index"":0,""viewing_time"":1964}]","1964.3999996185303","","","","","","","","","","","","","","","","","","","","","","","",""
"pit-comprehension","111","831382","0.0-2.0-24.0-0.0","battery-v0.2","","""event"",""trial"",""time""
""fullscreenenter"",""1"",""2946""
","
","
","""event"",""trial"",""time""
""fullscreenenter"",""1"",""2946""
","
","","","7692.39999961853","[""True""]","0","21","10174","4862","","","","","","","","","","","","","","","","","","",""
"pit-instructions","112","833170","0.0-2.0-24.0-1.0","battery-v0.2","","""event"",""trial"",""time""
""fullscreenenter"",""1"",""2946""
","
","
","""event"",""trial"",""time""
""fullscreenenter"",""1"",""2946""
","
","","[{""page_index"":0,""viewing_time"":1752.8000001907349}]","1753.1999998092651","","","","","","","","","","","","","","","","","","","","","","","",""
"pit-comprehension","113","839712","0.0-2.0-25.0-0.0","battery-v0.2","","""event"",""trial"",""time""
""fullscreenenter"",""1"",""2946""
","
","
","""event"",""trial"",""time""
""fullscreenenter"",""1"",""2946""
","
","","","6539.400000095367","[""True""]","0","21","10174","4862","","","","","","","","","","","","","","","","","","",""
"pit-instructions","114","842731","0.0-2.0-25.0-1.0","battery-v0.2","","""event"",""trial"",""time""
""fullscreenenter"",""1"",""2946""
","
","
","""event"",""trial"",""time""
""fullscreenenter"",""1"",""2946""
","
","","[{""page_index"":0,""viewing_time"":2983.9000000953674}]","2984.2999997138977","","","","","","","","","","","","","","","","","","","","","","","",""
"pit-comprehension","115","847384","0.0-2.0-26.0-0.0","battery-v0.2","","""event"",""trial"",""time""
""fullscreenenter"",""1"",""2946""
","
","
","""event"",""trial"",""time""
""fullscreenenter"",""1"",""2946""
","
","","","4649.300000190735","[""False""]","0","21","10174","4862","","","","","","","","","","","","","","","","","","",""
"pit-instructions","116","849038","0.0-2.0-26.0-1.0","battery-v0.2","","""event"",""trial"",""time""
""fullscreenenter"",""1"",""2946""
","
","
","""event"",""trial"",""time""
""fullscreenenter"",""1"",""2946""
","
","","[{""page_index"":0,""viewing_time"":1613.0999999046326}]","1613.4000000953674","","","","","","","","","","","","","","","","","","","","","","","",""
"pit-instructions","117","864458","0.0-3.0","battery-v0.2","","""event"",""trial"",""time""
""fullscreenenter"",""1"",""2946""
","
","
","""event"",""trial"",""time""
""fullscreenenter"",""1"",""2946""
","
","","[{""page_index"":0,""viewing_time"":4133.800000190735},{""page_index"":1,""viewing_time"":5209.39999961853},{""page_index"":2,""viewing_time"":6075.200000286102}]","15418.699999809265","","","","","","","","","","","","","","","","","","","","","","","",""
"pit-trial","118","867840","0.0-4.0","battery-v0.2","","""event"",""trial"",""time""
""fullscreenenter"",""1"",""2946""
","
","
","""event"",""trial"",""time""
""fullscreenenter"",""1"",""2946""
","
","","","515.8000001907349","","","21","10174","4862","&#9752;","elianto","#f73b6a7A"," "," ","1","0","[1368.9000000953674]","1","1","","","10174","1","3","3","lose","go","0"
"pit-trial","119","871174","0.0-5.0","battery-v0.2","","""event"",""trial"",""time""
""fullscreenenter"",""1"",""2946""
","
","
","""event"",""trial"",""time""
""fullscreenenter"",""1"",""2946""
","
","","","474.40000009536743","","","21","10174","4862","&#9730;","elianto","#3366ff99"," "," ","1","+10","[1329.5999999046326]","1","1","","","10174","2","1","1","win","go","0"
"pit-trial","120","874644","0.0-6.0","battery-v0.2","","""event"",""trial"",""time""
""fullscreenenter"",""1"",""2946""
","
","
","""event"",""trial"",""time""
""fullscreenenter"",""1"",""2946""
","
","","","597.3999996185303","","","21","10174","4862","&#9733;","elianto","#3366ff99","-1"," ","0","0","[1451.1999998092651]","1","1","","","10174","3","2","2","win","no-go","0"
"pit-trial","121","878260","0.0-7.0","battery-v0.2","","""event"",""trial"",""time""
""fullscreenenter"",""1"",""2946""
","
","
","""event"",""trial"",""time""
""fullscreenenter"",""1"",""2946""
","
","","","754.7000002861023","","","21","10174","4862","&#9728;","elianto","#f73b6a7A","-1"," ","0","-10","[1606]","1","1","","","10174","4","0","4","lose","no-go","0"
"pit-trial","122","882035","0.0-8.0","battery-v0.2","","""event"",""trial"",""time""
""fullscreenenter"",""1"",""2946""
","
","
","""event"",""trial"",""time""
""fullscreenenter"",""1"",""2946""
","
","","","915.5","","","21","10174","4862","&#9728;","elianto","#f73b6a7A","-1"," ","0","-10","[1767.5]","1","1","","","10174","5","0","4","lose","no-go","0"
"pit-trial","123","885623","0.0-9.0","battery-v0.2","","""event"",""trial"",""time""
""fullscreenenter"",""1"",""2946""
","
","
","""event"",""trial"",""time""
""fullscreenenter"",""1"",""2946""
","
","","","723.7000002861023","","","21","10174","4862","&#9730;","elianto","#3366ff99"," "," ","1","+10","[1583.4000000953674]","1","1","","","10174","6","1","1","win","go","0"
"pit-trial","124","889377","0.0-10.0","battery-v0.2","","""event"",""trial"",""time""
""fullscreenenter"",""1"",""2946""
","
","
","""event"",""trial"",""time""
""fullscreenenter"",""1"",""2946""
","
","","","890.8000001907349","","","21","10174","4862","&#9752;","elianto","#f73b6a7A"," "," ","1","0","[1745.1999998092651]","1","1","","","10174","7","3","3","lose","go","0"
"pit-trial","125","893260","0.0-11.0","battery-v0.2","","""event"",""trial"",""time""
""fullscreenenter"",""1"",""2946""
","
","
","""event"",""trial"",""time""
""fullscreenenter"",""1"",""2946""
","
","","","1010.5","","","21","10174","4862","&#9733;","elianto","#3366ff99","-1"," ","0","0","[1861.9000000953674]","1","1","","","10174","8","2","2","win","no-go","0"
"pit-trial","126","896995","0.0-12.0","battery-v0.2","","""event"",""trial"",""time""
""fullscreenenter"",""1"",""2946""
","
","
","""event"",""trial"",""time""
""fullscreenenter"",""1"",""2946""
","
","","","878.0999999046326","","","21","10174","4862","&#9752;","elianto","#f73b6a7A"," "," ","1","0","[1729.4000000953674]","1","1","","","10174","9","3","3","lose","go","0"
"pit-trial","127","900684","0.0-13.0","battery-v0.2","","""event"",""trial"",""time""
""fullscreenenter"",""1"",""2946""
","
","
","""event"",""trial"",""time""
""fullscreenenter"",""1"",""2946""
","
","","","830.6000003814697","","","21","10174","4862","&#9730;","elianto","#3366ff99"," "," ","1","+10","[1683.0999999046326]","1","1","","","10174","10","1","1","win","go","0"
"pit-trial","128","904395","0.0-14.0","battery-v0.2","","""event"",""trial"",""time""
""fullscreenenter"",""1"",""2946""
","
","
","""event"",""trial"",""time""
""fullscreenenter"",""1"",""2946""
","
","","","855.2000002861023","","","21","10174","4862","&#9733;","elianto","#3366ff99","-1"," ","0","0","[1707.3000001907349]","1","1","","","10174","11","2","2","win","no-go","0"
"pit-trial","129","909249","0.0-15.0","battery-v0.2","","""event"",""trial"",""time""
""fullscreenenter"",""1"",""2946""
","
","
","""event"",""trial"",""time""
""fullscreenenter"",""1"",""2946""
","
","","","-1","","","21","10174","4862","&#9728;","elianto","#f73b6a7A","-1","-1","1","-10","[]","0","1","","","10174","12","0","4","lose","no-go","1"
"pit-trial","130","912782","0.0-16.0","battery-v0.2","","""event"",""trial"",""time""
""fullscreenenter"",""1"",""2946""
","
","
","""event"",""trial"",""time""
""fullscreenenter"",""1"",""2946""
","
","","","677.9000000953674","","","21","10174","4862","&#9730;","elianto","#3366ff99"," "," ","1","+10","[1528.4000000953674]","1","1","","","10174","13","1","1","win","go","0"
"pit-trial","131","917088","0.0-17.0","battery-v0.2","","""event"",""trial"",""time""
""fullscreenenter"",""1"",""2946""
","
","
","""event"",""trial"",""time""
""fullscreenenter"",""1"",""2946""
","
","","","1447.5","","","21","10174","4862","&#9752;","elianto","#f73b6a7A"," "," ","1","0","[2301.0999999046326]","1","1","","","10174","14","3","3","lose","go","0"
"pit-trial","132","921417","0.0-18.0","battery-v0.2","","""event"",""trial"",""time""
""fullscreenenter"",""1"",""2946""
","
","
","""event"",""trial"",""time""
""fullscreenenter"",""1"",""2946""
","
","","","1473.0999999046326","","","21","10174","4862","&#9728;","elianto","#f73b6a7A","-1"," ","0","-10","[2323.4000000953674]","1","1","","","10174","15","0","4","lose","no-go","0"
"pit-trial","133","926272","0.0-19.0","battery-v0.2","","""event"",""trial"",""time""
""fullscreenenter"",""1"",""2946""
","
","
","""event"",""trial"",""time""
""fullscreenenter"",""1"",""2946""
","
","","","-1","","","21","10174","4862","&#9733;","elianto","#3366ff99","-1","-1","1","+10","[]","0","1","","","10174","16","2","2","win","no-go","0"
"pit-trial","134","931126","0.0-20.0","battery-v0.2","","""event"",""trial"",""time""
""fullscreenenter"",""1"",""2946""
","
","
","""event"",""trial"",""time""
""fullscreenenter"",""1"",""2946""
","
","","","-1","","","21","10174","4862","&#9728;","elianto","#f73b6a7A","-1","-1","1","-10","[]","0","1","","","10174","17","0","4","lose","no-go","1"
"pit-trial","135","934478","0.0-21.0","battery-v0.2","","""event"",""trial"",""time""
""fullscreenenter"",""1"",""2946""
","
","
","""event"",""trial"",""time""
""fullscreenenter"",""1"",""2946""
","
","","","497.5","","","21","10174","4862","&#9730;","elianto","#3366ff99"," "," ","1","+10","[1348]","1","1","","","10174","18","1","1","win","go","0"
"pit-trial","136","937963","0.0-22.0","battery-v0.2","","""event"",""trial"",""time""
""fullscreenenter"",""1"",""2946""
","
","
","""event"",""trial"",""time""
""fullscreenenter"",""1"",""2946""
","
","","","629","","","21","10174","4862","&#9752;","elianto","#f73b6a7A"," "," ","1","-10","[1480.0999999046326]","1","1","","","10174","19","3","3","lose","go","1"
"pit-trial","137","942818","0.0-23.0","battery-v0.2","","""event"",""trial"",""time""
""fullscreenenter"",""1"",""2946""
","
","
","""event"",""trial"",""time""
""fullscreenenter"",""1"",""2946""
","
","","","-1","","","21","10174","4862","&#9733;","elianto","#3366ff99","-1","-1","1","0","[]","0","1","","","10174","20","2","2","win","no-go","1"
"pit-instructions","138","955949","0.0-24.0","battery-v0.2","","""event"",""trial"",""time""
""fullscreenenter"",""1"",""2946""
","
","
","""event"",""trial"",""time""
""fullscreenenter"",""1"",""2946""
","
","","[{""page_index"":0,""viewing_time"":5898.799999713898},{""page_index"":1,""viewing_time"":7228.700000286102}]","13127.900000095367","","","","","","","","","","","","","","","","","","","","","","","",""
"pit-trial","139","959653","0.0-25.0","battery-v0.2","","""event"",""trial"",""time""
""fullscreenenter"",""1"",""2946""
","
","
","""event"",""trial"",""time""
""fullscreenenter"",""1"",""2946""
","
","","","832.2000002861023","","","21","10174","4862","m","elianto","#f73b6a7A","-1"," ","0","-10","[1692.2000002861023]","1","2","","","10174","21","0","4","lose","no-go","0"
"pit-trial","140","963167","0.0-26.0","battery-v0.2","","""event"",""trial"",""time""
""fullscreenenter"",""1"",""2946""
","
","
","""event"",""trial"",""time""
""fullscreenenter"",""1"",""2946""
","
","","","648.6999998092651","","","21","10174","4862","r","elianto","#3366ff99"," "," ","1","+10","[1509.4000000953674]","1","2","","","10174","22","1","1","win","go","0"
"pit-trial","141","966795","0.0-27.0","battery-v0.2","","""event"",""trial"",""time""
""fullscreenenter"",""1"",""2946""
","
","
","""event"",""trial"",""time""
""fullscreenenter"",""1"",""2946""
","
","","","765.6999998092651","","","21","10174","4862","h","elianto","#f73b6a7A"," "," ","1","0","[1617.5999999046326]","1","2","","","10174","23","3","3","lose","go","0"
"pit-trial","142","970554","0.0-28.0","battery-v0.2","","""event"",""trial"",""time""
""fullscreenenter"",""1"",""2946""
","
","
","""event"",""trial"",""time""
""fullscreenenter"",""1"",""2946""
","
","","","885.2999997138977","","","21","10174","4862","y","elianto","#f73b6a7A","-1"," ","0","-10","[1738.8000001907349]","1","2","","","10174","24","2","4","lose","no-go","0"
"pit-trial","143","975421","0.0-29.0","battery-v0.2","","""event"",""trial"",""time""
""fullscreenenter"",""1"",""2946""
","
","
","""event"",""trial"",""time""
""fullscreenenter"",""1"",""2946""
","
","","","-1","","","21","10174","4862","y","elianto","#f73b6a7A","-1","-1","1","-10","[]","0","2","","","10174","25","2","4","lose","no-go","1"
"pit-trial","144","979179","0.0-30.0","battery-v0.2","","""event"",""trial"",""time""
""fullscreenenter"",""1"",""2946""
","
","
","""event"",""trial"",""time""
""fullscreenenter"",""1"",""2946""
","
","","","883.0999999046326","","","21","10174","4862","m","elianto","#f73b6a7A","-1"," ","0","-10","[1743.1000003814697]","1","2","","","10174","26","0","4","lose","no-go","0"
"pit-trial","145","982494","0.0-31.0","battery-v0.2","","""event"",""trial"",""time""
""fullscreenenter"",""1"",""2946""
","
","
","""event"",""trial"",""time""
""fullscreenenter"",""1"",""2946""
","
","","","447.80000019073486","","","21","10174","4862","r","elianto","#3366ff99"," "," ","1","0","[1301]","1","2","","","10174","27","1","1","win","go","1"
"pit-trial","146","986592","0.0-32.0","battery-v0.2","","""event"",""trial"",""time""
""fullscreenenter"",""1"",""2946""
","
","
","""event"",""trial"",""time""
""fullscreenenter"",""1"",""2946""
","
","","","1238.7999997138977","","","21","10174","4862","h","elianto","#f73b6a7A"," "," ","1","0","[2093.0999999046326]","1","2","","","10174","28","3","3","lose","go","0"
"pit-trial","147","990640","0.0-33.0","battery-v0.2","","""event"",""trial"",""time""
""fullscreenenter"",""1"",""2946""
","
","
","""event"",""trial"",""time""
""fullscreenenter"",""1"",""2946""
","
","","","1193.8999996185303","","","21","10174","4862","h","elianto","#f73b6a7A"," "," ","1","0","[2044.3999996185303]","1","2","","","10174","29","3","3","lose","go","0"
"pit-trial","148","994402","0.0-34.0","battery-v0.2","","""event"",""trial"",""time""
""fullscreenenter"",""1"",""2946""
","
","
","""event"",""trial"",""time""
""fullscreenenter"",""1"",""2946""
","
","","","906.5","","","21","10174","4862","y","elianto","#f73b6a7A","-1"," ","0","-10","[1757.8000001907349]","1","2","","","10174","30","2","4","lose","no-go","0"
"pit-trial","149","999259","0.0-35.0","battery-v0.2","","""event"",""trial"",""time""
""fullscreenenter"",""1"",""2946""
","
","
","""event"",""trial"",""time""
""fullscreenenter"",""1"",""2946""
","
","","","-1","","","21","10174","4862","m","elianto","#f73b6a7A","-1","-1","1","0","[]","0","2","","","10174","31","0","4","lose","no-go","0"
"pit-trial","150","1003159","0.0-36.0","battery-v0.2","","""event"",""trial"",""time""
""fullscreenenter"",""1"",""2946""
","
","
","""event"",""trial"",""time""
""fullscreenenter"",""1"",""2946""
","
","","","1043.9000000953674","","","21","10174","4862","r","elianto","#3366ff99"," "," ","1","0","[1894.9000000953674]","1","2","","","10174","32","1","1","win","go","1"
"pit-trial","151","1008015","0.0-37.0","battery-v0.2","","""event"",""trial"",""time""
""fullscreenenter"",""1"",""2946""
","
","
","""event"",""trial"",""time""
""fullscreenenter"",""1"",""2946""
","
","","","-1","","","21","10174","4862","y","elianto","#f73b6a7A","-1","-1","1","0","[]","0","2","","","10174","33","2","4","lose","no-go","0"
"pit-trial","152","1012870","0.0-38.0","battery-v0.2","","""event"",""trial"",""time""
""fullscreenenter"",""1"",""2946""
","
","
","""event"",""trial"",""time""
""fullscreenenter"",""1"",""2946""
","
","","","-1","","","21","10174","4862","r","elianto","#3366ff99"," ","-1","0","0","[3474.0999999046326]","1","2","","","10174","34","1","1","win","go","0"
"pit-trial","153","1017725","0.0-39.0","battery-v0.2","","""event"",""trial"",""time""
""fullscreenenter"",""1"",""2946""
","
","
","""event"",""trial"",""time""
""fullscreenenter"",""1"",""2946""
","
","","","-1","","","21","10174","4862","m","elianto","#f73b6a7A","-1","-1","1","0","[]","0","2","","","10174","35","0","4","lose","no-go","0"
"pit-trial","154","1021596","0.0-40.0","battery-v0.2","","""event"",""trial"",""time""
""fullscreenenter"",""1"",""2946""
","
","
","""event"",""trial"",""time""
""fullscreenenter"",""1"",""2946""
","
","","","1016","","","21","10174","4862","h","elianto","#f73b6a7A"," "," ","1","0","[1867]","1","2","","","10174","36","3","3","lose","go","0"
"pit-trial","155","1026451","0.0-41.0","battery-v0.2","","""event"",""trial"",""time""
""fullscreenenter"",""1"",""2946""
","
","
","""event"",""trial"",""time""
""fullscreenenter"",""1"",""2946""
","
","","","-1","","","21","10174","4862","m","elianto","#f73b6a7A","-1","-1","1","0","[]","0","2","","","10174","37","0","4","lose","no-go","0"
"pit-trial","156","1030559","0.0-42.0","battery-v0.2","","""event"",""trial"",""time""
""fullscreenenter"",""1"",""2946""
","
","
","""event"",""trial"",""time""
""fullscreenenter"",""1"",""2946""
","
","","","1248.9000000953674","","","21","10174","4862","h","elianto","#f73b6a7A"," "," ","1","0","[2102.5999999046326]","1","2","","","10174","38","3","3","lose","go","0"
"pit-trial","157","1034792","0.0-43.0","battery-v0.2","","""event"",""trial"",""time""
""fullscreenenter"",""1"",""2946""
","
","
","""event"",""trial"",""time""
""fullscreenenter"",""1"",""2946""
","
","","","1374.6999998092651","","","21","10174","4862","r","elianto","#3366ff99"," "," ","1","0","[2225.5999999046326]","1","2","","","10174","39","1","1","win","go","1"
"pit-trial","158","1039648","0.0-44.0","battery-v0.2","","""event"",""trial"",""time""
""fullscreenenter"",""1"",""2946""
","
","
","""event"",""trial"",""time""
""fullscreenenter"",""1"",""2946""
","
","","","-1","","","21","10174","4862","y","elianto","#f73b6a7A","-1","-1","1","0","[]","0","2","","","10174","40","2","4","lose","no-go","0"
"pit-trial","159","1044505","0.0-45.0","battery-v0.2","","""event"",""trial"",""time""
""fullscreenenter"",""1"",""2946""
","
","
","""event"",""trial"",""time""
""fullscreenenter"",""1"",""2946""
","
","","","-1","","","21","10174","4862","m","elianto","#f73b6a7A","-1","-1","1","-10","[]","0","2","","","10174","41","0","4","lose","no-go","1"
"pit-trial","160","1049360","0.0-46.0","battery-v0.2","","""event"",""trial"",""time""
""fullscreenenter"",""1"",""2946""
","
","
","""event"",""trial"",""time""
""fullscreenenter"",""1"",""2946""
","
","","","-1","","","21","10174","4862","y","elianto","#f73b6a7A","-1","-1","1","0","[]","0","2","","","10174","42","2","4","lose","no-go","0"
"pit-trial","161","1053405","0.0-47.0","battery-v0.2","","""event"",""trial"",""time""
""fullscreenenter"",""1"",""2946""
","
","
","""event"",""trial"",""time""
""fullscreenenter"",""1"",""2946""
","
","","","1191.5999999046326","","","21","10174","4862","h","elianto","#f73b6a7A"," "," ","1","0","[2042.2000002861023]","1","2","","","10174","43","3","3","lose","go","0"
"pit-trial","162","1058261","0.0-48.0","battery-v0.2","","""event"",""trial"",""time""
""fullscreenenter"",""1"",""2946""
","
","
","""event"",""trial"",""time""
""fullscreenenter"",""1"",""2946""
","
","","","-1","","","21","10174","4862","r","elianto","#3366ff99"," ","-1","0","0","[]","0","2","","","10174","44","1","1","win","go","0"
"pit-trial","163","1061981","0.0-49.0","battery-v0.2","","""event"",""trial"",""time""
""fullscreenenter"",""1"",""2946""
","
","
","""event"",""trial"",""time""
""fullscreenenter"",""1"",""2946""
","
","","","865","","","21","10174","4862","z","elianto","#3366ff99","-1"," ","0","+10","[1715.1999998092651]","1","2","","","10174","45","4","2","win","no-go","1"
"pit-trial","164","1066837","0.0-50.0","battery-v0.2","","""event"",""trial"",""time""
""fullscreenenter"",""1"",""2946""
","
","
","""event"",""trial"",""time""
""fullscreenenter"",""1"",""2946""
","
","","","-1","","","21","10174","4862","m","elianto","#f73b6a7A","-1","-1","1","-10","[]","0","2","","","10174","46","0","4","lose","no-go","1"
"pit-trial","165","1070589","0.0-51.0","battery-v0.2","","""event"",""trial"",""time""
""fullscreenenter"",""1"",""2946""
","
","
","""event"",""trial"",""time""
""fullscreenenter"",""1"",""2946""
","
","","","894.8000001907349","","","21","10174","4862","h","elianto","#f73b6a7A"," "," ","1","0","[1747.5999999046326]","1","2","","","10174","47","3","3","lose","go","0"
"pit-trial","166","1075443","0.0-52.0","battery-v0.2","","""event"",""trial"",""time""
""fullscreenenter"",""1"",""2946""
","
","
","""event"",""trial"",""time""
""fullscreenenter"",""1"",""2946""
","
","","","-1","","","21","10174","4862","y","elianto","#f73b6a7A","-1","-1","1","-10","[]","0","2","","","10174","48","2","4","lose","no-go","1"
"pit-trial","167","1079452","0.0-53.0","battery-v0.2","","""event"",""trial"",""time""
""fullscreenenter"",""1"",""2946""
","
","
","""event"",""trial"",""time""
""fullscreenenter"",""1"",""2946""
","
","","","1154.2000002861023","","","21","10174","4862","r","elianto","#3366ff99"," "," ","1","+10","[2004.3999996185303]","1","2","","","10174","49","1","1","win","go","0"
"pit-trial","168","1084306","0.0-54.0","battery-v0.2","","""event"",""trial"",""time""
""fullscreenenter"",""1"",""2946""
","
","
","""event"",""trial"",""time""
""fullscreenenter"",""1"",""2946""
","
","","","-1","","","21","10174","4862","m","elianto","#f73b6a7A","-1","-1","1","0","[]","0","2","","","10174","50","0","4","lose","no-go","0"
"pit-trial","169","1087826","0.0-55.0","battery-v0.2","","""event"",""trial"",""time""
""fullscreenenter"",""1"",""2946""
","
","
","""event"",""trial"",""time""
""fullscreenenter"",""1"",""2946""
","
","","","663","","","21","10174","4862","z","elianto","#3366ff99","-1"," ","0","0","[1513.7999997138977]","1","2","","","10174","51","4","2","win","no-go","0"
"pit-trial","170","1092006","0.0-56.0","battery-v0.2","","""event"",""trial"",""time""
""fullscreenenter"",""1"",""2946""
","
","
","""event"",""trial"",""time""
""fullscreenenter"",""1"",""2946""
","
","","","1324.1999998092651","","","21","10174","4862","h","elianto","#f73b6a7A"," "," ","1","-10","[2174.5]","1","2","","","10174","52","3","3","lose","go","1"
"pit-trial","171","1096874","0.0-57.0","battery-v0.2","","""event"",""trial"",""time""
""fullscreenenter"",""1"",""2946""
","
","
","""event"",""trial"",""time""
""fullscreenenter"",""1"",""2946""
","
","","","-1","","","21","10174","4862","m","elianto","#f73b6a7A","-1","-1","1","0","[]","0","2","","","10174","53","0","4","lose","no-go","0"
"pit-trial","172","1100469","0.0-58.0","battery-v0.2","","""event"",""trial"",""time""
""fullscreenenter"",""1"",""2946""
","
","
","""event"",""trial"",""time""
""fullscreenenter"",""1"",""2946""
","
","","","740.2000002861023","","","21","10174","4862","z","elianto","#3366ff99","-1"," ","0","0","[1590.7000002861023]","1","2","","","10174","54","4","2","win","no-go","0"
"pit-trial","173","1105326","0.0-59.0","battery-v0.2","","""event"",""trial"",""time""
""fullscreenenter"",""1"",""2946""
","
","
","""event"",""trial"",""time""
""fullscreenenter"",""1"",""2946""
","
","","","-1","","","21","10174","4862","y","elianto","#f73b6a7A","-1","-1","1","0","[]","0","2","","","10174","55","2","4","lose","no-go","0"
"pit-trial","174","1110182","0.0-60.0","battery-v0.2","","""event"",""trial"",""time""
""fullscreenenter"",""1"",""2946""
","
","
","""event"",""trial"",""time""
""fullscreenenter"",""1"",""2946""
","
","","","-1","","","21","10174","4862","r","elianto","#3366ff99"," ","-1","0","0","[]","0","2","","","10174","56","1","1","win","go","0"
"pit-trial","175","1113990","0.0-61.0","battery-v0.2","","""event"",""trial"",""time""
""fullscreenenter"",""1"",""2946""
","
","
","""event"",""trial"",""time""
""fullscreenenter"",""1"",""2946""
","
","","","953.2000002861023","","","21","10174","4862","h","elianto","#f73b6a7A"," "," ","1","-10","[1803.5]","1","2","","","10174","57","3","3","lose","go","1"
"pit-trial","176","1118844","0.0-62.0","battery-v0.2","","""event"",""trial"",""time""
""fullscreenenter"",""1"",""2946""
","
","
","""event"",""trial"",""time""
""fullscreenenter"",""1"",""2946""
","
","","","-1","","","21","10174","4862","m","elianto","#f73b6a7A","-1","-1","1","0","[]","0","2","","","10174","58","0","4","lose","no-go","0"
"pit-trial","177","1122597","0.0-63.0","battery-v0.2","","""event"",""trial"",""time""
""fullscreenenter"",""1"",""2946""
","
","
","""event"",""trial"",""time""
""fullscreenenter"",""1"",""2946""
","
","","","896.4000000953674","","","21","10174","4862","r","elianto","#3366ff99"," "," ","1","+10","[1747.1999998092651]","1","2","","","10174","59","1","1","win","go","0"
"pit-trial","178","1126609","0.0-64.0","battery-v0.2","","""event"",""trial"",""time""
""fullscreenenter"",""1"",""2946""
","
","
","""event"",""trial"",""time""
""fullscreenenter"",""1"",""2946""
","
","","","1156.2999997138977","","","21","10174","4862","z","elianto","#3366ff99","-1"," ","0","0","[2007.2999997138977]","1","2","","","10174","60","4","2","win","no-go","0"
"pit-trial","179","1131464","0.0-65.0","battery-v0.2","","""event"",""trial"",""time""
""fullscreenenter"",""1"",""2946""
","
","
","""event"",""trial"",""time""
""fullscreenenter"",""1"",""2946""
","
","","","-1","","","21","10174","4862","y","elianto","#f73b6a7A","-1","-1","1","0","[]","0","2","","","10174","61","2","4","lose","no-go","0"
"pit-trial","180","1135555","0.0-66.0","battery-v0.2","","""event"",""trial"",""time""
""fullscreenenter"",""1"",""2946""
","
","
","""event"",""trial"",""time""
""fullscreenenter"",""1"",""2946""
","
","","","1235.7999997138977","","","21","10174","4862","r","elianto","#3366ff99"," "," ","1","0","[2086.3999996185303]","1","2","","","10174","62","1","1","win","go","1"
"pit-trial","181","1139083","0.0-67.0","battery-v0.2","","""event"",""trial"",""time""
""fullscreenenter"",""1"",""2946""
","
","
","""event"",""trial"",""time""
""fullscreenenter"",""1"",""2946""
","
","","","668.0999999046326","","","21","10174","4862","z","elianto","#3366ff99","-1"," ","0","0","[1523]","1","2","","","10174","63","4","2","win","no-go","0"
"pit-trial","182","1143009","0.0-68.0","battery-v0.2","","""event"",""trial"",""time""
""fullscreenenter"",""1"",""2946""
","
","
","""event"",""trial"",""time""
""fullscreenenter"",""1"",""2946""
","
","","","1067.3000001907349","","","21","10174","4862","h","elianto","#f73b6a7A"," "," ","1","0","[1921.8999996185303]","1","2","","","10174","64","3","3","lose","go","0"
"pit-trial","183","1147863","0.0-69.0","battery-v0.2","","""event"",""trial"",""time""
""fullscreenenter"",""1"",""2946""
","
","
","""event"",""trial"",""time""
""fullscreenenter"",""1"",""2946""
","
","","","-1","","","21","10174","4862","y","elianto","#f73b6a7A","-1","-1","1","0","[]","0","2","","","10174","65","2","4","lose","no-go","0"
"pit-trial","184","1152720","0.0-70.0","battery-v0.2","","""event"",""trial"",""time""
""fullscreenenter"",""1"",""2946""
","
","
","""event"",""trial"",""time""
""fullscreenenter"",""1"",""2946""
","
","","","-1","","","21","10174","4862","z","elianto","#3366ff99","-1","-1","1","+10","[]","0","2","","","10174","66","4","2","win","no-go","0"
"pit-trial","185","1156919","0.0-71.0","battery-v0.2","","""event"",""trial"",""time""
""fullscreenenter"",""1"",""2946""
","
","
","""event"",""trial"",""time""
""fullscreenenter"",""1"",""2946""
","
","","","1344.3000001907349","","","21","10174","4862","h","elianto","#f73b6a7A"," "," ","1","0","[2194.7000002861023]","1","2","","","10174","67","3","3","lose","go","0"
"pit-trial","186","1161773","0.0-72.0","battery-v0.2","","""event"",""trial"",""time""
""fullscreenenter"",""1"",""2946""
","
","
","""event"",""trial"",""time""
""fullscreenenter"",""1"",""2946""
","
","","","-1","","","21","10174","4862","r","elianto","#3366ff99"," ","-1","0","0","[]","0","2","","","10174","68","1","1","win","go","0"
"pit-trial","187","1165687","0.0-73.0","battery-v0.2","","""event"",""trial"",""time""
""fullscreenenter"",""1"",""2946""
","
","
","""event"",""trial"",""time""
""fullscreenenter"",""1"",""2946""
","
","","","1055.3000001907349","","","21","10174","4862","h","elianto","#f73b6a7A"," "," ","1","0","[1909.8000001907349]","1","2","","","10174","69","3","3","lose","go","0"
"pit-trial","188","1169498","0.0-74.0","battery-v0.2","","""event"",""trial"",""time""
""fullscreenenter"",""1"",""2946""
","
","
","""event"",""trial"",""time""
""fullscreenenter"",""1"",""2946""
","
","","","955.0999999046326","","","21","10174","4862","c","elianto","#3366ff99"," "," ","1","+10","[1805.4000000953674]","1","2","","","10174","70","5","1","win","go","0"
"pit-trial","189","1174354","0.0-75.0","battery-v0.2","","""event"",""trial"",""time""
""fullscreenenter"",""1"",""2946""
","
","
","""event"",""trial"",""time""
""fullscreenenter"",""1"",""2946""
","
","","","-1","","","21","10174","4862","r","elianto","#3366ff99"," ","-1","0","0","[]","0","2","","","10174","71","1","1","win","go","0"
"pit-trial","190","1178289","0.0-76.0","battery-v0.2","","""event"",""trial"",""time""
""fullscreenenter"",""1"",""2946""
","
","
","""event"",""trial"",""time""
""fullscreenenter"",""1"",""2946""
","
","","","1078.5999999046326","","","21","10174","4862","z","elianto","#3366ff99","-1"," ","0","0","[1929.4000000953674]","1","2","","","10174","72","4","2","win","no-go","0"
"pit-trial","191","1182321","0.0-77.0","battery-v0.2","","""event"",""trial"",""time""
""fullscreenenter"",""1"",""2946""
","
","
","""event"",""trial"",""time""
""fullscreenenter"",""1"",""2946""
","
","","","1177.9000000953674","","","21","10174","4862","r","elianto","#3366ff99"," "," ","1","0","[2028.5]","1","2","","","10174","73","1","1","win","go","1"
"pit-trial","192","1185870","0.0-78.0","battery-v0.2","","""event"",""trial"",""time""
""fullscreenenter"",""1"",""2946""
","
","
","""event"",""trial"",""time""
""fullscreenenter"",""1"",""2946""
","
","","","693.5","","","21","10174","4862","c","elianto","#3366ff99"," "," ","1","+10","[1544.6999998092651]","1","2","","","10174","74","5","1","win","go","0"
"pit-trial","193","1189753","0.0-79.0","battery-v0.2","","""event"",""trial"",""time""
""fullscreenenter"",""1"",""2946""
","
","
","""event"",""trial"",""time""
""fullscreenenter"",""1"",""2946""
","
","","","1028.0999999046326","","","21","10174","4862","h","elianto","#f73b6a7A"," "," ","1","0","[1878.5999999046326]","1","2","","","10174","75","3","3","lose","go","0"
"pit-trial","194","1194609","0.0-80.0","battery-v0.2","","""event"",""trial"",""time""
""fullscreenenter"",""1"",""2946""
","
","
","""event"",""trial"",""time""
""fullscreenenter"",""1"",""2946""
","
","","","-1","","","21","10174","4862","z","elianto","#3366ff99","-1","-1","1","+10","[]","0","2","","","10174","76","4","2","win","no-go","0"
"pit-trial","195","1198341","0.0-81.0","battery-v0.2","","""event"",""trial"",""time""
""fullscreenenter"",""1"",""2946""
","
","
","""event"",""trial"",""time""
""fullscreenenter"",""1"",""2946""
","
","","","876.5","","","21","10174","4862","c","elianto","#3366ff99"," "," ","1","+10","[1727.6999998092651]","1","2","","","10174","77","5","1","win","go","0"
"pit-trial","196","1202039","0.0-82.0","battery-v0.2","","""event"",""trial"",""time""
""fullscreenenter"",""1"",""2946""
","
","
","""event"",""trial"",""time""
""fullscreenenter"",""1"",""2946""
","
","","","838.4000000953674","","","21","10174","4862","h","elianto","#f73b6a7A"," "," ","1","0","[1693.4000000953674]","1","2","","","10174","78","3","3","lose","go","0"
"pit-trial","197","1206433","0.0-83.0","battery-v0.2","","""event"",""trial"",""time""
""fullscreenenter"",""1"",""2946""
","
","
","""event"",""trial"",""time""
""fullscreenenter"",""1"",""2946""
","
","","","1538","","","21","10174","4862","z","elianto","#3366ff99","-1"," ","0","0","[2388.4000000953674]","1","2","","","10174","79","4","2","win","no-go","0"
"pit-trial","198","1210443","0.0-84.0","battery-v0.2","","""event"",""trial"",""time""
""fullscreenenter"",""1"",""2946""
","
","
","""event"",""trial"",""time""
""fullscreenenter"",""1"",""2946""
","
","","","1154.7999997138977","","","21","10174","4862","b","elianto","#f73b6a7A","-1"," ","0","-10","[2005.5999999046326]","1","2","","","10174","80","6","4","lose","no-go","0"
"pit-trial","199","1215299","0.0-85.0","battery-v0.2","","""event"",""trial"",""time""
""fullscreenenter"",""1"",""2946""
","
","
","""event"",""trial"",""time""
""fullscreenenter"",""1"",""2946""
","
","","","-1","","","21","10174","4862","b","elianto","#f73b6a7A","-1","-1","1","0","[]","0","2","","","10174","81","6","4","lose","no-go","0"
"pit-trial","200","1219003","0.0-86.0","battery-v0.2","","""event"",""trial"",""time""
""fullscreenenter"",""1"",""2946""
","
","
","""event"",""trial"",""time""
""fullscreenenter"",""1"",""2946""
","
","","","848.0999999046326","","","21","10174","4862","t","elianto","#f73b6a7A"," "," ","1","0","[1698.5999999046326]","1","2","","","10174","82","7","3","lose","go","0"
"pit-trial","201","1222792","0.0-87.0","battery-v0.2","","""event"",""trial"",""time""
""fullscreenenter"",""1"",""2946""
","
","
","""event"",""trial"",""time""
""fullscreenenter"",""1"",""2946""
","
","","","933.3999996185303","","","21","10174","4862","c","elianto","#3366ff99"," "," ","1","+10","[1784]","1","2","","","10174","83","5","1","win","go","0"
"pit-trial","202","1227647","0.0-88.0","battery-v0.2","","""event"",""trial"",""time""
""fullscreenenter"",""1"",""2946""
","
","
","""event"",""trial"",""time""
""fullscreenenter"",""1"",""2946""
","
","","","-1","","","21","10174","4862","z","elianto","#3366ff99","-1","-1","1","0","[]","0","2","","","10174","84","4","2","win","no-go","1"
"pit-trial","203","1232502","0.0-89.0","battery-v0.2","","""event"",""trial"",""time""
""fullscreenenter"",""1"",""2946""
","
","
","""event"",""trial"",""time""
""fullscreenenter"",""1"",""2946""
","
","","","-1","","","21","10174","4862","z","elianto","#3366ff99","-1","-1","1","+10","[]","0","2","","","10174","85","4","2","win","no-go","0"
"pit-trial","204","1237358","0.0-90.0","battery-v0.2","","""event"",""trial"",""time""
""fullscreenenter"",""1"",""2946""
","
","
","""event"",""trial"",""time""
""fullscreenenter"",""1"",""2946""
","
","","","-1","","","21","10174","4862","b","elianto","#f73b6a7A","-1","-1","1","0","[]","0","2","","","10174","86","6","4","lose","no-go","0"
"pit-trial","205","1241486","0.0-91.0","battery-v0.2","","""event"",""trial"",""time""
""fullscreenenter"",""1"",""2946""
","
","
","""event"",""trial"",""time""
""fullscreenenter"",""1"",""2946""
","
","","","1272.4000000953674","","","21","10174","4862","t","elianto","#f73b6a7A"," "," ","1","0","[2122.699999809265]","1","2","","","10174","87","7","3","lose","go","0"
"pit-trial","206","1245159","0.0-92.0","battery-v0.2","","""event"",""trial"",""time""
""fullscreenenter"",""1"",""2946""
","
","
","""event"",""trial"",""time""
""fullscreenenter"",""1"",""2946""
","
","","","816.6999998092651","","","21","10174","4862","c","elianto","#3366ff99"," "," ","1","+10","[1667.5999999046326]","1","2","","","10174","88","5","1","win","go","0"
"pit-trial","207","1248732","0.0-93.0","battery-v0.2","","""event"",""trial"",""time""
""fullscreenenter"",""1"",""2946""
","
","
","""event"",""trial"",""time""
""fullscreenenter"",""1"",""2946""
","
","","","717","","","21","10174","4862","c","elianto","#3366ff99"," "," ","1","0","[1567.3000001907349]","1","2","","","10174","89","5","1","win","go","1"
"pit-trial","208","1252218","0.0-94.0","battery-v0.2","","""event"",""trial"",""time""
""fullscreenenter"",""1"",""2946""
","
","
","""event"",""trial"",""time""
""fullscreenenter"",""1"",""2946""
","
","","","630.9000000953674","","","21","10174","4862","b","elianto","#f73b6a7A","-1"," ","0","-10","[1481.6999998092651]","1","2","","","10174","90","6","4","lose","no-go","0"
"pit-trial","209","1257075","0.0-95.0","battery-v0.2","","""event"",""trial"",""time""
""fullscreenenter"",""1"",""2946""
","
","
","""event"",""trial"",""time""
""fullscreenenter"",""1"",""2946""
","
","","","-1","","","21","10174","4862","z","elianto","#3366ff99","-1","-1","1","+10","[]","0","2","","","10174","91","4","2","win","no-go","0"
"pit-trial","210","1260952","0.0-96.0","battery-v0.2","","""event"",""trial"",""time""
""fullscreenenter"",""1"",""2946""
","
","
","""event"",""trial"",""time""
""fullscreenenter"",""1"",""2946""
","
","","","1021","","","21","10174","4862","t","elianto","#f73b6a7A"," "," ","1","0","[1871.4000000953674]","1","2","","","10174","92","7","3","lose","go","0"
"pit-trial","211","1265808","0.0-97.0","battery-v0.2","","""event"",""trial"",""time""
""fullscreenenter"",""1"",""2946""
","
","
","""event"",""trial"",""time""
""fullscreenenter"",""1"",""2946""
","
","","","-1","","","21","10174","4862","b","elianto","#f73b6a7A","-1","-1","1","-10","[]","0","2","","","10174","93","6","4","lose","no-go","1"
"pit-trial","212","1269735","0.0-98.0","battery-v0.2","","""event"",""trial"",""time""
""fullscreenenter"",""1"",""2946""
","
","
","""event"",""trial"",""time""
""fullscreenenter"",""1"",""2946""
","
","","","1071.0999999046326","","","21","10174","4862","t","elianto","#f73b6a7A"," "," ","1","0","[1921.9000000953674]","1","2","","","10174","94","7","3","lose","go","0"
"pit-trial","213","1273456","0.0-99.0","battery-v0.2","","""event"",""trial"",""time""
""fullscreenenter"",""1"",""2946""
","
","
","""event"",""trial"",""time""
""fullscreenenter"",""1"",""2946""
","
","","","865.0999999046326","","","21","10174","4862","f","elianto","#3366ff99","-1"," ","0","+10","[1716.3000001907349]","1","2","","","10174","95","8","2","win","no-go","1"
"pit-trial","214","1277066","0.0-100.0","battery-v0.2","","""event"",""trial"",""time""
""fullscreenenter"",""1"",""2946""
","
","
","""event"",""trial"",""time""
""fullscreenenter"",""1"",""2946""
","
","","","754.4000000953674","","","21","10174","4862","c","elianto","#3366ff99"," "," ","1","+10","[1605.2999997138977]","1","2","","","10174","96","5","1","win","go","0"
"pit-trial","215","1280604","0.0-101.0","battery-v0.2","","""event"",""trial"",""time""
""fullscreenenter"",""1"",""2946""
","
","
","""event"",""trial"",""time""
""fullscreenenter"",""1"",""2946""
","
","","","682.9000000953674","","","21","10174","4862","c","elianto","#3366ff99"," "," ","1","+10","[1533.4000000953674]","1","2","","","10174","97","5","1","win","go","0"
"pit-trial","216","1284266","0.0-102.0","battery-v0.2","","""event"",""trial"",""time""
""fullscreenenter"",""1"",""2946""
","
","
","""event"",""trial"",""time""
""fullscreenenter"",""1"",""2946""
","
","","","804.5999999046326","","","21","10174","4862","f","elianto","#3366ff99","-1"," ","0","+10","[1655.3000001907349]","1","2","","","10174","98","8","2","win","no-go","1"
"pit-trial","217","1288219","0.0-103.0","battery-v0.2","","""event"",""trial"",""time""
""fullscreenenter"",""1"",""2946""
","
","
","""event"",""trial"",""time""
""fullscreenenter"",""1"",""2946""
","
","","","1097.7000002861023","","","21","10174","4862","t","elianto","#f73b6a7A"," "," ","1","0","[1948.8000001907349]","1","2","","","10174","99","7","3","lose","go","0"
"pit-trial","218","1293073","0.0-104.0","battery-v0.2","","""event"",""trial"",""time""
""fullscreenenter"",""1"",""2946""
","
","
","""event"",""trial"",""time""
""fullscreenenter"",""1"",""2946""
","
","","","-1","","","21","10174","4862","b","elianto","#f73b6a7A","-1","-1","1","0","[]","0","2","","","10174","100","6","4","lose","no-go","0"
"pit-trial","219","1296889","0.0-105.0","battery-v0.2","","""event"",""trial"",""time""
""fullscreenenter"",""1"",""2946""
","
","
","""event"",""trial"",""time""
""fullscreenenter"",""1"",""2946""
","
","","","960.7999997138977","","","21","10174","4862","n","elianto","#3366ff99","-1"," ","0","+10","[1810.9000000953674]","1","2","","","10174","101","9","2","win","no-go","1"
"pit-trial","220","1301743","0.0-106.0","battery-v0.2","","""event"",""trial"",""time""
""fullscreenenter"",""1"",""2946""
","
","
","""event"",""trial"",""time""
""fullscreenenter"",""1"",""2946""
","
","","","-1","","","21","10174","4862","f","elianto","#3366ff99","-1","-1","1","0","[]","0","2","","","10174","102","8","2","win","no-go","1"
"pit-trial","221","1305209","0.0-107.0","battery-v0.2","","""event"",""trial"",""time""
""fullscreenenter"",""1"",""2946""
","
","
","""event"",""trial"",""time""
""fullscreenenter"",""1"",""2946""
","
","","","611.3000001907349","","","21","10174","4862","c","elianto","#3366ff99"," "," ","1","+10","[1461.3999996185303]","1","2","","","10174","103","5","1","win","go","0"
"pit-trial","222","1310067","0.0-108.0","battery-v0.2","","""event"",""trial"",""time""
""fullscreenenter"",""1"",""2946""
","
","
","""event"",""trial"",""time""
""fullscreenenter"",""1"",""2946""
","
","","","-1","","","21","10174","4862","b","elianto","#f73b6a7A","-1","-1","1","0","[]","0","2","","","10174","104","6","4","lose","no-go","0"
"pit-trial","223","1314927","0.0-109.0","battery-v0.2","","""event"",""trial"",""time""
""fullscreenenter"",""1"",""2946""
","
","
","""event"",""trial"",""time""
""fullscreenenter"",""1"",""2946""
","
","","","-1","","","21","10174","4862","b","elianto","#f73b6a7A","-1","-1","1","0","[]","0","2","","","10174","105","6","4","lose","no-go","0"
"pit-trial","224","1318356","0.0-110.0","battery-v0.2","","""event"",""trial"",""time""
""fullscreenenter"",""1"",""2946""
","
","
","""event"",""trial"",""time""
""fullscreenenter"",""1"",""2946""
","
","","","572.8000001907349","","","21","10174","4862","f","elianto","#3366ff99","-1"," ","0","0","[1424.5]","1","2","","","10174","106","8","2","win","no-go","0"
"pit-trial","225","1321818","0.0-111.0","battery-v0.2","","""event"",""trial"",""time""
""fullscreenenter"",""1"",""2946""
","
","
","""event"",""trial"",""time""
""fullscreenenter"",""1"",""2946""
","
","","","605.8000001907349","","","21","10174","4862","n","elianto","#3366ff99","-1"," ","0","0","[1456.5999999046326]","1","2","","","10174","107","9","2","win","no-go","0"
"pit-trial","226","1325284","0.0-112.0","battery-v0.2","","""event"",""trial"",""time""
""fullscreenenter"",""1"",""2946""
","
","
","""event"",""trial"",""time""
""fullscreenenter"",""1"",""2946""
","
","","","609","","","21","10174","4862","c","elianto","#3366ff99"," "," ","1","+10","[1459.6999998092651]","1","2","","","10174","108","5","1","win","go","0"
"pit-trial","227","1328714","0.0-113.0","battery-v0.2","","""event"",""trial"",""time""
""fullscreenenter"",""1"",""2946""
","
","
","""event"",""trial"",""time""
""fullscreenenter"",""1"",""2946""
","
","","","577.5","","","21","10174","4862","c","elianto","#3366ff99"," "," ","1","+10","[1427.7999997138977]","1","2","","","10174","109","5","1","win","go","0"
"pit-trial","228","1333570","0.0-114.0","battery-v0.2","","""event"",""trial"",""time""
""fullscreenenter"",""1"",""2946""
","
","
","""event"",""trial"",""time""
""fullscreenenter"",""1"",""2946""
","
","","","-1","","","21","10174","4862","b","elianto","#f73b6a7A","-1","-1","1","0","[]","0","2","","","10174","110","6","4","lose","no-go","0"
"pit-trial","229","1337134","0.0-115.0","battery-v0.2","","""event"",""trial"",""time""
""fullscreenenter"",""1"",""2946""
","
","
","""event"",""trial"",""time""
""fullscreenenter"",""1"",""2946""
","
","","","707.0999999046326","","","21","10174","4862","f","elianto","#3366ff99","-1"," ","0","0","[1558]","1","2","","","10174","111","8","2","win","no-go","0"
"pit-trial","230","1340660","0.0-116.0","battery-v0.2","","""event"",""trial"",""time""
""fullscreenenter"",""1"",""2946""
","
","
","""event"",""trial"",""time""
""fullscreenenter"",""1"",""2946""
","
","","","670.7000002861023","","","21","10174","4862","n","elianto","#3366ff99","-1"," ","0","0","[1520.9000000953674]","1","2","","","10174","112","9","2","win","no-go","0"
"pit-trial","231","1344191","0.0-117.0","battery-v0.2","","""event"",""trial"",""time""
""fullscreenenter"",""1"",""2946""
","
","
","""event"",""trial"",""time""
""fullscreenenter"",""1"",""2946""
","
","","","674.7000002861023","","","21","10174","4862","f","elianto","#3366ff99","-1"," ","0","0","[1525.5999999046326]","1","2","","","10174","113","8","2","win","no-go","0"
"pit-trial","232","1348172","0.0-118.0","battery-v0.2","","""event"",""trial"",""time""
""fullscreenenter"",""1"",""2946""
","
","
","""event"",""trial"",""time""
""fullscreenenter"",""1"",""2946""
","
","","","1127.2999997138977","","","21","10174","4862","t","elianto","#f73b6a7A"," "," ","1","0","[1977.6999998092651]","1","2","","","10174","114","7","3","lose","go","0"
"pit-trial","233","1351614","0.0-119.0","battery-v0.2","","""event"",""trial"",""time""
""fullscreenenter"",""1"",""2946""
","
","
","""event"",""trial"",""time""
""fullscreenenter"",""1"",""2946""
","
","","","588.0999999046326","","","21","10174","4862","c","elianto","#3366ff99"," "," ","1","0","[1438.2999997138977]","1","2","","","10174","115","5","1","win","go","1"
"pit-trial","234","1355048","0.0-120.0","battery-v0.2","","""event"",""trial"",""time""
""fullscreenenter"",""1"",""2946""
","
","
","""event"",""trial"",""time""
""fullscreenenter"",""1"",""2946""
","
","","","577.5","","","21","10174","4862","n","elianto","#3366ff99","-1"," ","0","0","[1427.9000000953674]","1","2","","","10174","116","9","2","win","no-go","0"
"pit-trial","235","1358557","0.0-121.0","battery-v0.2","","""event"",""trial"",""time""
""fullscreenenter"",""1"",""2946""
","
","
","""event"",""trial"",""time""
""fullscreenenter"",""1"",""2946""
","
","","","650","","","21","10174","4862","f","elianto","#3366ff99","-1"," ","0","0","[1503.8000001907349]","1","2","","","10174","117","8","2","win","no-go","0"
"pit-trial","236","1363413","0.0-122.0","battery-v0.2","","""event"",""trial"",""time""
""fullscreenenter"",""1"",""2946""
","
","
","""event"",""trial"",""time""
""fullscreenenter"",""1"",""2946""
","
","","","-1","","","21","10174","4862","b","elianto","#f73b6a7A","-1","-1","1","0","[]","0","2","","","10174","118","6","4","lose","no-go","0"
"pit-trial","237","1366946","0.0-123.0","battery-v0.2","","""event"",""trial"",""time""
""fullscreenenter"",""1"",""2946""
","
","
","""event"",""trial"",""time""
""fullscreenenter"",""1"",""2946""
","
","","","677.7000002861023","","","21","10174","4862","n","elianto","#3366ff99","-1"," ","0","0","[1529]","1","2","","","10174","119","9","2","win","no-go","0"
"pit-trial","238","1371802","0.0-124.0","battery-v0.2","","""event"",""trial"",""time""
""fullscreenenter"",""1"",""2946""
","
","
","""event"",""trial"",""time""
""fullscreenenter"",""1"",""2946""
","
","","","-1","","","21","10174","4862","c","elianto","#3366ff99"," ","-1","0","+10","[]","0","2","","","10174","120","5","1","win","go","1"
"pit-trial","239","1376657","0.0-125.0","battery-v0.2","","""event"",""trial"",""time""
""fullscreenenter"",""1"",""2946""
","
","
","""event"",""trial"",""time""
""fullscreenenter"",""1"",""2946""
","
","","","-1","","","21","10174","4862","c","elianto","#3366ff99"," ","-1","0","0","[]","0","2","","","10174","121","5","1","win","go","0"
"pit-trial","240","1381513","0.0-126.0","battery-v0.2","","""event"",""trial"",""time""
""fullscreenenter"",""1"",""2946""
","
","
","""event"",""trial"",""time""
""fullscreenenter"",""1"",""2946""
","
","","","-1","","","21","10174","4862","t","elianto","#f73b6a7A"," ","-1","0","-10","[]","0","2","","","10174","122","7","3","lose","go","0"
"pit-trial","241","1385678","0.0-127.0","battery-v0.2","","""event"",""trial"",""time""
""fullscreenenter"",""1"",""2946""
","
","
","""event"",""trial"",""time""
""fullscreenenter"",""1"",""2946""
","
","","","1310.7999997138977","","","21","10174","4862","f","elianto","#3366ff99","-1"," ","0","+10","[2161.199999809265]","1","2","","","10174","123","8","2","win","no-go","1"
"pit-trial","242","1389235","0.0-128.0","battery-v0.2","","""event"",""trial"",""time""
""fullscreenenter"",""1"",""2946""
","
","
","""event"",""trial"",""time""
""fullscreenenter"",""1"",""2946""
","
","","","702.5999999046326","","","21","10174","4862","n","elianto","#3366ff99","-1"," ","0","0","[1553.1000003814697]","1","2","","","10174","124","9","2","win","no-go","0"
"pit-trial","243","1394096","0.0-129.0","battery-v0.2","","""event"",""trial"",""time""
""fullscreenenter"",""1"",""2946""
","
","
","""event"",""trial"",""time""
""fullscreenenter"",""1"",""2946""
","
","","","-1","","","21","10174","4862","n","elianto","#3366ff99","-1","-1","1","+10","[]","0","2","","","10174","125","9","2","win","no-go","0"
"pit-trial","244","1398953","0.0-130.0","battery-v0.2","","""event"",""trial"",""time""
""fullscreenenter"",""1"",""2946""
","
","
","""event"",""trial"",""time""
""fullscreenenter"",""1"",""2946""
","
","","","-1","","","21","10174","4862","b","elianto","#f73b6a7A","-1","-1","1","0","[]","0","2","","","10174","126","6","4","lose","no-go","0"
"pit-trial","245","1402725","0.0-131.0","battery-v0.2","","""event"",""trial"",""time""
""fullscreenenter"",""1"",""2946""
","
","
","""event"",""trial"",""time""
""fullscreenenter"",""1"",""2946""
","
","","","916.5999999046326","","","21","10174","4862","f","elianto","#3366ff99","-1"," ","0","0","[1767.5]","1","2","","","10174","127","8","2","win","no-go","0"
"pit-trial","246","1406884","0.0-132.0","battery-v0.2","","""event"",""trial"",""time""
""fullscreenenter"",""1"",""2946""
","
","
","""event"",""trial"",""time""
""fullscreenenter"",""1"",""2946""
","
","","","1304","","","21","10174","4862","t","elianto","#f73b6a7A"," "," ","1","0","[2154.4000000953674]","1","2","","","10174","128","7","3","lose","go","0"
"pit-trial","247","1411740","0.0-133.0","battery-v0.2","","""event"",""trial"",""time""
""fullscreenenter"",""1"",""2946""
","
","
","""event"",""trial"",""time""
""fullscreenenter"",""1"",""2946""
","
","","","-1","","","21","10174","4862","b","elianto","#f73b6a7A","-1","-1","1","0","[]","0","2","","","10174","129","6","4","lose","no-go","0"
"pit-trial","248","1416596","0.0-134.0","battery-v0.2","","""event"",""trial"",""time""
""fullscreenenter"",""1"",""2946""
","
","
","""event"",""trial"",""time""
""fullscreenenter"",""1"",""2946""
","
","","","-1","","","21","10174","4862","f","elianto","#3366ff99","-1","-1","1","+10","[]","0","2","","","10174","130","8","2","win","no-go","0"
"pit-trial","249","1421450","0.0-135.0","battery-v0.2","","""event"",""trial"",""time""
""fullscreenenter"",""1"",""2946""
","
","
","""event"",""trial"",""time""
""fullscreenenter"",""1"",""2946""
","
","","","-1","","","21","10174","4862","n","elianto","#3366ff99","-1","-1","1","+10","[]","0","2","","","10174","131","9","2","win","no-go","0"
"pit-trial","250","1425346","0.0-136.0","battery-v0.2","","""event"",""trial"",""time""
""fullscreenenter"",""1"",""2946""
","
","
","""event"",""trial"",""time""
""fullscreenenter"",""1"",""2946""
","
","","","1040.5999999046326","","","21","10174","4862","t","elianto","#f73b6a7A"," "," ","1","0","[1891.5]","1","2","","","10174","132","7","3","lose","go","0"
"pit-trial","251","1428953","0.0-137.0","battery-v0.2","","""event"",""trial"",""time""
""fullscreenenter"",""1"",""2946""
","
","
","""event"",""trial"",""time""
""fullscreenenter"",""1"",""2946""
","
","","","752","","","21","10174","4862","t","elianto","#f73b6a7A"," "," ","1","0","[1602.9000000953674]","1","2","","","10174","133","7","3","lose","go","0"
"pit-trial","252","1433809","0.0-138.0","battery-v0.2","","""event"",""trial"",""time""
""fullscreenenter"",""1"",""2946""
","
","
","""event"",""trial"",""time""
""fullscreenenter"",""1"",""2946""
","
","","","-1","","","21","10174","4862","b","elianto","#f73b6a7A","-1","-1","1","0","[]","0","2","","","10174","134","6","4","lose","no-go","0"
"pit-trial","253","1438665","0.0-139.0","battery-v0.2","","""event"",""trial"",""time""
""fullscreenenter"",""1"",""2946""
","
","
","""event"",""trial"",""time""
""fullscreenenter"",""1"",""2946""
","
","","","-1","","","21","10174","4862","f","elianto","#3366ff99","-1","-1","1","+10","[]","0","2","","","10174","135","8","2","win","no-go","0"
"pit-trial","254","1443520","0.0-140.0","battery-v0.2","","""event"",""trial"",""time""
""fullscreenenter"",""1"",""2946""
","
","
","""event"",""trial"",""time""
""fullscreenenter"",""1"",""2946""
","
","","","-1","","","21","10174","4862","n","elianto","#3366ff99","-1","-1","1","+10","[]","0","2","","","10174","136","9","2","win","no-go","0"
"pit-trial","255","1447291","0.0-141.0","battery-v0.2","","""event"",""trial"",""time""
""fullscreenenter"",""1"",""2946""
","
","
","""event"",""trial"",""time""
""fullscreenenter"",""1"",""2946""
","
","","","915.3000001907349","","","21","10174","4862","t","elianto","#f73b6a7A"," "," ","1","0","[1766.1000003814697]","1","2","","","10174","137","7","3","lose","go","0"
"pit-trial","256","1452147","0.0-142.0","battery-v0.2","","""event"",""trial"",""time""
""fullscreenenter"",""1"",""2946""
","
","
","""event"",""trial"",""time""
""fullscreenenter"",""1"",""2946""
","
","","","-1","","","21","10174","4862","f","elianto","#3366ff99","-1","-1","1","+10","[]","0","2","","","10174","138","8","2","win","no-go","0"
"pit-trial","257","1457001","0.0-143.0","battery-v0.2","","""event"",""trial"",""time""
""fullscreenenter"",""1"",""2946""
","
","
","""event"",""trial"",""time""
""fullscreenenter"",""1"",""2946""
","
","","","-1","","","21","10174","4862","b","elianto","#f73b6a7A","-1","-1","1","0","[]","0","2","","","10174","139","6","4","lose","no-go","0"
"pit-trial","258","1461856","0.0-144.0","battery-v0.2","","""event"",""trial"",""time""
""fullscreenenter"",""1"",""2946""
","
","
","""event"",""trial"",""time""
""fullscreenenter"",""1"",""2946""
","
","","","-1","","","21","10174","4862","n","elianto","#3366ff99","-1","-1","1","0","[]","0","2","","","10174","140","9","2","win","no-go","1"
"pit-instructions","259","1477591","0.0-145.0","battery-v0.2","","""event"",""trial"",""time""
""fullscreenenter"",""1"",""2946""
","
","
","""event"",""trial"",""time""
""fullscreenenter"",""1"",""2946""
","
","","[{""page_index"":0,""viewing_time"":7113},{""page_index"":1,""viewing_time"":8617.700000286102}]","15731.200000286102","","","","","","","","","","","","","","","","","","","","","","","",""
"pit-trial","260","1481655","0.0-146.0","battery-v0.2","","""event"",""trial"",""time""
""fullscreenenter"",""1"",""2946""
","
","
","""event"",""trial"",""time""
""fullscreenenter"",""1"",""2946""
","
","","","1191.7999997138977","","","21","10174","4862","l","elianto","#3366ff99","-1"," ","0","0","[2052.5]","1","3","","","10174","141","1","2","win","no-go","0"
"pit-trial","261","1485993","0.0-147.0","battery-v0.2","","""event"",""trial"",""time""
""fullscreenenter"",""1"",""2946""
","
","
","""event"",""trial"",""time""
""fullscreenenter"",""1"",""2946""
","
","","","1478.4000000953674","","","21","10174","4862","u","elianto","#f73b6a7A"," "," ","1","0","[2330.300000190735]","1","3","","","10174","142","0","3","lose","go","0"
"pit-trial","262","1489637","0.0-148.0","battery-v0.2","","""event"",""trial"",""time""
""fullscreenenter"",""1"",""2946""
","
","
","""event"",""trial"",""time""
""fullscreenenter"",""1"",""2946""
","
","","","778.9000000953674","","","21","10174","4862","g","elianto","#f73b6a7A","-1"," ","0","-10","[1632.1000003814697]","1","3","","","10174","143","3","4","lose","no-go","0"
"pit-trial","263","1493256","0.0-149.0","battery-v0.2","","""event"",""trial"",""time""
""fullscreenenter"",""1"",""2946""
","
","
","""event"",""trial"",""time""
""fullscreenenter"",""1"",""2946""
","
","","","745.8000001907349","","","21","10174","4862","a","elianto","#f73b6a7A"," "," ","1","0","[1599.5999999046326]","1","3","","","10174","144","2","3","lose","go","0"
"pit-trial","264","1498126","0.0-150.0","battery-v0.2","","""event"",""trial"",""time""
""fullscreenenter"",""1"",""2946""
","
","
","""event"",""trial"",""time""
""fullscreenenter"",""1"",""2946""
","
","","","-1","","","21","10174","4862","g","elianto","#f73b6a7A","-1","-1","1","0","[]","0","3","","","10174","145","3","4","lose","no-go","0"
"pit-trial","265","1502264","0.0-151.0","battery-v0.2","","""event"",""trial"",""time""
""fullscreenenter"",""1"",""2946""
","
","
","""event"",""trial"",""time""
""fullscreenenter"",""1"",""2946""
","
","","","1267.3000001907349","","","21","10174","4862","u","elianto","#f73b6a7A"," "," ","1","-10","[2129.1000003814697]","1","3","","","10174","146","0","3","lose","go","1"
