"trial_type","trial_index","time_elapsed","internal_node_id","task_version","subject_id","interactions","blur_events","focus_events","fullscreenenter_events","fullscreenexit_events","success","view_history","rt","responses","num_errors","age","subject","participantId","rune","rune_set","hex","correct","choice","accuracy","outcome","keys","total_keys","block","practice","value","sub","trial","stimulus","robot","valence","action","sham"
"pavlovia","0","56","0.0-0.0","battery-v0.2","","""event"",""trial"",""time""
""fullscreenenter"",""1"",""1839""
","
","
","""event"",""trial"",""time""
""fullscreenenter"",""1"",""1839""
","
","","","","","","","","","","","","","","","","","","","","","","","","","","",""
"fullscreen","1","2810","0.0-1.0","battery-v0.2","","""event"",""trial"",""time""
""fullscreenenter"",""1"",""1839""
","
","
","""event"",""trial"",""time""
""fullscreenenter"",""1"",""1839""
","
","true","","","","","","","","","","","","","","","","","","","","","","","","","",""
"pit-instructions","2","7199","0.0-2.0-0.0","battery-v0.2","","""event"",""trial"",""time""
""fullscreenenter"",""1"",""1839""
","
","
","""event"",""trial"",""time""
""fullscreenenter"",""1"",""1839""
","
","","[{""page_index"":0,""viewing_time"":4363}]","4371","","","","","","","","","","","","","","","","","","","","","","","",""
"pit-comprehension","3","10750","0.0-2.0-1.0-0.0","battery-v0.2","","""event"",""trial"",""time""
""fullscreenenter"",""1"",""1839""
","
","
","""event"",""trial"",""time""
""fullscreenenter"",""1"",""1839""
","
","","","3534.2000000029802","[""shark""]","0","12","4347","476","","","","","","","","","","","","","","","","","","",""
"pit-instructions","4","12526","0.0-2.0-1.0-1.0","battery-v0.2","","""event"",""trial"",""time""
""fullscreenenter"",""1"",""1839""
","
","
","""event"",""trial"",""time""
""fullscreenenter"",""1"",""1839""
","
","","[{""page_index"":0,""viewing_time"":1731.1000000089407}]","1735.4000000059605","","","","","","","","","","","","","","","","","","","","","","","",""
"pit-comprehension","5","14814","0.0-2.0-2.0-0.0","battery-v0.2","","""event"",""trial"",""time""
""fullscreenenter"",""1"",""1839""
","
","
","""event"",""trial"",""time""
""fullscreenenter"",""1"",""1839""
","
","","","2270.5","[""tiger""]","0","12","4347","476","","","","","","","","","","","","","","","","","","",""
"pit-instructions","6","16337","0.0-2.0-2.0-1.0","battery-v0.2","","""event"",""trial"",""time""
""fullscreenenter"",""1"",""1839""
","
","
","""event"",""trial"",""time""
""fullscreenenter"",""1"",""1839""
","
","","[{""page_index"":0,""viewing_time"":1509.6000000089407}]","1512.1000000089407","","","","","","","","","","","","","","","","","","","","","","","",""
"pit-instructions","7","111786","0.0-2.0-3.0","battery-v0.2","","""event"",""trial"",""time""
""fullscreenenter"",""1"",""1839""
","
","
","""event"",""trial"",""time""
""fullscreenenter"",""1"",""1839""
","
","","[{""page_index"":0,""viewing_time"":8361.70000000298},{""page_index"":1,""viewing_time"":6362.4000000059605},{""page_index"":2,""viewing_time"":6286.0999999940395},{""page_index"":3,""viewing_time"":5264.4000000059605},{""page_index"":4,""viewing_time"":5307.29999999702},{""page_index"":5,""viewing_time"":5628.70000000298},{""page_index"":6,""viewing_time"":7103.199999988079},{""page_index"":7,""viewing_time"":6633.20000000298},{""page_index"":8,""viewing_time"":6655.5},{""page_index"":9,""viewing_time"":8913},{""page_index"":10,""viewing_time"":9165.5},{""page_index"":11,""viewing_time"":7491.5},{""page_index"":12,""viewing_time"":6751.5},{""page_index"":13,""viewing_time"":5506.20000000298}]","95435.90000000596","","","","","","","","","","","","","","","","","","","","","","","",""
"pit-trial","8","115090","0.0-2.0-4.0-0.0","battery-v0.2","","""event"",""trial"",""time""
""fullscreenenter"",""1"",""1839""
","
","
","""event"",""trial"",""time""
""fullscreenenter"",""1"",""1839""
","
","","","433.79999999701977","","","12","4347","476","&#9784;","elianto","#FFFFF080"," "," ","1","&#10004","[1283.7999999970198]","1","0","0","","","","","","","",""
"pit-trial","9","118147","0.0-2.0-4.1-0.1","battery-v0.2","","""event"",""trial"",""time""
""fullscreenenter"",""1"",""1839""
","
","
","""event"",""trial"",""time""
""fullscreenenter"",""1"",""1839""
","
","","","190.6000000089407","","","12","4347","476","&#9784;","elianto","#FFFFF080"," "," ","1","&#10004","[1040.7999999970198]","1","0","0","","","","","","","",""
"pit-trial","10","121208","0.0-2.0-4.2-0.2","battery-v0.2","","""event"",""trial"",""time""
""fullscreenenter"",""1"",""1839""
","
","
","""event"",""trial"",""time""
""fullscreenenter"",""1"",""1839""
","
","","","189.5","","","12","4347","476","&#9784;","elianto","#FFFFF080"," "," ","1","&#10004","[1045.8999999910593]","1","0","0","","","","","","","",""
"pit-trial","11","126070","0.0-2.0-4.3-0.3","battery-v0.2","","""event"",""trial"",""time""
""fullscreenenter"",""1"",""1839""
","
","
","""event"",""trial"",""time""
""fullscreenenter"",""1"",""1839""
","
","","","-1","","","12","4347","476","&#9784;","elianto","#FFFFF080"," ","-1","0","&#10060","[811.1999999880791]","1","0","0","","","","","","","",""
"pit-trial","12","129175","0.0-2.0-4.4-0.4","battery-v0.2","","""event"",""trial"",""time""
""fullscreenenter"",""1"",""1839""
","
","
","""event"",""trial"",""time""
""fullscreenenter"",""1"",""1839""
","
","","","239.70000000298023","","","12","4347","476","&#9784;","elianto","#FFFFF080"," "," ","1","&#10004","[1089.1000000089407]","1","0","0","","","","","","","",""
"pit-trial","13","132263","0.0-2.0-4.5-0.5","battery-v0.2","","""event"",""trial"",""time""
""fullscreenenter"",""1"",""1839""
","
","
","""event"",""trial"",""time""
""fullscreenenter"",""1"",""1839""
","
","","","218.59999999403954","","","12","4347","476","&#9784;","elianto","#FFFFF080"," "," ","1","&#10004","[1071.5]","1","0","0","","","","","","","",""
"pit-trial","14","135550","0.0-2.0-4.6-0.6","battery-v0.2","","""event"",""trial"",""time""
""fullscreenenter"",""1"",""1839""
","
","
","""event"",""trial"",""time""
""fullscreenenter"",""1"",""1839""
","
","","","419.09999999403954","","","12","4347","476","&#9784;","elianto","#FFFFF080"," "," ","1","&#10004","[1269.199999988079]","1","0","0","","","","","","","",""
"pit-instructions","15","149883","0.0-2.0-4.6-1.6-0.6","battery-v0.2","","""event"",""trial"",""time""
""fullscreenenter"",""1"",""1839""
","
","
","""event"",""trial"",""time""
""fullscreenenter"",""1"",""1839""
","
","","[{""page_index"":0,""viewing_time"":5709.399999991059},{""page_index"":1,""viewing_time"":8607.10000000894}]","14320.699999988079","","","","","","","","","","","","","","","","","","","","","","","",""
"pit-instructions","16","172377","0.0-2.0-5.0","battery-v0.2","","""event"",""trial"",""time""
""fullscreenenter"",""1"",""1839""
","
","
","""event"",""trial"",""time""
""fullscreenenter"",""1"",""1839""
","
","","[{""page_index"":0,""viewing_time"":5523.79999999702},{""page_index"":1,""viewing_time"":6411.5999999940395},{""page_index"":2,""viewing_time"":5525.300000011921},{""page_index"":3,""viewing_time"":5022.899999991059}]","22485.5","","","","","","","","","","","","","","","","","","","","","","","",""
"pit-trial","17","177239","0.0-2.0-6.0-0.0","battery-v0.2","","""event"",""trial"",""time""
""fullscreenenter"",""1"",""1839""
","
","
","""event"",""trial"",""time""
""fullscreenenter"",""1"",""1839""
","
","","","-1","","","12","4347","476","&#9854;","elianto","#FFFFF080","-1","-1","1","&#10004","[]","0","0","1","","","","","","","",""
"pit-trial","18","182108","0.0-2.0-6.1-0.1","battery-v0.2","","""event"",""trial"",""time""
""fullscreenenter"",""1"",""1839""
","
","
","""event"",""trial"",""time""
""fullscreenenter"",""1"",""1839""
","
","","","-1","","","12","4347","476","&#9854;","elianto","#FFFFF080","-1","-1","1","&#10004","[]","0","0","1","","","","","","","",""
"pit-trial","19","186973","0.0-2.0-6.2-0.2","battery-v0.2","","""event"",""trial"",""time""
""fullscreenenter"",""1"",""1839""
","
","
","""event"",""trial"",""time""
""fullscreenenter"",""1"",""1839""
","
","","","-1","","","12","4347","476","&#9854;","elianto","#FFFFF080","-1","-1","1","&#10004","[]","0","0","1","","","","","","","",""
"pit-trial","20","191837","0.0-2.0-6.3-0.3","battery-v0.2","","""event"",""trial"",""time""
""fullscreenenter"",""1"",""1839""
","
","
","""event"",""trial"",""time""
""fullscreenenter"",""1"",""1839""
","
","","","-1","","","12","4347","476","&#9854;","elianto","#FFFFF080","-1","-1","1","&#10004","[]","0","0","1","","","","","","","",""
"pit-trial","21","196703","0.0-2.0-6.4-0.4","battery-v0.2","","""event"",""trial"",""time""
""fullscreenenter"",""1"",""1839""
","
","
","""event"",""trial"",""time""
""fullscreenenter"",""1"",""1839""
","
","","","-1","","","12","4347","476","&#9854;","elianto","#FFFFF080","-1","-1","1","&#10004","[]","0","0","1","","","","","","","",""
"pit-instructions","22","317454","0.0-2.0-7.0","battery-v0.2","","""event"",""trial"",""time""
""fullscreenenter"",""1"",""1839""
","
","
","""event"",""trial"",""time""
""fullscreenenter"",""1"",""1839""
","
","","[{""page_index"":0,""viewing_time"":5898.9000000059605},{""page_index"":1,""viewing_time"":7417.899999991059},{""page_index"":2,""viewing_time"":6407.800000011921},{""page_index"":3,""viewing_time"":6271.29999999702},{""page_index"":4,""viewing_time"":5532.399999991059},{""page_index"":5,""viewing_time"":5723.20000000298},{""page_index"":6,""viewing_time"":5069.100000008941},{""page_index"":7,""viewing_time"":8670.79999999702},{""page_index"":8,""viewing_time"":6890.5},{""page_index"":9,""viewing_time"":6343.5},{""page_index"":10,""viewing_time"":6730.5},{""page_index"":11,""viewing_time"":4661.5},{""page_index"":12,""viewing_time"":7268.5},{""page_index"":13,""viewing_time"":7687.79999999702},{""page_index"":14,""viewing_time"":7998.9000000059605},{""page_index"":15,""viewing_time"":6929},{""page_index"":16,""viewing_time"":7123},{""page_index"":17,""viewing_time"":8105.699999988079}]","120734.79999999702","","","","","","","","","","","","","","","","","","","","","","","",""
"pit-trial","23","321169","0.0-2.0-8.0-0.0","battery-v0.2","","""event"",""trial"",""time""
""fullscreenenter"",""1"",""1839""
","
","
","""event"",""trial"",""time""
""fullscreenenter"",""1"",""1839""
","
","","","853.9000000059605","","","12","4347","476","&#9776;","elianto","#3366ff99"," "," ","1","+10","[1703.8999999910593]","1","0","1","","","","","","","",""
"pit-trial","24","324422","0.0-2.0-8.0-1.0","battery-v0.2","","""event"",""trial"",""time""
""fullscreenenter"",""1"",""1839""
","
","
","""event"",""trial"",""time""
""fullscreenenter"",""1"",""1839""
","
","","","388.90000000596046","","","12","4347","476","&#9776;","elianto","#3366ff99"," "," ","1","+10","[1239.2000000029802]","1","0","1","","","","","","","",""
"pit-trial","25","327516","0.0-2.0-8.0-2.0","battery-v0.2","","""event"",""trial"",""time""
""fullscreenenter"",""1"",""1839""
","
","
","""event"",""trial"",""time""
""fullscreenenter"",""1"",""1839""
","
","","","227.5","","","12","4347","476","&#9776;","elianto","#3366ff99"," "," ","1","+10","[1079.2999999970198]","1","0","1","","","","","","","",""
"pit-trial","26","330714","0.0-2.0-8.0-3.0","battery-v0.2","","""event"",""trial"",""time""
""fullscreenenter"",""1"",""1839""
","
","
","""event"",""trial"",""time""
""fullscreenenter"",""1"",""1839""
","
","","","333.20000000298023","","","12","4347","476","&#9776;","elianto","#3366ff99"," "," ","1","0","[1183.300000011921]","1","0","1","","","","","","","",""
"pit-trial","27","333814","0.0-2.0-8.0-4.0","battery-v0.2","","""event"",""trial"",""time""
""fullscreenenter"",""1"",""1839""
","
","
","""event"",""trial"",""time""
""fullscreenenter"",""1"",""1839""
","
","","","238.5","","","12","4347","476","&#9776;","elianto","#3366ff99"," "," ","1","+10","[1088.5]","1","0","1","","","","","","","",""
"pit-trial","28","336935","0.0-2.0-8.1-0.1","battery-v0.2","","""event"",""trial"",""time""
""fullscreenenter"",""1"",""1839""
","
","
","""event"",""trial"",""time""
""fullscreenenter"",""1"",""1839""
","
","","","250.29999999701977","","","12","4347","476","&#9776;","elianto","#3366ff99"," "," ","1","+10","[1105.9000000059605]","1","0","1","","","","","","","",""
"pit-trial","29","340079","0.0-2.0-8.1-1.1","battery-v0.2","","""event"",""trial"",""time""
""fullscreenenter"",""1"",""1839""
","
","
","""event"",""trial"",""time""
""fullscreenenter"",""1"",""1839""
","
","","","277","","","12","4347","476","&#9776;","elianto","#3366ff99"," "," ","1","+10","[1126.9000000059605]","1","0","1","","","","","","","",""
"pit-trial","30","343120","0.0-2.0-8.1-2.1","battery-v0.2","","""event"",""trial"",""time""
""fullscreenenter"",""1"",""1839""
","
","
","""event"",""trial"",""time""
""fullscreenenter"",""1"",""1839""
","
","","","174.40000000596046","","","12","4347","476","&#9776;","elianto","#3366ff99"," "," ","1","+10","[1029.2000000029802]","1","0","1","","","","","","","",""
"pit-trial","31","346268","0.0-2.0-8.1-3.1","battery-v0.2","","""event"",""trial"",""time""
""fullscreenenter"",""1"",""1839""
","
","
","""event"",""trial"",""time""
""fullscreenenter"",""1"",""1839""
","
","","","284.6000000089407","","","12","4347","476","&#9776;","elianto","#3366ff99"," "," ","1","0","[1134.7999999970198]","1","0","1","","","","","","","",""
"pit-trial","32","349624","0.0-2.0-8.1-4.1","battery-v0.2","","""event"",""trial"",""time""
""fullscreenenter"",""1"",""1839""
","
","
","""event"",""trial"",""time""
""fullscreenenter"",""1"",""1839""
","
","","","491","","","12","4347","476","&#9776;","elianto","#3366ff99"," "," ","1","+10","[1341.2999999970198]","1","0","1","","","","","","","",""
"pit-trial","33","354486","0.0-2.0-8.2-0.2","battery-v0.2","","""event"",""trial"",""time""
""fullscreenenter"",""1"",""1839""
","
","
","""event"",""trial"",""time""
""fullscreenenter"",""1"",""1839""
","
","","","-1","","","12","4347","476","&#9776;","elianto","#3366ff99"," ","-1","0","0","[]","0","0","1","","","","","","","",""
"pit-trial","34","357778","0.0-2.0-8.2-1.2","battery-v0.2","","""event"",""trial"",""time""
""fullscreenenter"",""1"",""1839""
","
","
","""event"",""trial"",""time""
""fullscreenenter"",""1"",""1839""
","
","","","423.70000000298023","","","12","4347","476","&#9776;","elianto","#3366ff99"," "," ","1","+10","[1278.0999999940395]","1","0","1","","","","","","","",""
"pit-trial","35","361044","0.0-2.0-8.2-2.2","battery-v0.2","","""event"",""trial"",""time""
""fullscreenenter"",""1"",""1839""
","
","
","""event"",""trial"",""time""
""fullscreenenter"",""1"",""1839""
","
","","","399.3999999910593","","","12","4347","476","&#9776;","elianto","#3366ff99"," "," ","1","+10","[1249.2999999970198]","1","0","1","","","","","","","",""
"pit-trial","36","364376","0.0-2.0-8.2-3.2","battery-v0.2","","""event"",""trial"",""time""
""fullscreenenter"",""1"",""1839""
","
","
","""event"",""trial"",""time""
""fullscreenenter"",""1"",""1839""
","
","","","466.3999999910593","","","12","4347","476","&#9776;","elianto","#3366ff99"," "," ","1","0","[1316.3999999910593,2697.2000000029802]","2","0","1","","","","","","","",""
"pit-trial","37","367497","0.0-2.0-8.2-4.2","battery-v0.2","","""event"",""trial"",""time""
""fullscreenenter"",""1"",""1839""
","
","
","""event"",""trial"",""time""
""fullscreenenter"",""1"",""1839""
","
","","","256.29999999701977","","","12","4347","476","&#9776;","elianto","#3366ff99"," "," ","1","+10","[1106.3999999910593]","1","0","1","","","","","","","",""
"call-function","38","367503","0.0-2.0-9.0","battery-v0.2","","""event"",""trial"",""time""
""fullscreenenter"",""1"",""1839""
","
","
","""event"",""trial"",""time""
""fullscreenenter"",""1"",""1839""
","
","","","","","","","","","","","","","","","","","","","","","","","","","","",""
"pit-instructions","39","406887","0.0-2.0-10.0","battery-v0.2","","""event"",""trial"",""time""
""fullscreenenter"",""1"",""1839""
","
","
","""event"",""trial"",""time""
""fullscreenenter"",""1"",""1839""
","
","","[{""page_index"":0,""viewing_time"":6027.70000000298},{""page_index"":1,""viewing_time"":6869.399999991059},{""page_index"":2,""viewing_time"":9349.20000000298},{""page_index"":3,""viewing_time"":9138.70000000298},{""page_index"":4,""viewing_time"":7989.29999999702}]","39380.59999999404","","","","","","","","","","","","","","","","","","","","","","","",""
"pit-trial","40","411749","0.0-2.0-11.0-0.0","battery-v0.2","","""event"",""trial"",""time""
""fullscreenenter"",""1"",""1839""
","
","
","""event"",""trial"",""time""
""fullscreenenter"",""1"",""1839""
","
","","","-1","","","12","4347","476","&#9761;","elianto","#3366ff99","-1","-1","1","+10","[]","0","0","2","","","","","","","",""
"pit-trial","41","415114","0.0-2.0-11.0-1.0","battery-v0.2","","""event"",""trial"",""time""
""fullscreenenter"",""1"",""1839""
","
","
","""event"",""trial"",""time""
""fullscreenenter"",""1"",""1839""
","
","","","502.70000000298023","","","12","4347","476","&#9761;","elianto","#3366ff99","-1"," ","0","0","[1352.7000000029802]","1","0","2","","","","","","","",""
"pit-trial","42","418394","0.0-2.0-11.0-2.0","battery-v0.2","","""event"",""trial"",""time""
""fullscreenenter"",""1"",""1839""
","
","
","""event"",""trial"",""time""
""fullscreenenter"",""1"",""1839""
","
","","","417.30000001192093","","","12","4347","476","&#9761;","elianto","#3366ff99","-1"," ","0","0","[1267.3999999910593]","1","0","2","","","","","","","",""
"pit-trial","43","423259","0.0-2.0-11.0-3.0","battery-v0.2","","""event"",""trial"",""time""
""fullscreenenter"",""1"",""1839""
","
","
","""event"",""trial"",""time""
""fullscreenenter"",""1"",""1839""
","
","","","-1","","","12","4347","476","&#9761;","elianto","#3366ff99","-1","-1","1","0","[]","0","0","2","","","","","","","",""
"pit-trial","44","428121","0.0-2.0-11.0-4.0","battery-v0.2","","""event"",""trial"",""time""
""fullscreenenter"",""1"",""1839""
","
","
","""event"",""trial"",""time""
""fullscreenenter"",""1"",""1839""
","
","","","-1","","","12","4347","476","&#9761;","elianto","#3366ff99","-1","-1","1","+10","[]","0","0","2","","","","","","","",""
"pit-trial","45","432990","0.0-2.0-11.1-0.1","battery-v0.2","","""event"",""trial"",""time""
""fullscreenenter"",""1"",""1839""
","
","
","""event"",""trial"",""time""
""fullscreenenter"",""1"",""1839""
","
","","","-1","","","12","4347","476","&#9761;","elianto","#3366ff99","-1","-1","1","+10","[]","0","0","2","","","","","","","",""
"pit-trial","46","437855","0.0-2.0-11.1-1.1","battery-v0.2","","""event"",""trial"",""time""
""fullscreenenter"",""1"",""1839""
","
","
","""event"",""trial"",""time""
""fullscreenenter"",""1"",""1839""
","
","","","-1","","","12","4347","476","&#9761;","elianto","#3366ff99","-1","-1","1","+10","[]","0","0","2","","","","","","","",""
"pit-trial","47","442719","0.0-2.0-11.1-2.1","battery-v0.2","","""event"",""trial"",""time""
""fullscreenenter"",""1"",""1839""
","
","
","""event"",""trial"",""time""
""fullscreenenter"",""1"",""1839""
","
","","","-1","","","12","4347","476","&#9761;","elianto","#3366ff99","-1","-1","1","+10","[]","0","0","2","","","","","","","",""
"pit-trial","48","447584","0.0-2.0-11.1-3.1","battery-v0.2","","""event"",""trial"",""time""
""fullscreenenter"",""1"",""1839""
","
","
","""event"",""trial"",""time""
""fullscreenenter"",""1"",""1839""
","
","","","-1","","","12","4347","476","&#9761;","elianto","#3366ff99","-1","-1","1","0","[]","0","0","2","","","","","","","",""
"pit-trial","49","452450","0.0-2.0-11.1-4.1","battery-v0.2","","""event"",""trial"",""time""
""fullscreenenter"",""1"",""1839""
","
","
","""event"",""trial"",""time""
""fullscreenenter"",""1"",""1839""
","
","","","-1","","","12","4347","476","&#9761;","elianto","#3366ff99","-1","-1","1","+10","[]","0","0","2","","","","","","","",""
"pit-trial","50","457316","0.0-2.0-11.2-0.2","battery-v0.2","","""event"",""trial"",""time""
""fullscreenenter"",""1"",""1839""
","
","
","""event"",""trial"",""time""
""fullscreenenter"",""1"",""1839""
","
","","","-1","","","12","4347","476","&#9761;","elianto","#3366ff99","-1","-1","1","+10","[]","0","0","2","","","","","","","",""
"pit-trial","51","462180","0.0-2.0-11.2-1.2","battery-v0.2","","""event"",""trial"",""time""
""fullscreenenter"",""1"",""1839""
","
","
","""event"",""trial"",""time""
""fullscreenenter"",""1"",""1839""
","
","","","-1","","","12","4347","476","&#9761;","elianto","#3366ff99","-1","-1","1","+10","[]","0","0","2","","","","","","","",""
"pit-trial","52","467044","0.0-2.0-11.2-2.2","battery-v0.2","","""event"",""trial"",""time""
""fullscreenenter"",""1"",""1839""
","
","
","""event"",""trial"",""time""
""fullscreenenter"",""1"",""1839""
","
","","","-1","","","12","4347","476","&#9761;","elianto","#3366ff99","-1","-1","1","+10","[]","0","0","2","","","","","","","",""
"pit-trial","53","471909","0.0-2.0-11.2-3.2","battery-v0.2","","""event"",""trial"",""time""
""fullscreenenter"",""1"",""1839""
","
","
","""event"",""trial"",""time""
""fullscreenenter"",""1"",""1839""
","
","","","-1","","","12","4347","476","&#9761;","elianto","#3366ff99","-1","-1","1","0","[]","0","0","2","","","","","","","",""
"pit-trial","54","476775","0.0-2.0-11.2-4.2","battery-v0.2","","""event"",""trial"",""time""
""fullscreenenter"",""1"",""1839""
","
","
","""event"",""trial"",""time""
""fullscreenenter"",""1"",""1839""
","
","","","-1","","","12","4347","476","&#9761;","elianto","#3366ff99","-1","-1","1","+10","[]","0","0","2","","","","","","","",""
"pit-trial","55","481643","0.0-2.0-11.3-0.3","battery-v0.2","","""event"",""trial"",""time""
""fullscreenenter"",""1"",""1839""
","
","
","""event"",""trial"",""time""
""fullscreenenter"",""1"",""1839""
","
","","","-1","","","12","4347","476","&#9761;","elianto","#3366ff99","-1","-1","1","+10","[]","0","0","2","","","","","","","",""
"pit-trial","56","486506","0.0-2.0-11.3-1.3","battery-v0.2","","""event"",""trial"",""time""
""fullscreenenter"",""1"",""1839""
","
","
","""event"",""trial"",""time""
""fullscreenenter"",""1"",""1839""
","
","","","-1","","","12","4347","476","&#9761;","elianto","#3366ff99","-1","-1","1","+10","[]","0","0","2","","","","","","","",""
"pit-trial","57","491369","0.0-2.0-11.3-2.3","battery-v0.2","","""event"",""trial"",""time""
""fullscreenenter"",""1"",""1839""
","
","
","""event"",""trial"",""time""
""fullscreenenter"",""1"",""1839""
","
","","","-1","","","12","4347","476","&#9761;","elianto","#3366ff99","-1","-1","1","+10","[]","0","0","2","","","","","","","",""
"pit-trial","58","496234","0.0-2.0-11.3-3.3","battery-v0.2","","""event"",""trial"",""time""
""fullscreenenter"",""1"",""1839""
","
","
","""event"",""trial"",""time""
""fullscreenenter"",""1"",""1839""
","
","","","-1","","","12","4347","476","&#9761;","elianto","#3366ff99","-1","-1","1","0","[]","0","0","2","","","","","","","",""
"pit-trial","59","501098","0.0-2.0-11.3-4.3","battery-v0.2","","""event"",""trial"",""time""
""fullscreenenter"",""1"",""1839""
","
","
","""event"",""trial"",""time""
""fullscreenenter"",""1"",""1839""
","
","","","-1","","","12","4347","476","&#9761;","elianto","#3366ff99","-1","-1","1","+10","[]","0","0","2","","","","","","","",""
"call-function","60","501106","0.0-2.0-12.0","battery-v0.2","","""event"",""trial"",""time""
""fullscreenenter"",""1"",""1839""
","
","
","""event"",""trial"",""time""
""fullscreenenter"",""1"",""1839""
","
","","","","","","","","","","","","","","","","","","","","","","","","","","",""
"pit-instructions","61","532911","0.0-2.0-13.0","battery-v0.2","","""event"",""trial"",""time""
""fullscreenenter"",""1"",""1839""
","
","
","""event"",""trial"",""time""
""fullscreenenter"",""1"",""1839""
","
","","[{""page_index"":0,""viewing_time"":4887.5},{""page_index"":1,""viewing_time"":7520.699999988079},{""page_index"":2,""viewing_time"":3582.7000000029802},{""page_index"":3,""viewing_time"":10379.20000000298},{""page_index"":4,""viewing_time"":5429.0999999940395}]","31802.59999999404","","","","","","","","","","","","","","","","","","","","","","","",""
"pit-trial","62","536133","0.0-2.0-14.0-0.0","battery-v0.2","","""event"",""trial"",""time""
""fullscreenenter"",""1"",""1839""
","
","
","""event"",""trial"",""time""
""fullscreenenter"",""1"",""1839""
","
","","","356.70000000298023","","","12","4347","476","&#9826;","elianto","#f73b6a7A","-1"," ","0","-10","[1206.5999999940395]","1","0","3","","","","","","","",""
"pit-trial","63","539386","0.0-2.0-14.0-1.0","battery-v0.2","","""event"",""trial"",""time""
""fullscreenenter"",""1"",""1839""
","
","
","""event"",""trial"",""time""
""fullscreenenter"",""1"",""1839""
","
","","","388.70000000298023","","","12","4347","476","&#9826;","elianto","#f73b6a7A","-1"," ","0","-10","[1238.9000000059605]","1","0","3","","","","","","","",""
"pit-trial","64","544252","0.0-2.0-14.0-2.0","battery-v0.2","","""event"",""trial"",""time""
""fullscreenenter"",""1"",""1839""
","
","
","""event"",""trial"",""time""
""fullscreenenter"",""1"",""1839""
","
","","","-1","","","12","4347","476","&#9826;","elianto","#f73b6a7A","-1","-1","1","0","[4404]","1","0","3","","","","","","","",""
"pit-trial","65","549117","0.0-2.0-14.0-3.0","battery-v0.2","","""event"",""trial"",""time""
""fullscreenenter"",""1"",""1839""
","
","
","""event"",""trial"",""time""
""fullscreenenter"",""1"",""1839""
","
","","","-1","","","12","4347","476","&#9826;","elianto","#f73b6a7A","-1","-1","1","-10","[]","0","0","3","","","","","","","",""
"pit-trial","66","553982","0.0-2.0-14.0-4.0","battery-v0.2","","""event"",""trial"",""time""
""fullscreenenter"",""1"",""1839""
","
","
","""event"",""trial"",""time""
""fullscreenenter"",""1"",""1839""
","
","","","-1","","","12","4347","476","&#9826;","elianto","#f73b6a7A","-1","-1","1","0","[]","0","0","3","","","","","","","",""
"pit-trial","67","558850","0.0-2.0-14.1-0.1","battery-v0.2","","""event"",""trial"",""time""
""fullscreenenter"",""1"",""1839""
","
","
","""event"",""trial"",""time""
""fullscreenenter"",""1"",""1839""
","
","","","-1","","","12","4347","476","&#9826;","elianto","#f73b6a7A","-1","-1","1","0","[]","0","0","3","","","","","","","",""
"pit-trial","68","563715","0.0-2.0-14.1-1.1","battery-v0.2","","""event"",""trial"",""time""
""fullscreenenter"",""1"",""1839""
","
","
","""event"",""trial"",""time""
""fullscreenenter"",""1"",""1839""
","
","","","-1","","","12","4347","476","&#9826;","elianto","#f73b6a7A","-1","-1","1","0","[]","0","0","3","","","","","","","",""
"pit-trial","69","568578","0.0-2.0-14.1-2.1","battery-v0.2","","""event"",""trial"",""time""
""fullscreenenter"",""1"",""1839""
","
","
","""event"",""trial"",""time""
""fullscreenenter"",""1"",""1839""
","
","","","-1","","","12","4347","476","&#9826;","elianto","#f73b6a7A","-1","-1","1","0","[]","0","0","3","","","","","","","",""
"pit-trial","70","573443","0.0-2.0-14.1-3.1","battery-v0.2","","""event"",""trial"",""time""
""fullscreenenter"",""1"",""1839""
","
","
","""event"",""trial"",""time""
""fullscreenenter"",""1"",""1839""
","
","","","-1","","","12","4347","476","&#9826;","elianto","#f73b6a7A","-1","-1","1","-10","[]","0","0","3","","","","","","","",""
"pit-trial","71","578309","0.0-2.0-14.1-4.1","battery-v0.2","","""event"",""trial"",""time""
""fullscreenenter"",""1"",""1839""
","
","
","""event"",""trial"",""time""
""fullscreenenter"",""1"",""1839""
","
","","","-1","","","12","4347","476","&#9826;","elianto","#f73b6a7A","-1","-1","1","0","[]","0","0","3","","","","","","","",""
"pit-trial","72","583175","0.0-2.0-14.2-0.2","battery-v0.2","","""event"",""trial"",""time""
""fullscreenenter"",""1"",""1839""
","
","
","""event"",""trial"",""time""
""fullscreenenter"",""1"",""1839""
","
","","","-1","","","12","4347","476","&#9826;","elianto","#f73b6a7A","-1","-1","1","0","[]","0","0","3","","","","","","","",""
"pit-trial","73","588037","0.0-2.0-14.2-1.2","battery-v0.2","","""event"",""trial"",""time""
""fullscreenenter"",""1"",""1839""
","
","
","""event"",""trial"",""time""
""fullscreenenter"",""1"",""1839""
","
","","","-1","","","12","4347","476","&#9826;","elianto","#f73b6a7A","-1","-1","1","0","[]","0","0","3","","","","","","","",""
"pit-trial","74","592902","0.0-2.0-14.2-2.2","battery-v0.2","","""event"",""trial"",""time""
""fullscreenenter"",""1"",""1839""
","
","
","""event"",""trial"",""time""
""fullscreenenter"",""1"",""1839""
","
","","","-1","","","12","4347","476","&#9826;","elianto","#f73b6a7A","-1","-1","1","0","[]","0","0","3","","","","","","","",""
"pit-trial","75","597764","0.0-2.0-14.2-3.2","battery-v0.2","","""event"",""trial"",""time""
""fullscreenenter"",""1"",""1839""
","
","
","""event"",""trial"",""time""
""fullscreenenter"",""1"",""1839""
","
","","","-1","","","12","4347","476","&#9826;","elianto","#f73b6a7A","-1","-1","1","-10","[]","0","0","3","","","","","","","",""
"pit-trial","76","602628","0.0-2.0-14.2-4.2","battery-v0.2","","""event"",""trial"",""time""
""fullscreenenter"",""1"",""1839""
","
","
","""event"",""trial"",""time""
""fullscreenenter"",""1"",""1839""
","
","","","-1","","","12","4347","476","&#9826;","elianto","#f73b6a7A","-1","-1","1","0","[]","0","0","3","","","","","","","",""
"pit-trial","77","607493","0.0-2.0-14.3-0.3","battery-v0.2","","""event"",""trial"",""time""
""fullscreenenter"",""1"",""1839""
","
","
","""event"",""trial"",""time""
""fullscreenenter"",""1"",""1839""
","
","","","-1","","","12","4347","476","&#9826;","elianto","#f73b6a7A","-1","-1","1","0","[]","0","0","3","","","","","","","",""
"pit-trial","78","612358","0.0-2.0-14.3-1.3","battery-v0.2","","""event"",""trial"",""time""
""fullscreenenter"",""1"",""1839""
","
","
","""event"",""trial"",""time""
""fullscreenenter"",""1"",""1839""
","
","","","-1","","","12","4347","476","&#9826;","elianto","#f73b6a7A","-1","-1","1","0","[]","0","0","3","","","","","","","",""
"pit-trial","79","617220","0.0-2.0-14.3-2.3","battery-v0.2","","""event"",""trial"",""time""
""fullscreenenter"",""1"",""1839""
","
","
","""event"",""trial"",""time""
""fullscreenenter"",""1"",""1839""
","
","","","-1","","","12","4347","476","&#9826;","elianto","#f73b6a7A","-1","-1","1","0","[]","0","0","3","","","","","","","",""
"pit-trial","80","622085","0.0-2.0-14.3-3.3","battery-v0.2","","""event"",""trial"",""time""
""fullscreenenter"",""1"",""1839""
","
","
","""event"",""trial"",""time""
""fullscreenenter"",""1"",""1839""
","
","","","-1","","","12","4347","476","&#9826;","elianto","#f73b6a7A","-1","-1","1","-10","[]","0","0","3","","","","","","","",""
"pit-trial","81","626951","0.0-2.0-14.3-4.3","battery-v0.2","","""event"",""trial"",""time""
""fullscreenenter"",""1"",""1839""
","
","
","""event"",""trial"",""time""
""fullscreenenter"",""1"",""1839""
","
","","","-1","","","12","4347","476","&#9826;","elianto","#f73b6a7A","-1","-1","1","0","[]","0","0","3","","","","","","","",""
"call-function","82","626957","0.0-2.0-15.0","battery-v0.2","","""event"",""trial"",""time""
""fullscreenenter"",""1"",""1839""
","
","
","""event"",""trial"",""time""
""fullscreenenter"",""1"",""1839""
","
","","","","","","","","","","","","","","","","","","","","","","","","","","",""
"pit-instructions","83","652827","0.0-2.0-16.0","battery-v0.2","","""event"",""trial"",""time""
""fullscreenenter"",""1"",""1839""
","
","
","""event"",""trial"",""time""
""fullscreenenter"",""1"",""1839""
","
","","[{""page_index"":0,""viewing_time"":6788.20000000298},{""page_index"":1,""viewing_time"":9076},{""page_index"":2,""viewing_time"":4680},{""page_index"":3,""viewing_time"":5319.9000000059605}]","25867.90000000596","","","","","","","","","","","","","","","","","","","","","","","",""
"pit-trial","84","656111","0.0-2.0-17.0-0.0","battery-v0.2","","""event"",""trial"",""time""
""fullscreenenter"",""1"",""1839""
","
","
","""event"",""trial"",""time""
""fullscreenenter"",""1"",""1839""
","
","","","414.90000000596046","","","12","4347","476","&#9789;","elianto","#f73b6a7A"," "," ","1","0","[1267.5999999940395]","1","0","4","","","","","","","",""
"pit-trial","85","659327","0.0-2.0-17.0-1.0","battery-v0.2","","""event"",""trial"",""time""
""fullscreenenter"",""1"",""1839""
","
","
","""event"",""trial"",""time""
""fullscreenenter"",""1"",""1839""
","
","","","350.20000000298023","","","12","4347","476","&#9789;","elianto","#f73b6a7A"," "," ","1","0","[1200.2999999970198,1652.9000000059605]","2","0","4","","","","","","","",""
"pit-trial","86","662467","0.0-2.0-17.0-2.0","battery-v0.2","","""event"",""trial"",""time""
""fullscreenenter"",""1"",""1839""
","
","
","""event"",""trial"",""time""
""fullscreenenter"",""1"",""1839""
","
","","","276","","","12","4347","476","&#9789;","elianto","#f73b6a7A"," "," ","1","0","[1127.2999999970198]","1","0","4","","","","","","","",""
"pit-trial","87","665543","0.0-2.0-17.0-3.0","battery-v0.2","","""event"",""trial"",""time""
""fullscreenenter"",""1"",""1839""
","
","
","""event"",""trial"",""time""
""fullscreenenter"",""1"",""1839""
","
","","","211.20000000298023","","","12","4347","476","&#9789;","elianto","#f73b6a7A"," "," ","1","-10","[1061.2000000029802]","1","0","4","","","","","","","",""
"pit-trial","88","668572","0.0-2.0-17.0-4.0","battery-v0.2","","""event"",""trial"",""time""
""fullscreenenter"",""1"",""1839""
","
","
","""event"",""trial"",""time""
""fullscreenenter"",""1"",""1839""
","
","","","165.8999999910593","","","12","4347","476","&#9789;","elianto","#f73b6a7A"," "," ","1","0","[1016]","1","0","4","","","","","","","",""
"pit-trial","89","671620","0.0-2.0-17.1-0.1","battery-v0.2","","""event"",""trial"",""time""
""fullscreenenter"",""1"",""1839""
","
","
","""event"",""trial"",""time""
""fullscreenenter"",""1"",""1839""
","
","","","175.8999999910593","","","12","4347","476","&#9789;","elianto","#f73b6a7A"," "," ","1","0","[1026.3999999910593]","1","0","4","","","","","","","",""
"pit-trial","90","674792","0.0-2.0-17.1-1.1","battery-v0.2","","""event"",""trial"",""time""
""fullscreenenter"",""1"",""1839""
","
","
","""event"",""trial"",""time""
""fullscreenenter"",""1"",""1839""
","
","","","308.5","","","12","4347","476","&#9789;","elianto","#f73b6a7A"," "," ","1","0","[1158.7000000029802]","1","0","4","","","","","","","",""
"pit-trial","91","677962","0.0-2.0-17.1-2.1","battery-v0.2","","""event"",""trial"",""time""
""fullscreenenter"",""1"",""1839""
","
","
","""event"",""trial"",""time""
""fullscreenenter"",""1"",""1839""
","
","","","306","","","12","4347","476","&#9789;","elianto","#f73b6a7A"," "," ","1","0","[1156.9000000059605]","1","0","4","","","","","","","",""
"pit-trial","92","680997","0.0-2.0-17.1-3.1","battery-v0.2","","""event"",""trial"",""time""
""fullscreenenter"",""1"",""1839""
","
","
","""event"",""trial"",""time""
""fullscreenenter"",""1"",""1839""
","
","","","168.29999999701977","","","12","4347","476","&#9789;","elianto","#f73b6a7A"," "," ","1","-10","[1021.7999999970198]","1","0","4","","","","","","","",""
"pit-trial","93","684187","0.0-2.0-17.1-4.1","battery-v0.2","","""event"",""trial"",""time""
""fullscreenenter"",""1"",""1839""
","
","
","""event"",""trial"",""time""
""fullscreenenter"",""1"",""1839""
","
","","","325.8999999910593","","","12","4347","476","&#9789;","elianto","#f73b6a7A"," "," ","1","0","[1177.199999988079]","1","0","4","","","","","","","",""
"pit-trial","94","687505","0.0-2.0-17.2-0.2","battery-v0.2","","""event"",""trial"",""time""
""fullscreenenter"",""1"",""1839""
","
","
","""event"",""trial"",""time""
""fullscreenenter"",""1"",""1839""
","
","","","454","","","12","4347","476","&#9789;","elianto","#f73b6a7A"," "," ","1","0","[1304]","1","0","4","","","","","","","",""
"pit-trial","95","690735","0.0-2.0-17.2-1.2","battery-v0.2","","""event"",""trial"",""time""
""fullscreenenter"",""1"",""1839""
","
","
","""event"",""trial"",""time""
""fullscreenenter"",""1"",""1839""
","
","","","361.5","","","12","4347","476","&#9789;","elianto","#f73b6a7A"," "," ","1","0","[1215.5]","1","0","4","","","","","","","",""
"pit-trial","96","694000","0.0-2.0-17.2-2.2","battery-v0.2","","""event"",""trial"",""time""
""fullscreenenter"",""1"",""1839""
","
","
","""event"",""trial"",""time""
""fullscreenenter"",""1"",""1839""
","
","","","402.3999999910593","","","12","4347","476","&#9789;","elianto","#f73b6a7A"," "," ","1","0","[1252.4000000059605]","1","0","4","","","","","","","",""
"pit-trial","97","697222","0.0-2.0-17.2-3.2","battery-v0.2","","""event"",""trial"",""time""
""fullscreenenter"",""1"",""1839""
","
","
","""event"",""trial"",""time""
""fullscreenenter"",""1"",""1839""
","
","","","357.1000000089407","","","12","4347","476","&#9789;","elianto","#f73b6a7A"," "," ","1","-10","[1207.2000000029802]","1","0","4","","","","","","","",""
"pit-trial","98","700503","0.0-2.0-17.2-4.2","battery-v0.2","","""event"",""trial"",""time""
""fullscreenenter"",""1"",""1839""
","
","
","""event"",""trial"",""time""
""fullscreenenter"",""1"",""1839""
","
","","","419","","","12","4347","476","&#9789;","elianto","#f73b6a7A"," "," ","1","0","[1268.9000000059605]","1","0","4","","","","","","","",""
"pit-trial","99","703723","0.0-2.0-17.3-0.3","battery-v0.2","","""event"",""trial"",""time""
""fullscreenenter"",""1"",""1839""
","
","
","""event"",""trial"",""time""
""fullscreenenter"",""1"",""1839""
","
","","","355.6000000089407","","","12","4347","476","&#9789;","elianto","#f73b6a7A"," "," ","1","0","[1206.2000000029802]","1","0","4","","","","","","","",""
"pit-trial","100","707032","0.0-2.0-17.3-1.3","battery-v0.2","","""event"",""trial"",""time""
""fullscreenenter"",""1"",""1839""
","
","
","""event"",""trial"",""time""
""fullscreenenter"",""1"",""1839""
","
","","","444.5","","","12","4347","476","&#9789;","elianto","#f73b6a7A"," "," ","1","0","[1294.5]","1","0","4","","","","","","","",""
"pit-trial","101","709902","0.0-2.0-17.3-2.3","battery-v0.2","","""event"",""trial"",""time""
""fullscreenenter"",""1"",""1839""
","
","
","""event"",""trial"",""time""
""fullscreenenter"",""1"",""1839""
","
","","","6.699999988079071","","","12","4347","476","&#9789;","elianto","#f73b6a7A"," "," ","1","0","[857.9000000059605,1319]","2","0","4","","","","","","","",""
"pit-trial","102","713067","0.0-2.0-17.3-3.3","battery-v0.2","","""event"",""trial"",""time""
""fullscreenenter"",""1"",""1839""
","
","
","""event"",""trial"",""time""
""fullscreenenter"",""1"",""1839""
","
","","","299.29999999701977","","","12","4347","476","&#9789;","elianto","#f73b6a7A"," "," ","1","-10","[1149.2999999970198]","1","0","4","","","","","","","",""
"pit-trial","103","716396","0.0-2.0-17.3-4.3","battery-v0.2","","""event"",""trial"",""time""
""fullscreenenter"",""1"",""1839""
","
","
","""event"",""trial"",""time""
""fullscreenenter"",""1"",""1839""
","
","","","464.6000000089407","","","12","4347","476","&#9789;","elianto","#f73b6a7A"," "," ","1","0","[1314.7999999970198]","1","0","4","","","","","","","",""
"call-function","104","716401","0.0-2.0-18.0","battery-v0.2","","""event"",""trial"",""time""
""fullscreenenter"",""1"",""1839""
","
","
","""event"",""trial"",""time""
""fullscreenenter"",""1"",""1839""
","
","","","","","","","","","","","","","","","","","","","","","","","","","","",""
"pit-instructions","105","791211","0.0-2.0-19.0","battery-v0.2","","""event"",""trial"",""time""
""fullscreenenter"",""1"",""1839""
","
","
","""event"",""trial"",""time""
""fullscreenenter"",""1"",""1839""
","
","","[{""page_index"":0,""viewing_time"":7950.0999999940395},{""page_index"":1,""viewing_time"":6508},{""page_index"":2,""viewing_time"":14166.5},{""page_index"":3,""viewing_time"":7982.100000008941},{""page_index"":4,""viewing_time"":8611},{""page_index"":5,""viewing_time"":10025.59999999404},{""page_index"":6,""viewing_time"":8699.29999999702},{""page_index"":7,""viewing_time"":6266.4000000059605},{""page_index"":8,""viewing_time"":4593.9000000059605}]","74808.40000000596","","","","","","","","","","","","","","","","","","","","","","","",""
"pit-comprehension","106","795908","0.0-2.0-20.0-0.0","battery-v0.2","","""event"",""trial"",""time""
""fullscreenenter"",""1"",""1839""
","
","
","""event"",""trial"",""time""
""fullscreenenter"",""1"",""1839""
","
","","","4671.9000000059605","[""SPACE""]","0","12","4347","476","","","","","","","","","","","","","","","","","","",""
"pit-instructions","107","802733","0.0-2.0-20.0-1.0","battery-v0.2","","""event"",""trial"",""time""
""fullscreenenter"",""1"",""1839""
","
","
","""event"",""trial"",""time""
""fullscreenenter"",""1"",""1839""
","
","","[{""page_index"":0,""viewing_time"":6696.79999999702}]","6701","","","","","","","","","","","","","","","","","","","","","","","",""
"pit-comprehension","108","807018","0.0-2.0-21.0-0.0","battery-v0.2","","""event"",""trial"",""time""
""fullscreenenter"",""1"",""1839""
","
","
","""event"",""trial"",""time""
""fullscreenenter"",""1"",""1839""
","
","","","4265.800000011921","[""10""]","0","12","4347","476","","","","","","","","","","","","","","","","","","",""
"pit-instructions","109","808756","0.0-2.0-21.0-1.0","battery-v0.2","","""event"",""trial"",""time""
""fullscreenenter"",""1"",""1839""
","
","
","""event"",""trial"",""time""
""fullscreenenter"",""1"",""1839""
","
","","[{""page_index"":0,""viewing_time"":1609}]","1614.1000000089407","","","","","","","","","","","","","","","","","","","","","","","",""
"pit-comprehension","110","816349","0.0-2.0-22.0-0.0","battery-v0.2","","""event"",""trial"",""time""
""fullscreenenter"",""1"",""1839""
","
","
","""event"",""trial"",""time""
""fullscreenenter"",""1"",""1839""
","
","","","7577.899999991059","[""0""]","0","12","4347","476","","","","","","","","","","","","","","","","","","",""
"pit-instructions","111","818088","0.0-2.0-22.0-1.0","battery-v0.2","","""event"",""trial"",""time""
""fullscreenenter"",""1"",""1839""
","
","
","""event"",""trial"",""time""
""fullscreenenter"",""1"",""1839""
","
","","[{""page_index"":0,""viewing_time"":1608.0999999940395}]","1611.7999999970198","","","","","","","","","","","","","","","","","","","","","","","",""
"pit-comprehension","112","826656","0.0-2.0-23.0-0.0","battery-v0.2","","""event"",""trial"",""time""
""fullscreenenter"",""1"",""1839""
","
","
","""event"",""trial"",""time""
""fullscreenenter"",""1"",""1839""
","
","","","8549.5","[""True""]","0","12","4347","476","","","","","","","","","","","","","","","","","","",""
"pit-instructions","113","828537","0.0-2.0-23.0-1.0","battery-v0.2","","""event"",""trial"",""time""
""fullscreenenter"",""1"",""1839""
","
","
","""event"",""trial"",""time""
""fullscreenenter"",""1"",""1839""
","
","","[{""page_index"":0,""viewing_time"":1759.2999999970198}]","1761.7999999970198","","","","","","","","","","","","","","","","","","","","","","","",""
"pit-comprehension","114","836283","0.0-2.0-24.0-0.0","battery-v0.2","","""event"",""trial"",""time""
""fullscreenenter"",""1"",""1839""
","
","
","""event"",""trial"",""time""
""fullscreenenter"",""1"",""1839""
","
","","","7728.20000000298","[""True""]","0","12","4347","476","","","","","","","","","","","","","","","","","","",""
"pit-instructions","115","837949","0.0-2.0-24.0-1.0","battery-v0.2","","""event"",""trial"",""time""
""fullscreenenter"",""1"",""1839""
","
","
","""event"",""trial"",""time""
""fullscreenenter"",""1"",""1839""
","
","","[{""page_index"":0,""viewing_time"":1539.5}]","1541.4000000059605","","","","","","","","","","","","","","","","","","","","","","","",""
"pit-comprehension","116","845860","0.0-2.0-25.0-0.0","battery-v0.2","","""event"",""trial"",""time""
""fullscreenenter"",""1"",""1839""
","
","
","""event"",""trial"",""time""
""fullscreenenter"",""1"",""1839""
","
","","","7892.600000008941","[""True""]","0","12","4347","476","","","","","","","","","","","","","","","","","","",""
"pit-instructions","117","847103","0.0-2.0-25.0-1.0","battery-v0.2","","""event"",""trial"",""time""
""fullscreenenter"",""1"",""1839""
","
","
","""event"",""trial"",""time""
""fullscreenenter"",""1"",""1839""
","
","","[{""page_index"":0,""viewing_time"":1109.6000000089407}]","1115.9000000059605","","","","","","","","","","","","","","","","","","","","","","","",""
"pit-comprehension","118","853520","0.0-2.0-26.0-0.0","battery-v0.2","","""event"",""trial"",""time""
""fullscreenenter"",""1"",""1839""
","
","
","""event"",""trial"",""time""
""fullscreenenter"",""1"",""1839""
","
","","","6398.5","[""False""]","0","12","4347","476","","","","","","","","","","","","","","","","","","",""
"pit-instructions","119","855372","0.0-2.0-26.0-1.0","battery-v0.2","","""event"",""trial"",""time""
""fullscreenenter"",""1"",""1839""
","
","
","""event"",""trial"",""time""
""fullscreenenter"",""1"",""1839""
","
","","[{""page_index"":0,""viewing_time"":1704.800000011921}]","1709.1000000089407","","","","","","","","","","","","","","","","","","","","","","","",""
"pit-instructions","120","871381","0.0-3.0","battery-v0.2","","""event"",""trial"",""time""
""fullscreenenter"",""1"",""1839""
","
","
","""event"",""trial"",""time""
""fullscreenenter"",""1"",""1839""
","
","","[{""page_index"":0,""viewing_time"":3618.1000000089407},{""page_index"":1,""viewing_time"":5099},{""page_index"":2,""viewing_time"":7279.29999999702}]","15999.90000000596","","","","","","","","","","","","","","","","","","","","","","","",""
"pit-trial","121","874848","0.0-4.0","battery-v0.2","","""event"",""trial"",""time""
""fullscreenenter"",""1"",""1839""
","
","
","""event"",""trial"",""time""
""fullscreenenter"",""1"",""1839""
","
","","","592.8999999910593","","","12","4347","476","&#9730;","elianto","#3366ff99"," "," ","1","+10","[1446.2000000029802]","1","1","","","4347","1","1","1","win","go","0"
"pit-trial","122","878620","0.0-5.0","battery-v0.2","","""event"",""trial"",""time""
""fullscreenenter"",""1"",""1839""
","
","
","""event"",""trial"",""time""
""fullscreenenter"",""1"",""1839""
","
","","","907.5","","","12","4347","476","&#9733;","elianto","#3366ff99","-1"," ","0","0","[1757.5]","1","1","","","4347","2","2","2","win","no-go","0"
"pit-trial","123","883485","0.0-6.0","battery-v0.2","","""event"",""trial"",""time""
""fullscreenenter"",""1"",""1839""
","
","
","""event"",""trial"",""time""
""fullscreenenter"",""1"",""1839""
","
","","","-1","","","12","4347","476","&#9752;","elianto","#f73b6a7A"," ","-1","0","-10","[]","0","1","","","4347","3","3","3","lose","go","0"
"pit-trial","124","888350","0.0-7.0","battery-v0.2","","""event"",""trial"",""time""
""fullscreenenter"",""1"",""1839""
","
","
","""event"",""trial"",""time""
""fullscreenenter"",""1"",""1839""
","
","","","-1","","","12","4347","476","&#9728;","elianto","#f73b6a7A","-1","-1","1","-10","[]","0","1","","","4347","4","0","4","lose","no-go","1"
"pit-trial","125","892342","0.0-8.0","battery-v0.2","","""event"",""trial"",""time""
""fullscreenenter"",""1"",""1839""
","
","
","""event"",""trial"",""time""
""fullscreenenter"",""1"",""1839""
","
","","","1127.4000000059605","","","12","4347","476","&#9752;","elianto","#f73b6a7A"," "," ","1","0","[1977.6000000089407]","1","1","","","4347","5","3","3","lose","go","0"
"pit-trial","126","896152","0.0-9.0","battery-v0.2","","""event"",""trial"",""time""
""fullscreenenter"",""1"",""1839""
","
","
","""event"",""trial"",""time""
""fullscreenenter"",""1"",""1839""
","
","","","939.5","","","12","4347","476","&#9730;","elianto","#3366ff99"," "," ","1","+10","[1794.7000000029802]","1","1","","","4347","6","1","1","win","go","0"
"pit-trial","127","901016","0.0-10.0","battery-v0.2","","""event"",""trial"",""time""
""fullscreenenter"",""1"",""1839""
","
","
","""event"",""trial"",""time""
""fullscreenenter"",""1"",""1839""
","
","","","-1","","","12","4347","476","&#9733;","elianto","#3366ff99","-1","-1","1","+10","[]","0","1","","","4347","7","2","2","win","no-go","0"
"pit-trial","128","905879","0.0-11.0","battery-v0.2","","""event"",""trial"",""time""
""fullscreenenter"",""1"",""1839""
","
","
","""event"",""trial"",""time""
""fullscreenenter"",""1"",""1839""
","
","","","-1","","","12","4347","476","&#9728;","elianto","#f73b6a7A","-1","-1","1","0","[]","0","1","","","4347","8","0","4","lose","no-go","0"
"pit-trial","129","910742","0.0-12.0","battery-v0.2","","""event"",""trial"",""time""
""fullscreenenter"",""1"",""1839""
","
","
","""event"",""trial"",""time""
""fullscreenenter"",""1"",""1839""
","
","","","-1","","","12","4347","476","&#9728;","elianto","#f73b6a7A","-1","-1","1","0","[]","0","1","","","4347","9","0","4","lose","no-go","0"
"pit-trial","130","914124","0.0-13.0","battery-v0.2","","""event"",""trial"",""time""
""fullscreenenter"",""1"",""1839""
","
","
","""event"",""trial"",""time""
""fullscreenenter"",""1"",""1839""
","
","","","516.2999999970198","","","12","4347","476","&#9733;","elianto","#3366ff99","-1"," ","0","0","[1366.4000000059605]","1","1","","","4347","10","2","2","win","no-go","0"
"pit-trial","131","918988","0.0-14.0","battery-v0.2","","""event"",""trial"",""time""
""fullscreenenter"",""1"",""1839""
","
","
","""event"",""trial"",""time""
""fullscreenenter"",""1"",""1839""
","
","","","-1","","","12","4347","476","&#9730;","elianto","#3366ff99"," ","-1","0","0","[2936,3441.5999999940395,3677.9000000059605,3916.9000000059605,4236.5999999940395]","5","1","","","4347","11","1","1","win","go","0"
"pit-trial","132","922920","0.0-15.0","battery-v0.2","","""event"",""trial"",""time""
""fullscreenenter"",""1"",""1839""
","
","
","""event"",""trial"",""time""
""fullscreenenter"",""1"",""1839""
","
","","","1066.199999988079","","","12","4347","476","&#9752;","elianto","#f73b6a7A"," "," ","1","0","[1916.2000000029802]","1","1","","","4347","12","3","3","lose","go","0"
"pit-trial","133","926453","0.0-16.0","battery-v0.2","","""event"",""trial"",""time""
""fullscreenenter"",""1"",""1839""
","
","
","""event"",""trial"",""time""
""fullscreenenter"",""1"",""1839""
","
","","","667.0999999940395","","","12","4347","476","&#9730;","elianto","#3366ff99"," "," ","1","+10","[1517.2999999970198]","1","1","","","4347","13","1","1","win","go","0"
"pit-trial","134","931321","0.0-17.0","battery-v0.2","","""event"",""trial"",""time""
""fullscreenenter"",""1"",""1839""
","
","
","""event"",""trial"",""time""
""fullscreenenter"",""1"",""1839""
","
","","","-1","","","12","4347","476","&#9728;","elianto","#f73b6a7A","-1","-1","1","0","[]","0","1","","","4347","14","0","4","lose","no-go","0"
"pit-trial","135","935188","0.0-18.0","battery-v0.2","","""event"",""trial"",""time""
""fullscreenenter"",""1"",""1839""
","
","
","""event"",""trial"",""time""
""fullscreenenter"",""1"",""1839""
","
","","","1003.7000000029802","","","12","4347","476","&#9752;","elianto","#f73b6a7A"," "," ","1","0","[1853.9000000059605]","1","1","","","4347","15","3","3","lose","go","0"
"pit-trial","136","940054","0.0-19.0","battery-v0.2","","""event"",""trial"",""time""
""fullscreenenter"",""1"",""1839""
","
","
","""event"",""trial"",""time""
""fullscreenenter"",""1"",""1839""
","
","","","-1","","","12","4347","476","&#9733;","elianto","#3366ff99","-1","-1","1","+10","[]","0","1","","","4347","16","2","2","win","no-go","0"
"pit-trial","137","944011","0.0-20.0","battery-v0.2","","""event"",""trial"",""time""
""fullscreenenter"",""1"",""1839""
","
","
","""event"",""trial"",""time""
""fullscreenenter"",""1"",""1839""
","
","","","1090.2999999970198","","","12","4347","476","&#9752;","elianto","#f73b6a7A"," "," ","1","0","[1940.9000000059605]","1","1","","","4347","17","3","3","lose","go","0"
"pit-trial","138","947500","0.0-21.0","battery-v0.2","","""event"",""trial"",""time""
""fullscreenenter"",""1"",""1839""
","
","
","""event"",""trial"",""time""
""fullscreenenter"",""1"",""1839""
","
","","","625","","","12","4347","476","&#9730;","elianto","#3366ff99"," "," ","1","+10","[1475.0999999940395]","1","1","","","4347","18","1","1","win","go","0"
"pit-trial","139","952364","0.0-22.0","battery-v0.2","","""event"",""trial"",""time""
""fullscreenenter"",""1"",""1839""
","
","
","""event"",""trial"",""time""
""fullscreenenter"",""1"",""1839""
","
","","","-1","","","12","4347","476","&#9728;","elianto","#f73b6a7A","-1","-1","1","0","[]","0","1","","","4347","19","0","4","lose","no-go","0"
"pit-trial","140","957228","0.0-23.0","battery-v0.2","","""event"",""trial"",""time""
""fullscreenenter"",""1"",""1839""
","
","
","""event"",""trial"",""time""
""fullscreenenter"",""1"",""1839""
","
","","","-1","","","12","4347","476","&#9733;","elianto","#3366ff99","-1","-1","1","+10","[]","0","1","","","4347","20","2","2","win","no-go","0"
"pit-instructions","141","970807","0.0-24.0","battery-v0.2","","""event"",""trial"",""time""
""fullscreenenter"",""1"",""1839""
","
","
","""event"",""trial"",""time""
""fullscreenenter"",""1"",""1839""
","
","","[{""page_index"":0,""viewing_time"":6600.399999991059},{""page_index"":1,""viewing_time"":6965.4000000059605}]","13569.70000000298","","","","","","","","","","","","","","","","","","","","","","","",""
"pit-trial","142","975671","0.0-25.0","battery-v0.2","","""event"",""trial"",""time""
""fullscreenenter"",""1"",""1839""
","
","
","""event"",""trial"",""time""
""fullscreenenter"",""1"",""1839""
","
","","","-1","","","12","4347","476","a","elianto","#f73b6a7A","-1","-1","1","0","[]","0","2","","","4347","21","2","4","lose","no-go","0"
"pit-trial","143","979826","0.0-26.0","battery-v0.2","","""event"",""trial"",""time""
""fullscreenenter"",""1"",""1839""
","
","
","""event"",""trial"",""time""
""fullscreenenter"",""1"",""1839""
","
","","","1289.5","","","12","4347","476","g","elianto","#f73b6a7A"," "," ","1","0","[2138]","1","2","","","4347","22","3","3","lose","go","0"
"pit-trial","144","984688","0.0-27.0","battery-v0.2","","""event"",""trial"",""time""
""fullscreenenter"",""1"",""1839""
","
","
","""event"",""trial"",""time""
""fullscreenenter"",""1"",""1839""
","
","","","-1","","","12","4347","476","u","elianto","#f73b6a7A","-1","-1","1","0","[]","0","2","","","4347","23","0","4","lose","no-go","0"
"pit-trial","145","988788","0.0-28.0","battery-v0.2","","""event"",""trial"",""time""
""fullscreenenter"",""1"",""1839""
","
","
","""event"",""trial"",""time""
""fullscreenenter"",""1"",""1839""
","
","","","1236.5999999940395","","","12","4347","476","l","elianto","#3366ff99"," "," ","1","+10","[2086.5999999940395]","1","2","","","4347","24","1","1","win","go","0"
"pit-trial","146","993650","0.0-29.0","battery-v0.2","","""event"",""trial"",""time""
""fullscreenenter"",""1"",""1839""
","
","
","""event"",""trial"",""time""
""fullscreenenter"",""1"",""1839""
","
","","","-1","","","12","4347","476","g","elianto","#f73b6a7A"," ","-1","0","0","[]","0","2","","","4347","25","3","3","lose","go","1"
"pit-trial","147","997423","0.0-30.0","battery-v0.2","","""event"",""trial"",""time""
""fullscreenenter"",""1"",""1839""
","
","
","""event"",""trial"",""time""
""fullscreenenter"",""1"",""1839""
","
","","","909.4000000059605","","","12","4347","476","l","elianto","#3366ff99"," "," ","1","0","[1759.4000000059605]","1","2","","","4347","26","1","1","win","go","1"
"pit-trial","148","1001445","0.0-31.0","battery-v0.2","","""event"",""trial"",""time""
""fullscreenenter"",""1"",""1839""
","
","
","""event"",""trial"",""time""
""fullscreenenter"",""1"",""1839""
","
","","","1156.199999988079","","","12","4347","476","u","elianto","#f73b6a7A","-1"," ","0","-10","[2006.2999999970198]","1","2","","","4347","27","0","4","lose","no-go","0"
"pit-trial","149","1006308","0.0-32.0","battery-v0.2","","""event"",""trial"",""time""
""fullscreenenter"",""1"",""1839""
","
","
","""event"",""trial"",""time""
""fullscreenenter"",""1"",""1839""
","
","","","-1","","","12","4347","476","a","elianto","#f73b6a7A","-1","-1","1","-10","[]","0","2","","","4347","28","2","4","lose","no-go","1"
"pit-trial","150","1011175","0.0-33.0","battery-v0.2","","""event"",""trial"",""time""
""fullscreenenter"",""1"",""1839""
","
","
","""event"",""trial"",""time""
""fullscreenenter"",""1"",""1839""
","
","","","-1","","","12","4347","476","u","elianto","#f73b6a7A","-1","-1","1","0","[4040.2000000029802,4435.4000000059605,4784.4000000059605]","3","2","","","4347","29","0","4","lose","no-go","0"
"pit-trial","151","1016040","0.0-34.0","battery-v0.2","","""event"",""trial"",""time""
""fullscreenenter"",""1"",""1839""
","
","
","""event"",""trial"",""time""
""fullscreenenter"",""1"",""1839""
","
","","","-1","","","12","4347","476","a","elianto","#f73b6a7A","-1","-1","1","0","[]","0","2","","","4347","30","2","4","lose","no-go","0"
"pit-trial","152","1020904","0.0-35.0","battery-v0.2","","""event"",""trial"",""time""
""fullscreenenter"",""1"",""1839""
","
","
","""event"",""trial"",""time""
""fullscreenenter"",""1"",""1839""
","
","","","-1","","","12","4347","476","g","elianto","#f73b6a7A"," ","-1","0","-10","[]","0","2","","","4347","31","3","3","lose","go","0"
"pit-trial","153","1024535","0.0-36.0","battery-v0.2","","""event"",""trial"",""time""
""fullscreenenter"",""1"",""1839""
","
","
","""event"",""trial"",""time""
""fullscreenenter"",""1"",""1839""
","
","","","763","","","12","4347","476","l","elianto","#3366ff99"," "," ","1","+10","[1613.1000000089407]","1","2","","","4347","32","1","1","win","go","0"
"pit-trial","154","1029403","0.0-37.0","battery-v0.2","","""event"",""trial"",""time""
""fullscreenenter"",""1"",""1839""
","
","
","""event"",""trial"",""time""
""fullscreenenter"",""1"",""1839""
","
","","","-1","","","12","4347","476","a","elianto","#f73b6a7A","-1","-1","1","0","[]","0","2","","","4347","33","2","4","lose","no-go","0"
"pit-trial","155","1034270","0.0-38.0","battery-v0.2","","""event"",""trial"",""time""
""fullscreenenter"",""1"",""1839""
","
","
","""event"",""trial"",""time""
""fullscreenenter"",""1"",""1839""
","
","","","-1","","","12","4347","476","g","elianto","#f73b6a7A"," ","-1","0","-10","[]","0","2","","","4347","34","3","3","lose","go","0"
"pit-trial","156","1037962","0.0-39.0","battery-v0.2","","""event"",""trial"",""time""
""fullscreenenter"",""1"",""1839""
","
","
","""event"",""trial"",""time""
""fullscreenenter"",""1"",""1839""
","
","","","826","","","12","4347","476","l","elianto","#3366ff99"," "," ","1","0","[1676.7000000029802]","1","2","","","4347","35","1","1","win","go","1"
"pit-trial","157","1041701","0.0-40.0","battery-v0.2","","""event"",""trial"",""time""
""fullscreenenter"",""1"",""1839""
","
","
","""event"",""trial"",""time""
""fullscreenenter"",""1"",""1839""
","
","","","876","","","12","4347","476","u","elianto","#f73b6a7A","-1"," ","0","-10","[1726.1000000089407]","1","2","","","4347","36","0","4","lose","no-go","0"
"pit-trial","158","1045415","0.0-41.0","battery-v0.2","","""event"",""trial"",""time""
""fullscreenenter"",""1"",""1839""
","
","
","""event"",""trial"",""time""
""fullscreenenter"",""1"",""1839""
","
","","","849.5","","","12","4347","476","l","elianto","#3366ff99"," "," ","1","0","[1699.3999999910593,2930.5999999940395]","2","2","","","4347","37","1","1","win","go","1"
"pit-trial","159","1050279","0.0-42.0","battery-v0.2","","""event"",""trial"",""time""
""fullscreenenter"",""1"",""1839""
","
","
","""event"",""trial"",""time""
""fullscreenenter"",""1"",""1839""
","
","","","-1","","","12","4347","476","g","elianto","#f73b6a7A"," ","-1","0","-10","[3809.7999999970198]","1","2","","","4347","38","3","3","lose","go","0"
"pit-trial","160","1055146","0.0-43.0","battery-v0.2","","""event"",""trial"",""time""
""fullscreenenter"",""1"",""1839""
","
","
","""event"",""trial"",""time""
""fullscreenenter"",""1"",""1839""
","
","","","-1","","","12","4347","476","a","elianto","#f73b6a7A","-1","-1","1","0","[]","0","2","","","4347","39","2","4","lose","no-go","0"
"pit-trial","161","1060009","0.0-44.0","battery-v0.2","","""event"",""trial"",""time""
""fullscreenenter"",""1"",""1839""
","
","
","""event"",""trial"",""time""
""fullscreenenter"",""1"",""1839""
","
","","","-1","","","12","4347","476","u","elianto","#f73b6a7A","-1","-1","1","0","[]","0","2","","","4347","40","0","4","lose","no-go","0"
"pit-trial","162","1064874","0.0-45.0","battery-v0.2","","""event"",""trial"",""time""
""fullscreenenter"",""1"",""1839""
","
","
","""event"",""trial"",""time""
""fullscreenenter"",""1"",""1839""
","
","","","-1","","","12","4347","476","u","elianto","#f73b6a7A","-1","-1","1","0","[]","0","2","","","4347","41","0","4","lose","no-go","0"
"pit-trial","163","1068405","0.0-46.0","battery-v0.2","","""event"",""trial"",""time""
""fullscreenenter"",""1"",""1839""
","
","
","""event"",""trial"",""time""
""fullscreenenter"",""1"",""1839""
","
","","","666.9000000059605","","","12","4347","476","l","elianto","#3366ff99"," "," ","1","+10","[1517]","1","2","","","4347","42","1","1","win","go","0"
"pit-trial","164","1072216","0.0-47.0","battery-v0.2","","""event"",""trial"",""time""
""fullscreenenter"",""1"",""1839""
","
","
","""event"",""trial"",""time""
""fullscreenenter"",""1"",""1839""
","
","","","948.2999999970198","","","12","4347","476","g","elianto","#f73b6a7A"," "," ","1","0","[1798.4000000059605]","1","2","","","4347","43","3","3","lose","go","0"
"pit-trial","165","1077077","0.0-48.0","battery-v0.2","","""event"",""trial"",""time""
""fullscreenenter"",""1"",""1839""
","
","
","""event"",""trial"",""time""
""fullscreenenter"",""1"",""1839""
","
","","","-1","","","12","4347","476","a","elianto","#f73b6a7A","-1","-1","1","0","[]","0","2","","","4347","44","2","4","lose","no-go","0"
"pit-trial","166","1081939","0.0-49.0","battery-v0.2","","""event"",""trial"",""time""
""fullscreenenter"",""1"",""1839""
","
","
","""event"",""trial"",""time""
""fullscreenenter"",""1"",""1839""
","
","","","-1","","","12","4347","476","a","elianto","#f73b6a7A","-1","-1","1","0","[]","0","2","","","4347","45","2","4","lose","no-go","0"
"pit-trial","167","1086805","0.0-50.0","battery-v0.2","","""event"",""trial"",""time""
""fullscreenenter"",""1"",""1839""
","
","
","""event"",""trial"",""time""
""fullscreenenter"",""1"",""1839""
","
","","","-1","","","12","4347","476","u","elianto","#f73b6a7A","-1","-1","1","-10","[]","0","2","","","4347","46","0","4","lose","no-go","1"
"pit-trial","168","1090570","0.0-51.0","battery-v0.2","","""event"",""trial"",""time""
""fullscreenenter"",""1"",""1839""
","
","
","""event"",""trial"",""time""
""fullscreenenter"",""1"",""1839""
","
","","","905.1000000089407","","","12","4347","476","g","elianto","#f73b6a7A"," "," ","1","0","[1754.9000000059605]","1","2","","","4347","47","3","3","lose","go","0"
"pit-trial","169","1094496","0.0-52.0","battery-v0.2","","""event"",""trial"",""time""
""fullscreenenter"",""1"",""1839""
","
","
","""event"",""trial"",""time""
""fullscreenenter"",""1"",""1839""
","
","","","1058.5999999940395","","","12","4347","476","p","elianto","#3366ff99","-1"," ","0","0","[1914.4000000059605]","1","2","","","4347","48","4","2","win","no-go","0"
"pit-trial","170","1099359","0.0-53.0","battery-v0.2","","""event"",""trial"",""time""
""fullscreenenter"",""1"",""1839""
","
","
","""event"",""trial"",""time""
""fullscreenenter"",""1"",""1839""
","
","","","-1","","","12","4347","476","u","elianto","#f73b6a7A","-1","-1","1","0","[]","0","2","","","4347","49","0","4","lose","no-go","0"
"pit-trial","171","1104226","0.0-54.0","battery-v0.2","","""event"",""trial"",""time""
""fullscreenenter"",""1"",""1839""
","
","
","""event"",""trial"",""time""
""fullscreenenter"",""1"",""1839""
","
","","","-1","","","12","4347","476","p","elianto","#3366ff99","-1","-1","1","0","[]","0","2","","","4347","50","4","2","win","no-go","1"
"pit-trial","172","1107791","0.0-55.0","battery-v0.2","","""event"",""trial"",""time""
""fullscreenenter"",""1"",""1839""
","
","
","""event"",""trial"",""time""
""fullscreenenter"",""1"",""1839""
","
","","","701.1000000089407","","","12","4347","476","l","elianto","#3366ff99"," "," ","1","+10","[1551]","1","2","","","4347","51","1","1","win","go","0"
"pit-trial","173","1111598","0.0-56.0","battery-v0.2","","""event"",""trial"",""time""
""fullscreenenter"",""1"",""1839""
","
","
","""event"",""trial"",""time""
""fullscreenenter"",""1"",""1839""
","
","","","941.1999999880791","","","12","4347","476","g","elianto","#f73b6a7A"," "," ","1","0","[1791.4000000059605]","1","2","","","4347","52","3","3","lose","go","0"
"pit-trial","174","1116465","0.0-57.0","battery-v0.2","","""event"",""trial"",""time""
""fullscreenenter"",""1"",""1839""
","
","
","""event"",""trial"",""time""
""fullscreenenter"",""1"",""1839""
","
","","","-1","","","12","4347","476","p","elianto","#3366ff99","-1","-1","1","+10","[]","0","2","","","4347","53","4","2","win","no-go","0"
"pit-trial","175","1121330","0.0-58.0","battery-v0.2","","""event"",""trial"",""time""
""fullscreenenter"",""1"",""1839""
","
","
","""event"",""trial"",""time""
""fullscreenenter"",""1"",""1839""
","
","","","-1","","","12","4347","476","a","elianto","#f73b6a7A","-1","-1","1","-10","[]","0","2","","","4347","54","2","4","lose","no-go","1"
"pit-trial","176","1126196","0.0-59.0","battery-v0.2","","""event"",""trial"",""time""
""fullscreenenter"",""1"",""1839""
","
","
","""event"",""trial"",""time""
""fullscreenenter"",""1"",""1839""
","
","","","-1","","","12","4347","476","u","elianto","#f73b6a7A","-1","-1","1","0","[]","0","2","","","4347","55","0","4","lose","no-go","0"
"pit-trial","177","1129780","0.0-60.0","battery-v0.2","","""event"",""trial"",""time""
""fullscreenenter"",""1"",""1839""
","
","
","""event"",""trial"",""time""
""fullscreenenter"",""1"",""1839""
","
","","","720.4000000059605","","","12","4347","476","l","elianto","#3366ff99"," "," ","1","+10","[1570.7000000029802]","1","2","","","4347","56","1","1","win","go","0"
"pit-trial","178","1133317","0.0-61.0","battery-v0.2","","""event"",""trial"",""time""
""fullscreenenter"",""1"",""1839""
","
","
","""event"",""trial"",""time""
""fullscreenenter"",""1"",""1839""
","
","","","675.7000000029802","","","12","4347","476","l","elianto","#3366ff99"," "," ","1","+10","[1525.7000000029802]","1","2","","","4347","57","1","1","win","go","0"
"pit-trial","179","1138184","0.0-62.0","battery-v0.2","","""event"",""trial"",""time""
""fullscreenenter"",""1"",""1839""
","
","
","""event"",""trial"",""time""
""fullscreenenter"",""1"",""1839""
","
","","","-1","","","12","4347","476","p","elianto","#3366ff99","-1","-1","1","+10","[]","0","2","","","4347","58","4","2","win","no-go","0"
"pit-trial","180","1143047","0.0-63.0","battery-v0.2","","""event"",""trial"",""time""
""fullscreenenter"",""1"",""1839""
","
","
","""event"",""trial"",""time""
""fullscreenenter"",""1"",""1839""
","
","","","-1","","","12","4347","476","u","elianto","#f73b6a7A","-1","-1","1","0","[]","0","2","","","4347","59","0","4","lose","no-go","0"
"pit-trial","181","1146778","0.0-64.0","battery-v0.2","","""event"",""trial"",""time""
""fullscreenenter"",""1"",""1839""
","
","
","""event"",""trial"",""time""
""fullscreenenter"",""1"",""1839""
","
","","","869","","","12","4347","476","g","elianto","#f73b6a7A"," "," ","1","0","[1719]","1","2","","","4347","60","3","3","lose","go","0"
"pit-trial","182","1150544","0.0-65.0","battery-v0.2","","""event"",""trial"",""time""
""fullscreenenter"",""1"",""1839""
","
","
","""event"",""trial"",""time""
""fullscreenenter"",""1"",""1839""
","
","","","905.6000000089407","","","12","4347","476","g","elianto","#f73b6a7A"," "," ","1","0","[1755.5]","1","2","","","4347","61","3","3","lose","go","0"
"pit-trial","183","1153625","0.0-66.0","battery-v0.2","","""event"",""trial"",""time""
""fullscreenenter"",""1"",""1839""
","
","
","""event"",""trial"",""time""
""fullscreenenter"",""1"",""1839""
","
","","","217.8999999910593","","","12","4347","476","p","elianto","#3366ff99","-1"," ","0","0","[1067.8999999910593]","1","2","","","4347","62","4","2","win","no-go","0"
"pit-trial","184","1158489","0.0-67.0","battery-v0.2","","""event"",""trial"",""time""
""fullscreenenter"",""1"",""1839""
","
","
","""event"",""trial"",""time""
""fullscreenenter"",""1"",""1839""
","
","","","-1","","","12","4347","476","a","elianto","#f73b6a7A","-1","-1","1","0","[]","0","2","","","4347","63","2","4","lose","no-go","0"
"pit-trial","185","1162049","0.0-68.0","battery-v0.2","","""event"",""trial"",""time""
""fullscreenenter"",""1"",""1839""
","
","
","""event"",""trial"",""time""
""fullscreenenter"",""1"",""1839""
","
","","","695.9000000059605","","","12","4347","476","l","elianto","#3366ff99"," "," ","1","+10","[1546]","1","2","","","4347","64","1","1","win","go","0"
"pit-trial","186","1165648","0.0-69.0","battery-v0.2","","""event"",""trial"",""time""
""fullscreenenter"",""1"",""1839""
","
","
","""event"",""trial"",""time""
""fullscreenenter"",""1"",""1839""
","
","","","732.9000000059605","","","12","4347","476","l","elianto","#3366ff99"," "," ","1","+10","[1583.199999988079]","1","2","","","4347","65","1","1","win","go","0"
"pit-trial","187","1170510","0.0-70.0","battery-v0.2","","""event"",""trial"",""time""
""fullscreenenter"",""1"",""1839""
","
","
","""event"",""trial"",""time""
""fullscreenenter"",""1"",""1839""
","
","","","-1","","","12","4347","476","p","elianto","#3366ff99","-1","-1","1","+10","[]","0","2","","","4347","66","4","2","win","no-go","0"
"pit-trial","188","1174241","0.0-71.0","battery-v0.2","","""event"",""trial"",""time""
""fullscreenenter"",""1"",""1839""
","
","
","""event"",""trial"",""time""
""fullscreenenter"",""1"",""1839""
","
","","","863.7000000029802","","","12","4347","476","g","elianto","#f73b6a7A"," "," ","1","0","[1718.0999999940395]","1","2","","","4347","67","3","3","lose","go","0"
"pit-trial","189","1179103","0.0-72.0","battery-v0.2","","""event"",""trial"",""time""
""fullscreenenter"",""1"",""1839""
","
","
","""event"",""trial"",""time""
""fullscreenenter"",""1"",""1839""
","
","","","-1","","","12","4347","476","a","elianto","#f73b6a7A","-1","-1","1","0","[]","0","2","","","4347","68","2","4","lose","no-go","0"
"pit-trial","190","1183964","0.0-73.0","battery-v0.2","","""event"",""trial"",""time""
""fullscreenenter"",""1"",""1839""
","
","
","""event"",""trial"",""time""
""fullscreenenter"",""1"",""1839""
","
","","","-1","","","12","4347","476","p","elianto","#3366ff99","-1","-1","1","+10","[]","0","2","","","4347","69","4","2","win","no-go","0"
"pit-trial","191","1187828","0.0-74.0","battery-v0.2","","""event"",""trial"",""time""
""fullscreenenter"",""1"",""1839""
","
","
","""event"",""trial"",""time""
""fullscreenenter"",""1"",""1839""
","
","","","998.1000000089407","","","12","4347","476","g","elianto","#f73b6a7A"," "," ","1","0","[1848.0999999940395]","1","2","","","4347","70","3","3","lose","go","0"
"pit-trial","192","1191478","0.0-75.0","battery-v0.2","","""event"",""trial"",""time""
""fullscreenenter"",""1"",""1839""
","
","
","""event"",""trial"",""time""
""fullscreenenter"",""1"",""1839""
","
","","","786.5999999940395","","","12","4347","476","l","elianto","#3366ff99"," "," ","1","0","[1636.6000000089407]","1","2","","","4347","71","1","1","win","go","1"
"pit-trial","193","1196155","0.0-76.0","battery-v0.2","","""event"",""trial"",""time""
""fullscreenenter"",""1"",""1839""
","
","
","""event"",""trial"",""time""
""fullscreenenter"",""1"",""1839""
","
","","","1806.5","","","12","4347","476","s","elianto","#3366ff99"," "," ","1","+10","[2660]","1","2","","","4347","72","5","1","win","go","0"
"pit-trial","194","1201020","0.0-77.0","battery-v0.2","","""event"",""trial"",""time""
""fullscreenenter"",""1"",""1839""
","
","
","""event"",""trial"",""time""
""fullscreenenter"",""1"",""1839""
","
","","","-1","","","12","4347","476","p","elianto","#3366ff99","-1","-1","1","+10","[]","0","2","","","4347","73","4","2","win","no-go","0"
"pit-trial","195","1204928","0.0-78.0","battery-v0.2","","""event"",""trial"",""time""
""fullscreenenter"",""1"",""1839""
","
","
","""event"",""trial"",""time""
""fullscreenenter"",""1"",""1839""
","
","","","1043.7000000029802","","","12","4347","476","l","elianto","#3366ff99"," "," ","1","+10","[1892.800000011921]","1","2","","","4347","74","1","1","win","go","0"
"pit-trial","196","1208619","0.0-79.0","battery-v0.2","","""event"",""trial"",""time""
""fullscreenenter"",""1"",""1839""
","
","
","""event"",""trial"",""time""
""fullscreenenter"",""1"",""1839""
","
","","","825.5","","","12","4347","476","g","elianto","#f73b6a7A"," "," ","1","0","[1675.6000000089407]","1","2","","","4347","75","3","3","lose","go","0"
"pit-trial","197","1212307","0.0-80.0","battery-v0.2","","""event"",""trial"",""time""
""fullscreenenter"",""1"",""1839""
","
","
","""event"",""trial"",""time""
""fullscreenenter"",""1"",""1839""
","
","","","816.8999999910593","","","12","4347","476","s","elianto","#3366ff99"," "," ","1","+10","[1673]","1","2","","","4347","76","5","1","win","go","0"
"pit-trial","198","1215919","0.0-81.0","battery-v0.2","","""event"",""trial"",""time""
""fullscreenenter"",""1"",""1839""
","
","
","""event"",""trial"",""time""
""fullscreenenter"",""1"",""1839""
","
","","","750.3999999910593","","","12","4347","476","g","elianto","#f73b6a7A"," "," ","1","0","[1601.300000011921]","1","2","","","4347","77","3","3","lose","go","0"
"pit-trial","199","1220782","0.0-82.0","battery-v0.2","","""event"",""trial"",""time""
""fullscreenenter"",""1"",""1839""
","
","
","""event"",""trial"",""time""
""fullscreenenter"",""1"",""1839""
","
","","","-1","","","12","4347","476","w","elianto","#f73b6a7A","-1","-1","1","0","[]","0","2","","","4347","78","6","4","lose","no-go","0"
"pit-trial","200","1225643","0.0-83.0","battery-v0.2","","""event"",""trial"",""time""
""fullscreenenter"",""1"",""1839""
","
","
","""event"",""trial"",""time""
""fullscreenenter"",""1"",""1839""
","
","","","1993.2999999970198","","","12","4347","476","p","elianto","#3366ff99","-1"," ","0","0","[2844.9000000059605]","1","2","","","4347","79","4","2","win","no-go","0"
"pit-trial","201","1230003","0.0-84.0","battery-v0.2","","""event"",""trial"",""time""
""fullscreenenter"",""1"",""1839""
","
","
","""event"",""trial"",""time""
""fullscreenenter"",""1"",""1839""
","
","","","1489.9000000059605","","","12","4347","476","s","elianto","#3366ff99"," "," ","1","+10","[2342.7999999970198]","1","2","","","4347","80","5","1","win","go","0"
"pit-trial","202","1234861","0.0-85.0","battery-v0.2","","""event"",""trial"",""time""
""fullscreenenter"",""1"",""1839""
","
","
","""event"",""trial"",""time""
""fullscreenenter"",""1"",""1839""
","
","","","1995.5999999940395","","","12","4347","476","e","elianto","#f73b6a7A"," "," ","1","-10","[2845.7000000029802]","1","2","","","4347","81","7","3","lose","go","1"
"pit-trial","203","1239137","0.0-86.0","battery-v0.2","","""event"",""trial"",""time""
""fullscreenenter"",""1"",""1839""
","
","
","""event"",""trial"",""time""
""fullscreenenter"",""1"",""1839""
","
","","","1411.9000000059605","","","12","4347","476","s","elianto","#3366ff99"," "," ","1","+10","[2262.1000000089407]","1","2","","","4347","82","5","1","win","go","0"
"pit-trial","204","1244003","0.0-87.0","battery-v0.2","","""event"",""trial"",""time""
""fullscreenenter"",""1"",""1839""
","
","
","""event"",""trial"",""time""
""fullscreenenter"",""1"",""1839""
","
","","","-1","","","12","4347","476","p","elianto","#3366ff99","-1","-1","1","+10","[]","0","2","","","4347","83","4","2","win","no-go","0"
"pit-trial","205","1248345","0.0-88.0","battery-v0.2","","""event"",""trial"",""time""
""fullscreenenter"",""1"",""1839""
","
","
","""event"",""trial"",""time""
""fullscreenenter"",""1"",""1839""
","
","","","1473.5","","","12","4347","476","w","elianto","#f73b6a7A","-1"," ","0","-10","[2325.2999999970198]","1","2","","","4347","84","6","4","lose","no-go","0"
"pit-trial","206","1252656","0.0-89.0","battery-v0.2","","""event"",""trial"",""time""
""fullscreenenter"",""1"",""1839""
","
","
","""event"",""trial"",""time""
""fullscreenenter"",""1"",""1839""
","
","","","1447.5","","","12","4347","476","s","elianto","#3366ff99"," "," ","1","0","[2297.5]","1","2","","","4347","85","5","1","win","go","1"
"pit-trial","207","1257521","0.0-90.0","battery-v0.2","","""event"",""trial"",""time""
""fullscreenenter"",""1"",""1839""
","
","
","""event"",""trial"",""time""
""fullscreenenter"",""1"",""1839""
","
","","","-1","","","12","4347","476","p","elianto","#3366ff99","-1","-1","1","+10","[]","0","2","","","4347","86","4","2","win","no-go","0"
"pit-trial","208","1261441","0.0-91.0","battery-v0.2","","""event"",""trial"",""time""
""fullscreenenter"",""1"",""1839""
","
","
","""event"",""trial"",""time""
""fullscreenenter"",""1"",""1839""
","
","","","1059.199999988079","","","12","4347","476","w","elianto","#f73b6a7A","-1"," ","0","-10","[1909.2000000029802]","1","2","","","4347","87","6","4","lose","no-go","0"
"pit-trial","209","1265323","0.0-92.0","battery-v0.2","","""event"",""trial"",""time""
""fullscreenenter"",""1"",""1839""
","
","
","""event"",""trial"",""time""
""fullscreenenter"",""1"",""1839""
","
","","","1020","","","12","4347","476","e","elianto","#f73b6a7A"," "," ","1","0","[1870]","1","2","","","4347","88","7","3","lose","go","0"
"pit-trial","210","1270186","0.0-93.0","battery-v0.2","","""event"",""trial"",""time""
""fullscreenenter"",""1"",""1839""
","
","
","""event"",""trial"",""time""
""fullscreenenter"",""1"",""1839""
","
","","","-1","","","12","4347","476","p","elianto","#3366ff99","-1","-1","1","+10","[]","0","2","","","4347","89","4","2","win","no-go","0"
"pit-trial","211","1275049","0.0-94.0","battery-v0.2","","""event"",""trial"",""time""
""fullscreenenter"",""1"",""1839""
","
","
","""event"",""trial"",""time""
""fullscreenenter"",""1"",""1839""
","
","","","-1","","","12","4347","476","w","elianto","#f73b6a7A","-1","-1","1","-10","[]","0","2","","","4347","90","6","4","lose","no-go","1"
"pit-trial","212","1279062","0.0-95.0","battery-v0.2","","""event"",""trial"",""time""
""fullscreenenter"",""1"",""1839""
","
","
","""event"",""trial"",""time""
""fullscreenenter"",""1"",""1839""
","
","","","1142.2000000029802","","","12","4347","476","s","elianto","#3366ff99"," "," ","1","+10","[1997.7000000029802]","1","2","","","4347","91","5","1","win","go","0"
"pit-trial","213","1282953","0.0-96.0","battery-v0.2","","""event"",""trial"",""time""
""fullscreenenter"",""1"",""1839""
","
","
","""event"",""trial"",""time""
""fullscreenenter"",""1"",""1839""
","
","","","1025.2000000029802","","","12","4347","476","e","elianto","#f73b6a7A"," "," ","1","0","[1875.2999999970198]","1","2","","","4347","92","7","3","lose","go","0"
"pit-trial","214","1286616","0.0-97.0","battery-v0.2","","""event"",""trial"",""time""
""fullscreenenter"",""1"",""1839""
","
","
","""event"",""trial"",""time""
""fullscreenenter"",""1"",""1839""
","
","","","802.1000000089407","","","12","4347","476","e","elianto","#f73b6a7A"," "," ","1","0","[1652.199999988079]","1","2","","","4347","93","7","3","lose","go","0"
"pit-trial","215","1291479","0.0-98.0","battery-v0.2","","""event"",""trial"",""time""
""fullscreenenter"",""1"",""1839""
","
","
","""event"",""trial"",""time""
""fullscreenenter"",""1"",""1839""
","
","","","-1","","","12","4347","476","w","elianto","#f73b6a7A","-1","-1","1","0","[]","0","2","","","4347","94","6","4","lose","no-go","0"
"pit-trial","216","1296345","0.0-99.0","battery-v0.2","","""event"",""trial"",""time""
""fullscreenenter"",""1"",""1839""
","
","
","""event"",""trial"",""time""
""fullscreenenter"",""1"",""1839""
","
","","","-1","","","12","4347","476","d","elianto","#3366ff99","-1","-1","1","+10","[]","0","2","","","4347","95","8","2","win","no-go","0"
"pit-trial","217","1300128","0.0-100.0","battery-v0.2","","""event"",""trial"",""time""
""fullscreenenter"",""1"",""1839""
","
","
","""event"",""trial"",""time""
""fullscreenenter"",""1"",""1839""
","
","","","919.0999999940395","","","12","4347","476","s","elianto","#3366ff99"," "," ","1","+10","[1768.2000000029802]","1","2","","","4347","96","5","1","win","go","0"
"pit-trial","218","1304989","0.0-101.0","battery-v0.2","","""event"",""trial"",""time""
""fullscreenenter"",""1"",""1839""
","
","
","""event"",""trial"",""time""
""fullscreenenter"",""1"",""1839""
","
","","","-1","","","12","4347","476","w","elianto","#f73b6a7A","-1","-1","1","-10","[]","0","2","","","4347","97","6","4","lose","no-go","1"
"pit-trial","219","1308735","0.0-102.0","battery-v0.2","","""event"",""trial"",""time""
""fullscreenenter"",""1"",""1839""
","
","
","""event"",""trial"",""time""
""fullscreenenter"",""1"",""1839""
","
","","","881.1000000089407","","","12","4347","476","s","elianto","#3366ff99"," "," ","1","+10","[1731.5]","1","2","","","4347","98","5","1","win","go","0"
"pit-trial","220","1313601","0.0-103.0","battery-v0.2","","""event"",""trial"",""time""
""fullscreenenter"",""1"",""1839""
","
","
","""event"",""trial"",""time""
""fullscreenenter"",""1"",""1839""
","
","","","-1","","","12","4347","476","d","elianto","#3366ff99","-1","-1","1","+10","[]","0","2","","","4347","99","8","2","win","no-go","0"
"pit-trial","221","1317542","0.0-104.0","battery-v0.2","","""event"",""trial"",""time""
""fullscreenenter"",""1"",""1839""
","
","
","""event"",""trial"",""time""
""fullscreenenter"",""1"",""1839""
","
","","","1076.5","","","12","4347","476","e","elianto","#f73b6a7A"," "," ","1","0","[1927.300000011921]","1","2","","","4347","100","7","3","lose","go","0"
"pit-trial","222","1322405","0.0-105.0","battery-v0.2","","""event"",""trial"",""time""
""fullscreenenter"",""1"",""1839""
","
","
","""event"",""trial"",""time""
""fullscreenenter"",""1"",""1839""
","
","","","-1","","","12","4347","476","w","elianto","#f73b6a7A","-1","-1","1","0","[]","0","2","","","4347","101","6","4","lose","no-go","0"
"pit-trial","223","1326086","0.0-106.0","battery-v0.2","","""event"",""trial"",""time""
""fullscreenenter"",""1"",""1839""
","
","
","""event"",""trial"",""time""
""fullscreenenter"",""1"",""1839""
","
","","","817.1999999880791","","","12","4347","476","s","elianto","#3366ff99"," "," ","1","+10","[1667.5]","1","2","","","4347","102","5","1","win","go","0"
"pit-trial","224","1330950","0.0-107.0","battery-v0.2","","""event"",""trial"",""time""
""fullscreenenter"",""1"",""1839""
","
","
","""event"",""trial"",""time""
""fullscreenenter"",""1"",""1839""
","
","","","-1","","","12","4347","476","d","elianto","#3366ff99","-1","-1","1","+10","[]","0","2","","","4347","103","8","2","win","no-go","0"
"pit-trial","225","1335025","0.0-108.0","battery-v0.2","","""event"",""trial"",""time""
""fullscreenenter"",""1"",""1839""
","
","
","""event"",""trial"",""time""
""fullscreenenter"",""1"",""1839""
","
","","","1210.0999999940395","","","12","4347","476","j","elianto","#3366ff99","-1"," ","0","+10","[2060.0999999940395]","1","2","","","4347","104","9","2","win","no-go","1"
"pit-trial","226","1339890","0.0-109.0","battery-v0.2","","""event"",""trial"",""time""
""fullscreenenter"",""1"",""1839""
","
","
","""event"",""trial"",""time""
""fullscreenenter"",""1"",""1839""
","
","","","-1","","","12","4347","476","w","elianto","#f73b6a7A","-1","-1","1","0","[]","0","2","","","4347","105","6","4","lose","no-go","0"
"pit-trial","227","1344753","0.0-110.0","battery-v0.2","","""event"",""trial"",""time""
""fullscreenenter"",""1"",""1839""
","
","
","""event"",""trial"",""time""
""fullscreenenter"",""1"",""1839""
","
","","","-1","","","12","4347","476","d","elianto","#3366ff99","-1","-1","1","+10","[]","0","2","","","4347","106","8","2","win","no-go","0"
"pit-trial","228","1348532","0.0-111.0","battery-v0.2","","""event"",""trial"",""time""
""fullscreenenter"",""1"",""1839""
","
","
","""event"",""trial"",""time""
""fullscreenenter"",""1"",""1839""
","
","","","913.7999999970198","","","12","4347","476","s","elianto","#3366ff99"," "," ","1","0","[1764]","1","2","","","4347","107","5","1","win","go","1"
"pit-trial","229","1352462","0.0-112.0","battery-v0.2","","""event"",""trial"",""time""
""fullscreenenter"",""1"",""1839""
","
","
","""event"",""trial"",""time""
""fullscreenenter"",""1"",""1839""
","
","","","1066.7000000029802","","","12","4347","476","j","elianto","#3366ff99","-1"," ","0","0","[1917.4000000059605]","1","2","","","4347","108","9","2","win","no-go","0"
"pit-trial","230","1356133","0.0-113.0","battery-v0.2","","""event"",""trial"",""time""
""fullscreenenter"",""1"",""1839""
","
","
","""event"",""trial"",""time""
""fullscreenenter"",""1"",""1839""
","
","","","807.6999999880791","","","12","4347","476","s","elianto","#3366ff99"," "," ","1","+10","[1658.7999999970198]","1","2","","","4347","109","5","1","win","go","0"
"pit-trial","231","1360995","0.0-114.0","battery-v0.2","","""event"",""trial"",""time""
""fullscreenenter"",""1"",""1839""
","
","
","""event"",""trial"",""time""
""fullscreenenter"",""1"",""1839""
","
","","","-1","","","12","4347","476","w","elianto","#f73b6a7A","-1","-1","1","0","[]","0","2","","","4347","110","6","4","lose","no-go","0"
"pit-trial","232","1365859","0.0-115.0","battery-v0.2","","""event"",""trial"",""time""
""fullscreenenter"",""1"",""1839""
","
","
","""event"",""trial"",""time""
""fullscreenenter"",""1"",""1839""
","
","","","-1","","","12","4347","476","d","elianto","#3366ff99","-1","-1","1","+10","[]","0","2","","","4347","111","8","2","win","no-go","0"
"pit-trial","233","1369458","0.0-116.0","battery-v0.2","","""event"",""trial"",""time""
""fullscreenenter"",""1"",""1839""
","
","
","""event"",""trial"",""time""
""fullscreenenter"",""1"",""1839""
","
","","","732.5","","","12","4347","476","j","elianto","#3366ff99","-1"," ","0","+10","[1582.7000000029802]","1","2","","","4347","112","9","2","win","no-go","1"
"pit-trial","234","1373464","0.0-117.0","battery-v0.2","","""event"",""trial"",""time""
""fullscreenenter"",""1"",""1839""
","
","
","""event"",""trial"",""time""
""fullscreenenter"",""1"",""1839""
","
","","","1140.7000000029802","","","12","4347","476","e","elianto","#f73b6a7A"," "," ","1","0","[1990.7999999970198]","1","2","","","4347","113","7","3","lose","go","0"
"pit-trial","235","1377184","0.0-118.0","battery-v0.2","","""event"",""trial"",""time""
""fullscreenenter"",""1"",""1839""
","
","
","""event"",""trial"",""time""
""fullscreenenter"",""1"",""1839""
","
","","","851.5","","","12","4347","476","j","elianto","#3366ff99","-1"," ","0","0","[1704.7999999970198]","1","2","","","4347","114","9","2","win","no-go","0"
"pit-trial","236","1382051","0.0-119.0","battery-v0.2","","""event"",""trial"",""time""
""fullscreenenter"",""1"",""1839""
","
","
","""event"",""trial"",""time""
""fullscreenenter"",""1"",""1839""
","
","","","-1","","","12","4347","476","d","elianto","#3366ff99","-1","-1","1","+10","[]","0","2","","","4347","115","8","2","win","no-go","0"
"pit-trial","237","1385949","0.0-120.0","battery-v0.2","","""event"",""trial"",""time""
""fullscreenenter"",""1"",""1839""
","
","
","""event"",""trial"",""time""
""fullscreenenter"",""1"",""1839""
","
","","","1035.699999988079","","","12","4347","476","s","elianto","#3366ff99"," "," ","1","+10","[1885.6000000089407]","1","2","","","4347","116","5","1","win","go","0"
"pit-trial","238","1390815","0.0-121.0","battery-v0.2","","""event"",""trial"",""time""
""fullscreenenter"",""1"",""1839""
","
","
","""event"",""trial"",""time""
""fullscreenenter"",""1"",""1839""
","
","","","-1","","","12","4347","476","d","elianto","#3366ff99","-1","-1","1","+10","[]","0","2","","","4347","117","8","2","win","no-go","0"
"pit-trial","239","1394484","0.0-122.0","battery-v0.2","","""event"",""trial"",""time""
""fullscreenenter"",""1"",""1839""
","
","
","""event"",""trial"",""time""
""fullscreenenter"",""1"",""1839""
","
","","","808","","","12","4347","476","j","elianto","#3366ff99","-1"," ","0","0","[1658]","1","2","","","4347","118","9","2","win","no-go","0"
"pit-trial","240","1398420","0.0-123.0","battery-v0.2","","""event"",""trial"",""time""
""fullscreenenter"",""1"",""1839""
","
","
","""event"",""trial"",""time""
""fullscreenenter"",""1"",""1839""
","
","","","1073.699999988079","","","12","4347","476","s","elianto","#3366ff99"," "," ","1","+10","[1923.7000000029802]","1","2","","","4347","119","5","1","win","go","0"
"pit-trial","241","1403284","0.0-124.0","battery-v0.2","","""event"",""trial"",""time""
""fullscreenenter"",""1"",""1839""
","
","
","""event"",""trial"",""time""
""fullscreenenter"",""1"",""1839""
","
","","","-1","","","12","4347","476","w","elianto","#f73b6a7A","-1","-1","1","0","[]","0","2","","","4347","120","6","4","lose","no-go","0"
"pit-trial","242","1408149","0.0-125.0","battery-v0.2","","""event"",""trial"",""time""
""fullscreenenter"",""1"",""1839""
","
","
","""event"",""trial"",""time""
""fullscreenenter"",""1"",""1839""
","
","","","-1","","","12","4347","476","d","elianto","#3366ff99","-1","-1","1","+10","[]","0","2","","","4347","121","8","2","win","no-go","0"
"pit-trial","243","1412385","0.0-126.0","battery-v0.2","","""event"",""trial"",""time""
""fullscreenenter"",""1"",""1839""
","
","
","""event"",""trial"",""time""
""fullscreenenter"",""1"",""1839""
","
","","","1371.9000000059605","","","12","4347","476","e","elianto","#f73b6a7A"," "," ","1","0","[2223.2000000029802]","1","2","","","4347","122","7","3","lose","go","0"
"pit-trial","244","1415880","0.0-127.0","battery-v0.2","","""event"",""trial"",""time""
""fullscreenenter"",""1"",""1839""
","
","
","""event"",""trial"",""time""
""fullscreenenter"",""1"",""1839""
","
","","","631.0999999940395","","","12","4347","476","s","elianto","#3366ff99"," "," ","1","+10","[1481.0999999940395]","1","2","","","4347","123","5","1","win","go","0"
"pit-trial","245","1419451","0.0-128.0","battery-v0.2","","""event"",""trial"",""time""
""fullscreenenter"",""1"",""1839""
","
","
","""event"",""trial"",""time""
""fullscreenenter"",""1"",""1839""
","
","","","706.9000000059605","","","12","4347","476","j","elianto","#3366ff99","-1"," ","0","0","[1557.4000000059605]","1","2","","","4347","124","9","2","win","no-go","0"
"pit-trial","246","1424316","0.0-129.0","battery-v0.2","","""event"",""trial"",""time""
""fullscreenenter"",""1"",""1839""
","
","
","""event"",""trial"",""time""
""fullscreenenter"",""1"",""1839""
","
","","","-1","","","12","4347","476","d","elianto","#3366ff99","-1","-1","1","+10","[2937.4000000059605]","1","2","","","4347","125","8","2","win","no-go","0"
"pit-trial","247","1427753","0.0-130.0","battery-v0.2","","""event"",""trial"",""time""
""fullscreenenter"",""1"",""1839""
","
","
","""event"",""trial"",""time""
""fullscreenenter"",""1"",""1839""
","
","","","571.6000000089407","","","12","4347","476","j","elianto","#3366ff99","-1"," ","0","0","[1421.7000000029802]","1","2","","","4347","126","9","2","win","no-go","0"
"pit-trial","248","1432616","0.0-131.0","battery-v0.2","","""event"",""trial"",""time""
""fullscreenenter"",""1"",""1839""
","
","
","""event"",""trial"",""time""
""fullscreenenter"",""1"",""1839""
","
","","","-1","","","12","4347","476","w","elianto","#f73b6a7A","-1","-1","1","-10","[]","0","2","","","4347","127","6","4","lose","no-go","1"
"pit-trial","249","1436444","0.0-132.0","battery-v0.2","","""event"",""trial"",""time""
""fullscreenenter"",""1"",""1839""
","
","
","""event"",""trial"",""time""
""fullscreenenter"",""1"",""1839""
","
","","","958.7000000029802","","","12","4347","476","e","elianto","#f73b6a7A"," "," ","1","0","[1814.0999999940395]","1","2","","","4347","128","7","3","lose","go","0"
"pit-trial","250","1440179","0.0-133.0","battery-v0.2","","""event"",""trial"",""time""
""fullscreenenter"",""1"",""1839""
","
","
","""event"",""trial"",""time""
""fullscreenenter"",""1"",""1839""
","
","","","862.5","","","12","4347","476","j","elianto","#3366ff99","-1"," ","0","0","[1717.5]","1","2","","","4347","129","9","2","win","no-go","0"
"pit-trial","251","1443856","0.0-134.0","battery-v0.2","","""event"",""trial"",""time""
""fullscreenenter"",""1"",""1839""
","
","
","""event"",""trial"",""time""
""fullscreenenter"",""1"",""1839""
","
","","","808.7000000029802","","","12","4347","476","e","elianto","#f73b6a7A"," "," ","1","0","[772.2999999970198,1661.5999999940395]","2","2","","","4347","130","7","3","lose","go","0"
"pit-trial","252","1448722","0.0-135.0","battery-v0.2","","""event"",""trial"",""time""
""fullscreenenter"",""1"",""1839""
","
","
","""event"",""trial"",""time""
""fullscreenenter"",""1"",""1839""
","
","","","-1","","","12","4347","476","d","elianto","#3366ff99","-1","-1","1","+10","[]","0","2","","","4347","131","8","2","win","no-go","0"
"pit-trial","253","1453588","0.0-136.0","battery-v0.2","","""event"",""trial"",""time""
""fullscreenenter"",""1"",""1839""
","
","
","""event"",""trial"",""time""
""fullscreenenter"",""1"",""1839""
","
","","","-1","","","12","4347","476","w","elianto","#f73b6a7A","-1","-1","1","0","[]","0","2","","","4347","132","6","4","lose","no-go","0"
"pit-trial","254","1457465","0.0-137.0","battery-v0.2","","""event"",""trial"",""time""
""fullscreenenter"",""1"",""1839""
","
","
","""event"",""trial"",""time""
""fullscreenenter"",""1"",""1839""
","
","","","1007.6000000089407","","","12","4347","476","e","elianto","#f73b6a7A"," "," ","1","0","[1860]","1","2","","","4347","133","7","3","lose","go","0"
"pit-trial","255","1462331","0.0-138.0","battery-v0.2","","""event"",""trial"",""time""
""fullscreenenter"",""1"",""1839""
","
","
","""event"",""trial"",""time""
""fullscreenenter"",""1"",""1839""
","
","","","-1","","","12","4347","476","w","elianto","#f73b6a7A","-1","-1","1","-10","[]","0","2","","","4347","134","6","4","lose","no-go","1"
"pit-trial","256","1465916","0.0-139.0","battery-v0.2","","""event"",""trial"",""time""
""fullscreenenter"",""1"",""1839""
","
","
","""event"",""trial"",""time""
""fullscreenenter"",""1"",""1839""
","
","","","715","","","12","4347","476","j","elianto","#3366ff99","-1"," ","0","0","[1570.300000011921]","1","2","","","4347","135","9","2","win","no-go","0"
"pit-trial","257","1470780","0.0-140.0","battery-v0.2","","""event"",""trial"",""time""
""fullscreenenter"",""1"",""1839""
","
","
","""event"",""trial"",""time""
""fullscreenenter"",""1"",""1839""
","
","","","-1","","","12","4347","476","d","elianto","#3366ff99","-1","-1","1","+10","[]","0","2","","","4347","136","8","2","win","no-go","0"
"pit-trial","258","1475642","0.0-141.0","battery-v0.2","","""event"",""trial"",""time""
""fullscreenenter"",""1"",""1839""
","
","
","""event"",""trial"",""time""
""fullscreenenter"",""1"",""1839""
","
","","","-1","","","12","4347","476","j","elianto","#3366ff99","-1","-1","1","0","[]","0","2","","","4347","137","9","2","win","no-go","1"
"pit-trial","259","1479247","0.0-142.0","battery-v0.2","","""event"",""trial"",""time""
""fullscreenenter"",""1"",""1839""
","
","
","""event"",""trial"",""time""
""fullscreenenter"",""1"",""1839""
","
","","","738.3999999910593","","","12","4347","476","e","elianto","#f73b6a7A"," "," ","1","0","[1592.7999999970198]","1","2","","","4347","138","7","3","lose","go","0"
"pit-trial","260","1484111","0.0-143.0","battery-v0.2","","""event"",""trial"",""time""
""fullscreenenter"",""1"",""1839""
","
","
","""event"",""trial"",""time""
""fullscreenenter"",""1"",""1839""
","
","","","-1","","","12","4347","476","w","elianto","#f73b6a7A","-1","-1","1","0","[]","0","2","","","4347","139","6","4","lose","no-go","0"
"pit-trial","261","1488976","0.0-144.0","battery-v0.2","","""event"",""trial"",""time""
""fullscreenenter"",""1"",""1839""
","
","
","""event"",""trial"",""time""
""fullscreenenter"",""1"",""1839""
","
","","","-1","","","12","4347","476","d","elianto","#3366ff99","-1","-1","1","+10","[]","0","2","","","4347","140","8","2","win","no-go","0"
"pit-instructions","262","1529954","0.0-145.0","battery-v0.2","","""event"",""trial"",""time""
""fullscreenenter"",""1"",""1839""
","
","
","""event"",""trial"",""time""
""fullscreenenter"",""1"",""1839""
","
","","[{""page_index"":0,""viewing_time"":32408.69999998808},{""page_index"":1,""viewing_time"":8556.20000000298}]","40969.09999999404","","","","","","","","","","","","","","","","","","","","","","","",""
"pit-trial","263","1534826","0.0-146.0","battery-v0.2","","""event"",""trial"",""time""
""fullscreenenter"",""1"",""1839""
","
","
","""event"",""trial"",""time""
""fullscreenenter"",""1"",""1839""
","
","","","-1","","","12","4347","476","h","elianto","#f73b6a7A","-1","-1","1","0","[]","0","3","","","4347","141","3","4","lose","no-go","0"
"pit-trial","264","1538766","0.0-147.0","battery-v0.2","","""event"",""trial"",""time""
""fullscreenenter"",""1"",""1839""
","
","
","""event"",""trial"",""time""
""fullscreenenter"",""1"",""1839""
","
","","","1072.9000000059605","","","12","4347","476","y","elianto","#f73b6a7A"," "," ","1","0","[1924]","1","3","","","4347","142","2","3","lose","go","0"
"pit-trial","265","1543632","0.0-148.0","battery-v0.2","","""event"",""trial"",""time""
""fullscreenenter"",""1"",""1839""
","
","
","""event"",""trial"",""time""
""fullscreenenter"",""1"",""1839""
","
","","","-1","","","12","4347","476","m","elianto","#f73b6a7A"," ","-1","0","-10","[]","0","3","","","4347","143","0","3","lose","go","0"
"pit-trial","266","1547535","0.0-149.0","battery-v0.2","","""event"",""trial"",""time""
""fullscreenenter"",""1"",""1839""
","
","
","""event"",""trial"",""time""
""fullscreenenter"",""1"",""1839""
","
","","","1042.1000000089407","","","12","4347","476","r","elianto","#3366ff99","-1"," ","0","0","[1892.2999999970198]","1","3","","","4347","144","1","2","win","no-go","0"
"pit-trial","267","1551894","0.0-150.0","battery-v0.2","","""event"",""trial"",""time""
""fullscreenenter"",""1"",""1839""
","
","
","""event"",""trial"",""time""
""fullscreenenter"",""1"",""1839""
","
","","","1497.4000000059605","","","12","4347","476","y","elianto","#f73b6a7A"," "," ","1","0","[2347.4000000059605]","1","3","","","4347","145","2","3","lose","go","0"
"pit-trial","268","1555312","0.0-151.0","battery-v0.2","","""event"",""trial"",""time""
""fullscreenenter"",""1"",""1839""
","
","
","""event"",""trial"",""time""
""fullscreenenter"",""1"",""1839""
","
