"trial_type","trial_index","time_elapsed","internal_node_id","task_version","subject_id","interactions","blur_events","focus_events","fullscreenenter_events","fullscreenexit_events","success","view_history","rt","responses","num_errors","age","subject","participantId","rune","rune_set","hex","correct","choice","accuracy","outcome","keys","total_keys","block","practice","value","sub","trial","stimulus","robot","valence","action","sham"
"pavlovia","0","6","0.0-0.0","battery-v0.2","","""event"",""trial"",""time""
""focus"",""1"",""1928""
""fullscreenenter"",""1"",""3648""
","
","""event"",""trial"",""time""
""focus"",""1"",""1928""
","""event"",""trial"",""time""
""fullscreenenter"",""1"",""3648""
","
","","","","","","","","","","","","","","","","","","","","","","","","","","",""
"fullscreen","1","4640","0.0-1.0","battery-v0.2","","""event"",""trial"",""time""
""focus"",""1"",""1928""
""fullscreenenter"",""1"",""3648""
""fullscreenexit"",""2"",""6543""
","
","""event"",""trial"",""time""
""focus"",""1"",""1928""
","""event"",""trial"",""time""
""fullscreenenter"",""1"",""3648""
","""event"",""trial"",""time""
""fullscreenexit"",""2"",""6543""
","true","","","","","","","","","","","","","","","","","","","","","","","","","",""
"pit-instructions","2","8841","0.0-2.0-0.0","battery-v0.2","","""event"",""trial"",""time""
""focus"",""1"",""1928""
""fullscreenenter"",""1"",""3648""
""fullscreenexit"",""2"",""6543""
","
","""event"",""trial"",""time""
""focus"",""1"",""1928""
","""event"",""trial"",""time""
""fullscreenenter"",""1"",""3648""
","""event"",""trial"",""time""
""fullscreenexit"",""2"",""6543""
","","[{""page_index"":0,""viewing_time"":4199}]","4199","","","","","","","","","","","","","","","","","","","","","","","",""
"pit-comprehension","3","11234","0.0-2.0-1.0-0.0","battery-v0.2","","""event"",""trial"",""time""
""focus"",""1"",""1928""
""fullscreenenter"",""1"",""3648""
""fullscreenexit"",""2"",""6543""
","
","""event"",""trial"",""time""
""focus"",""1"",""1928""
","""event"",""trial"",""time""
""fullscreenenter"",""1"",""3648""
","""event"",""trial"",""time""
""fullscreenexit"",""2"",""6543""
","","","2392","[""shark""]","0","21","17759","1692","","","","","","","","","","","","","","","","","","",""
"pit-instructions","4","12551","0.0-2.0-1.0-1.0","battery-v0.2","","""event"",""trial"",""time""
""focus"",""1"",""1928""
""fullscreenenter"",""1"",""3648""
""fullscreenexit"",""2"",""6543""
","
","""event"",""trial"",""time""
""focus"",""1"",""1928""
","""event"",""trial"",""time""
""fullscreenenter"",""1"",""3648""
","""event"",""trial"",""time""
""fullscreenexit"",""2"",""6543""
","","[{""page_index"":0,""viewing_time"":1308}]","1309","","","","","","","","","","","","","","","","","","","","","","","",""
"pit-comprehension","5","14356","0.0-2.0-2.0-0.0","battery-v0.2","","""event"",""trial"",""time""
""focus"",""1"",""1928""
""fullscreenenter"",""1"",""3648""
""fullscreenexit"",""2"",""6543""
","
","""event"",""trial"",""time""
""focus"",""1"",""1928""
","""event"",""trial"",""time""
""fullscreenenter"",""1"",""3648""
","""event"",""trial"",""time""
""fullscreenexit"",""2"",""6543""
","","","1804","[""tiger""]","0","21","17759","1692","","","","","","","","","","","","","","","","","","",""
"pit-instructions","6","15112","0.0-2.0-2.0-1.0","battery-v0.2","","""event"",""trial"",""time""
""focus"",""1"",""1928""
""fullscreenenter"",""1"",""3648""
""fullscreenexit"",""2"",""6543""
""blur"",""7"",""20349""
""focus"",""7"",""22964""
""blur"",""7"",""70315""
""focus"",""7"",""70938""
","""event"",""trial"",""time""
""blur"",""7"",""20349""
""blur"",""7"",""70315""
","""event"",""trial"",""time""
""focus"",""1"",""1928""
""focus"",""7"",""22964""
""focus"",""7"",""70938""
","""event"",""trial"",""time""
""fullscreenenter"",""1"",""3648""
","""event"",""trial"",""time""
""fullscreenexit"",""2"",""6543""
","","[{""page_index"":0,""viewing_time"":755}]","755","","","","","","","","","","","","","","","","","","","","","","","",""
"pit-instructions","7","109679","0.0-2.0-3.0","battery-v0.2","","""event"",""trial"",""time""
""focus"",""1"",""1928""
""fullscreenenter"",""1"",""3648""
""fullscreenexit"",""2"",""6543""
""blur"",""7"",""20349""
""focus"",""7"",""22964""
""blur"",""7"",""70315""
""focus"",""7"",""70938""
","""event"",""trial"",""time""
""blur"",""7"",""20349""
""blur"",""7"",""70315""
","""event"",""trial"",""time""
""focus"",""1"",""1928""
""focus"",""7"",""22964""
""focus"",""7"",""70938""
","""event"",""trial"",""time""
""fullscreenenter"",""1"",""3648""
","""event"",""trial"",""time""
""fullscreenexit"",""2"",""6543""
","","[{""page_index"":0,""viewing_time"":8890},{""page_index"":1,""viewing_time"":5521},{""page_index"":2,""viewing_time"":6383},{""page_index"":3,""viewing_time"":5378},{""page_index"":4,""viewing_time"":7829},{""page_index"":5,""viewing_time"":5680},{""page_index"":6,""viewing_time"":6173},{""page_index"":7,""viewing_time"":6382},{""page_index"":8,""viewing_time"":7211},{""page_index"":9,""viewing_time"":8055},{""page_index"":10,""viewing_time"":7069},{""page_index"":11,""viewing_time"":8014},{""page_index"":12,""viewing_time"":6635},{""page_index"":13,""viewing_time"":5348}]","94568","","","","","","","","","","","","","","","","","","","","","","","",""
"pit-trial","8","113192","0.0-2.0-4.0-0.0","battery-v0.2","","""event"",""trial"",""time""
""focus"",""1"",""1928""
""fullscreenenter"",""1"",""3648""
""fullscreenexit"",""2"",""6543""
""blur"",""7"",""20349""
""focus"",""7"",""22964""
""blur"",""7"",""70315""
""focus"",""7"",""70938""
","""event"",""trial"",""time""
""blur"",""7"",""20349""
""blur"",""7"",""70315""
","""event"",""trial"",""time""
""focus"",""1"",""1928""
""focus"",""7"",""22964""
""focus"",""7"",""70938""
","""event"",""trial"",""time""
""fullscreenenter"",""1"",""3648""
","""event"",""trial"",""time""
""fullscreenexit"",""2"",""6543""
","","","651","","","21","17759","1692","&#9784;","elianto","#FFFFF080"," "," ","1","&#10004","[1501]","1","0","0","","","","","","","",""
"pit-trial","9","116544","0.0-2.0-4.1-0.1","battery-v0.2","","""event"",""trial"",""time""
""focus"",""1"",""1928""
""fullscreenenter"",""1"",""3648""
""fullscreenexit"",""2"",""6543""
""blur"",""7"",""20349""
""focus"",""7"",""22964""
""blur"",""7"",""70315""
""focus"",""7"",""70938""
","""event"",""trial"",""time""
""blur"",""7"",""20349""
""blur"",""7"",""70315""
","""event"",""trial"",""time""
""focus"",""1"",""1928""
""focus"",""7"",""22964""
""focus"",""7"",""70938""
","""event"",""trial"",""time""
""fullscreenenter"",""1"",""3648""
","""event"",""trial"",""time""
""fullscreenexit"",""2"",""6543""
","","","497","","","21","17759","1692","&#9784;","elianto","#FFFFF080"," "," ","1","&#10004","[1348]","1","0","0","","","","","","","",""
"pit-trial","10","119869","0.0-2.0-4.2-0.2","battery-v0.2","","""event"",""trial"",""time""
""focus"",""1"",""1928""
""fullscreenenter"",""1"",""3648""
""fullscreenexit"",""2"",""6543""
""blur"",""7"",""20349""
""focus"",""7"",""22964""
""blur"",""7"",""70315""
""focus"",""7"",""70938""
","""event"",""trial"",""time""
""blur"",""7"",""20349""
""blur"",""7"",""70315""
","""event"",""trial"",""time""
""focus"",""1"",""1928""
""focus"",""7"",""22964""
""focus"",""7"",""70938""
","""event"",""trial"",""time""
""fullscreenenter"",""1"",""3648""
","""event"",""trial"",""time""
""fullscreenexit"",""2"",""6543""
","","","468","","","21","17759","1692","&#9784;","elianto","#FFFFF080"," "," ","1","&#10004","[443,1322]","2","0","0","","","","","","","",""
"pit-trial","11","123630","0.0-2.0-4.3-0.3","battery-v0.2","","""event"",""trial"",""time""
""focus"",""1"",""1928""
""fullscreenenter"",""1"",""3648""
""fullscreenexit"",""2"",""6543""
""blur"",""7"",""20349""
""focus"",""7"",""22964""
""blur"",""7"",""70315""
""focus"",""7"",""70938""
","""event"",""trial"",""time""
""blur"",""7"",""20349""
""blur"",""7"",""70315""
","""event"",""trial"",""time""
""focus"",""1"",""1928""
""focus"",""7"",""22964""
""focus"",""7"",""70938""
","""event"",""trial"",""time""
""fullscreenenter"",""1"",""3648""
","""event"",""trial"",""time""
""fullscreenexit"",""2"",""6543""
","","","900","","","21","17759","1692","&#9784;","elianto","#FFFFF080"," "," ","1","&#10004","[1750]","1","0","0","","","","","","","",""
"pit-trial","12","126902","0.0-2.0-4.4-0.4","battery-v0.2","","""event"",""trial"",""time""
""focus"",""1"",""1928""
""fullscreenenter"",""1"",""3648""
""fullscreenexit"",""2"",""6543""
""blur"",""7"",""20349""
""focus"",""7"",""22964""
""blur"",""7"",""70315""
""focus"",""7"",""70938""
""blur"",""13"",""145199""
""focus"",""13"",""146776""
","""event"",""trial"",""time""
""blur"",""7"",""20349""
""blur"",""7"",""70315""
""blur"",""13"",""145199""
","""event"",""trial"",""time""
""focus"",""1"",""1928""
""focus"",""7"",""22964""
""focus"",""7"",""70938""
""focus"",""13"",""146776""
","""event"",""trial"",""time""
""fullscreenenter"",""1"",""3648""
","""event"",""trial"",""time""
""fullscreenexit"",""2"",""6543""
","","","409","","","21","17759","1692","&#9784;","elianto","#FFFFF080"," "," ","1","&#10004","[1262]","1","0","0","","","","","","","",""
"pit-instructions","13","147511","0.0-2.0-5.0","battery-v0.2","","""event"",""trial"",""time""
""focus"",""1"",""1928""
""fullscreenenter"",""1"",""3648""
""fullscreenexit"",""2"",""6543""
""blur"",""7"",""20349""
""focus"",""7"",""22964""
""blur"",""7"",""70315""
""focus"",""7"",""70938""
""blur"",""13"",""145199""
""focus"",""13"",""146776""
","""event"",""trial"",""time""
""blur"",""7"",""20349""
""blur"",""7"",""70315""
""blur"",""13"",""145199""
","""event"",""trial"",""time""
""focus"",""1"",""1928""
""focus"",""7"",""22964""
""focus"",""7"",""70938""
""focus"",""13"",""146776""
","""event"",""trial"",""time""
""fullscreenenter"",""1"",""3648""
","""event"",""trial"",""time""
""fullscreenexit"",""2"",""6543""
","","[{""page_index"":0,""viewing_time"":5152},{""page_index"":1,""viewing_time"":5551},{""page_index"":2,""viewing_time"":4879},{""page_index"":3,""viewing_time"":5025}]","20607","","","","","","","","","","","","","","","","","","","","","","","",""
"pit-trial","14","152373","0.0-2.0-6.0-0.0","battery-v0.2","","""event"",""trial"",""time""
""focus"",""1"",""1928""
""fullscreenenter"",""1"",""3648""
""fullscreenexit"",""2"",""6543""
""blur"",""7"",""20349""
""focus"",""7"",""22964""
""blur"",""7"",""70315""
""focus"",""7"",""70938""
""blur"",""13"",""145199""
""focus"",""13"",""146776""
","""event"",""trial"",""time""
""blur"",""7"",""20349""
""blur"",""7"",""70315""
""blur"",""13"",""145199""
","""event"",""trial"",""time""
""focus"",""1"",""1928""
""focus"",""7"",""22964""
""focus"",""7"",""70938""
""focus"",""13"",""146776""
","""event"",""trial"",""time""
""fullscreenenter"",""1"",""3648""
","""event"",""trial"",""time""
""fullscreenexit"",""2"",""6543""
","","","-1","","","21","17759","1692","&#9854;","elianto","#FFFFF080","-1","-1","1","&#10004","[]","0","0","1","","","","","","","",""
"pit-trial","15","157246","0.0-2.0-6.1-0.1","battery-v0.2","","""event"",""trial"",""time""
""focus"",""1"",""1928""
""fullscreenenter"",""1"",""3648""
""fullscreenexit"",""2"",""6543""
""blur"",""7"",""20349""
""focus"",""7"",""22964""
""blur"",""7"",""70315""
""focus"",""7"",""70938""
""blur"",""13"",""145199""
""focus"",""13"",""146776""
","""event"",""trial"",""time""
""blur"",""7"",""20349""
""blur"",""7"",""70315""
""blur"",""13"",""145199""
","""event"",""trial"",""time""
""focus"",""1"",""1928""
""focus"",""7"",""22964""
""focus"",""7"",""70938""
""focus"",""13"",""146776""
","""event"",""trial"",""time""
""fullscreenenter"",""1"",""3648""
","""event"",""trial"",""time""
""fullscreenexit"",""2"",""6543""
","","","-1","","","21","17759","1692","&#9854;","elianto","#FFFFF080","-1","-1","1","&#10004","[]","0","0","1","","","","","","","",""
"pit-trial","16","162114","0.0-2.0-6.2-0.2","battery-v0.2","","""event"",""trial"",""time""
""focus"",""1"",""1928""
""fullscreenenter"",""1"",""3648""
""fullscreenexit"",""2"",""6543""
""blur"",""7"",""20349""
""focus"",""7"",""22964""
""blur"",""7"",""70315""
""focus"",""7"",""70938""
""blur"",""13"",""145199""
""focus"",""13"",""146776""
","""event"",""trial"",""time""
""blur"",""7"",""20349""
""blur"",""7"",""70315""
""blur"",""13"",""145199""
","""event"",""trial"",""time""
""focus"",""1"",""1928""
""focus"",""7"",""22964""
""focus"",""7"",""70938""
""focus"",""13"",""146776""
","""event"",""trial"",""time""
""fullscreenenter"",""1"",""3648""
","""event"",""trial"",""time""
""fullscreenexit"",""2"",""6543""
","","","-1","","","21","17759","1692","&#9854;","elianto","#FFFFF080","-1","-1","1","&#10004","[]","0","0","1","","","","","","","",""
"pit-trial","17","166976","0.0-2.0-6.3-0.3","battery-v0.2","","""event"",""trial"",""time""
""focus"",""1"",""1928""
""fullscreenenter"",""1"",""3648""
""fullscreenexit"",""2"",""6543""
""blur"",""7"",""20349""
""focus"",""7"",""22964""
""blur"",""7"",""70315""
""focus"",""7"",""70938""
""blur"",""13"",""145199""
""focus"",""13"",""146776""
","""event"",""trial"",""time""
""blur"",""7"",""20349""
""blur"",""7"",""70315""
""blur"",""13"",""145199""
","""event"",""trial"",""time""
""focus"",""1"",""1928""
""focus"",""7"",""22964""
""focus"",""7"",""70938""
""focus"",""13"",""146776""
","""event"",""trial"",""time""
""fullscreenenter"",""1"",""3648""
","""event"",""trial"",""time""
""fullscreenexit"",""2"",""6543""
","","","-1","","","21","17759","1692","&#9854;","elianto","#FFFFF080","-1","-1","1","&#10004","[]","0","0","1","","","","","","","",""
"pit-trial","18","171832","0.0-2.0-6.4-0.4","battery-v0.2","","""event"",""trial"",""time""
""focus"",""1"",""1928""
""fullscreenenter"",""1"",""3648""
""fullscreenexit"",""2"",""6543""
""blur"",""7"",""20349""
""focus"",""7"",""22964""
""blur"",""7"",""70315""
""focus"",""7"",""70938""
""blur"",""13"",""145199""
""focus"",""13"",""146776""
""blur"",""19"",""201557""
""focus"",""19"",""201976""
""blur"",""19"",""236616""
""focus"",""19"",""237153""
","""event"",""trial"",""time""
""blur"",""7"",""20349""
""blur"",""7"",""70315""
""blur"",""13"",""145199""
""blur"",""19"",""201557""
""blur"",""19"",""236616""
","""event"",""trial"",""time""
""focus"",""1"",""1928""
""focus"",""7"",""22964""
""focus"",""7"",""70938""
""focus"",""13"",""146776""
""focus"",""19"",""201976""
""focus"",""19"",""237153""
","""event"",""trial"",""time""
""fullscreenenter"",""1"",""3648""
","""event"",""trial"",""time""
""fullscreenexit"",""2"",""6543""
","","","-1","","","21","17759","1692","&#9854;","elianto","#FFFFF080","-1","-1","1","&#10004","[]","0","0","1","","","","","","","",""
"pit-instructions","19","292915","0.0-2.0-7.0","battery-v0.2","","""event"",""trial"",""time""
""focus"",""1"",""1928""
""fullscreenenter"",""1"",""3648""
""fullscreenexit"",""2"",""6543""
""blur"",""7"",""20349""
""focus"",""7"",""22964""
""blur"",""7"",""70315""
""focus"",""7"",""70938""
""blur"",""13"",""145199""
""focus"",""13"",""146776""
""blur"",""19"",""201557""
""focus"",""19"",""201976""
""blur"",""19"",""236616""
""focus"",""19"",""237153""
","""event"",""trial"",""time""
""blur"",""7"",""20349""
""blur"",""7"",""70315""
""blur"",""13"",""145199""
""blur"",""19"",""201557""
""blur"",""19"",""236616""
","""event"",""trial"",""time""
""focus"",""1"",""1928""
""focus"",""7"",""22964""
""focus"",""7"",""70938""
""focus"",""13"",""146776""
""focus"",""19"",""201976""
""focus"",""19"",""237153""
","""event"",""trial"",""time""
""fullscreenenter"",""1"",""3648""
","""event"",""trial"",""time""
""fullscreenexit"",""2"",""6543""
","","[{""page_index"":0,""viewing_time"":6205},{""page_index"":1,""viewing_time"":8718},{""page_index"":2,""viewing_time"":6063},{""page_index"":3,""viewing_time"":5838},{""page_index"":4,""viewing_time"":6573},{""page_index"":5,""viewing_time"":5906},{""page_index"":6,""viewing_time"":7371},{""page_index"":7,""viewing_time"":7603},{""page_index"":8,""viewing_time"":6263},{""page_index"":9,""viewing_time"":6009},{""page_index"":10,""viewing_time"":7486},{""page_index"":11,""viewing_time"":5162},{""page_index"":12,""viewing_time"":6760},{""page_index"":13,""viewing_time"":7476},{""page_index"":14,""viewing_time"":7142},{""page_index"":15,""viewing_time"":6628},{""page_index"":16,""viewing_time"":6955},{""page_index"":17,""viewing_time"":6923}]","121081","","","","","","","","","","","","","","","","","","","","","","","",""
"pit-trial","20","296241","0.0-2.0-8.0-0.0","battery-v0.2","","""event"",""trial"",""time""
""focus"",""1"",""1928""
""fullscreenenter"",""1"",""3648""
""fullscreenexit"",""2"",""6543""
""blur"",""7"",""20349""
""focus"",""7"",""22964""
""blur"",""7"",""70315""
""focus"",""7"",""70938""
""blur"",""13"",""145199""
""focus"",""13"",""146776""
""blur"",""19"",""201557""
""focus"",""19"",""201976""
""blur"",""19"",""236616""
""focus"",""19"",""237153""
","""event"",""trial"",""time""
""blur"",""7"",""20349""
""blur"",""7"",""70315""
""blur"",""13"",""145199""
""blur"",""19"",""201557""
""blur"",""19"",""236616""
","""event"",""trial"",""time""
""focus"",""1"",""1928""
""focus"",""7"",""22964""
""focus"",""7"",""70938""
""focus"",""13"",""146776""
""focus"",""19"",""201976""
""focus"",""19"",""237153""
","""event"",""trial"",""time""
""fullscreenenter"",""1"",""3648""
","""event"",""trial"",""time""
""fullscreenexit"",""2"",""6543""
","","","466","","","21","17759","1692","&#9776;","elianto","#3366ff99"," "," ","1","+10","[1319]","1","0","1","","","","","","","",""
"pit-trial","21","299577","0.0-2.0-8.0-1.0","battery-v0.2","","""event"",""trial"",""time""
""focus"",""1"",""1928""
""fullscreenenter"",""1"",""3648""
""fullscreenexit"",""2"",""6543""
""blur"",""7"",""20349""
""focus"",""7"",""22964""
""blur"",""7"",""70315""
""focus"",""7"",""70938""
""blur"",""13"",""145199""
""focus"",""13"",""146776""
""blur"",""19"",""201557""
""focus"",""19"",""201976""
""blur"",""19"",""236616""
""focus"",""19"",""237153""
","""event"",""trial"",""time""
""blur"",""7"",""20349""
""blur"",""7"",""70315""
""blur"",""13"",""145199""
""blur"",""19"",""201557""
""blur"",""19"",""236616""
","""event"",""trial"",""time""
""focus"",""1"",""1928""
""focus"",""7"",""22964""
""focus"",""7"",""70938""
""focus"",""13"",""146776""
""focus"",""19"",""201976""
""focus"",""19"",""237153""
","""event"",""trial"",""time""
""fullscreenenter"",""1"",""3648""
","""event"",""trial"",""time""
""fullscreenexit"",""2"",""6543""
","","","481","","","21","17759","1692","&#9776;","elianto","#3366ff99"," "," ","1","+10","[1331]","1","0","1","","","","","","","",""
"pit-trial","22","302840","0.0-2.0-8.0-2.0","battery-v0.2","","""event"",""trial"",""time""
""focus"",""1"",""1928""
""fullscreenenter"",""1"",""3648""
""fullscreenexit"",""2"",""6543""
""blur"",""7"",""20349""
""focus"",""7"",""22964""
""blur"",""7"",""70315""
""focus"",""7"",""70938""
""blur"",""13"",""145199""
""focus"",""13"",""146776""
""blur"",""19"",""201557""
""focus"",""19"",""201976""
""blur"",""19"",""236616""
""focus"",""19"",""237153""
","""event"",""trial"",""time""
""blur"",""7"",""20349""
""blur"",""7"",""70315""
""blur"",""13"",""145199""
""blur"",""19"",""201557""
""blur"",""19"",""236616""
","""event"",""trial"",""time""
""focus"",""1"",""1928""
""focus"",""7"",""22964""
""focus"",""7"",""70938""
""focus"",""13"",""146776""
""focus"",""19"",""201976""
""focus"",""19"",""237153""
","""event"",""trial"",""time""
""fullscreenenter"",""1"",""3648""
","""event"",""trial"",""time""
""fullscreenexit"",""2"",""6543""
","","","394","","","21","17759","1692","&#9776;","elianto","#3366ff99"," "," ","1","+10","[1245]","1","0","1","","","","","","","",""
"pit-trial","23","306126","0.0-2.0-8.0-3.0","battery-v0.2","","""event"",""trial"",""time""
""focus"",""1"",""1928""
""fullscreenenter"",""1"",""3648""
""fullscreenexit"",""2"",""6543""
""blur"",""7"",""20349""
""focus"",""7"",""22964""
""blur"",""7"",""70315""
""focus"",""7"",""70938""
""blur"",""13"",""145199""
""focus"",""13"",""146776""
""blur"",""19"",""201557""
""focus"",""19"",""201976""
""blur"",""19"",""236616""
""focus"",""19"",""237153""
","""event"",""trial"",""time""
""blur"",""7"",""20349""
""blur"",""7"",""70315""
""blur"",""13"",""145199""
""blur"",""19"",""201557""
""blur"",""19"",""236616""
","""event"",""trial"",""time""
""focus"",""1"",""1928""
""focus"",""7"",""22964""
""focus"",""7"",""70938""
""focus"",""13"",""146776""
""focus"",""19"",""201976""
""focus"",""19"",""237153""
","""event"",""trial"",""time""
""fullscreenenter"",""1"",""3648""
","""event"",""trial"",""time""
""fullscreenexit"",""2"",""6543""
","","","425","","","21","17759","1692","&#9776;","elianto","#3366ff99"," "," ","1","0","[1278]","1","0","1","","","","","","","",""
"pit-trial","24","309374","0.0-2.0-8.0-4.0","battery-v0.2","","""event"",""trial"",""time""
""focus"",""1"",""1928""
""fullscreenenter"",""1"",""3648""
""fullscreenexit"",""2"",""6543""
""blur"",""7"",""20349""
""focus"",""7"",""22964""
""blur"",""7"",""70315""
""focus"",""7"",""70938""
""blur"",""13"",""145199""
""focus"",""13"",""146776""
""blur"",""19"",""201557""
""focus"",""19"",""201976""
""blur"",""19"",""236616""
""focus"",""19"",""237153""
","""event"",""trial"",""time""
""blur"",""7"",""20349""
""blur"",""7"",""70315""
""blur"",""13"",""145199""
""blur"",""19"",""201557""
""blur"",""19"",""236616""
","""event"",""trial"",""time""
""focus"",""1"",""1928""
""focus"",""7"",""22964""
""focus"",""7"",""70938""
""focus"",""13"",""146776""
""focus"",""19"",""201976""
""focus"",""19"",""237153""
","""event"",""trial"",""time""
""fullscreenenter"",""1"",""3648""
","""event"",""trial"",""time""
""fullscreenexit"",""2"",""6543""
","","","390","","","21","17759","1692","&#9776;","elianto","#3366ff99"," "," ","1","+10","[1242]","1","0","1","","","","","","","",""
"pit-trial","25","312563","0.0-2.0-8.1-0.1","battery-v0.2","","""event"",""trial"",""time""
""focus"",""1"",""1928""
""fullscreenenter"",""1"",""3648""
""fullscreenexit"",""2"",""6543""
""blur"",""7"",""20349""
""focus"",""7"",""22964""
""blur"",""7"",""70315""
""focus"",""7"",""70938""
""blur"",""13"",""145199""
""focus"",""13"",""146776""
""blur"",""19"",""201557""
""focus"",""19"",""201976""
""blur"",""19"",""236616""
""focus"",""19"",""237153""
","""event"",""trial"",""time""
""blur"",""7"",""20349""
""blur"",""7"",""70315""
""blur"",""13"",""145199""
""blur"",""19"",""201557""
""blur"",""19"",""236616""
","""event"",""trial"",""time""
""focus"",""1"",""1928""
""focus"",""7"",""22964""
""focus"",""7"",""70938""
""focus"",""13"",""146776""
""focus"",""19"",""201976""
""focus"",""19"",""237153""
","""event"",""trial"",""time""
""fullscreenenter"",""1"",""3648""
","""event"",""trial"",""time""
""fullscreenexit"",""2"",""6543""
","","","324","","","21","17759","1692","&#9776;","elianto","#3366ff99"," "," ","1","+10","[1177]","1","0","1","","","","","","","",""
"pit-trial","26","315836","0.0-2.0-8.1-1.1","battery-v0.2","","""event"",""trial"",""time""
""focus"",""1"",""1928""
""fullscreenenter"",""1"",""3648""
""fullscreenexit"",""2"",""6543""
""blur"",""7"",""20349""
""focus"",""7"",""22964""
""blur"",""7"",""70315""
""focus"",""7"",""70938""
""blur"",""13"",""145199""
""focus"",""13"",""146776""
""blur"",""19"",""201557""
""focus"",""19"",""201976""
""blur"",""19"",""236616""
""focus"",""19"",""237153""
","""event"",""trial"",""time""
""blur"",""7"",""20349""
""blur"",""7"",""70315""
""blur"",""13"",""145199""
""blur"",""19"",""201557""
""blur"",""19"",""236616""
","""event"",""trial"",""time""
""focus"",""1"",""1928""
""focus"",""7"",""22964""
""focus"",""7"",""70938""
""focus"",""13"",""146776""
""focus"",""19"",""201976""
""focus"",""19"",""237153""
","""event"",""trial"",""time""
""fullscreenenter"",""1"",""3648""
","""event"",""trial"",""time""
""fullscreenexit"",""2"",""6543""
","","","412","","","21","17759","1692","&#9776;","elianto","#3366ff99"," "," ","1","+10","[1263]","1","0","1","","","","","","","",""
"pit-trial","27","318998","0.0-2.0-8.1-2.1","battery-v0.2","","""event"",""trial"",""time""
""focus"",""1"",""1928""
""fullscreenenter"",""1"",""3648""
""fullscreenexit"",""2"",""6543""
""blur"",""7"",""20349""
""focus"",""7"",""22964""
""blur"",""7"",""70315""
""focus"",""7"",""70938""
""blur"",""13"",""145199""
""focus"",""13"",""146776""
""blur"",""19"",""201557""
""focus"",""19"",""201976""
""blur"",""19"",""236616""
""focus"",""19"",""237153""
","""event"",""trial"",""time""
""blur"",""7"",""20349""
""blur"",""7"",""70315""
""blur"",""13"",""145199""
""blur"",""19"",""201557""
""blur"",""19"",""236616""
","""event"",""trial"",""time""
""focus"",""1"",""1928""
""focus"",""7"",""22964""
""focus"",""7"",""70938""
""focus"",""13"",""146776""
""focus"",""19"",""201976""
""focus"",""19"",""237153""
","""event"",""trial"",""time""
""fullscreenenter"",""1"",""3648""
","""event"",""trial"",""time""
""fullscreenexit"",""2"",""6543""
","","","301","","","21","17759","1692","&#9776;","elianto","#3366ff99"," "," ","1","+10","[1152]","1","0","1","","","","","","","",""
"pit-trial","28","322241","0.0-2.0-8.1-3.1","battery-v0.2","","""event"",""trial"",""time""
""focus"",""1"",""1928""
""fullscreenenter"",""1"",""3648""
""fullscreenexit"",""2"",""6543""
""blur"",""7"",""20349""
""focus"",""7"",""22964""
""blur"",""7"",""70315""
""focus"",""7"",""70938""
""blur"",""13"",""145199""
""focus"",""13"",""146776""
""blur"",""19"",""201557""
""focus"",""19"",""201976""
""blur"",""19"",""236616""
""focus"",""19"",""237153""
","""event"",""trial"",""time""
""blur"",""7"",""20349""
""blur"",""7"",""70315""
""blur"",""13"",""145199""
""blur"",""19"",""201557""
""blur"",""19"",""236616""
","""event"",""trial"",""time""
""focus"",""1"",""1928""
""focus"",""7"",""22964""
""focus"",""7"",""70938""
""focus"",""13"",""146776""
""focus"",""19"",""201976""
""focus"",""19"",""237153""
","""event"",""trial"",""time""
""fullscreenenter"",""1"",""3648""
","""event"",""trial"",""time""
""fullscreenexit"",""2"",""6543""
","","","390","","","21","17759","1692","&#9776;","elianto","#3366ff99"," "," ","1","0","[1240]","1","0","1","","","","","","","",""
"pit-trial","29","325467","0.0-2.0-8.1-4.1","battery-v0.2","","""event"",""trial"",""time""
""focus"",""1"",""1928""
""fullscreenenter"",""1"",""3648""
""fullscreenexit"",""2"",""6543""
""blur"",""7"",""20349""
""focus"",""7"",""22964""
""blur"",""7"",""70315""
""focus"",""7"",""70938""
""blur"",""13"",""145199""
""focus"",""13"",""146776""
""blur"",""19"",""201557""
""focus"",""19"",""201976""
""blur"",""19"",""236616""
""focus"",""19"",""237153""
","""event"",""trial"",""time""
""blur"",""7"",""20349""
""blur"",""7"",""70315""
""blur"",""13"",""145199""
""blur"",""19"",""201557""
""blur"",""19"",""236616""
","""event"",""trial"",""time""
""focus"",""1"",""1928""
""focus"",""7"",""22964""
""focus"",""7"",""70938""
""focus"",""13"",""146776""
""focus"",""19"",""201976""
""focus"",""19"",""237153""
","""event"",""trial"",""time""
""fullscreenenter"",""1"",""3648""
","""event"",""trial"",""time""
""fullscreenexit"",""2"",""6543""
","","","375","","","21","17759","1692","&#9776;","elianto","#3366ff99"," "," ","1","+10","[1226]","1","0","1","","","","","","","",""
"pit-trial","30","328740","0.0-2.0-8.2-0.2","battery-v0.2","","""event"",""trial"",""time""
""focus"",""1"",""1928""
""fullscreenenter"",""1"",""3648""
""fullscreenexit"",""2"",""6543""
""blur"",""7"",""20349""
""focus"",""7"",""22964""
""blur"",""7"",""70315""
""focus"",""7"",""70938""
""blur"",""13"",""145199""
""focus"",""13"",""146776""
""blur"",""19"",""201557""
""focus"",""19"",""201976""
""blur"",""19"",""236616""
""focus"",""19"",""237153""
","""event"",""trial"",""time""
""blur"",""7"",""20349""
""blur"",""7"",""70315""
""blur"",""13"",""145199""
""blur"",""19"",""201557""
""blur"",""19"",""236616""
","""event"",""trial"",""time""
""focus"",""1"",""1928""
""focus"",""7"",""22964""
""focus"",""7"",""70938""
""focus"",""13"",""146776""
""focus"",""19"",""201976""
""focus"",""19"",""237153""
","""event"",""trial"",""time""
""fullscreenenter"",""1"",""3648""
","""event"",""trial"",""time""
""fullscreenexit"",""2"",""6543""
","","","421","","","21","17759","1692","&#9776;","elianto","#3366ff99"," "," ","1","+10","[1271]","1","0","1","","","","","","","",""
"pit-trial","31","331793","0.0-2.0-8.2-1.2","battery-v0.2","","""event"",""trial"",""time""
""focus"",""1"",""1928""
""fullscreenenter"",""1"",""3648""
""fullscreenexit"",""2"",""6543""
""blur"",""7"",""20349""
""focus"",""7"",""22964""
""blur"",""7"",""70315""
""focus"",""7"",""70938""
""blur"",""13"",""145199""
""focus"",""13"",""146776""
""blur"",""19"",""201557""
""focus"",""19"",""201976""
""blur"",""19"",""236616""
""focus"",""19"",""237153""
","""event"",""trial"",""time""
""blur"",""7"",""20349""
""blur"",""7"",""70315""
""blur"",""13"",""145199""
""blur"",""19"",""201557""
""blur"",""19"",""236616""
","""event"",""trial"",""time""
""focus"",""1"",""1928""
""focus"",""7"",""22964""
""focus"",""7"",""70938""
""focus"",""13"",""146776""
""focus"",""19"",""201976""
""focus"",""19"",""237153""
","""event"",""trial"",""time""
""fullscreenenter"",""1"",""3648""
","""event"",""trial"",""time""
""fullscreenexit"",""2"",""6543""
","","","201","","","21","17759","1692","&#9776;","elianto","#3366ff99"," "," ","1","+10","[1052]","1","0","1","","","","","","","",""
"pit-trial","32","334847","0.0-2.0-8.2-2.2","battery-v0.2","","""event"",""trial"",""time""
""focus"",""1"",""1928""
""fullscreenenter"",""1"",""3648""
""fullscreenexit"",""2"",""6543""
""blur"",""7"",""20349""
""focus"",""7"",""22964""
""blur"",""7"",""70315""
""focus"",""7"",""70938""
""blur"",""13"",""145199""
""focus"",""13"",""146776""
""blur"",""19"",""201557""
""focus"",""19"",""201976""
""blur"",""19"",""236616""
""focus"",""19"",""237153""
","""event"",""trial"",""time""
""blur"",""7"",""20349""
""blur"",""7"",""70315""
""blur"",""13"",""145199""
""blur"",""19"",""201557""
""blur"",""19"",""236616""
","""event"",""trial"",""time""
""focus"",""1"",""1928""
""focus"",""7"",""22964""
""focus"",""7"",""70938""
""focus"",""13"",""146776""
""focus"",""19"",""201976""
""focus"",""19"",""237153""
","""event"",""trial"",""time""
""fullscreenenter"",""1"",""3648""
","""event"",""trial"",""time""
""fullscreenexit"",""2"",""6543""
","","","203","","","21","17759","1692","&#9776;","elianto","#3366ff99"," "," ","1","+10","[1053]","1","0","1","","","","","","","",""
"pit-trial","33","337859","0.0-2.0-8.2-3.2","battery-v0.2","","""event"",""trial"",""time""
""focus"",""1"",""1928""
""fullscreenenter"",""1"",""3648""
""fullscreenexit"",""2"",""6543""
""blur"",""7"",""20349""
""focus"",""7"",""22964""
""blur"",""7"",""70315""
""focus"",""7"",""70938""
""blur"",""13"",""145199""
""focus"",""13"",""146776""
""blur"",""19"",""201557""
""focus"",""19"",""201976""
""blur"",""19"",""236616""
""focus"",""19"",""237153""
","""event"",""trial"",""time""
""blur"",""7"",""20349""
""blur"",""7"",""70315""
""blur"",""13"",""145199""
""blur"",""19"",""201557""
""blur"",""19"",""236616""
","""event"",""trial"",""time""
""focus"",""1"",""1928""
""focus"",""7"",""22964""
""focus"",""7"",""70938""
""focus"",""13"",""146776""
""focus"",""19"",""201976""
""focus"",""19"",""237153""
","""event"",""trial"",""time""
""fullscreenenter"",""1"",""3648""
","""event"",""trial"",""time""
""fullscreenexit"",""2"",""6543""
","","","159","","","21","17759","1692","&#9776;","elianto","#3366ff99"," "," ","1","0","[1011]","1","0","1","","","","","","","",""
"pit-trial","34","340916","0.0-2.0-8.2-4.2","battery-v0.2","","""event"",""trial"",""time""
""focus"",""1"",""1928""
""fullscreenenter"",""1"",""3648""
""fullscreenexit"",""2"",""6543""
""blur"",""7"",""20349""
""focus"",""7"",""22964""
""blur"",""7"",""70315""
""focus"",""7"",""70938""
""blur"",""13"",""145199""
""focus"",""13"",""146776""
""blur"",""19"",""201557""
""focus"",""19"",""201976""
""blur"",""19"",""236616""
""focus"",""19"",""237153""
","""event"",""trial"",""time""
""blur"",""7"",""20349""
""blur"",""7"",""70315""
""blur"",""13"",""145199""
""blur"",""19"",""201557""
""blur"",""19"",""236616""
","""event"",""trial"",""time""
""focus"",""1"",""1928""
""focus"",""7"",""22964""
""focus"",""7"",""70938""
""focus"",""13"",""146776""
""focus"",""19"",""201976""
""focus"",""19"",""237153""
","""event"",""trial"",""time""
""fullscreenenter"",""1"",""3648""
","""event"",""trial"",""time""
""fullscreenexit"",""2"",""6543""
","","","205","","","21","17759","1692","&#9776;","elianto","#3366ff99"," "," ","1","+10","[1055]","1","0","1","","","","","","","",""
"call-function","35","340917","0.0-2.0-9.0","battery-v0.2","","""event"",""trial"",""time""
""focus"",""1"",""1928""
""fullscreenenter"",""1"",""3648""
""fullscreenexit"",""2"",""6543""
""blur"",""7"",""20349""
""focus"",""7"",""22964""
""blur"",""7"",""70315""
""focus"",""7"",""70938""
""blur"",""13"",""145199""
""focus"",""13"",""146776""
""blur"",""19"",""201557""
""focus"",""19"",""201976""
""blur"",""19"",""236616""
""focus"",""19"",""237153""
","""event"",""trial"",""time""
""blur"",""7"",""20349""
""blur"",""7"",""70315""
""blur"",""13"",""145199""
""blur"",""19"",""201557""
""blur"",""19"",""236616""
","""event"",""trial"",""time""
""focus"",""1"",""1928""
""focus"",""7"",""22964""
""focus"",""7"",""70938""
""focus"",""13"",""146776""
""focus"",""19"",""201976""
""focus"",""19"",""237153""
","""event"",""trial"",""time""
""fullscreenenter"",""1"",""3648""
","""event"",""trial"",""time""
""fullscreenexit"",""2"",""6543""
","","","","","","","","","","","","","","","","","","","","","","","","","","",""
"pit-instructions","36","379286","0.0-2.0-10.0","battery-v0.2","","""event"",""trial"",""time""
""focus"",""1"",""1928""
""fullscreenenter"",""1"",""3648""
""fullscreenexit"",""2"",""6543""
""blur"",""7"",""20349""
""focus"",""7"",""22964""
""blur"",""7"",""70315""
""focus"",""7"",""70938""
""blur"",""13"",""145199""
""focus"",""13"",""146776""
""blur"",""19"",""201557""
""focus"",""19"",""201976""
""blur"",""19"",""236616""
""focus"",""19"",""237153""
","""event"",""trial"",""time""
""blur"",""7"",""20349""
""blur"",""7"",""70315""
""blur"",""13"",""145199""
""blur"",""19"",""201557""
""blur"",""19"",""236616""
","""event"",""trial"",""time""
""focus"",""1"",""1928""
""focus"",""7"",""22964""
""focus"",""7"",""70938""
""focus"",""13"",""146776""
""focus"",""19"",""201976""
""focus"",""19"",""237153""
","""event"",""trial"",""time""
""fullscreenenter"",""1"",""3648""
","""event"",""trial"",""time""
""fullscreenexit"",""2"",""6543""
","","[{""page_index"":0,""viewing_time"":6618},{""page_index"":1,""viewing_time"":6588},{""page_index"":2,""viewing_time"":9200},{""page_index"":3,""viewing_time"":8504},{""page_index"":4,""viewing_time"":7459}]","38370","","","","","","","","","","","","","","","","","","","","","","","",""
"pit-trial","37","384146","0.0-2.0-11.0-0.0","battery-v0.2","","""event"",""trial"",""time""
""focus"",""1"",""1928""
""fullscreenenter"",""1"",""3648""
""fullscreenexit"",""2"",""6543""
""blur"",""7"",""20349""
""focus"",""7"",""22964""
""blur"",""7"",""70315""
""focus"",""7"",""70938""
""blur"",""13"",""145199""
""focus"",""13"",""146776""
""blur"",""19"",""201557""
""focus"",""19"",""201976""
""blur"",""19"",""236616""
""focus"",""19"",""237153""
","""event"",""trial"",""time""
""blur"",""7"",""20349""
""blur"",""7"",""70315""
""blur"",""13"",""145199""
""blur"",""19"",""201557""
""blur"",""19"",""236616""
","""event"",""trial"",""time""
""focus"",""1"",""1928""
""focus"",""7"",""22964""
""focus"",""7"",""70938""
""focus"",""13"",""146776""
""focus"",""19"",""201976""
""focus"",""19"",""237153""
","""event"",""trial"",""time""
""fullscreenenter"",""1"",""3648""
","""event"",""trial"",""time""
""fullscreenexit"",""2"",""6543""
","","","-1","","","21","17759","1692","&#9761;","elianto","#3366ff99","-1","-1","1","+10","[]","0","0","2","","","","","","","",""
"pit-trial","38","389002","0.0-2.0-11.0-1.0","battery-v0.2","","""event"",""trial"",""time""
""focus"",""1"",""1928""
""fullscreenenter"",""1"",""3648""
""fullscreenexit"",""2"",""6543""
""blur"",""7"",""20349""
""focus"",""7"",""22964""
""blur"",""7"",""70315""
""focus"",""7"",""70938""
""blur"",""13"",""145199""
""focus"",""13"",""146776""
""blur"",""19"",""201557""
""focus"",""19"",""201976""
""blur"",""19"",""236616""
""focus"",""19"",""237153""
","""event"",""trial"",""time""
""blur"",""7"",""20349""
""blur"",""7"",""70315""
""blur"",""13"",""145199""
""blur"",""19"",""201557""
""blur"",""19"",""236616""
","""event"",""trial"",""time""
""focus"",""1"",""1928""
""focus"",""7"",""22964""
""focus"",""7"",""70938""
""focus"",""13"",""146776""
""focus"",""19"",""201976""
""focus"",""19"",""237153""
","""event"",""trial"",""time""
""fullscreenenter"",""1"",""3648""
","""event"",""trial"",""time""
""fullscreenexit"",""2"",""6543""
","","","-1","","","21","17759","1692","&#9761;","elianto","#3366ff99","-1","-1","1","+10","[]","0","0","2","","","","","","","",""
"pit-trial","39","393871","0.0-2.0-11.0-2.0","battery-v0.2","","""event"",""trial"",""time""
""focus"",""1"",""1928""
""fullscreenenter"",""1"",""3648""
""fullscreenexit"",""2"",""6543""
""blur"",""7"",""20349""
""focus"",""7"",""22964""
""blur"",""7"",""70315""
""focus"",""7"",""70938""
""blur"",""13"",""145199""
""focus"",""13"",""146776""
""blur"",""19"",""201557""
""focus"",""19"",""201976""
""blur"",""19"",""236616""
""focus"",""19"",""237153""
","""event"",""trial"",""time""
""blur"",""7"",""20349""
""blur"",""7"",""70315""
""blur"",""13"",""145199""
""blur"",""19"",""201557""
""blur"",""19"",""236616""
","""event"",""trial"",""time""
""focus"",""1"",""1928""
""focus"",""7"",""22964""
""focus"",""7"",""70938""
""focus"",""13"",""146776""
""focus"",""19"",""201976""
""focus"",""19"",""237153""
","""event"",""trial"",""time""
""fullscreenenter"",""1"",""3648""
","""event"",""trial"",""time""
""fullscreenexit"",""2"",""6543""
","","","-1","","","21","17759","1692","&#9761;","elianto","#3366ff99","-1","-1","1","+10","[]","0","0","2","","","","","","","",""
"pit-trial","40","398745","0.0-2.0-11.0-3.0","battery-v0.2","","""event"",""trial"",""time""
""focus"",""1"",""1928""
""fullscreenenter"",""1"",""3648""
""fullscreenexit"",""2"",""6543""
""blur"",""7"",""20349""
""focus"",""7"",""22964""
""blur"",""7"",""70315""
""focus"",""7"",""70938""
""blur"",""13"",""145199""
""focus"",""13"",""146776""
""blur"",""19"",""201557""
""focus"",""19"",""201976""
""blur"",""19"",""236616""
""focus"",""19"",""237153""
","""event"",""trial"",""time""
""blur"",""7"",""20349""
""blur"",""7"",""70315""
""blur"",""13"",""145199""
""blur"",""19"",""201557""
""blur"",""19"",""236616""
","""event"",""trial"",""time""
""focus"",""1"",""1928""
""focus"",""7"",""22964""
""focus"",""7"",""70938""
""focus"",""13"",""146776""
""focus"",""19"",""201976""
""focus"",""19"",""237153""
","""event"",""trial"",""time""
""fullscreenenter"",""1"",""3648""
","""event"",""trial"",""time""
""fullscreenexit"",""2"",""6543""
","","","-1","","","21","17759","1692","&#9761;","elianto","#3366ff99","-1","-1","1","0","[]","0","0","2","","","","","","","",""
"pit-trial","41","403597","0.0-2.0-11.0-4.0","battery-v0.2","","""event"",""trial"",""time""
""focus"",""1"",""1928""
""fullscreenenter"",""1"",""3648""
""fullscreenexit"",""2"",""6543""
""blur"",""7"",""20349""
""focus"",""7"",""22964""
""blur"",""7"",""70315""
""focus"",""7"",""70938""
""blur"",""13"",""145199""
""focus"",""13"",""146776""
""blur"",""19"",""201557""
""focus"",""19"",""201976""
""blur"",""19"",""236616""
""focus"",""19"",""237153""
","""event"",""trial"",""time""
""blur"",""7"",""20349""
""blur"",""7"",""70315""
""blur"",""13"",""145199""
""blur"",""19"",""201557""
""blur"",""19"",""236616""
","""event"",""trial"",""time""
""focus"",""1"",""1928""
""focus"",""7"",""22964""
""focus"",""7"",""70938""
""focus"",""13"",""146776""
""focus"",""19"",""201976""
""focus"",""19"",""237153""
","""event"",""trial"",""time""
""fullscreenenter"",""1"",""3648""
","""event"",""trial"",""time""
""fullscreenexit"",""2"",""6543""
","","","-1","","","21","17759","1692","&#9761;","elianto","#3366ff99","-1","-1","1","+10","[]","0","0","2","","","","","","","",""
"pit-trial","42","408461","0.0-2.0-11.1-0.1","battery-v0.2","","""event"",""trial"",""time""
""focus"",""1"",""1928""
""fullscreenenter"",""1"",""3648""
""fullscreenexit"",""2"",""6543""
""blur"",""7"",""20349""
""focus"",""7"",""22964""
""blur"",""7"",""70315""
""focus"",""7"",""70938""
""blur"",""13"",""145199""
""focus"",""13"",""146776""
""blur"",""19"",""201557""
""focus"",""19"",""201976""
""blur"",""19"",""236616""
""focus"",""19"",""237153""
","""event"",""trial"",""time""
""blur"",""7"",""20349""
""blur"",""7"",""70315""
""blur"",""13"",""145199""
""blur"",""19"",""201557""
""blur"",""19"",""236616""
","""event"",""trial"",""time""
""focus"",""1"",""1928""
""focus"",""7"",""22964""
""focus"",""7"",""70938""
""focus"",""13"",""146776""
""focus"",""19"",""201976""
""focus"",""19"",""237153""
","""event"",""trial"",""time""
""fullscreenenter"",""1"",""3648""
","""event"",""trial"",""time""
""fullscreenexit"",""2"",""6543""
","","","-1","","","21","17759","1692","&#9761;","elianto","#3366ff99","-1","-1","1","+10","[]","0","0","2","","","","","","","",""
"pit-trial","43","413313","0.0-2.0-11.1-1.1","battery-v0.2","","""event"",""trial"",""time""
""focus"",""1"",""1928""
""fullscreenenter"",""1"",""3648""
""fullscreenexit"",""2"",""6543""
""blur"",""7"",""20349""
""focus"",""7"",""22964""
""blur"",""7"",""70315""
""focus"",""7"",""70938""
""blur"",""13"",""145199""
""focus"",""13"",""146776""
""blur"",""19"",""201557""
""focus"",""19"",""201976""
""blur"",""19"",""236616""
""focus"",""19"",""237153""
","""event"",""trial"",""time""
""blur"",""7"",""20349""
""blur"",""7"",""70315""
""blur"",""13"",""145199""
""blur"",""19"",""201557""
""blur"",""19"",""236616""
","""event"",""trial"",""time""
""focus"",""1"",""1928""
""focus"",""7"",""22964""
""focus"",""7"",""70938""
""focus"",""13"",""146776""
""focus"",""19"",""201976""
""focus"",""19"",""237153""
","""event"",""trial"",""time""
""fullscreenenter"",""1"",""3648""
","""event"",""trial"",""time""
""fullscreenexit"",""2"",""6543""
","","","-1","","","21","17759","1692","&#9761;","elianto","#3366ff99","-1","-1","1","+10","[]","0","0","2","","","","","","","",""
"pit-trial","44","418164","0.0-2.0-11.1-2.1","battery-v0.2","","""event"",""trial"",""time""
""focus"",""1"",""1928""
""fullscreenenter"",""1"",""3648""
""fullscreenexit"",""2"",""6543""
""blur"",""7"",""20349""
""focus"",""7"",""22964""
""blur"",""7"",""70315""
""focus"",""7"",""70938""
""blur"",""13"",""145199""
""focus"",""13"",""146776""
""blur"",""19"",""201557""
""focus"",""19"",""201976""
""blur"",""19"",""236616""
""focus"",""19"",""237153""
","""event"",""trial"",""time""
""blur"",""7"",""20349""
""blur"",""7"",""70315""
""blur"",""13"",""145199""
""blur"",""19"",""201557""
""blur"",""19"",""236616""
","""event"",""trial"",""time""
""focus"",""1"",""1928""
""focus"",""7"",""22964""
""focus"",""7"",""70938""
""focus"",""13"",""146776""
""focus"",""19"",""201976""
""focus"",""19"",""237153""
","""event"",""trial"",""time""
""fullscreenenter"",""1"",""3648""
","""event"",""trial"",""time""
""fullscreenexit"",""2"",""6543""
","","","-1","","","21","17759","1692","&#9761;","elianto","#3366ff99","-1","-1","1","+10","[]","0","0","2","","","","","","","",""
"pit-trial","45","423016","0.0-2.0-11.1-3.1","battery-v0.2","","""event"",""trial"",""time""
""focus"",""1"",""1928""
""fullscreenenter"",""1"",""3648""
""fullscreenexit"",""2"",""6543""
""blur"",""7"",""20349""
""focus"",""7"",""22964""
""blur"",""7"",""70315""
""focus"",""7"",""70938""
""blur"",""13"",""145199""
""focus"",""13"",""146776""
""blur"",""19"",""201557""
""focus"",""19"",""201976""
""blur"",""19"",""236616""
""focus"",""19"",""237153""
","""event"",""trial"",""time""
""blur"",""7"",""20349""
""blur"",""7"",""70315""
""blur"",""13"",""145199""
""blur"",""19"",""201557""
""blur"",""19"",""236616""
","""event"",""trial"",""time""
""focus"",""1"",""1928""
""focus"",""7"",""22964""
""focus"",""7"",""70938""
""focus"",""13"",""146776""
""focus"",""19"",""201976""
""focus"",""19"",""237153""
","""event"",""trial"",""time""
""fullscreenenter"",""1"",""3648""
","""event"",""trial"",""time""
""fullscreenexit"",""2"",""6543""
","","","-1","","","21","17759","1692","&#9761;","elianto","#3366ff99","-1","-1","1","0","[]","0","0","2","","","","","","","",""
"pit-trial","46","427868","0.0-2.0-11.1-4.1","battery-v0.2","","""event"",""trial"",""time""
""focus"",""1"",""1928""
""fullscreenenter"",""1"",""3648""
""fullscreenexit"",""2"",""6543""
""blur"",""7"",""20349""
""focus"",""7"",""22964""
""blur"",""7"",""70315""
""focus"",""7"",""70938""
""blur"",""13"",""145199""
""focus"",""13"",""146776""
""blur"",""19"",""201557""
""focus"",""19"",""201976""
""blur"",""19"",""236616""
""focus"",""19"",""237153""
","""event"",""trial"",""time""
""blur"",""7"",""20349""
""blur"",""7"",""70315""
""blur"",""13"",""145199""
""blur"",""19"",""201557""
""blur"",""19"",""236616""
","""event"",""trial"",""time""
""focus"",""1"",""1928""
""focus"",""7"",""22964""
""focus"",""7"",""70938""
""focus"",""13"",""146776""
""focus"",""19"",""201976""
""focus"",""19"",""237153""
","""event"",""trial"",""time""
""fullscreenenter"",""1"",""3648""
","""event"",""trial"",""time""
""fullscreenexit"",""2"",""6543""
","","","-1","","","21","17759","1692","&#9761;","elianto","#3366ff99","-1","-1","1","+10","[]","0","0","2","","","","","","","",""
"pit-trial","47","432721","0.0-2.0-11.2-0.2","battery-v0.2","","""event"",""trial"",""time""
""focus"",""1"",""1928""
""fullscreenenter"",""1"",""3648""
""fullscreenexit"",""2"",""6543""
""blur"",""7"",""20349""
""focus"",""7"",""22964""
""blur"",""7"",""70315""
""focus"",""7"",""70938""
""blur"",""13"",""145199""
""focus"",""13"",""146776""
""blur"",""19"",""201557""
""focus"",""19"",""201976""
""blur"",""19"",""236616""
""focus"",""19"",""237153""
","""event"",""trial"",""time""
""blur"",""7"",""20349""
""blur"",""7"",""70315""
""blur"",""13"",""145199""
""blur"",""19"",""201557""
""blur"",""19"",""236616""
","""event"",""trial"",""time""
""focus"",""1"",""1928""
""focus"",""7"",""22964""
""focus"",""7"",""70938""
""focus"",""13"",""146776""
""focus"",""19"",""201976""
""focus"",""19"",""237153""
","""event"",""trial"",""time""
""fullscreenenter"",""1"",""3648""
","""event"",""trial"",""time""
""fullscreenexit"",""2"",""6543""
","","","-1","","","21","17759","1692","&#9761;","elianto","#3366ff99","-1","-1","1","+10","[]","0","0","2","","","","","","","",""
"pit-trial","48","437574","0.0-2.0-11.2-1.2","battery-v0.2","","""event"",""trial"",""time""
""focus"",""1"",""1928""
""fullscreenenter"",""1"",""3648""
""fullscreenexit"",""2"",""6543""
""blur"",""7"",""20349""
""focus"",""7"",""22964""
""blur"",""7"",""70315""
""focus"",""7"",""70938""
""blur"",""13"",""145199""
""focus"",""13"",""146776""
""blur"",""19"",""201557""
""focus"",""19"",""201976""
""blur"",""19"",""236616""
""focus"",""19"",""237153""
","""event"",""trial"",""time""
""blur"",""7"",""20349""
""blur"",""7"",""70315""
""blur"",""13"",""145199""
""blur"",""19"",""201557""
""blur"",""19"",""236616""
","""event"",""trial"",""time""
""focus"",""1"",""1928""
""focus"",""7"",""22964""
""focus"",""7"",""70938""
""focus"",""13"",""146776""
""focus"",""19"",""201976""
""focus"",""19"",""237153""
","""event"",""trial"",""time""
""fullscreenenter"",""1"",""3648""
","""event"",""trial"",""time""
""fullscreenexit"",""2"",""6543""
","","","-1","","","21","17759","1692","&#9761;","elianto","#3366ff99","-1","-1","1","+10","[]","0","0","2","","","","","","","",""
"pit-trial","49","442427","0.0-2.0-11.2-2.2","battery-v0.2","","""event"",""trial"",""time""
""focus"",""1"",""1928""
""fullscreenenter"",""1"",""3648""
""fullscreenexit"",""2"",""6543""
""blur"",""7"",""20349""
""focus"",""7"",""22964""
""blur"",""7"",""70315""
""focus"",""7"",""70938""
""blur"",""13"",""145199""
""focus"",""13"",""146776""
""blur"",""19"",""201557""
""focus"",""19"",""201976""
""blur"",""19"",""236616""
""focus"",""19"",""237153""
","""event"",""trial"",""time""
""blur"",""7"",""20349""
""blur"",""7"",""70315""
""blur"",""13"",""145199""
""blur"",""19"",""201557""
""blur"",""19"",""236616""
","""event"",""trial"",""time""
""focus"",""1"",""1928""
""focus"",""7"",""22964""
""focus"",""7"",""70938""
""focus"",""13"",""146776""
""focus"",""19"",""201976""
""focus"",""19"",""237153""
","""event"",""trial"",""time""
""fullscreenenter"",""1"",""3648""
","""event"",""trial"",""time""
""fullscreenexit"",""2"",""6543""
","","","-1","","","21","17759","1692","&#9761;","elianto","#3366ff99","-1","-1","1","+10","[]","0","0","2","","","","","","","",""
"pit-trial","50","447279","0.0-2.0-11.2-3.2","battery-v0.2","","""event"",""trial"",""time""
""focus"",""1"",""1928""
""fullscreenenter"",""1"",""3648""
""fullscreenexit"",""2"",""6543""
""blur"",""7"",""20349""
""focus"",""7"",""22964""
""blur"",""7"",""70315""
""focus"",""7"",""70938""
""blur"",""13"",""145199""
""focus"",""13"",""146776""
""blur"",""19"",""201557""
""focus"",""19"",""201976""
""blur"",""19"",""236616""
""focus"",""19"",""237153""
","""event"",""trial"",""time""
""blur"",""7"",""20349""
""blur"",""7"",""70315""
""blur"",""13"",""145199""
""blur"",""19"",""201557""
""blur"",""19"",""236616""
","""event"",""trial"",""time""
""focus"",""1"",""1928""
""focus"",""7"",""22964""
""focus"",""7"",""70938""
""focus"",""13"",""146776""
""focus"",""19"",""201976""
""focus"",""19"",""237153""
","""event"",""trial"",""time""
""fullscreenenter"",""1"",""3648""
","""event"",""trial"",""time""
""fullscreenexit"",""2"",""6543""
","","","-1","","","21","17759","1692","&#9761;","elianto","#3366ff99","-1","-1","1","0","[]","0","0","2","","","","","","","",""
"pit-trial","51","452131","0.0-2.0-11.2-4.2","battery-v0.2","","""event"",""trial"",""time""
""focus"",""1"",""1928""
""fullscreenenter"",""1"",""3648""
""fullscreenexit"",""2"",""6543""
""blur"",""7"",""20349""
""focus"",""7"",""22964""
""blur"",""7"",""70315""
""focus"",""7"",""70938""
""blur"",""13"",""145199""
""focus"",""13"",""146776""
""blur"",""19"",""201557""
""focus"",""19"",""201976""
""blur"",""19"",""236616""
""focus"",""19"",""237153""
","""event"",""trial"",""time""
""blur"",""7"",""20349""
""blur"",""7"",""70315""
""blur"",""13"",""145199""
""blur"",""19"",""201557""
""blur"",""19"",""236616""
","""event"",""trial"",""time""
""focus"",""1"",""1928""
""focus"",""7"",""22964""
""focus"",""7"",""70938""
""focus"",""13"",""146776""
""focus"",""19"",""201976""
""focus"",""19"",""237153""
","""event"",""trial"",""time""
""fullscreenenter"",""1"",""3648""
","""event"",""trial"",""time""
""fullscreenexit"",""2"",""6543""
","","","-1","","","21","17759","1692","&#9761;","elianto","#3366ff99","-1","-1","1","+10","[]","0","0","2","","","","","","","",""
"pit-trial","52","456983","0.0-2.0-11.3-0.3","battery-v0.2","","""event"",""trial"",""time""
""focus"",""1"",""1928""
""fullscreenenter"",""1"",""3648""
""fullscreenexit"",""2"",""6543""
""blur"",""7"",""20349""
""focus"",""7"",""22964""
""blur"",""7"",""70315""
""focus"",""7"",""70938""
""blur"",""13"",""145199""
""focus"",""13"",""146776""
""blur"",""19"",""201557""
""focus"",""19"",""201976""
""blur"",""19"",""236616""
""focus"",""19"",""237153""
""blur"",""53"",""459363""
""focus"",""53"",""459846""
","""event"",""trial"",""time""
""blur"",""7"",""20349""
""blur"",""7"",""70315""
""blur"",""13"",""145199""
""blur"",""19"",""201557""
""blur"",""19"",""236616""
""blur"",""53"",""459363""
","""event"",""trial"",""time""
""focus"",""1"",""1928""
""focus"",""7"",""22964""
""focus"",""7"",""70938""
""focus"",""13"",""146776""
""focus"",""19"",""201976""
""focus"",""19"",""237153""
""focus"",""53"",""459846""
","""event"",""trial"",""time""
""fullscreenenter"",""1"",""3648""
","""event"",""trial"",""time""
""fullscreenexit"",""2"",""6543""
","","","-1","","","21","17759","1692","&#9761;","elianto","#3366ff99","-1","-1","1","+10","[]","0","0","2","","","","","","","",""
"pit-trial","53","461846","0.0-2.0-11.3-1.3","battery-v0.2","","""event"",""trial"",""time""
""focus"",""1"",""1928""
""fullscreenenter"",""1"",""3648""
""fullscreenexit"",""2"",""6543""
""blur"",""7"",""20349""
""focus"",""7"",""22964""
""blur"",""7"",""70315""
""focus"",""7"",""70938""
""blur"",""13"",""145199""
""focus"",""13"",""146776""
""blur"",""19"",""201557""
""focus"",""19"",""201976""
""blur"",""19"",""236616""
""focus"",""19"",""237153""
""blur"",""53"",""459363""
""focus"",""53"",""459846""
","""event"",""trial"",""time""
""blur"",""7"",""20349""
""blur"",""7"",""70315""
""blur"",""13"",""145199""
""blur"",""19"",""201557""
""blur"",""19"",""236616""
""blur"",""53"",""459363""
","""event"",""trial"",""time""
""focus"",""1"",""1928""
""focus"",""7"",""22964""
""focus"",""7"",""70938""
""focus"",""13"",""146776""
""focus"",""19"",""201976""
""focus"",""19"",""237153""
""focus"",""53"",""459846""
","""event"",""trial"",""time""
""fullscreenenter"",""1"",""3648""
","""event"",""trial"",""time""
""fullscreenexit"",""2"",""6543""
","","","-1","","","21","17759","1692","&#9761;","elianto","#3366ff99","-1","-1","1","+10","[]","0","0","2","","","","","","","",""
"pit-trial","54","466697","0.0-2.0-11.3-2.3","battery-v0.2","","""event"",""trial"",""time""
""focus"",""1"",""1928""
""fullscreenenter"",""1"",""3648""
""fullscreenexit"",""2"",""6543""
""blur"",""7"",""20349""
""focus"",""7"",""22964""
""blur"",""7"",""70315""
""focus"",""7"",""70938""
""blur"",""13"",""145199""
""focus"",""13"",""146776""
""blur"",""19"",""201557""
""focus"",""19"",""201976""
""blur"",""19"",""236616""
""focus"",""19"",""237153""
""blur"",""53"",""459363""
""focus"",""53"",""459846""
","""event"",""trial"",""time""
""blur"",""7"",""20349""
""blur"",""7"",""70315""
""blur"",""13"",""145199""
""blur"",""19"",""201557""
""blur"",""19"",""236616""
""blur"",""53"",""459363""
","""event"",""trial"",""time""
""focus"",""1"",""1928""
""focus"",""7"",""22964""
""focus"",""7"",""70938""
""focus"",""13"",""146776""
""focus"",""19"",""201976""
""focus"",""19"",""237153""
""focus"",""53"",""459846""
","""event"",""trial"",""time""
""fullscreenenter"",""1"",""3648""
","""event"",""trial"",""time""
""fullscreenexit"",""2"",""6543""
","","","-1","","","21","17759","1692","&#9761;","elianto","#3366ff99","-1","-1","1","+10","[]","0","0","2","","","","","","","",""
"pit-trial","55","470264","0.0-2.0-11.3-3.3","battery-v0.2","","""event"",""trial"",""time""
""focus"",""1"",""1928""
""fullscreenenter"",""1"",""3648""
""fullscreenexit"",""2"",""6543""
""blur"",""7"",""20349""
""focus"",""7"",""22964""
""blur"",""7"",""70315""
""focus"",""7"",""70938""
""blur"",""13"",""145199""
""focus"",""13"",""146776""
""blur"",""19"",""201557""
""focus"",""19"",""201976""
""blur"",""19"",""236616""
""focus"",""19"",""237153""
""blur"",""53"",""459363""
""focus"",""53"",""459846""
","""event"",""trial"",""time""
""blur"",""7"",""20349""
""blur"",""7"",""70315""
""blur"",""13"",""145199""
""blur"",""19"",""201557""
""blur"",""19"",""236616""
""blur"",""53"",""459363""
","""event"",""trial"",""time""
""focus"",""1"",""1928""
""focus"",""7"",""22964""
""focus"",""7"",""70938""
""focus"",""13"",""146776""
""focus"",""19"",""201976""
""focus"",""19"",""237153""
""focus"",""53"",""459846""
","""event"",""trial"",""time""
""fullscreenenter"",""1"",""3648""
","""event"",""trial"",""time""
""fullscreenexit"",""2"",""6543""
","","","715","","","21","17759","1692","&#9761;","elianto","#3366ff99","-1"," ","0","+10","[1565]","1","0","2","","","","","","","",""
"pit-trial","56","473297","0.0-2.0-11.3-4.3","battery-v0.2","","""event"",""trial"",""time""
""focus"",""1"",""1928""
""fullscreenenter"",""1"",""3648""
""fullscreenexit"",""2"",""6543""
""blur"",""7"",""20349""
""focus"",""7"",""22964""
""blur"",""7"",""70315""
""focus"",""7"",""70938""
""blur"",""13"",""145199""
""focus"",""13"",""146776""
""blur"",""19"",""201557""
""focus"",""19"",""201976""
""blur"",""19"",""236616""
""focus"",""19"",""237153""
""blur"",""53"",""459363""
""focus"",""53"",""459846""
","""event"",""trial"",""time""
""blur"",""7"",""20349""
""blur"",""7"",""70315""
""blur"",""13"",""145199""
""blur"",""19"",""201557""
""blur"",""19"",""236616""
""blur"",""53"",""459363""
","""event"",""trial"",""time""
""focus"",""1"",""1928""
""focus"",""7"",""22964""
""focus"",""7"",""70938""
""focus"",""13"",""146776""
""focus"",""19"",""201976""
""focus"",""19"",""237153""
""focus"",""53"",""459846""
","""event"",""trial"",""time""
""fullscreenenter"",""1"",""3648""
","""event"",""trial"",""time""
""fullscreenexit"",""2"",""6543""
","","","181","","","21","17759","1692","&#9761;","elianto","#3366ff99","-1"," ","0","0","[1032]","1","0","2","","","","","","","",""
"call-function","57","473298","0.0-2.0-12.0","battery-v0.2","","""event"",""trial"",""time""
""focus"",""1"",""1928""
""fullscreenenter"",""1"",""3648""
""fullscreenexit"",""2"",""6543""
""blur"",""7"",""20349""
""focus"",""7"",""22964""
""blur"",""7"",""70315""
""focus"",""7"",""70938""
""blur"",""13"",""145199""
""focus"",""13"",""146776""
""blur"",""19"",""201557""
""focus"",""19"",""201976""
""blur"",""19"",""236616""
""focus"",""19"",""237153""
""blur"",""53"",""459363""
""focus"",""53"",""459846""
""blur"",""58"",""490364""
""focus"",""58"",""490963""
","""event"",""trial"",""time""
""blur"",""7"",""20349""
""blur"",""7"",""70315""
""blur"",""13"",""145199""
""blur"",""19"",""201557""
""blur"",""19"",""236616""
""blur"",""53"",""459363""
""blur"",""58"",""490364""
","""event"",""trial"",""time""
""focus"",""1"",""1928""
""focus"",""7"",""22964""
""focus"",""7"",""70938""
""focus"",""13"",""146776""
""focus"",""19"",""201976""
""focus"",""19"",""237153""
""focus"",""53"",""459846""
""focus"",""58"",""490963""
","""event"",""trial"",""time""
""fullscreenenter"",""1"",""3648""
","""event"",""trial"",""time""
""fullscreenexit"",""2"",""6543""
","","","","","","","","","","","","","","","","","","","","","","","","","","",""
"pit-instructions","58","503568","0.0-2.0-13.0","battery-v0.2","","""event"",""trial"",""time""
""focus"",""1"",""1928""
""fullscreenenter"",""1"",""3648""
""fullscreenexit"",""2"",""6543""
""blur"",""7"",""20349""
""focus"",""7"",""22964""
""blur"",""7"",""70315""
""focus"",""7"",""70938""
""blur"",""13"",""145199""
""focus"",""13"",""146776""
""blur"",""19"",""201557""
""focus"",""19"",""201976""
""blur"",""19"",""236616""
""focus"",""19"",""237153""
""blur"",""53"",""459363""
""focus"",""53"",""459846""
""blur"",""58"",""490364""
""focus"",""58"",""490963""
","""event"",""trial"",""time""
""blur"",""7"",""20349""
""blur"",""7"",""70315""
""blur"",""13"",""145199""
""blur"",""19"",""201557""
""blur"",""19"",""236616""
""blur"",""53"",""459363""
""blur"",""58"",""490364""
","""event"",""trial"",""time""
""focus"",""1"",""1928""
""focus"",""7"",""22964""
""focus"",""7"",""70938""
""focus"",""13"",""146776""
""focus"",""19"",""201976""
""focus"",""19"",""237153""
""focus"",""53"",""459846""
""focus"",""58"",""490963""
","""event"",""trial"",""time""
""fullscreenenter"",""1"",""3648""
","""event"",""trial"",""time""
""fullscreenexit"",""2"",""6543""
","","[{""page_index"":0,""viewing_time"":4568},{""page_index"":1,""viewing_time"":6251},{""page_index"":2,""viewing_time"":3420},{""page_index"":3,""viewing_time"":10440},{""page_index"":4,""viewing_time"":5591}]","30270","","","","","","","","","","","","","","","","","","","","","","","",""
"pit-trial","59","506804","0.0-2.0-14.0-0.0","battery-v0.2","","""event"",""trial"",""time""
""focus"",""1"",""1928""
""fullscreenenter"",""1"",""3648""
""fullscreenexit"",""2"",""6543""
""blur"",""7"",""20349""
""focus"",""7"",""22964""
""blur"",""7"",""70315""
""focus"",""7"",""70938""
""blur"",""13"",""145199""
""focus"",""13"",""146776""
""blur"",""19"",""201557""
""focus"",""19"",""201976""
""blur"",""19"",""236616""
""focus"",""19"",""237153""
""blur"",""53"",""459363""
""focus"",""53"",""459846""
""blur"",""58"",""490364""
""focus"",""58"",""490963""
","""event"",""trial"",""time""
""blur"",""7"",""20349""
""blur"",""7"",""70315""
""blur"",""13"",""145199""
""blur"",""19"",""201557""
""blur"",""19"",""236616""
""blur"",""53"",""459363""
""blur"",""58"",""490364""
","""event"",""trial"",""time""
""focus"",""1"",""1928""
""focus"",""7"",""22964""
""focus"",""7"",""70938""
""focus"",""13"",""146776""
""focus"",""19"",""201976""
""focus"",""19"",""237153""
""focus"",""53"",""459846""
""focus"",""58"",""490963""
","""event"",""trial"",""time""
""fullscreenenter"",""1"",""3648""
","""event"",""trial"",""time""
""fullscreenexit"",""2"",""6543""
","","","381","","","21","17759","1692","&#9826;","elianto","#f73b6a7A","-1"," ","0","-10","[1232]","1","0","3","","","","","","","",""
"pit-trial","60","511677","0.0-2.0-14.0-1.0","battery-v0.2","","""event"",""trial"",""time""
""focus"",""1"",""1928""
""fullscreenenter"",""1"",""3648""
""fullscreenexit"",""2"",""6543""
""blur"",""7"",""20349""
""focus"",""7"",""22964""
""blur"",""7"",""70315""
""focus"",""7"",""70938""
""blur"",""13"",""145199""
""focus"",""13"",""146776""
""blur"",""19"",""201557""
""focus"",""19"",""201976""
""blur"",""19"",""236616""
""focus"",""19"",""237153""
""blur"",""53"",""459363""
""focus"",""53"",""459846""
""blur"",""58"",""490364""
""focus"",""58"",""490963""
","""event"",""trial"",""time""
""blur"",""7"",""20349""
""blur"",""7"",""70315""
""blur"",""13"",""145199""
""blur"",""19"",""201557""
""blur"",""19"",""236616""
""blur"",""53"",""459363""
""blur"",""58"",""490364""
","""event"",""trial"",""time""
""focus"",""1"",""1928""
""focus"",""7"",""22964""
""focus"",""7"",""70938""
""focus"",""13"",""146776""
""focus"",""19"",""201976""
""focus"",""19"",""237153""
""focus"",""53"",""459846""
""focus"",""58"",""490963""
","""event"",""trial"",""time""
""fullscreenenter"",""1"",""3648""
","""event"",""trial"",""time""
""fullscreenexit"",""2"",""6543""
","","","-1","","","21","17759","1692","&#9826;","elianto","#f73b6a7A","-1","-1","1","0","[]","0","0","3","","","","","","","",""
"pit-trial","61","516544","0.0-2.0-14.0-2.0","battery-v0.2","","""event"",""trial"",""time""
""focus"",""1"",""1928""
""fullscreenenter"",""1"",""3648""
""fullscreenexit"",""2"",""6543""
""blur"",""7"",""20349""
""focus"",""7"",""22964""
""blur"",""7"",""70315""
""focus"",""7"",""70938""
""blur"",""13"",""145199""
""focus"",""13"",""146776""
""blur"",""19"",""201557""
""focus"",""19"",""201976""
""blur"",""19"",""236616""
""focus"",""19"",""237153""
""blur"",""53"",""459363""
""focus"",""53"",""459846""
""blur"",""58"",""490364""
""focus"",""58"",""490963""
","""event"",""trial"",""time""
""blur"",""7"",""20349""
""blur"",""7"",""70315""
""blur"",""13"",""145199""
""blur"",""19"",""201557""
""blur"",""19"",""236616""
""blur"",""53"",""459363""
""blur"",""58"",""490364""
","""event"",""trial"",""time""
""focus"",""1"",""1928""
""focus"",""7"",""22964""
""focus"",""7"",""70938""
""focus"",""13"",""146776""
""focus"",""19"",""201976""
""focus"",""19"",""237153""
""focus"",""53"",""459846""
""focus"",""58"",""490963""
","""event"",""trial"",""time""
""fullscreenenter"",""1"",""3648""
","""event"",""trial"",""time""
""fullscreenexit"",""2"",""6543""
","","","-1","","","21","17759","1692","&#9826;","elianto","#f73b6a7A","-1","-1","1","0","[]","0","0","3","","","","","","","",""
"pit-trial","62","521402","0.0-2.0-14.0-3.0","battery-v0.2","","""event"",""trial"",""time""
""focus"",""1"",""1928""
""fullscreenenter"",""1"",""3648""
""fullscreenexit"",""2"",""6543""
""blur"",""7"",""20349""
""focus"",""7"",""22964""
""blur"",""7"",""70315""
""focus"",""7"",""70938""
""blur"",""13"",""145199""
""focus"",""13"",""146776""
""blur"",""19"",""201557""
""focus"",""19"",""201976""
""blur"",""19"",""236616""
""focus"",""19"",""237153""
""blur"",""53"",""459363""
""focus"",""53"",""459846""
""blur"",""58"",""490364""
""focus"",""58"",""490963""
","""event"",""trial"",""time""
""blur"",""7"",""20349""
""blur"",""7"",""70315""
""blur"",""13"",""145199""
""blur"",""19"",""201557""
""blur"",""19"",""236616""
""blur"",""53"",""459363""
""blur"",""58"",""490364""
","""event"",""trial"",""time""
""focus"",""1"",""1928""
""focus"",""7"",""22964""
""focus"",""7"",""70938""
""focus"",""13"",""146776""
""focus"",""19"",""201976""
""focus"",""19"",""237153""
""focus"",""53"",""459846""
""focus"",""58"",""490963""
","""event"",""trial"",""time""
""fullscreenenter"",""1"",""3648""
","""event"",""trial"",""time""
""fullscreenexit"",""2"",""6543""
","","","-1","","","21","17759","1692","&#9826;","elianto","#f73b6a7A","-1","-1","1","-10","[]","0","0","3","","","","","","","",""
"pit-trial","63","525531","0.0-2.0-14.0-4.0","battery-v0.2","","""event"",""trial"",""time""
""focus"",""1"",""1928""
""fullscreenenter"",""1"",""3648""
""fullscreenexit"",""2"",""6543""
""blur"",""7"",""20349""
""focus"",""7"",""22964""
""blur"",""7"",""70315""
""focus"",""7"",""70938""
""blur"",""13"",""145199""
""focus"",""13"",""146776""
""blur"",""19"",""201557""
""focus"",""19"",""201976""
""blur"",""19"",""236616""
""focus"",""19"",""237153""
""blur"",""53"",""459363""
""focus"",""53"",""459846""
""blur"",""58"",""490364""
""focus"",""58"",""490963""
","""event"",""trial"",""time""
""blur"",""7"",""20349""
""blur"",""7"",""70315""
""blur"",""13"",""145199""
""blur"",""19"",""201557""
""blur"",""19"",""236616""
""blur"",""53"",""459363""
""blur"",""58"",""490364""
","""event"",""trial"",""time""
""focus"",""1"",""1928""
""focus"",""7"",""22964""
""focus"",""7"",""70938""
""focus"",""13"",""146776""
""focus"",""19"",""201976""
""focus"",""19"",""237153""
""focus"",""53"",""459846""
""focus"",""58"",""490963""
","""event"",""trial"",""time""
""fullscreenenter"",""1"",""3648""
","""event"",""trial"",""time""
""fullscreenexit"",""2"",""6543""
","","","1273","","","21","17759","1692","&#9826;","elianto","#f73b6a7A","-1"," ","0","-10","[2124]","1","0","3","","","","","","","",""
"pit-trial","64","530403","0.0-2.0-14.1-0.1","battery-v0.2","","""event"",""trial"",""time""
""focus"",""1"",""1928""
""fullscreenenter"",""1"",""3648""
""fullscreenexit"",""2"",""6543""
""blur"",""7"",""20349""
""focus"",""7"",""22964""
""blur"",""7"",""70315""
""focus"",""7"",""70938""
""blur"",""13"",""145199""
""focus"",""13"",""146776""
""blur"",""19"",""201557""
""focus"",""19"",""201976""
""blur"",""19"",""236616""
""focus"",""19"",""237153""
""blur"",""53"",""459363""
""focus"",""53"",""459846""
""blur"",""58"",""490364""
""focus"",""58"",""490963""
","""event"",""trial"",""time""
""blur"",""7"",""20349""
""blur"",""7"",""70315""
""blur"",""13"",""145199""
""blur"",""19"",""201557""
""blur"",""19"",""236616""
""blur"",""53"",""459363""
""blur"",""58"",""490364""
","""event"",""trial"",""time""
""focus"",""1"",""1928""
""focus"",""7"",""22964""
""focus"",""7"",""70938""
""focus"",""13"",""146776""
""focus"",""19"",""201976""
""focus"",""19"",""237153""
""focus"",""53"",""459846""
""focus"",""58"",""490963""
","""event"",""trial"",""time""
""fullscreenenter"",""1"",""3648""
","""event"",""trial"",""time""
""fullscreenexit"",""2"",""6543""
","","","-1","","","21","17759","1692","&#9826;","elianto","#f73b6a7A","-1","-1","1","0","[]","0","0","3","","","","","","","",""
"pit-trial","65","535270","0.0-2.0-14.1-1.1","battery-v0.2","","""event"",""trial"",""time""
""focus"",""1"",""1928""
""fullscreenenter"",""1"",""3648""
""fullscreenexit"",""2"",""6543""
""blur"",""7"",""20349""
""focus"",""7"",""22964""
""blur"",""7"",""70315""
""focus"",""7"",""70938""
""blur"",""13"",""145199""
""focus"",""13"",""146776""
""blur"",""19"",""201557""
""focus"",""19"",""201976""
""blur"",""19"",""236616""
""focus"",""19"",""237153""
""blur"",""53"",""459363""
""focus"",""53"",""459846""
""blur"",""58"",""490364""
""focus"",""58"",""490963""
""blur"",""66"",""539870""
","""event"",""trial"",""time""
""blur"",""7"",""20349""
""blur"",""7"",""70315""
""blur"",""13"",""145199""
""blur"",""19"",""201557""
""blur"",""19"",""236616""
""blur"",""53"",""459363""
""blur"",""58"",""490364""
""blur"",""66"",""539870""
","""event"",""trial"",""time""
""focus"",""1"",""1928""
""focus"",""7"",""22964""
""focus"",""7"",""70938""
""focus"",""13"",""146776""
""focus"",""19"",""201976""
""focus"",""19"",""237153""
""focus"",""53"",""459846""
""focus"",""58"",""490963""
","""event"",""trial"",""time""
""fullscreenenter"",""1"",""3648""
","""event"",""trial"",""time""
""fullscreenexit"",""2"",""6543""
","","","-1","","","21","17759","1692","&#9826;","elianto","#f73b6a7A","-1","-1","1","0","[]","0","0","3","","","","","","","",""
"pit-trial","66","540122","0.0-2.0-14.1-2.1","battery-v0.2","","""event"",""trial"",""time""
""focus"",""1"",""1928""
""fullscreenenter"",""1"",""3648""
""fullscreenexit"",""2"",""6543""
""blur"",""7"",""20349""
""focus"",""7"",""22964""
""blur"",""7"",""70315""
""focus"",""7"",""70938""
""blur"",""13"",""145199""
""focus"",""13"",""146776""
""blur"",""19"",""201557""
""focus"",""19"",""201976""
""blur"",""19"",""236616""
""focus"",""19"",""237153""
""blur"",""53"",""459363""
""focus"",""53"",""459846""
""blur"",""58"",""490364""
""focus"",""58"",""490963""
""blur"",""66"",""539870""
""focus"",""67"",""543507""
","""event"",""trial"",""time""
""blur"",""7"",""20349""
""blur"",""7"",""70315""
""blur"",""13"",""145199""
""blur"",""19"",""201557""
""blur"",""19"",""236616""
""blur"",""53"",""459363""
""blur"",""58"",""490364""
""blur"",""66"",""539870""
","""event"",""trial"",""time""
""focus"",""1"",""1928""
""focus"",""7"",""22964""
""focus"",""7"",""70938""
""focus"",""13"",""146776""
""focus"",""19"",""201976""
""focus"",""19"",""237153""
""focus"",""53"",""459846""
""focus"",""58"",""490963""
""focus"",""67"",""543507""
","""event"",""trial"",""time""
""fullscreenenter"",""1"",""3648""
","""event"",""trial"",""time""
""fullscreenexit"",""2"",""6543""
","","","-1","","","21","17759","1692","&#9826;","elianto","#f73b6a7A","-1","-1","1","0","[]","0","0","3","","","","","","","",""
"pit-trial","67","544973","0.0-2.0-14.1-3.1","battery-v0.2","","""event"",""trial"",""time""
""focus"",""1"",""1928""
""fullscreenenter"",""1"",""3648""
""fullscreenexit"",""2"",""6543""
""blur"",""7"",""20349""
""focus"",""7"",""22964""
""blur"",""7"",""70315""
""focus"",""7"",""70938""
""blur"",""13"",""145199""
""focus"",""13"",""146776""
""blur"",""19"",""201557""
""focus"",""19"",""201976""
""blur"",""19"",""236616""
""focus"",""19"",""237153""
""blur"",""53"",""459363""
""focus"",""53"",""459846""
""blur"",""58"",""490364""
""focus"",""58"",""490963""
""blur"",""66"",""539870""
""focus"",""67"",""543507""
""blur"",""68"",""548304""
""focus"",""68"",""549000""
","""event"",""trial"",""time""
""blur"",""7"",""20349""
""blur"",""7"",""70315""
""blur"",""13"",""145199""
""blur"",""19"",""201557""
""blur"",""19"",""236616""
""blur"",""53"",""459363""
""blur"",""58"",""490364""
""blur"",""66"",""539870""
""blur"",""68"",""548304""
","""event"",""trial"",""time""
""focus"",""1"",""1928""
""focus"",""7"",""22964""
""focus"",""7"",""70938""
""focus"",""13"",""146776""
""focus"",""19"",""201976""
""focus"",""19"",""237153""
""focus"",""53"",""459846""
""focus"",""58"",""490963""
""focus"",""67"",""543507""
""focus"",""68"",""549000""
","""event"",""trial"",""time""
""fullscreenenter"",""1"",""3648""
","""event"",""trial"",""time""
""fullscreenexit"",""2"",""6543""
","","","-1","","","21","17759","1692","&#9826;","elianto","#f73b6a7A","-1","-1","1","-10","[]","0","0","3","","","","","","","",""
"pit-trial","68","549838","0.0-2.0-14.1-4.1","battery-v0.2","","""event"",""trial"",""time""
""focus"",""1"",""1928""
""fullscreenenter"",""1"",""3648""
""fullscreenexit"",""2"",""6543""
""blur"",""7"",""20349""
""focus"",""7"",""22964""
""blur"",""7"",""70315""
""focus"",""7"",""70938""
""blur"",""13"",""145199""
""focus"",""13"",""146776""
""blur"",""19"",""201557""
""focus"",""19"",""201976""
""blur"",""19"",""236616""
""focus"",""19"",""237153""
""blur"",""53"",""459363""
""focus"",""53"",""459846""
""blur"",""58"",""490364""
""focus"",""58"",""490963""
""blur"",""66"",""539870""
""focus"",""67"",""543507""
""blur"",""68"",""548304""
""focus"",""68"",""549000""
","""event"",""trial"",""time""
""blur"",""7"",""20349""
""blur"",""7"",""70315""
""blur"",""13"",""145199""
""blur"",""19"",""201557""
""blur"",""19"",""236616""
""blur"",""53"",""459363""
""blur"",""58"",""490364""
""blur"",""66"",""539870""
""blur"",""68"",""548304""
","""event"",""trial"",""time""
""focus"",""1"",""1928""
""focus"",""7"",""22964""
""focus"",""7"",""70938""
""focus"",""13"",""146776""
""focus"",""19"",""201976""
""focus"",""19"",""237153""
""focus"",""53"",""459846""
""focus"",""58"",""490963""
""focus"",""67"",""543507""
""focus"",""68"",""549000""
","""event"",""trial"",""time""
""fullscreenenter"",""1"",""3648""
","""event"",""trial"",""time""
""fullscreenexit"",""2"",""6543""
","","","-1","","","21","17759","1692","&#9826;","elianto","#f73b6a7A","-1","-1","1","0","[]","0","0","3","","","","","","","",""
"pit-trial","69","554690","0.0-2.0-14.2-0.2","battery-v0.2","","""event"",""trial"",""time""
""focus"",""1"",""1928""
""fullscreenenter"",""1"",""3648""
""fullscreenexit"",""2"",""6543""
""blur"",""7"",""20349""
""focus"",""7"",""22964""
""blur"",""7"",""70315""
""focus"",""7"",""70938""
""blur"",""13"",""145199""
""focus"",""13"",""146776""
""blur"",""19"",""201557""
""focus"",""19"",""201976""
""blur"",""19"",""236616""
""focus"",""19"",""237153""
""blur"",""53"",""459363""
""focus"",""53"",""459846""
""blur"",""58"",""490364""
""focus"",""58"",""490963""
""blur"",""66"",""539870""
""focus"",""67"",""543507""
""blur"",""68"",""548304""
""focus"",""68"",""549000""
","""event"",""trial"",""time""
""blur"",""7"",""20349""
""blur"",""7"",""70315""
""blur"",""13"",""145199""
""blur"",""19"",""201557""
""blur"",""19"",""236616""
""blur"",""53"",""459363""
""blur"",""58"",""490364""
""blur"",""66"",""539870""
""blur"",""68"",""548304""
","""event"",""trial"",""time""
""focus"",""1"",""1928""
""focus"",""7"",""22964""
""focus"",""7"",""70938""
""focus"",""13"",""146776""
""focus"",""19"",""201976""
""focus"",""19"",""237153""
""focus"",""53"",""459846""
""focus"",""58"",""490963""
""focus"",""67"",""543507""
""focus"",""68"",""549000""
","""event"",""trial"",""time""
""fullscreenenter"",""1"",""3648""
","""event"",""trial"",""time""
""fullscreenexit"",""2"",""6543""
","","","-1","","","21","17759","1692","&#9826;","elianto","#f73b6a7A","-1","-1","1","0","[]","0","0","3","","","","","","","",""
"pit-trial","70","559542","0.0-2.0-14.2-1.2","battery-v0.2","","""event"",""trial"",""time""
""focus"",""1"",""1928""
""fullscreenenter"",""1"",""3648""
""fullscreenexit"",""2"",""6543""
""blur"",""7"",""20349""
""focus"",""7"",""22964""
""blur"",""7"",""70315""
""focus"",""7"",""70938""
""blur"",""13"",""145199""
""focus"",""13"",""146776""
""blur"",""19"",""201557""
""focus"",""19"",""201976""
""blur"",""19"",""236616""
""focus"",""19"",""237153""
""blur"",""53"",""459363""
""focus"",""53"",""459846""
""blur"",""58"",""490364""
""focus"",""58"",""490963""
""blur"",""66"",""539870""
""focus"",""67"",""543507""
""blur"",""68"",""548304""
""focus"",""68"",""549000""
","""event"",""trial"",""time""
""blur"",""7"",""20349""
""blur"",""7"",""70315""
""blur"",""13"",""145199""
""blur"",""19"",""201557""
""blur"",""19"",""236616""
""blur"",""53"",""459363""
""blur"",""58"",""490364""
""blur"",""66"",""539870""
""blur"",""68"",""548304""
","""event"",""trial"",""time""
""focus"",""1"",""1928""
""focus"",""7"",""22964""
""focus"",""7"",""70938""
""focus"",""13"",""146776""
""focus"",""19"",""201976""
""focus"",""19"",""237153""
""focus"",""53"",""459846""
""focus"",""58"",""490963""
""focus"",""67"",""543507""
""focus"",""68"",""549000""
","""event"",""trial"",""time""
""fullscreenenter"",""1"",""3648""
","""event"",""trial"",""time""
""fullscreenexit"",""2"",""6543""
","","","-1","","","21","17759","1692","&#9826;","elianto","#f73b6a7A","-1","-1","1","0","[]","0","0","3","","","","","","","",""
"pit-trial","71","563169","0.0-2.0-14.2-2.2","battery-v0.2","","""event"",""trial"",""time""
""focus"",""1"",""1928""
""fullscreenenter"",""1"",""3648""
""fullscreenexit"",""2"",""6543""
""blur"",""7"",""20349""
""focus"",""7"",""22964""
""blur"",""7"",""70315""
""focus"",""7"",""70938""
""blur"",""13"",""145199""
""focus"",""13"",""146776""
""blur"",""19"",""201557""
""focus"",""19"",""201976""
""blur"",""19"",""236616""
""focus"",""19"",""237153""
""blur"",""53"",""459363""
""focus"",""53"",""459846""
""blur"",""58"",""490364""
""focus"",""58"",""490963""
""blur"",""66"",""539870""
""focus"",""67"",""543507""
""blur"",""68"",""548304""
""focus"",""68"",""549000""
","""event"",""trial"",""time""
""blur"",""7"",""20349""
""blur"",""7"",""70315""
""blur"",""13"",""145199""
""blur"",""19"",""201557""
""blur"",""19"",""236616""
""blur"",""53"",""459363""
""blur"",""58"",""490364""
""blur"",""66"",""539870""
""blur"",""68"",""548304""
","""event"",""trial"",""time""
""focus"",""1"",""1928""
""focus"",""7"",""22964""
""focus"",""7"",""70938""
""focus"",""13"",""146776""
""focus"",""19"",""201976""
""focus"",""19"",""237153""
""focus"",""53"",""459846""
""focus"",""58"",""490963""
""focus"",""67"",""543507""
""focus"",""68"",""549000""
","""event"",""trial"",""time""
""fullscreenenter"",""1"",""3648""
","""event"",""trial"",""time""
""fullscreenexit"",""2"",""6543""
","","","774","","","21","17759","1692","&#9826;","elianto","#f73b6a7A","-1"," ","0","-10","[338,521,680,1625]","4","0","3","","","","","","","",""
"pit-trial","72","568021","0.0-2.0-14.2-3.2","battery-v0.2","","""event"",""trial"",""time""
""focus"",""1"",""1928""
""fullscreenenter"",""1"",""3648""
""fullscreenexit"",""2"",""6543""
""blur"",""7"",""20349""
""focus"",""7"",""22964""
""blur"",""7"",""70315""
""focus"",""7"",""70938""
""blur"",""13"",""145199""
""focus"",""13"",""146776""
""blur"",""19"",""201557""
""focus"",""19"",""201976""
""blur"",""19"",""236616""
""focus"",""19"",""237153""
""blur"",""53"",""459363""
""focus"",""53"",""459846""
""blur"",""58"",""490364""
""focus"",""58"",""490963""
""blur"",""66"",""539870""
""focus"",""67"",""543507""
""blur"",""68"",""548304""
""focus"",""68"",""549000""
","""event"",""trial"",""time""
""blur"",""7"",""20349""
""blur"",""7"",""70315""
""blur"",""13"",""145199""
""blur"",""19"",""201557""
""blur"",""19"",""236616""
""blur"",""53"",""459363""
""blur"",""58"",""490364""
""blur"",""66"",""539870""
""blur"",""68"",""548304""
","""event"",""trial"",""time""
""focus"",""1"",""1928""
""focus"",""7"",""22964""
""focus"",""7"",""70938""
""focus"",""13"",""146776""
""focus"",""19"",""201976""
""focus"",""19"",""237153""
""focus"",""53"",""459846""
""focus"",""58"",""490963""
""focus"",""67"",""543507""
""focus"",""68"",""549000""
","""event"",""trial"",""time""
""fullscreenenter"",""1"",""3648""
","""event"",""trial"",""time""
""fullscreenexit"",""2"",""6543""
","","","-1","","","21","17759","1692","&#9826;","elianto","#f73b6a7A","-1","-1","1","-10","[]","0","0","3","","","","","","","",""
"pit-trial","73","572873","0.0-2.0-14.2-4.2","battery-v0.2","","""event"",""trial"",""time""
""focus"",""1"",""1928""
""fullscreenenter"",""1"",""3648""
""fullscreenexit"",""2"",""6543""
""blur"",""7"",""20349""
""focus"",""7"",""22964""
""blur"",""7"",""70315""
""focus"",""7"",""70938""
""blur"",""13"",""145199""
""focus"",""13"",""146776""
""blur"",""19"",""201557""
""focus"",""19"",""201976""
""blur"",""19"",""236616""
""focus"",""19"",""237153""
""blur"",""53"",""459363""
""focus"",""53"",""459846""
""blur"",""58"",""490364""
""focus"",""58"",""490963""
""blur"",""66"",""539870""
""focus"",""67"",""543507""
""blur"",""68"",""548304""
""focus"",""68"",""549000""
","""event"",""trial"",""time""
""blur"",""7"",""20349""
""blur"",""7"",""70315""
""blur"",""13"",""145199""
""blur"",""19"",""201557""
""blur"",""19"",""236616""
""blur"",""53"",""459363""
""blur"",""58"",""490364""
""blur"",""66"",""539870""
""blur"",""68"",""548304""
","""event"",""trial"",""time""
""focus"",""1"",""1928""
""focus"",""7"",""22964""
""focus"",""7"",""70938""
""focus"",""13"",""146776""
""focus"",""19"",""201976""
""focus"",""19"",""237153""
""focus"",""53"",""459846""
""focus"",""58"",""490963""
""focus"",""67"",""543507""
""focus"",""68"",""549000""
","""event"",""trial"",""time""
""fullscreenenter"",""1"",""3648""
","""event"",""trial"",""time""
""fullscreenexit"",""2"",""6543""
","","","-1","","","21","17759","1692","&#9826;","elianto","#f73b6a7A","-1","-1","1","0","[]","0","0","3","","","","","","","",""
"pit-trial","74","577725","0.0-2.0-14.3-0.3","battery-v0.2","","""event"",""trial"",""time""
""focus"",""1"",""1928""
""fullscreenenter"",""1"",""3648""
""fullscreenexit"",""2"",""6543""
""blur"",""7"",""20349""
""focus"",""7"",""22964""
""blur"",""7"",""70315""
""focus"",""7"",""70938""
""blur"",""13"",""145199""
""focus"",""13"",""146776""
""blur"",""19"",""201557""
""focus"",""19"",""201976""
""blur"",""19"",""236616""
""focus"",""19"",""237153""
""blur"",""53"",""459363""
""focus"",""53"",""459846""
""blur"",""58"",""490364""
""focus"",""58"",""490963""
""blur"",""66"",""539870""
""focus"",""67"",""543507""
""blur"",""68"",""548304""
""focus"",""68"",""549000""
","""event"",""trial"",""time""
""blur"",""7"",""20349""
""blur"",""7"",""70315""
""blur"",""13"",""145199""
""blur"",""19"",""201557""
""blur"",""19"",""236616""
""blur"",""53"",""459363""
""blur"",""58"",""490364""
""blur"",""66"",""539870""
""blur"",""68"",""548304""
","""event"",""trial"",""time""
""focus"",""1"",""1928""
""focus"",""7"",""22964""
""focus"",""7"",""70938""
""focus"",""13"",""146776""
""focus"",""19"",""201976""
""focus"",""19"",""237153""
""focus"",""53"",""459846""
""focus"",""58"",""490963""
""focus"",""67"",""543507""
""focus"",""68"",""549000""
","""event"",""trial"",""time""
""fullscreenenter"",""1"",""3648""
","""event"",""trial"",""time""
""fullscreenexit"",""2"",""6543""
","","","-1","","","21","17759","1692","&#9826;","elianto","#f73b6a7A","-1","-1","1","0","[]","0","0","3","","","","","","","",""
"pit-trial","75","582578","0.0-2.0-14.3-1.3","battery-v0.2","","""event"",""trial"",""time""
""focus"",""1"",""1928""
""fullscreenenter"",""1"",""3648""
""fullscreenexit"",""2"",""6543""
""blur"",""7"",""20349""
""focus"",""7"",""22964""
""blur"",""7"",""70315""
""focus"",""7"",""70938""
""blur"",""13"",""145199""
""focus"",""13"",""146776""
""blur"",""19"",""201557""
""focus"",""19"",""201976""
""blur"",""19"",""236616""
""focus"",""19"",""237153""
""blur"",""53"",""459363""
""focus"",""53"",""459846""
""blur"",""58"",""490364""
""focus"",""58"",""490963""
""blur"",""66"",""539870""
""focus"",""67"",""543507""
""blur"",""68"",""548304""
""focus"",""68"",""549000""
","""event"",""trial"",""time""
""blur"",""7"",""20349""
""blur"",""7"",""70315""
""blur"",""13"",""145199""
""blur"",""19"",""201557""
""blur"",""19"",""236616""
""blur"",""53"",""459363""
""blur"",""58"",""490364""
""blur"",""66"",""539870""
""blur"",""68"",""548304""
","""event"",""trial"",""time""
""focus"",""1"",""1928""
""focus"",""7"",""22964""
""focus"",""7"",""70938""
""focus"",""13"",""146776""
""focus"",""19"",""201976""
""focus"",""19"",""237153""
""focus"",""53"",""459846""
""focus"",""58"",""490963""
""focus"",""67"",""543507""
""focus"",""68"",""549000""
","""event"",""trial"",""time""
""fullscreenenter"",""1"",""3648""
","""event"",""trial"",""time""
""fullscreenexit"",""2"",""6543""
","","","-1","","","21","17759","1692","&#9826;","elianto","#f73b6a7A","-1","-1","1","0","[]","0","0","3","","","","","","","",""
"pit-trial","76","587430","0.0-2.0-14.3-2.3","battery-v0.2","","""event"",""trial"",""time""
""focus"",""1"",""1928""
""fullscreenenter"",""1"",""3648""
""fullscreenexit"",""2"",""6543""
""blur"",""7"",""20349""
""focus"",""7"",""22964""
""blur"",""7"",""70315""
""focus"",""7"",""70938""
""blur"",""13"",""145199""
""focus"",""13"",""146776""
""blur"",""19"",""201557""
""focus"",""19"",""201976""
""blur"",""19"",""236616""
""focus"",""19"",""237153""
""blur"",""53"",""459363""
""focus"",""53"",""459846""
""blur"",""58"",""490364""
""focus"",""58"",""490963""
""blur"",""66"",""539870""
""focus"",""67"",""543507""
""blur"",""68"",""548304""
""focus"",""68"",""549000""
","""event"",""trial"",""time""
""blur"",""7"",""20349""
""blur"",""7"",""70315""
""blur"",""13"",""145199""
""blur"",""19"",""201557""
""blur"",""19"",""236616""
""blur"",""53"",""459363""
""blur"",""58"",""490364""
""blur"",""66"",""539870""
""blur"",""68"",""548304""
","""event"",""trial"",""time""
""focus"",""1"",""1928""
""focus"",""7"",""22964""
""focus"",""7"",""70938""
""focus"",""13"",""146776""
""focus"",""19"",""201976""
""focus"",""19"",""237153""
""focus"",""53"",""459846""
""focus"",""58"",""490963""
""focus"",""67"",""543507""
""focus"",""68"",""549000""
","""event"",""trial"",""time""
""fullscreenenter"",""1"",""3648""
","""event"",""trial"",""time""
""fullscreenexit"",""2"",""6543""
","","","-1","","","21","17759","1692","&#9826;","elianto","#f73b6a7A","-1","-1","1","0","[]","0","0","3","","","","","","","",""
"pit-trial","77","592289","0.0-2.0-14.3-3.3","battery-v0.2","","""event"",""trial"",""time""
""focus"",""1"",""1928""
""fullscreenenter"",""1"",""3648""
""fullscreenexit"",""2"",""6543""
""blur"",""7"",""20349""
""focus"",""7"",""22964""
""blur"",""7"",""70315""
""focus"",""7"",""70938""
""blur"",""13"",""145199""
""focus"",""13"",""146776""
""blur"",""19"",""201557""
""focus"",""19"",""201976""
""blur"",""19"",""236616""
""focus"",""19"",""237153""
""blur"",""53"",""459363""
""focus"",""53"",""459846""
""blur"",""58"",""490364""
""focus"",""58"",""490963""
""blur"",""66"",""539870""
""focus"",""67"",""543507""
""blur"",""68"",""548304""
""focus"",""68"",""549000""
","""event"",""trial"",""time""
""blur"",""7"",""20349""
""blur"",""7"",""70315""
""blur"",""13"",""145199""
""blur"",""19"",""201557""
""blur"",""19"",""236616""
""blur"",""53"",""459363""
""blur"",""58"",""490364""
""blur"",""66"",""539870""
""blur"",""68"",""548304""
","""event"",""trial"",""time""
""focus"",""1"",""1928""
""focus"",""7"",""22964""
""focus"",""7"",""70938""
""focus"",""13"",""146776""
""focus"",""19"",""201976""
""focus"",""19"",""237153""
""focus"",""53"",""459846""
""focus"",""58"",""490963""
""focus"",""67"",""543507""
""focus"",""68"",""549000""
","""event"",""trial"",""time""
""fullscreenenter"",""1"",""3648""
","""event"",""trial"",""time""
""fullscreenexit"",""2"",""6543""
","","","-1","","","21","17759","1692","&#9826;","elianto","#f73b6a7A","-1","-1","1","-10","[]","0","0","3","","","","","","","",""
"pit-trial","78","597141","0.0-2.0-14.3-4.3","battery-v0.2","","""event"",""trial"",""time""
""focus"",""1"",""1928""
""fullscreenenter"",""1"",""3648""
""fullscreenexit"",""2"",""6543""
""blur"",""7"",""20349""
""focus"",""7"",""22964""
""blur"",""7"",""70315""
""focus"",""7"",""70938""
""blur"",""13"",""145199""
""focus"",""13"",""146776""
""blur"",""19"",""201557""
""focus"",""19"",""201976""
""blur"",""19"",""236616""
""focus"",""19"",""237153""
""blur"",""53"",""459363""
""focus"",""53"",""459846""
""blur"",""58"",""490364""
""focus"",""58"",""490963""
""blur"",""66"",""539870""
""focus"",""67"",""543507""
""blur"",""68"",""548304""
""focus"",""68"",""549000""
","""event"",""trial"",""time""
""blur"",""7"",""20349""
""blur"",""7"",""70315""
""blur"",""13"",""145199""
""blur"",""19"",""201557""
""blur"",""19"",""236616""
""blur"",""53"",""459363""
""blur"",""58"",""490364""
""blur"",""66"",""539870""
""blur"",""68"",""548304""
","""event"",""trial"",""time""
""focus"",""1"",""1928""
""focus"",""7"",""22964""
""focus"",""7"",""70938""
""focus"",""13"",""146776""
""focus"",""19"",""201976""
""focus"",""19"",""237153""
""focus"",""53"",""459846""
""focus"",""58"",""490963""
""focus"",""67"",""543507""
""focus"",""68"",""549000""
","""event"",""trial"",""time""
""fullscreenenter"",""1"",""3648""
","""event"",""trial"",""time""
""fullscreenexit"",""2"",""6543""
","","","-1","","","21","17759","1692","&#9826;","elianto","#f73b6a7A","-1","-1","1","0","[]","0","0","3","","","","","","","",""
"call-function","79","597142","0.0-2.0-15.0","battery-v0.2","","""event"",""trial"",""time""
""focus"",""1"",""1928""
""fullscreenenter"",""1"",""3648""
""fullscreenexit"",""2"",""6543""
""blur"",""7"",""20349""
""focus"",""7"",""22964""
""blur"",""7"",""70315""
""focus"",""7"",""70938""
""blur"",""13"",""145199""
""focus"",""13"",""146776""
""blur"",""19"",""201557""
""focus"",""19"",""201976""
""blur"",""19"",""236616""
""focus"",""19"",""237153""
""blur"",""53"",""459363""
""focus"",""53"",""459846""
""blur"",""58"",""490364""
""focus"",""58"",""490963""
""blur"",""66"",""539870""
""focus"",""67"",""543507""
""blur"",""68"",""548304""
""focus"",""68"",""549000""
""blur"",""80"",""603097""
""focus"",""80"",""603536""
","""event"",""trial"",""time""
""blur"",""7"",""20349""
""blur"",""7"",""70315""
""blur"",""13"",""145199""
""blur"",""19"",""201557""
""blur"",""19"",""236616""
""blur"",""53"",""459363""
""blur"",""58"",""490364""
""blur"",""66"",""539870""
""blur"",""68"",""548304""
""blur"",""80"",""603097""
","""event"",""trial"",""time""
""focus"",""1"",""1928""
""focus"",""7"",""22964""
""focus"",""7"",""70938""
""focus"",""13"",""146776""
""focus"",""19"",""201976""
""focus"",""19"",""237153""
""focus"",""53"",""459846""
""focus"",""58"",""490963""
""focus"",""67"",""543507""
""focus"",""68"",""549000""
""focus"",""80"",""603536""
","""event"",""trial"",""time""
""fullscreenenter"",""1"",""3648""
","""event"",""trial"",""time""
""fullscreenexit"",""2"",""6543""
","","","","","","","","","","","","","","","","","","","","","","","","","","",""
"pit-instructions","80","623405","0.0-2.0-16.0","battery-v0.2","","""event"",""trial"",""time""
""focus"",""1"",""1928""
""fullscreenenter"",""1"",""3648""
""fullscreenexit"",""2"",""6543""
""blur"",""7"",""20349""
""focus"",""7"",""22964""
""blur"",""7"",""70315""
""focus"",""7"",""70938""
""blur"",""13"",""145199""
""focus"",""13"",""146776""
""blur"",""19"",""201557""
""focus"",""19"",""201976""
""blur"",""19"",""236616""
""focus"",""19"",""237153""
""blur"",""53"",""459363""
""focus"",""53"",""459846""
""blur"",""58"",""490364""
""focus"",""58"",""490963""
""blur"",""66"",""539870""
""focus"",""67"",""543507""
""blur"",""68"",""548304""
""focus"",""68"",""549000""
""blur"",""80"",""603097""
""focus"",""80"",""603536""
","""event"",""trial"",""time""
""blur"",""7"",""20349""
""blur"",""7"",""70315""
""blur"",""13"",""145199""
""blur"",""19"",""201557""
""blur"",""19"",""236616""
""blur"",""53"",""459363""
""blur"",""58"",""490364""
""blur"",""66"",""539870""
""blur"",""68"",""548304""
""blur"",""80"",""603097""
","""event"",""trial"",""time""
""focus"",""1"",""1928""
""focus"",""7"",""22964""
""focus"",""7"",""70938""
""focus"",""13"",""146776""
""focus"",""19"",""201976""
""focus"",""19"",""237153""
""focus"",""53"",""459846""
""focus"",""58"",""490963""
""focus"",""67"",""543507""
""focus"",""68"",""549000""
""focus"",""80"",""603536""
","""event"",""trial"",""time""
""fullscreenenter"",""1"",""3648""
","""event"",""trial"",""time""
""fullscreenexit"",""2"",""6543""
","","[{""page_index"":0,""viewing_time"":7545},{""page_index"":1,""viewing_time"":9740},{""page_index"":2,""viewing_time"":4551},{""page_index"":3,""viewing_time"":4426}]","26263","","","","","","","","","","","","","","","","","","","","","","","",""
"pit-trial","81","627361","0.0-2.0-17.0-0.0","battery-v0.2","","""event"",""trial"",""time""
""focus"",""1"",""1928""
""fullscreenenter"",""1"",""3648""
""fullscreenexit"",""2"",""6543""
""blur"",""7"",""20349""
""focus"",""7"",""22964""
""blur"",""7"",""70315""
""focus"",""7"",""70938""
""blur"",""13"",""145199""
""focus"",""13"",""146776""
""blur"",""19"",""201557""
""focus"",""19"",""201976""
""blur"",""19"",""236616""
""focus"",""19"",""237153""
""blur"",""53"",""459363""
""focus"",""53"",""459846""
""blur"",""58"",""490364""
""focus"",""58"",""490963""
""blur"",""66"",""539870""
""focus"",""67"",""543507""
""blur"",""68"",""548304""
""focus"",""68"",""549000""
""blur"",""80"",""603097""
""focus"",""80"",""603536""
","""event"",""trial"",""time""
""blur"",""7"",""20349""
""blur"",""7"",""70315""
""blur"",""13"",""145199""
""blur"",""19"",""201557""
""blur"",""19"",""236616""
""blur"",""53"",""459363""
""blur"",""58"",""490364""
""blur"",""66"",""539870""
""blur"",""68"",""548304""
""blur"",""80"",""603097""
","""event"",""trial"",""time""
""focus"",""1"",""1928""
""focus"",""7"",""22964""
""focus"",""7"",""70938""
""focus"",""13"",""146776""
""focus"",""19"",""201976""
""focus"",""19"",""237153""
""focus"",""53"",""459846""
""focus"",""58"",""490963""
""focus"",""67"",""543507""
""focus"",""68"",""549000""
""focus"",""80"",""603536""
","""event"",""trial"",""time""
""fullscreenenter"",""1"",""3648""
","""event"",""trial"",""time""
""fullscreenexit"",""2"",""6543""
","","","1095","","","21","17759","1692","&#9789;","elianto","#f73b6a7A"," "," ","1","0","[1947]","1","0","4","","","","","","","",""
"pit-trial","82","630435","0.0-2.0-17.0-1.0","battery-v0.2","","""event"",""trial"",""time""
""focus"",""1"",""1928""
""fullscreenenter"",""1"",""3648""
""fullscreenexit"",""2"",""6543""
""blur"",""7"",""20349""
""focus"",""7"",""22964""
""blur"",""7"",""70315""
""focus"",""7"",""70938""
""blur"",""13"",""145199""
""focus"",""13"",""146776""
""blur"",""19"",""201557""
""focus"",""19"",""201976""
""blur"",""19"",""236616""
""focus"",""19"",""237153""
""blur"",""53"",""459363""
""focus"",""53"",""459846""
""blur"",""58"",""490364""
""focus"",""58"",""490963""
""blur"",""66"",""539870""
""focus"",""67"",""543507""
""blur"",""68"",""548304""
""focus"",""68"",""549000""
""blur"",""80"",""603097""
""focus"",""80"",""603536""
","""event"",""trial"",""time""
""blur"",""7"",""20349""
""blur"",""7"",""70315""
""blur"",""13"",""145199""
""blur"",""19"",""201557""
""blur"",""19"",""236616""
""blur"",""53"",""459363""
""blur"",""58"",""490364""
""blur"",""66"",""539870""
""blur"",""68"",""548304""
""blur"",""80"",""603097""
","""event"",""trial"",""time""
""focus"",""1"",""1928""
""focus"",""7"",""22964""
""focus"",""7"",""70938""
""focus"",""13"",""146776""
""focus"",""19"",""201976""
""focus"",""19"",""237153""
""focus"",""53"",""459846""
""focus"",""58"",""490963""
""focus"",""67"",""543507""
""focus"",""68"",""549000""
""focus"",""80"",""603536""
","""event"",""trial"",""time""
""fullscreenenter"",""1"",""3648""
","""event"",""trial"",""time""
""fullscreenexit"",""2"",""6543""
","","","217","","","21","17759","1692","&#9789;","elianto","#f73b6a7A"," "," ","1","0","[1070]","1","0","4","","","","","","","",""
"pit-trial","83","633453","0.0-2.0-17.0-2.0","battery-v0.2","","""event"",""trial"",""time""
""focus"",""1"",""1928""
""fullscreenenter"",""1"",""3648""
""fullscreenexit"",""2"",""6543""
""blur"",""7"",""20349""
""focus"",""7"",""22964""
""blur"",""7"",""70315""
""focus"",""7"",""70938""
""blur"",""13"",""145199""
""focus"",""13"",""146776""
""blur"",""19"",""201557""
""focus"",""19"",""201976""
""blur"",""19"",""236616""
""focus"",""19"",""237153""
""blur"",""53"",""459363""
""focus"",""53"",""459846""
""blur"",""58"",""490364""
""focus"",""58"",""490963""
""blur"",""66"",""539870""
""focus"",""67"",""543507""
""blur"",""68"",""548304""
""focus"",""68"",""549000""
""blur"",""80"",""603097""
""focus"",""80"",""603536""
","""event"",""trial"",""time""
""blur"",""7"",""20349""
""blur"",""7"",""70315""
""blur"",""13"",""145199""
""blur"",""19"",""201557""
""blur"",""19"",""236616""
""blur"",""53"",""459363""
""blur"",""58"",""490364""
""blur"",""66"",""539870""
""blur"",""68"",""548304""
""blur"",""80"",""603097""
","""event"",""trial"",""time""
""focus"",""1"",""1928""
""focus"",""7"",""22964""
""focus"",""7"",""70938""
""focus"",""13"",""146776""
""focus"",""19"",""201976""
""focus"",""19"",""237153""
""focus"",""53"",""459846""
""focus"",""58"",""490963""
""focus"",""67"",""543507""
""focus"",""68"",""549000""
""focus"",""80"",""603536""
","""event"",""trial"",""time""
""fullscreenenter"",""1"",""3648""
","""event"",""trial"",""time""
""fullscreenexit"",""2"",""6543""
","","","155","","","21","17759","1692","&#9789;","elianto","#f73b6a7A"," "," ","1","0","[1006]","1","0","4","","","","","","","",""
"pit-trial","84","636462","0.0-2.0-17.0-3.0","battery-v0.2","","""event"",""trial"",""time""
""focus"",""1"",""1928""
""fullscreenenter"",""1"",""3648""
""fullscreenexit"",""2"",""6543""
""blur"",""7"",""20349""
""focus"",""7"",""22964""
""blur"",""7"",""70315""
""focus"",""7"",""70938""
""blur"",""13"",""145199""
""focus"",""13"",""146776""
""blur"",""19"",""201557""
""focus"",""19"",""201976""
""blur"",""19"",""236616""
""focus"",""19"",""237153""
""blur"",""53"",""459363""
""focus"",""53"",""459846""
""blur"",""58"",""490364""
""focus"",""58"",""490963""
""blur"",""66"",""539870""
""focus"",""67"",""543507""
