"trial_type","trial_index","time_elapsed","internal_node_id","task_version","subject_id","interactions","blur_events","focus_events","fullscreenenter_events","fullscreenexit_events","success","view_history","rt","responses","num_errors","age","subject","participantId","rune","rune_set","hex","correct","choice","accuracy","outcome","keys","total_keys","block","practice","value","sub","trial","stimulus","robot","valence","action","sham"
"pavlovia","0","29","0.0-0.0","battery-v0.2","","""event"",""trial"",""time""
""fullscreenenter"",""1"",""1224""
","
","
","""event"",""trial"",""time""
""fullscreenenter"",""1"",""1224""
","
","","","","","","","","","","","","","","","","","","","","","","","","","","",""
"fullscreen","1","2204","0.0-1.0","battery-v0.2","","""event"",""trial"",""time""
""fullscreenenter"",""1"",""1224""
","
","
","""event"",""trial"",""time""
""fullscreenenter"",""1"",""1224""
","
","true","","","","","","","","","","","","","","","","","","","","","","","","","",""
"pit-instructions","2","6379","0.0-2.0-0.0","battery-v0.2","","""event"",""trial"",""time""
""fullscreenenter"",""1"",""1224""
","
","
","""event"",""trial"",""time""
""fullscreenenter"",""1"",""1224""
","
","","[{""page_index"":0,""viewing_time"":4164.100000023842}]","4167","","","","","","","","","","","","","","","","","","","","","","","",""
"pit-comprehension","3","9074","0.0-2.0-1.0-0.0","battery-v0.2","","""event"",""trial"",""time""
""fullscreenenter"",""1"",""1224""
","
","
","""event"",""trial"",""time""
""fullscreenenter"",""1"",""1224""
","
","","","2680.6999999284744","[""shark""]","0","15","16218","357","","","","","","","","","","","","","","","","","","",""
"pit-instructions","4","10221","0.0-2.0-1.0-1.0","battery-v0.2","","""event"",""trial"",""time""
""fullscreenenter"",""1"",""1224""
","
","
","""event"",""trial"",""time""
""fullscreenenter"",""1"",""1224""
","
","","[{""page_index"":0,""viewing_time"":1123.2000000476837}]","1124.3999999761581","","","","","","","","","","","","","","","","","","","","","","","",""
"pit-comprehension","5","13497","0.0-2.0-2.0-0.0","battery-v0.2","","""event"",""trial"",""time""
""fullscreenenter"",""1"",""1224""
","
","
","""event"",""trial"",""time""
""fullscreenenter"",""1"",""1224""
","
","","","3263.6999999284744","[""tiger""]","0","15","16218","357","","","","","","","","","","","","","","","","","","",""
"pit-instructions","6","14886","0.0-2.0-2.0-1.0","battery-v0.2","","""event"",""trial"",""time""
""fullscreenenter"",""1"",""1224""
","
","
","""event"",""trial"",""time""
""fullscreenenter"",""1"",""1224""
","
","","[{""page_index"":0,""viewing_time"":1382}]","1383.3000000715256","","","","","","","","","","","","","","","","","","","","","","","",""
"pit-instructions","7","117920","0.0-2.0-3.0","battery-v0.2","","""event"",""trial"",""time""
""fullscreenenter"",""1"",""1224""
","
","
","""event"",""trial"",""time""
""fullscreenenter"",""1"",""1224""
","
","","[{""page_index"":0,""viewing_time"":13559},{""page_index"":1,""viewing_time"":5208.299999952316},{""page_index"":2,""viewing_time"":6875.900000095367},{""page_index"":3,""viewing_time"":5168.099999904633},{""page_index"":4,""viewing_time"":5978.600000023842},{""page_index"":5,""viewing_time"":5588.600000023842},{""page_index"":6,""viewing_time"":6933},{""page_index"":7,""viewing_time"":6523.100000023842},{""page_index"":8,""viewing_time"":7769.799999952316},{""page_index"":9,""viewing_time"":8685.5},{""page_index"":10,""viewing_time"":7887.600000023842},{""page_index"":11,""viewing_time"":10076.899999976158},{""page_index"":12,""viewing_time"":7546.200000047684},{""page_index"":13,""viewing_time"":5220.299999952316}]","103022.5","","","","","","","","","","","","","","","","","","","","","","","",""
"pit-trial","8","121593","0.0-2.0-4.0-0.0","battery-v0.2","","""event"",""trial"",""time""
""fullscreenenter"",""1"",""1224""
","
","
","""event"",""trial"",""time""
""fullscreenenter"",""1"",""1224""
","
","","","811.3999999761581","","","15","16218","357","&#9784;","elianto","#FFFFF080"," "," ","1","&#10004","[1665.4000000953674]","1","0","0","","","","","","","",""
"pit-trial","9","125072","0.0-2.0-4.1-0.1","battery-v0.2","","""event"",""trial"",""time""
""fullscreenenter"",""1"",""1224""
","
","
","""event"",""trial"",""time""
""fullscreenenter"",""1"",""1224""
","
","","","620.2999999523163","","","15","16218","357","&#9784;","elianto","#FFFFF080"," "," ","1","&#10004","[1470.1999999284744]","1","0","0","","","","","","","",""
"pit-trial","10","128456","0.0-2.0-4.2-0.2","battery-v0.2","","""event"",""trial"",""time""
""fullscreenenter"",""1"",""1224""
","
","
","""event"",""trial"",""time""
""fullscreenenter"",""1"",""1224""
","
","","","527.6999999284744","","","15","16218","357","&#9784;","elianto","#FFFFF080"," "," ","1","&#10004","[1377.7999999523163]","1","0","0","","","","","","","",""
"pit-trial","11","131467","0.0-2.0-4.3-0.3","battery-v0.2","","""event"",""trial"",""time""
""fullscreenenter"",""1"",""1224""
","
","
","""event"",""trial"",""time""
""fullscreenenter"",""1"",""1224""
","
","","","154.89999997615814","","","15","16218","357","&#9784;","elianto","#FFFFF080"," "," ","1","&#10004","[1004.8000000715256]","1","0","0","","","","","","","",""
"pit-trial","12","134768","0.0-2.0-4.4-0.4","battery-v0.2","","""event"",""trial"",""time""
""fullscreenenter"",""1"",""1224""
","
","
","""event"",""trial"",""time""
""fullscreenenter"",""1"",""1224""
","
","","","443.3000000715256","","","15","16218","357","&#9784;","elianto","#FFFFF080"," "," ","1","&#10004","[1293.4000000953674]","1","0","0","","","","","","","",""
"pit-instructions","13","160029","0.0-2.0-5.0","battery-v0.2","","""event"",""trial"",""time""
""fullscreenenter"",""1"",""1224""
","
","
","""event"",""trial"",""time""
""fullscreenenter"",""1"",""1224""
","
","","[{""page_index"":0,""viewing_time"":6531.899999976158},{""page_index"":1,""viewing_time"":5872.5},{""page_index"":2,""viewing_time"":6048.600000023842},{""page_index"":3,""viewing_time"":6796.199999928474}]","25250.799999952316","","","","","","","","","","","","","","","","","","","","","","","",""
"pit-trial","14","164886","0.0-2.0-6.0-0.0","battery-v0.2","","""event"",""trial"",""time""
""fullscreenenter"",""1"",""1224""
","
","
","""event"",""trial"",""time""
""fullscreenenter"",""1"",""1224""
","
","","","-1","","","15","16218","357","&#9854;","elianto","#FFFFF080","-1","-1","1","&#10004","[]","0","0","1","","","","","","","",""
"pit-trial","15","169745","0.0-2.0-6.1-0.1","battery-v0.2","","""event"",""trial"",""time""
""fullscreenenter"",""1"",""1224""
","
","
","""event"",""trial"",""time""
""fullscreenenter"",""1"",""1224""
","
","","","-1","","","15","16218","357","&#9854;","elianto","#FFFFF080","-1","-1","1","&#10004","[]","0","0","1","","","","","","","",""
"pit-trial","16","174602","0.0-2.0-6.2-0.2","battery-v0.2","","""event"",""trial"",""time""
""fullscreenenter"",""1"",""1224""
","
","
","""event"",""trial"",""time""
""fullscreenenter"",""1"",""1224""
","
","","","-1","","","15","16218","357","&#9854;","elianto","#FFFFF080","-1","-1","1","&#10004","[]","0","0","1","","","","","","","",""
"pit-trial","17","179459","0.0-2.0-6.3-0.3","battery-v0.2","","""event"",""trial"",""time""
""fullscreenenter"",""1"",""1224""
","
","
","""event"",""trial"",""time""
""fullscreenenter"",""1"",""1224""
","
","","","-1","","","15","16218","357","&#9854;","elianto","#FFFFF080","-1","-1","1","&#10004","[]","0","0","1","","","","","","","",""
"pit-trial","18","184316","0.0-2.0-6.4-0.4","battery-v0.2","","""event"",""trial"",""time""
""fullscreenenter"",""1"",""1224""
","
","
","""event"",""trial"",""time""
""fullscreenenter"",""1"",""1224""
","
","","","-1","","","15","16218","357","&#9854;","elianto","#FFFFF080","-1","-1","1","&#10004","[]","0","0","1","","","","","","","",""
"pit-instructions","19","306325","0.0-2.0-7.0","battery-v0.2","","""event"",""trial"",""time""
""fullscreenenter"",""1"",""1224""
","
","
","""event"",""trial"",""time""
""fullscreenenter"",""1"",""1224""
","
","","[{""page_index"":0,""viewing_time"":6369.799999952316},{""page_index"":1,""viewing_time"":8252.100000023842},{""page_index"":2,""viewing_time"":6651.200000047684},{""page_index"":3,""viewing_time"":6901.099999904633},{""page_index"":4,""viewing_time"":6233.5},{""page_index"":5,""viewing_time"":5696},{""page_index"":6,""viewing_time"":4664},{""page_index"":7,""viewing_time"":7924.900000095367},{""page_index"":8,""viewing_time"":7079.099999904633},{""page_index"":9,""viewing_time"":6905.200000047684},{""page_index"":10,""viewing_time"":6493.799999952316},{""page_index"":11,""viewing_time"":5150.800000071526},{""page_index"":12,""viewing_time"":7255.199999928474},{""page_index"":13,""viewing_time"":7741.800000071526},{""page_index"":14,""viewing_time"":7723.100000023842},{""page_index"":15,""viewing_time"":6611.799999952316},{""page_index"":16,""viewing_time"":6410.399999976158},{""page_index"":17,""viewing_time"":7934.200000047684}]","122000.79999995232","","","","","","","","","","","","","","","","","","","","","","","",""
"pit-trial","20","310097","0.0-2.0-8.0-0.0","battery-v0.2","","""event"",""trial"",""time""
""fullscreenenter"",""1"",""1224""
","
","
","""event"",""trial"",""time""
""fullscreenenter"",""1"",""1224""
","
","","","914.7999999523163","","","15","16218","357","&#9776;","elianto","#3366ff99"," "," ","1","+10","[1765]","1","0","1","","","","","","","",""
"pit-trial","21","314281","0.0-2.0-8.0-1.0","battery-v0.2","","""event"",""trial"",""time""
""fullscreenenter"",""1"",""1224""
","
","
","""event"",""trial"",""time""
""fullscreenenter"",""1"",""1224""
","
","","","1329.2000000476837","","","15","16218","357","&#9776;","elianto","#3366ff99"," "," ","1","+10","[2179.3000000715256]","1","0","1","","","","","","","",""
"pit-trial","22","317884","0.0-2.0-8.0-2.0","battery-v0.2","","""event"",""trial"",""time""
""fullscreenenter"",""1"",""1224""
","
","
","""event"",""trial"",""time""
""fullscreenenter"",""1"",""1224""
","
","","","744.3999999761581","","","15","16218","357","&#9776;","elianto","#3366ff99"," "," ","1","+10","[1597.1000000238419]","1","0","1","","","","","","","",""
"pit-trial","23","321332","0.0-2.0-8.0-3.0","battery-v0.2","","""event"",""trial"",""time""
""fullscreenenter"",""1"",""1224""
","
","
","""event"",""trial"",""time""
""fullscreenenter"",""1"",""1224""
","
","","","593.2999999523163","","","15","16218","357","&#9776;","elianto","#3366ff99"," "," ","1","0","[1443.5]","1","0","1","","","","","","","",""
"pit-trial","24","324940","0.0-2.0-8.0-4.0","battery-v0.2","","""event"",""trial"",""time""
""fullscreenenter"",""1"",""1224""
","
","
","""event"",""trial"",""time""
""fullscreenenter"",""1"",""1224""
","
","","","752.0999999046326","","","15","16218","357","&#9776;","elianto","#3366ff99"," "," ","1","+10","[1602.2999999523163]","1","0","1","","","","","","","",""
"pit-trial","25","328380","0.0-2.0-8.1-0.1","battery-v0.2","","""event"",""trial"",""time""
""fullscreenenter"",""1"",""1224""
","
","
","""event"",""trial"",""time""
""fullscreenenter"",""1"",""1224""
","
","","","582","","","15","16218","357","&#9776;","elianto","#3366ff99"," "," ","1","+10","[1432.1000000238419]","1","0","1","","","","","","","",""
"pit-trial","26","331769","0.0-2.0-8.1-1.1","battery-v0.2","","""event"",""trial"",""time""
""fullscreenenter"",""1"",""1224""
","
","
","""event"",""trial"",""time""
""fullscreenenter"",""1"",""1224""
","
","","","532.8999999761581","","","15","16218","357","&#9776;","elianto","#3366ff99"," "," ","1","+10","[1383]","1","0","1","","","","","","","",""
"pit-trial","27","334689","0.0-2.0-8.1-2.1","battery-v0.2","","""event"",""trial"",""time""
""fullscreenenter"",""1"",""1224""
","
","
","""event"",""trial"",""time""
""fullscreenenter"",""1"",""1224""
","
","","","63","","","15","16218","357","&#9776;","elianto","#3366ff99"," "," ","1","+10","[913.8999999761581]","1","0","1","","","","","","","",""
"pit-trial","28","337995","0.0-2.0-8.1-3.1","battery-v0.2","","""event"",""trial"",""time""
""fullscreenenter"",""1"",""1224""
","
","
","""event"",""trial"",""time""
""fullscreenenter"",""1"",""1224""
","
","","","450.3000000715256","","","15","16218","357","&#9776;","elianto","#3366ff99"," "," ","1","0","[1300.2999999523163]","1","0","1","","","","","","","",""
"pit-trial","29","341050","0.0-2.0-8.1-4.1","battery-v0.2","","""event"",""trial"",""time""
""fullscreenenter"",""1"",""1224""
","
","
","""event"",""trial"",""time""
""fullscreenenter"",""1"",""1224""
","
","","","198.10000002384186","","","15","16218","357","&#9776;","elianto","#3366ff99"," "," ","1","+10","[1048.5]","1","0","1","","","","","","","",""
"pit-trial","30","345906","0.0-2.0-8.2-0.2","battery-v0.2","","""event"",""trial"",""time""
""fullscreenenter"",""1"",""1224""
","
","
","""event"",""trial"",""time""
""fullscreenenter"",""1"",""1224""
","
","","","-1","","","15","16218","357","&#9776;","elianto","#3366ff99"," ","-1","0","0","[]","0","0","1","","","","","","","",""
"pit-trial","31","350763","0.0-2.0-8.2-1.2","battery-v0.2","","""event"",""trial"",""time""
""fullscreenenter"",""1"",""1224""
","
","
","""event"",""trial"",""time""
""fullscreenenter"",""1"",""1224""
","
","","","-1","","","15","16218","357","&#9776;","elianto","#3366ff99"," ","-1","0","0","[]","0","0","1","","","","","","","",""
"pit-trial","32","354166","0.0-2.0-8.2-2.2","battery-v0.2","","""event"",""trial"",""time""
""fullscreenenter"",""1"",""1224""
","
","
","""event"",""trial"",""time""
""fullscreenenter"",""1"",""1224""
","
","","","545.3999999761581","","","15","16218","357","&#9776;","elianto","#3366ff99"," "," ","1","+10","[1397.1000000238419]","1","0","1","","","","","","","",""
"pit-trial","33","359023","0.0-2.0-8.2-3.2","battery-v0.2","","""event"",""trial"",""time""
""fullscreenenter"",""1"",""1224""
","
","
","""event"",""trial"",""time""
""fullscreenenter"",""1"",""1224""
","
","","","-1","","","15","16218","357","&#9776;","elianto","#3366ff99"," ","-1","0","+10","[]","0","0","1","","","","","","","",""
"pit-trial","34","362629","0.0-2.0-8.2-4.2","battery-v0.2","","""event"",""trial"",""time""
""fullscreenenter"",""1"",""1224""
","
","
","""event"",""trial"",""time""
""fullscreenenter"",""1"",""1224""
","
","","","747.5999999046326","","","15","16218","357","&#9776;","elianto","#3366ff99"," "," ","1","+10","[1598]","1","0","1","","","","","","","",""
"call-function","35","362633","0.0-2.0-9.0","battery-v0.2","","""event"",""trial"",""time""
""fullscreenenter"",""1"",""1224""
","
","
","""event"",""trial"",""time""
""fullscreenenter"",""1"",""1224""
","
","","","","","","","","","","","","","","","","","","","","","","","","","","",""
"pit-instructions","36","404813","0.0-2.0-10.0","battery-v0.2","","""event"",""trial"",""time""
""fullscreenenter"",""1"",""1224""
""blur"",""37"",""405847""
""focus"",""37"",""405849""
","""event"",""trial"",""time""
""blur"",""37"",""405847""
","""event"",""trial"",""time""
""focus"",""37"",""405849""
","""event"",""trial"",""time""
""fullscreenenter"",""1"",""1224""
","
","","[{""page_index"":0,""viewing_time"":5543.700000047684},{""page_index"":1,""viewing_time"":7343.899999976158},{""page_index"":2,""viewing_time"":10237.399999976158},{""page_index"":3,""viewing_time"":9681.800000071526},{""page_index"":4,""viewing_time"":9369.399999976158}]","42178.300000071526","","","","","","","","","","","","","","","","","","","","","","","",""
"pit-trial","37","408621","0.0-2.0-11.0-0.0","battery-v0.2","","""event"",""trial"",""time""
""fullscreenenter"",""1"",""1224""
""blur"",""37"",""405847""
""focus"",""37"",""405849""
","""event"",""trial"",""time""
""blur"",""37"",""405847""
","""event"",""trial"",""time""
""focus"",""37"",""405849""
","""event"",""trial"",""time""
""fullscreenenter"",""1"",""1224""
","
","","","951.1000000238419","","","15","16218","357","&#9761;","elianto","#3366ff99","-1"," ","0","0","[1801.1000000238419]","1","0","2","","","","","","","",""
"pit-trial","38","413478","0.0-2.0-11.0-1.0","battery-v0.2","","""event"",""trial"",""time""
""fullscreenenter"",""1"",""1224""
""blur"",""37"",""405847""
""focus"",""37"",""405849""
","""event"",""trial"",""time""
""blur"",""37"",""405847""
","""event"",""trial"",""time""
""focus"",""37"",""405849""
","""event"",""trial"",""time""
""fullscreenenter"",""1"",""1224""
","
","","","-1","","","15","16218","357","&#9761;","elianto","#3366ff99","-1","-1","1","+10","[]","0","0","2","","","","","","","",""
"pit-trial","39","418334","0.0-2.0-11.0-2.0","battery-v0.2","","""event"",""trial"",""time""
""fullscreenenter"",""1"",""1224""
""blur"",""37"",""405847""
""focus"",""37"",""405849""
","""event"",""trial"",""time""
""blur"",""37"",""405847""
","""event"",""trial"",""time""
""focus"",""37"",""405849""
","""event"",""trial"",""time""
""fullscreenenter"",""1"",""1224""
","
","","","-1","","","15","16218","357","&#9761;","elianto","#3366ff99","-1","-1","1","+10","[]","0","0","2","","","","","","","",""
"pit-trial","40","423190","0.0-2.0-11.0-3.0","battery-v0.2","","""event"",""trial"",""time""
""fullscreenenter"",""1"",""1224""
""blur"",""37"",""405847""
""focus"",""37"",""405849""
","""event"",""trial"",""time""
""blur"",""37"",""405847""
","""event"",""trial"",""time""
""focus"",""37"",""405849""
","""event"",""trial"",""time""
""fullscreenenter"",""1"",""1224""
","
","","","-1","","","15","16218","357","&#9761;","elianto","#3366ff99","-1","-1","1","0","[]","0","0","2","","","","","","","",""
"pit-trial","41","426441","0.0-2.0-11.0-4.0","battery-v0.2","","""event"",""trial"",""time""
""fullscreenenter"",""1"",""1224""
""blur"",""37"",""405847""
""focus"",""37"",""405849""
","""event"",""trial"",""time""
""blur"",""37"",""405847""
","""event"",""trial"",""time""
""focus"",""37"",""405849""
","""event"",""trial"",""time""
""fullscreenenter"",""1"",""1224""
","
","","","392","","","15","16218","357","&#9761;","elianto","#3366ff99","-1"," ","0","0","[1243.3999999761581]","1","0","2","","","","","","","",""
"pit-trial","42","431300","0.0-2.0-11.1-0.1","battery-v0.2","","""event"",""trial"",""time""
""fullscreenenter"",""1"",""1224""
""blur"",""37"",""405847""
""focus"",""37"",""405849""
","""event"",""trial"",""time""
""blur"",""37"",""405847""
","""event"",""trial"",""time""
""focus"",""37"",""405849""
","""event"",""trial"",""time""
""fullscreenenter"",""1"",""1224""
","
","","","-1","","","15","16218","357","&#9761;","elianto","#3366ff99","-1","-1","1","+10","[]","0","0","2","","","","","","","",""
"pit-trial","43","436157","0.0-2.0-11.1-1.1","battery-v0.2","","""event"",""trial"",""time""
""fullscreenenter"",""1"",""1224""
""blur"",""37"",""405847""
""focus"",""37"",""405849""
","""event"",""trial"",""time""
""blur"",""37"",""405847""
","""event"",""trial"",""time""
""focus"",""37"",""405849""
","""event"",""trial"",""time""
""fullscreenenter"",""1"",""1224""
","
","","","-1","","","15","16218","357","&#9761;","elianto","#3366ff99","-1","-1","1","+10","[]","0","0","2","","","","","","","",""
"pit-trial","44","441013","0.0-2.0-11.1-2.1","battery-v0.2","","""event"",""trial"",""time""
""fullscreenenter"",""1"",""1224""
""blur"",""37"",""405847""
""focus"",""37"",""405849""
","""event"",""trial"",""time""
""blur"",""37"",""405847""
","""event"",""trial"",""time""
""focus"",""37"",""405849""
","""event"",""trial"",""time""
""fullscreenenter"",""1"",""1224""
","
","","","-1","","","15","16218","357","&#9761;","elianto","#3366ff99","-1","-1","1","+10","[]","0","0","2","","","","","","","",""
"pit-trial","45","445870","0.0-2.0-11.1-3.1","battery-v0.2","","""event"",""trial"",""time""
""fullscreenenter"",""1"",""1224""
""blur"",""37"",""405847""
""focus"",""37"",""405849""
","""event"",""trial"",""time""
""blur"",""37"",""405847""
","""event"",""trial"",""time""
""focus"",""37"",""405849""
","""event"",""trial"",""time""
""fullscreenenter"",""1"",""1224""
","
","","","-1","","","15","16218","357","&#9761;","elianto","#3366ff99","-1","-1","1","0","[]","0","0","2","","","","","","","",""
"pit-trial","46","450728","0.0-2.0-11.1-4.1","battery-v0.2","","""event"",""trial"",""time""
""fullscreenenter"",""1"",""1224""
""blur"",""37"",""405847""
""focus"",""37"",""405849""
","""event"",""trial"",""time""
""blur"",""37"",""405847""
","""event"",""trial"",""time""
""focus"",""37"",""405849""
","""event"",""trial"",""time""
""fullscreenenter"",""1"",""1224""
","
","","","-1","","","15","16218","357","&#9761;","elianto","#3366ff99","-1","-1","1","+10","[]","0","0","2","","","","","","","",""
"pit-trial","47","455585","0.0-2.0-11.2-0.2","battery-v0.2","","""event"",""trial"",""time""
""fullscreenenter"",""1"",""1224""
""blur"",""37"",""405847""
""focus"",""37"",""405849""
","""event"",""trial"",""time""
""blur"",""37"",""405847""
","""event"",""trial"",""time""
""focus"",""37"",""405849""
","""event"",""trial"",""time""
""fullscreenenter"",""1"",""1224""
","
","","","-1","","","15","16218","357","&#9761;","elianto","#3366ff99","-1","-1","1","+10","[]","0","0","2","","","","","","","",""
"pit-trial","48","460442","0.0-2.0-11.2-1.2","battery-v0.2","","""event"",""trial"",""time""
""fullscreenenter"",""1"",""1224""
""blur"",""37"",""405847""
""focus"",""37"",""405849""
","""event"",""trial"",""time""
""blur"",""37"",""405847""
","""event"",""trial"",""time""
""focus"",""37"",""405849""
","""event"",""trial"",""time""
""fullscreenenter"",""1"",""1224""
","
","","","-1","","","15","16218","357","&#9761;","elianto","#3366ff99","-1","-1","1","+10","[]","0","0","2","","","","","","","",""
"pit-trial","49","465300","0.0-2.0-11.2-2.2","battery-v0.2","","""event"",""trial"",""time""
""fullscreenenter"",""1"",""1224""
""blur"",""37"",""405847""
""focus"",""37"",""405849""
","""event"",""trial"",""time""
""blur"",""37"",""405847""
","""event"",""trial"",""time""
""focus"",""37"",""405849""
","""event"",""trial"",""time""
""fullscreenenter"",""1"",""1224""
","
","","","-1","","","15","16218","357","&#9761;","elianto","#3366ff99","-1","-1","1","+10","[]","0","0","2","","","","","","","",""
"pit-trial","50","470156","0.0-2.0-11.2-3.2","battery-v0.2","","""event"",""trial"",""time""
""fullscreenenter"",""1"",""1224""
""blur"",""37"",""405847""
""focus"",""37"",""405849""
","""event"",""trial"",""time""
""blur"",""37"",""405847""
","""event"",""trial"",""time""
""focus"",""37"",""405849""
","""event"",""trial"",""time""
""fullscreenenter"",""1"",""1224""
","
","","","-1","","","15","16218","357","&#9761;","elianto","#3366ff99","-1","-1","1","0","[]","0","0","2","","","","","","","",""
"pit-trial","51","475013","0.0-2.0-11.2-4.2","battery-v0.2","","""event"",""trial"",""time""
""fullscreenenter"",""1"",""1224""
""blur"",""37"",""405847""
""focus"",""37"",""405849""
","""event"",""trial"",""time""
""blur"",""37"",""405847""
","""event"",""trial"",""time""
""focus"",""37"",""405849""
","""event"",""trial"",""time""
""fullscreenenter"",""1"",""1224""
","
","","","-1","","","15","16218","357","&#9761;","elianto","#3366ff99","-1","-1","1","+10","[]","0","0","2","","","","","","","",""
"pit-trial","52","479872","0.0-2.0-11.3-0.3","battery-v0.2","","""event"",""trial"",""time""
""fullscreenenter"",""1"",""1224""
""blur"",""37"",""405847""
""focus"",""37"",""405849""
","""event"",""trial"",""time""
""blur"",""37"",""405847""
","""event"",""trial"",""time""
""focus"",""37"",""405849""
","""event"",""trial"",""time""
""fullscreenenter"",""1"",""1224""
","
","","","-1","","","15","16218","357","&#9761;","elianto","#3366ff99","-1","-1","1","+10","[]","0","0","2","","","","","","","",""
"pit-trial","53","484729","0.0-2.0-11.3-1.3","battery-v0.2","","""event"",""trial"",""time""
""fullscreenenter"",""1"",""1224""
""blur"",""37"",""405847""
""focus"",""37"",""405849""
","""event"",""trial"",""time""
""blur"",""37"",""405847""
","""event"",""trial"",""time""
""focus"",""37"",""405849""
","""event"",""trial"",""time""
""fullscreenenter"",""1"",""1224""
","
","","","-1","","","15","16218","357","&#9761;","elianto","#3366ff99","-1","-1","1","+10","[]","0","0","2","","","","","","","",""
"pit-trial","54","489587","0.0-2.0-11.3-2.3","battery-v0.2","","""event"",""trial"",""time""
""fullscreenenter"",""1"",""1224""
""blur"",""37"",""405847""
""focus"",""37"",""405849""
","""event"",""trial"",""time""
""blur"",""37"",""405847""
","""event"",""trial"",""time""
""focus"",""37"",""405849""
","""event"",""trial"",""time""
""fullscreenenter"",""1"",""1224""
","
","","","-1","","","15","16218","357","&#9761;","elianto","#3366ff99","-1","-1","1","+10","[]","0","0","2","","","","","","","",""
"pit-trial","55","494443","0.0-2.0-11.3-3.3","battery-v0.2","","""event"",""trial"",""time""
""fullscreenenter"",""1"",""1224""
""blur"",""37"",""405847""
""focus"",""37"",""405849""
","""event"",""trial"",""time""
""blur"",""37"",""405847""
","""event"",""trial"",""time""
""focus"",""37"",""405849""
","""event"",""trial"",""time""
""fullscreenenter"",""1"",""1224""
","
","","","-1","","","15","16218","357","&#9761;","elianto","#3366ff99","-1","-1","1","0","[]","0","0","2","","","","","","","",""
"pit-trial","56","499304","0.0-2.0-11.3-4.3","battery-v0.2","","""event"",""trial"",""time""
""fullscreenenter"",""1"",""1224""
""blur"",""37"",""405847""
""focus"",""37"",""405849""
","""event"",""trial"",""time""
""blur"",""37"",""405847""
","""event"",""trial"",""time""
""focus"",""37"",""405849""
","""event"",""trial"",""time""
""fullscreenenter"",""1"",""1224""
","
","","","-1","","","15","16218","357","&#9761;","elianto","#3366ff99","-1","-1","1","+10","[]","0","0","2","","","","","","","",""
"call-function","57","499308","0.0-2.0-12.0","battery-v0.2","","""event"",""trial"",""time""
""fullscreenenter"",""1"",""1224""
""blur"",""37"",""405847""
""focus"",""37"",""405849""
","""event"",""trial"",""time""
""blur"",""37"",""405847""
","""event"",""trial"",""time""
""focus"",""37"",""405849""
","""event"",""trial"",""time""
""fullscreenenter"",""1"",""1224""
","
","","","","","","","","","","","","","","","","","","","","","","","","","","",""
"pit-instructions","58","534475","0.0-2.0-13.0","battery-v0.2","","""event"",""trial"",""time""
""fullscreenenter"",""1"",""1224""
""blur"",""37"",""405847""
""focus"",""37"",""405849""
","""event"",""trial"",""time""
""blur"",""37"",""405847""
","""event"",""trial"",""time""
""focus"",""37"",""405849""
","""event"",""trial"",""time""
""fullscreenenter"",""1"",""1224""
","
","","[{""page_index"":0,""viewing_time"":4519.700000047684},{""page_index"":1,""viewing_time"":9239},{""page_index"":2,""viewing_time"":5169.899999976158},{""page_index"":3,""viewing_time"":10538.200000047684},{""page_index"":4,""viewing_time"":5697.199999928474}]","35164.800000071526","","","","","","","","","","","","","","","","","","","","","","","",""
"pit-trial","59","538037","0.0-2.0-14.0-0.0","battery-v0.2","","""event"",""trial"",""time""
""fullscreenenter"",""1"",""1224""
""blur"",""37"",""405847""
""focus"",""37"",""405849""
","""event"",""trial"",""time""
""blur"",""37"",""405847""
","""event"",""trial"",""time""
""focus"",""37"",""405849""
","""event"",""trial"",""time""
""fullscreenenter"",""1"",""1224""
","
","","","707.5","","","15","16218","357","&#9826;","elianto","#f73b6a7A","-1"," ","0","-10","[1557.6000000238419]","1","0","3","","","","","","","",""
"pit-trial","60","542892","0.0-2.0-14.0-1.0","battery-v0.2","","""event"",""trial"",""time""
""fullscreenenter"",""1"",""1224""
""blur"",""37"",""405847""
""focus"",""37"",""405849""
","""event"",""trial"",""time""
""blur"",""37"",""405847""
","""event"",""trial"",""time""
""focus"",""37"",""405849""
","""event"",""trial"",""time""
""fullscreenenter"",""1"",""1224""
","
","","","-1","","","15","16218","357","&#9826;","elianto","#f73b6a7A","-1","-1","1","0","[]","0","0","3","","","","","","","",""
"pit-trial","61","547746","0.0-2.0-14.0-2.0","battery-v0.2","","""event"",""trial"",""time""
""fullscreenenter"",""1"",""1224""
""blur"",""37"",""405847""
""focus"",""37"",""405849""
","""event"",""trial"",""time""
""blur"",""37"",""405847""
","""event"",""trial"",""time""
""focus"",""37"",""405849""
","""event"",""trial"",""time""
""fullscreenenter"",""1"",""1224""
","
","","","-1","","","15","16218","357","&#9826;","elianto","#f73b6a7A","-1","-1","1","0","[]","0","0","3","","","","","","","",""
"pit-trial","62","552600","0.0-2.0-14.0-3.0","battery-v0.2","","""event"",""trial"",""time""
""fullscreenenter"",""1"",""1224""
""blur"",""37"",""405847""
""focus"",""37"",""405849""
","""event"",""trial"",""time""
""blur"",""37"",""405847""
","""event"",""trial"",""time""
""focus"",""37"",""405849""
","""event"",""trial"",""time""
""fullscreenenter"",""1"",""1224""
","
","","","-1","","","15","16218","357","&#9826;","elianto","#f73b6a7A","-1","-1","1","-10","[]","0","0","3","","","","","","","",""
"pit-trial","63","557455","0.0-2.0-14.0-4.0","battery-v0.2","","""event"",""trial"",""time""
""fullscreenenter"",""1"",""1224""
""blur"",""37"",""405847""
""focus"",""37"",""405849""
","""event"",""trial"",""time""
""blur"",""37"",""405847""
","""event"",""trial"",""time""
""focus"",""37"",""405849""
","""event"",""trial"",""time""
""fullscreenenter"",""1"",""1224""
","
","","","-1","","","15","16218","357","&#9826;","elianto","#f73b6a7A","-1","-1","1","0","[]","0","0","3","","","","","","","",""
"pit-trial","64","562312","0.0-2.0-14.1-0.1","battery-v0.2","","""event"",""trial"",""time""
""fullscreenenter"",""1"",""1224""
""blur"",""37"",""405847""
""focus"",""37"",""405849""
","""event"",""trial"",""time""
""blur"",""37"",""405847""
","""event"",""trial"",""time""
""focus"",""37"",""405849""
","""event"",""trial"",""time""
""fullscreenenter"",""1"",""1224""
","
","","","-1","","","15","16218","357","&#9826;","elianto","#f73b6a7A","-1","-1","1","0","[]","0","0","3","","","","","","","",""
"pit-trial","65","567166","0.0-2.0-14.1-1.1","battery-v0.2","","""event"",""trial"",""time""
""fullscreenenter"",""1"",""1224""
""blur"",""37"",""405847""
""focus"",""37"",""405849""
","""event"",""trial"",""time""
""blur"",""37"",""405847""
","""event"",""trial"",""time""
""focus"",""37"",""405849""
","""event"",""trial"",""time""
""fullscreenenter"",""1"",""1224""
","
","","","-1","","","15","16218","357","&#9826;","elianto","#f73b6a7A","-1","-1","1","0","[]","0","0","3","","","","","","","",""
"pit-trial","66","572022","0.0-2.0-14.1-2.1","battery-v0.2","","""event"",""trial"",""time""
""fullscreenenter"",""1"",""1224""
""blur"",""37"",""405847""
""focus"",""37"",""405849""
","""event"",""trial"",""time""
""blur"",""37"",""405847""
","""event"",""trial"",""time""
""focus"",""37"",""405849""
","""event"",""trial"",""time""
""fullscreenenter"",""1"",""1224""
","
","","","-1","","","15","16218","357","&#9826;","elianto","#f73b6a7A","-1","-1","1","0","[]","0","0","3","","","","","","","",""
"pit-trial","67","576877","0.0-2.0-14.1-3.1","battery-v0.2","","""event"",""trial"",""time""
""fullscreenenter"",""1"",""1224""
""blur"",""37"",""405847""
""focus"",""37"",""405849""
","""event"",""trial"",""time""
""blur"",""37"",""405847""
","""event"",""trial"",""time""
""focus"",""37"",""405849""
","""event"",""trial"",""time""
""fullscreenenter"",""1"",""1224""
","
","","","-1","","","15","16218","357","&#9826;","elianto","#f73b6a7A","-1","-1","1","-10","[]","0","0","3","","","","","","","",""
"pit-trial","68","581731","0.0-2.0-14.1-4.1","battery-v0.2","","""event"",""trial"",""time""
""fullscreenenter"",""1"",""1224""
""blur"",""37"",""405847""
""focus"",""37"",""405849""
","""event"",""trial"",""time""
""blur"",""37"",""405847""
","""event"",""trial"",""time""
""focus"",""37"",""405849""
","""event"",""trial"",""time""
""fullscreenenter"",""1"",""1224""
","
","","","-1","","","15","16218","357","&#9826;","elianto","#f73b6a7A","-1","-1","1","0","[]","0","0","3","","","","","","","",""
"pit-trial","69","586587","0.0-2.0-14.2-0.2","battery-v0.2","","""event"",""trial"",""time""
""fullscreenenter"",""1"",""1224""
""blur"",""37"",""405847""
""focus"",""37"",""405849""
","""event"",""trial"",""time""
""blur"",""37"",""405847""
","""event"",""trial"",""time""
""focus"",""37"",""405849""
","""event"",""trial"",""time""
""fullscreenenter"",""1"",""1224""
","
","","","-1","","","15","16218","357","&#9826;","elianto","#f73b6a7A","-1","-1","1","0","[]","0","0","3","","","","","","","",""
"pit-trial","70","591442","0.0-2.0-14.2-1.2","battery-v0.2","","""event"",""trial"",""time""
""fullscreenenter"",""1"",""1224""
""blur"",""37"",""405847""
""focus"",""37"",""405849""
","""event"",""trial"",""time""
""blur"",""37"",""405847""
","""event"",""trial"",""time""
""focus"",""37"",""405849""
","""event"",""trial"",""time""
""fullscreenenter"",""1"",""1224""
","
","","","-1","","","15","16218","357","&#9826;","elianto","#f73b6a7A","-1","-1","1","0","[]","0","0","3","","","","","","","",""
"pit-trial","71","596297","0.0-2.0-14.2-2.2","battery-v0.2","","""event"",""trial"",""time""
""fullscreenenter"",""1"",""1224""
""blur"",""37"",""405847""
""focus"",""37"",""405849""
","""event"",""trial"",""time""
""blur"",""37"",""405847""
","""event"",""trial"",""time""
""focus"",""37"",""405849""
","""event"",""trial"",""time""
""fullscreenenter"",""1"",""1224""
","
","","","-1","","","15","16218","357","&#9826;","elianto","#f73b6a7A","-1","-1","1","0","[]","0","0","3","","","","","","","",""
"pit-trial","72","601153","0.0-2.0-14.2-3.2","battery-v0.2","","""event"",""trial"",""time""
""fullscreenenter"",""1"",""1224""
""blur"",""37"",""405847""
""focus"",""37"",""405849""
","""event"",""trial"",""time""
""blur"",""37"",""405847""
","""event"",""trial"",""time""
""focus"",""37"",""405849""
","""event"",""trial"",""time""
""fullscreenenter"",""1"",""1224""
","
","","","-1","","","15","16218","357","&#9826;","elianto","#f73b6a7A","-1","-1","1","-10","[]","0","0","3","","","","","","","",""
"pit-trial","73","606007","0.0-2.0-14.2-4.2","battery-v0.2","","""event"",""trial"",""time""
""fullscreenenter"",""1"",""1224""
""blur"",""37"",""405847""
""focus"",""37"",""405849""
","""event"",""trial"",""time""
""blur"",""37"",""405847""
","""event"",""trial"",""time""
""focus"",""37"",""405849""
","""event"",""trial"",""time""
""fullscreenenter"",""1"",""1224""
","
","","","-1","","","15","16218","357","&#9826;","elianto","#f73b6a7A","-1","-1","1","0","[]","0","0","3","","","","","","","",""
"pit-trial","74","610863","0.0-2.0-14.3-0.3","battery-v0.2","","""event"",""trial"",""time""
""fullscreenenter"",""1"",""1224""
""blur"",""37"",""405847""
""focus"",""37"",""405849""
","""event"",""trial"",""time""
""blur"",""37"",""405847""
","""event"",""trial"",""time""
""focus"",""37"",""405849""
","""event"",""trial"",""time""
""fullscreenenter"",""1"",""1224""
","
","","","-1","","","15","16218","357","&#9826;","elianto","#f73b6a7A","-1","-1","1","0","[]","0","0","3","","","","","","","",""
"pit-trial","75","615719","0.0-2.0-14.3-1.3","battery-v0.2","","""event"",""trial"",""time""
""fullscreenenter"",""1"",""1224""
""blur"",""37"",""405847""
""focus"",""37"",""405849""
","""event"",""trial"",""time""
""blur"",""37"",""405847""
","""event"",""trial"",""time""
""focus"",""37"",""405849""
","""event"",""trial"",""time""
""fullscreenenter"",""1"",""1224""
","
","","","-1","","","15","16218","357","&#9826;","elianto","#f73b6a7A","-1","-1","1","0","[]","0","0","3","","","","","","","",""
"pit-trial","76","620574","0.0-2.0-14.3-2.3","battery-v0.2","","""event"",""trial"",""time""
""fullscreenenter"",""1"",""1224""
""blur"",""37"",""405847""
""focus"",""37"",""405849""
","""event"",""trial"",""time""
""blur"",""37"",""405847""
","""event"",""trial"",""time""
""focus"",""37"",""405849""
","""event"",""trial"",""time""
""fullscreenenter"",""1"",""1224""
","
","","","-1","","","15","16218","357","&#9826;","elianto","#f73b6a7A","-1","-1","1","0","[]","0","0","3","","","","","","","",""
"pit-trial","77","625429","0.0-2.0-14.3-3.3","battery-v0.2","","""event"",""trial"",""time""
""fullscreenenter"",""1"",""1224""
""blur"",""37"",""405847""
""focus"",""37"",""405849""
","""event"",""trial"",""time""
""blur"",""37"",""405847""
","""event"",""trial"",""time""
""focus"",""37"",""405849""
","""event"",""trial"",""time""
""fullscreenenter"",""1"",""1224""
","
","","","-1","","","15","16218","357","&#9826;","elianto","#f73b6a7A","-1","-1","1","-10","[]","0","0","3","","","","","","","",""
"pit-trial","78","630284","0.0-2.0-14.3-4.3","battery-v0.2","","""event"",""trial"",""time""
""fullscreenenter"",""1"",""1224""
""blur"",""37"",""405847""
""focus"",""37"",""405849""
","""event"",""trial"",""time""
""blur"",""37"",""405847""
","""event"",""trial"",""time""
""focus"",""37"",""405849""
","""event"",""trial"",""time""
""fullscreenenter"",""1"",""1224""
","
","","","-1","","","15","16218","357","&#9826;","elianto","#f73b6a7A","-1","-1","1","0","[]","0","0","3","","","","","","","",""
"call-function","79","630287","0.0-2.0-15.0","battery-v0.2","","""event"",""trial"",""time""
""fullscreenenter"",""1"",""1224""
""blur"",""37"",""405847""
""focus"",""37"",""405849""
","""event"",""trial"",""time""
""blur"",""37"",""405847""
","""event"",""trial"",""time""
""focus"",""37"",""405849""
","""event"",""trial"",""time""
""fullscreenenter"",""1"",""1224""
","
","","","","","","","","","","","","","","","","","","","","","","","","","","",""
"pit-instructions","80","661028","0.0-2.0-16.0","battery-v0.2","","""event"",""trial"",""time""
""fullscreenenter"",""1"",""1224""
""blur"",""37"",""405847""
""focus"",""37"",""405849""
","""event"",""trial"",""time""
""blur"",""37"",""405847""
","""event"",""trial"",""time""
""focus"",""37"",""405849""
","""event"",""trial"",""time""
""fullscreenenter"",""1"",""1224""
","
","","[{""page_index"":0,""viewing_time"":9028.699999928474},{""page_index"":1,""viewing_time"":10521},{""page_index"":2,""viewing_time"":4681.400000095367},{""page_index"":3,""viewing_time"":6506.299999952316}]","30739","","","","","","","","","","","","","","","","","","","","","","","",""
"pit-trial","81","664432","0.0-2.0-17.0-0.0","battery-v0.2","","""event"",""trial"",""time""
""fullscreenenter"",""1"",""1224""
""blur"",""37"",""405847""
""focus"",""37"",""405849""
","""event"",""trial"",""time""
""blur"",""37"",""405847""
","""event"",""trial"",""time""
""focus"",""37"",""405849""
","""event"",""trial"",""time""
""fullscreenenter"",""1"",""1224""
","
","","","546.1999999284744","","","15","16218","357","&#9789;","elianto","#f73b6a7A"," "," ","1","0","[1398.0999999046326]","1","0","4","","","","","","","",""
"pit-trial","82","667383","0.0-2.0-17.0-1.0","battery-v0.2","","""event"",""trial"",""time""
""fullscreenenter"",""1"",""1224""
""blur"",""37"",""405847""
""focus"",""37"",""405849""
","""event"",""trial"",""time""
""blur"",""37"",""405847""
","""event"",""trial"",""time""
""focus"",""37"",""405849""
","""event"",""trial"",""time""
""fullscreenenter"",""1"",""1224""
","
","","","95.90000009536743","","","15","16218","357","&#9789;","elianto","#f73b6a7A"," "," ","1","0","[946]","1","0","4","","","","","","","",""
"pit-trial","83","670368","0.0-2.0-17.0-2.0","battery-v0.2","","""event"",""trial"",""time""
""fullscreenenter"",""1"",""1224""
""blur"",""37"",""405847""
""focus"",""37"",""405849""
","""event"",""trial"",""time""
""blur"",""37"",""405847""
","""event"",""trial"",""time""
""focus"",""37"",""405849""
","""event"",""trial"",""time""
""fullscreenenter"",""1"",""1224""
","
","","","129.59999990463257","","","15","16218","357","&#9789;","elianto","#f73b6a7A"," "," ","1","0","[979.7999999523163]","1","0","4","","","","","","","",""
"pit-trial","84","673554","0.0-2.0-17.0-3.0","battery-v0.2","","""event"",""trial"",""time""
""fullscreenenter"",""1"",""1224""
""blur"",""37"",""405847""
""focus"",""37"",""405849""
","""event"",""trial"",""time""
""blur"",""37"",""405847""
","""event"",""trial"",""time""
""focus"",""37"",""405849""
","""event"",""trial"",""time""
""fullscreenenter"",""1"",""1224""
","
","","","330.5","","","15","16218","357","&#9789;","elianto","#f73b6a7A"," "," ","1","-10","[1180.5]","1","0","4","","","","","","","",""
"pit-trial","85","676425","0.0-2.0-17.0-4.0","battery-v0.2","","""event"",""trial"",""time""
""fullscreenenter"",""1"",""1224""
""blur"",""37"",""405847""
""focus"",""37"",""405849""
","""event"",""trial"",""time""
""blur"",""37"",""405847""
","""event"",""trial"",""time""
""focus"",""37"",""405849""
","""event"",""trial"",""time""
""fullscreenenter"",""1"",""1224""
","
","","","15.199999928474426","","","15","16218","357","&#9789;","elianto","#f73b6a7A"," "," ","1","0","[865.3000000715256]","1","0","4","","","","","","","",""
"pit-trial","86","679355","0.0-2.0-17.1-0.1","battery-v0.2","","""event"",""trial"",""time""
""fullscreenenter"",""1"",""1224""
""blur"",""37"",""405847""
""focus"",""37"",""405849""
","""event"",""trial"",""time""
""blur"",""37"",""405847""
","""event"",""trial"",""time""
""focus"",""37"",""405849""
","""event"",""trial"",""time""
""fullscreenenter"",""1"",""1224""
","
","","","69.30000007152557","","","15","16218","357","&#9789;","elianto","#f73b6a7A"," "," ","1","0","[923.5]","1","0","4","","","","","","","",""
"pit-trial","87","683165","0.0-2.0-17.1-1.1","battery-v0.2","","""event"",""trial"",""time""
""fullscreenenter"",""1"",""1224""
""blur"",""37"",""405847""
""focus"",""37"",""405849""
","""event"",""trial"",""time""
""blur"",""37"",""405847""
","""event"",""trial"",""time""
""focus"",""37"",""405849""
","""event"",""trial"",""time""
""fullscreenenter"",""1"",""1224""
","
","","","953.5","","","15","16218","357","&#9789;","elianto","#f73b6a7A"," "," ","1","0","[1803.6000000238419]","1","0","4","","","","","","","",""
"pit-trial","88","686359","0.0-2.0-17.1-2.1","battery-v0.2","","""event"",""trial"",""time""
""fullscreenenter"",""1"",""1224""
""blur"",""37"",""405847""
""focus"",""37"",""405849""
","""event"",""trial"",""time""
""blur"",""37"",""405847""
","""event"",""trial"",""time""
""focus"",""37"",""405849""
","""event"",""trial"",""time""
""fullscreenenter"",""1"",""1224""
","
","","","338","","","15","16218","357","&#9789;","elianto","#f73b6a7A"," "," ","1","0","[1188.1000000238419]","1","0","4","","","","","","","",""
"pit-trial","89","689889","0.0-2.0-17.1-3.1","battery-v0.2","","""event"",""trial"",""time""
""fullscreenenter"",""1"",""1224""
""blur"",""37"",""405847""
""focus"",""37"",""405849""
","""event"",""trial"",""time""
""blur"",""37"",""405847""
","""event"",""trial"",""time""
""focus"",""37"",""405849""
","""event"",""trial"",""time""
""fullscreenenter"",""1"",""1224""
","
","","","673.7000000476837","","","15","16218","357","&#9789;","elianto","#f73b6a7A"," "," ","1","-10","[1523.8999999761581]","1","0","4","","","","","","","",""
"pit-trial","90","692864","0.0-2.0-17.1-4.1","battery-v0.2","","""event"",""trial"",""time""
""fullscreenenter"",""1"",""1224""
""blur"",""37"",""405847""
""focus"",""37"",""405849""
","""event"",""trial"",""time""
""blur"",""37"",""405847""
","""event"",""trial"",""time""
""focus"",""37"",""405849""
","""event"",""trial"",""time""
""fullscreenenter"",""1"",""1224""
","
","","","118.79999995231628","","","15","16218","357","&#9789;","elianto","#f73b6a7A"," "," ","1","0","[968.8000000715256]","1","0","4","","","","","","","",""
"pit-trial","91","695941","0.0-2.0-17.2-0.2","battery-v0.2","","""event"",""trial"",""time""
""fullscreenenter"",""1"",""1224""
""blur"",""37"",""405847""
""focus"",""37"",""405849""
","""event"",""trial"",""time""
""blur"",""37"",""405847""
","""event"",""trial"",""time""
""focus"",""37"",""405849""
","""event"",""trial"",""time""
""fullscreenenter"",""1"",""1224""
","
","","","219.09999990463257","","","15","16218","357","&#9789;","elianto","#f73b6a7A"," "," ","1","0","[621.3999999761581,1070.6000000238419]","2","0","4","","","","","","","",""
"pit-trial","92","698861","0.0-2.0-17.2-1.2","battery-v0.2","","""event"",""trial"",""time""
""fullscreenenter"",""1"",""1224""
""blur"",""37"",""405847""
""focus"",""37"",""405849""
","""event"",""trial"",""time""
""blur"",""37"",""405847""
","""event"",""trial"",""time""
""focus"",""37"",""405849""
","""event"",""trial"",""time""
""fullscreenenter"",""1"",""1224""
","
","","","61.800000071525574","","","15","16218","357","&#9789;","elianto","#f73b6a7A"," "," ","1","0","[914.3000000715256]","1","0","4","","","","","","","",""
"pit-trial","93","701933","0.0-2.0-17.2-2.2","battery-v0.2","","""event"",""trial"",""time""
""fullscreenenter"",""1"",""1224""
""blur"",""37"",""405847""
""focus"",""37"",""405849""
","""event"",""trial"",""time""
""blur"",""37"",""405847""
","""event"",""trial"",""time""
""focus"",""37"",""405849""
","""event"",""trial"",""time""
""fullscreenenter"",""1"",""1224""
","
","","","216","","","15","16218","357","&#9789;","elianto","#f73b6a7A"," "," ","1","0","[735.2999999523163,1066.1000000238419]","2","0","4","","","","","","","",""
"pit-trial","94","705034","0.0-2.0-17.2-3.2","battery-v0.2","","""event"",""trial"",""time""
""fullscreenenter"",""1"",""1224""
""blur"",""37"",""405847""
""focus"",""37"",""405849""
","""event"",""trial"",""time""
""blur"",""37"",""405847""
","""event"",""trial"",""time""
""focus"",""37"",""405849""
","""event"",""trial"",""time""
""fullscreenenter"",""1"",""1224""
","
","","","239.5","","","15","16218","357","&#9789;","elianto","#f73b6a7A"," "," ","1","-10","[708.2999999523163,1094.3999999761581]","2","0","4","","","","","","","",""
"pit-trial","95","708192","0.0-2.0-17.2-4.2","battery-v0.2","","""event"",""trial"",""time""
""fullscreenenter"",""1"",""1224""
""blur"",""37"",""405847""
""focus"",""37"",""405849""
","""event"",""trial"",""time""
""blur"",""37"",""405847""
","""event"",""trial"",""time""
""focus"",""37"",""405849""
","""event"",""trial"",""time""
""fullscreenenter"",""1"",""1224""
","
","","","302.10000002384186","","","15","16218","357","&#9789;","elianto","#f73b6a7A"," "," ","1","0","[1152.2000000476837]","1","0","4","","","","","","","",""
"pit-trial","96","711058","0.0-2.0-17.3-0.3","battery-v0.2","","""event"",""trial"",""time""
""fullscreenenter"",""1"",""1224""
""blur"",""37"",""405847""
""focus"",""37"",""405849""
","""event"",""trial"",""time""
""blur"",""37"",""405847""
","""event"",""trial"",""time""
""focus"",""37"",""405849""
","""event"",""trial"",""time""
""fullscreenenter"",""1"",""1224""
","
","","","8.700000047683716","","","15","16218","357","&#9789;","elianto","#f73b6a7A"," "," ","1","0","[859.2000000476837]","1","0","4","","","","","","","",""
"pit-trial","97","714213","0.0-2.0-17.3-1.3","battery-v0.2","","""event"",""trial"",""time""
""fullscreenenter"",""1"",""1224""
""blur"",""37"",""405847""
""focus"",""37"",""405849""
","""event"",""trial"",""time""
""blur"",""37"",""405847""
","""event"",""trial"",""time""
""focus"",""37"",""405849""
","""event"",""trial"",""time""
""fullscreenenter"",""1"",""1224""
","
","","","295.09999990463257","","","15","16218","357","&#9789;","elianto","#f73b6a7A"," "," ","1","0","[1149,1392.6999999284744]","2","0","4","","","","","","","",""
"pit-trial","98","717277","0.0-2.0-17.3-2.3","battery-v0.2","","""event"",""trial"",""time""
""fullscreenenter"",""1"",""1224""
""blur"",""37"",""405847""
""focus"",""37"",""405849""
","""event"",""trial"",""time""
""blur"",""37"",""405847""
","""event"",""trial"",""time""
""focus"",""37"",""405849""
","""event"",""trial"",""time""
""fullscreenenter"",""1"",""1224""
","
","","","206.89999997615814","","","15","16218","357","&#9789;","elianto","#f73b6a7A"," "," ","1","0","[1056.8000000715256]","1","0","4","","","","","","","",""
"pit-trial","99","720264","0.0-2.0-17.3-3.3","battery-v0.2","","""event"",""trial"",""time""
""fullscreenenter"",""1"",""1224""
""blur"",""37"",""405847""
""focus"",""37"",""405849""
","""event"",""trial"",""time""
""blur"",""37"",""405847""
","""event"",""trial"",""time""
""focus"",""37"",""405849""
","""event"",""trial"",""time""
""fullscreenenter"",""1"",""1224""
","
","","","130.89999997615814","","","15","16218","357","&#9789;","elianto","#f73b6a7A"," "," ","1","-10","[981.1000000238419,2954.2000000476837]","2","0","4","","","","","","","",""
"pit-trial","100","723338","0.0-2.0-17.3-4.3","battery-v0.2","","""event"",""trial"",""time""
""fullscreenenter"",""1"",""1224""
""blur"",""37"",""405847""
""focus"",""37"",""405849""
","""event"",""trial"",""time""
""blur"",""37"",""405847""
","""event"",""trial"",""time""
""focus"",""37"",""405849""
","""event"",""trial"",""time""
""fullscreenenter"",""1"",""1224""
","
","","","217.79999995231628","","","15","16218","357","&#9789;","elianto","#f73b6a7A"," "," ","1","0","[614.7999999523163,1067.8999999761581]","2","0","4","","","","","","","",""
"call-function","101","723341","0.0-2.0-18.0","battery-v0.2","","""event"",""trial"",""time""
""fullscreenenter"",""1"",""1224""
""blur"",""37"",""405847""
""focus"",""37"",""405849""
","""event"",""trial"",""time""
""blur"",""37"",""405847""
","""event"",""trial"",""time""
""focus"",""37"",""405849""
","""event"",""trial"",""time""
""fullscreenenter"",""1"",""1224""
","
","","","","","","","","","","","","","","","","","","","","","","","","","","",""
"pit-instructions","102","792798","0.0-2.0-19.0","battery-v0.2","","""event"",""trial"",""time""
""fullscreenenter"",""1"",""1224""
""blur"",""37"",""405847""
""focus"",""37"",""405849""
","""event"",""trial"",""time""
""blur"",""37"",""405847""
","""event"",""trial"",""time""
""focus"",""37"",""405849""
","""event"",""trial"",""time""
""fullscreenenter"",""1"",""1224""
","
","","[{""page_index"":0,""viewing_time"":6420},{""page_index"":1,""viewing_time"":6121.400000095367},{""page_index"":2,""viewing_time"":13351},{""page_index"":3,""viewing_time"":6124.899999976158},{""page_index"":4,""viewing_time"":6215.699999928474},{""page_index"":5,""viewing_time"":9057.5},{""page_index"":6,""viewing_time"":10602},{""page_index"":7,""viewing_time"":7107},{""page_index"":8,""viewing_time"":4453}]","69454.40000009537","","","","","","","","","","","","","","","","","","","","","","","",""
"pit-comprehension","103","797519","0.0-2.0-20.0-0.0","battery-v0.2","","""event"",""trial"",""time""
""fullscreenenter"",""1"",""1224""
""blur"",""37"",""405847""
""focus"",""37"",""405849""
","""event"",""trial"",""time""
""blur"",""37"",""405847""
","""event"",""trial"",""time""
""focus"",""37"",""405849""
","""event"",""trial"",""time""
""fullscreenenter"",""1"",""1224""
","
","","","4706.5","[""SPACE""]","0","15","16218","357","","","","","","","","","","","","","","","","","","",""
"pit-instructions","104","801518","0.0-2.0-20.0-1.0","battery-v0.2","","""event"",""trial"",""time""
""fullscreenenter"",""1"",""1224""
""blur"",""37"",""405847""
""focus"",""37"",""405849""
","""event"",""trial"",""time""
""blur"",""37"",""405847""
","""event"",""trial"",""time""
""focus"",""37"",""405849""
","""event"",""trial"",""time""
""fullscreenenter"",""1"",""1224""
","
","","[{""page_index"":0,""viewing_time"":3949.399999976158}]","3951.5","","","","","","","","","","","","","","","","","","","","","","","",""
"pit-comprehension","105","806956","0.0-2.0-21.0-0.0","battery-v0.2","","""event"",""trial"",""time""
""fullscreenenter"",""1"",""1224""
""blur"",""37"",""405847""
""focus"",""37"",""405849""
","""event"",""trial"",""time""
""blur"",""37"",""405847""
","""event"",""trial"",""time""
""focus"",""37"",""405849""
","""event"",""trial"",""time""
""fullscreenenter"",""1"",""1224""
","
","","","5422.199999928474","[""10""]","0","15","16218","357","","","","","","","","","","","","","","","","","","",""
"pit-instructions","106","808902","0.0-2.0-21.0-1.0","battery-v0.2","","""event"",""trial"",""time""
""fullscreenenter"",""1"",""1224""
""blur"",""37"",""405847""
""focus"",""37"",""405849""
","""event"",""trial"",""time""
""blur"",""37"",""405847""
","""event"",""trial"",""time""
""focus"",""37"",""405849""
","""event"",""trial"",""time""
""fullscreenenter"",""1"",""1224""
","
","","[{""page_index"":0,""viewing_time"":1900.0999999046326}]","1902.1999999284744","","","","","","","","","","","","","","","","","","","","","","","",""
"pit-comprehension","107","815390","0.0-2.0-22.0-0.0","battery-v0.2","","""event"",""trial"",""time""
""fullscreenenter"",""1"",""1224""
""blur"",""37"",""405847""
""focus"",""37"",""405849""
","""event"",""trial"",""time""
""blur"",""37"",""405847""
","""event"",""trial"",""time""
""focus"",""37"",""405849""
","""event"",""trial"",""time""
""fullscreenenter"",""1"",""1224""
","
","","","6475.799999952316","[""-10""]","1","15","16218","357","","","","","","","","","","","","","","","","","","",""
"pit-instructions","108","820512","0.0-2.0-22.0-1.0","battery-v0.2","","""event"",""trial"",""time""
""fullscreenenter"",""1"",""1224""
""blur"",""37"",""405847""
""focus"",""37"",""405849""
","""event"",""trial"",""time""
""blur"",""37"",""405847""
","""event"",""trial"",""time""
""focus"",""37"",""405849""
","""event"",""trial"",""time""
""fullscreenenter"",""1"",""1224""
","
","","[{""page_index"":0,""viewing_time"":5077.600000023842}]","5078.800000071526","","","","","","","","","","","","","","","","","","","","","","","",""
"pit-instructions","109","823197","0.0-2.0-22.0-2.0-0.0","battery-v0.2","","""event"",""trial"",""time""
""fullscreenenter"",""1"",""1224""
""blur"",""37"",""405847""
""focus"",""37"",""405849""
","""event"",""trial"",""time""
""blur"",""37"",""405847""
","""event"",""trial"",""time""
""focus"",""37"",""405849""
","""event"",""trial"",""time""
""fullscreenenter"",""1"",""1224""
","
","","[{""page_index"":0,""viewing_time"":2679.2000000476837}]","2679.7000000476837","","","","","","","","","","","","","","","","","","","","","","","",""
"pit-comprehension","110","829610","0.0-2.0-22.1-0.1","battery-v0.2","","""event"",""trial"",""time""
""fullscreenenter"",""1"",""1224""
""blur"",""37"",""405847""
""focus"",""37"",""405849""
","""event"",""trial"",""time""
""blur"",""37"",""405847""
","""event"",""trial"",""time""
""focus"",""37"",""405849""
","""event"",""trial"",""time""
""fullscreenenter"",""1"",""1224""
","
","","","6407.799999952316","[""0""]","0","15","16218","357","","","","","","","","","","","","","","","","","","",""
"pit-instructions","111","831372","0.0-2.0-22.1-1.1","battery-v0.2","","""event"",""trial"",""time""
""fullscreenenter"",""1"",""1224""
""blur"",""37"",""405847""
""focus"",""37"",""405849""
","""event"",""trial"",""time""
""blur"",""37"",""405847""
","""event"",""trial"",""time""
""focus"",""37"",""405849""
","""event"",""trial"",""time""
""fullscreenenter"",""1"",""1224""
","
","","[{""page_index"":0,""viewing_time"":1719}]","1721","","","","","","","","","","","","","","","","","","","","","","","",""
"pit-comprehension","112","845487","0.0-2.0-23.0-0.0","battery-v0.2","","""event"",""trial"",""time""
""fullscreenenter"",""1"",""1224""
""blur"",""37"",""405847""
""focus"",""37"",""405849""
","""event"",""trial"",""time""
""blur"",""37"",""405847""
","""event"",""trial"",""time""
""focus"",""37"",""405849""
","""event"",""trial"",""time""
""fullscreenenter"",""1"",""1224""
","
","","","14105.799999952316","[""True""]","0","15","16218","357","","","","","","","","","","","","","","","","","","",""
"pit-instructions","113","847228","0.0-2.0-23.0-1.0","battery-v0.2","","""event"",""trial"",""time""
""fullscreenenter"",""1"",""1224""
""blur"",""37"",""405847""
""focus"",""37"",""405849""
","""event"",""trial"",""time""
""blur"",""37"",""405847""
","""event"",""trial"",""time""
""focus"",""37"",""405849""
","""event"",""trial"",""time""
""fullscreenenter"",""1"",""1224""
","
","","[{""page_index"":0,""viewing_time"":1694.6999999284744}]","1695.7999999523163","","","","","","","","","","","","","","","","","","","","","","","",""
"pit-comprehension","114","855971","0.0-2.0-24.0-0.0","battery-v0.2","","""event"",""trial"",""time""
""fullscreenenter"",""1"",""1224""
""blur"",""37"",""405847""
""focus"",""37"",""405849""
","""event"",""trial"",""time""
""blur"",""37"",""405847""
","""event"",""trial"",""time""
""focus"",""37"",""405849""
","""event"",""trial"",""time""
""fullscreenenter"",""1"",""1224""
","
","","","8731.599999904633","[""True""]","0","15","16218","357","","","","","","","","","","","","","","","","","","",""
"pit-instructions","115","859912","0.0-2.0-24.0-1.0","battery-v0.2","","""event"",""trial"",""time""
""fullscreenenter"",""1"",""1224""
""blur"",""37"",""405847""
""focus"",""37"",""405849""
","""event"",""trial"",""time""
""blur"",""37"",""405847""
","""event"",""trial"",""time""
""focus"",""37"",""405849""
","""event"",""trial"",""time""
""fullscreenenter"",""1"",""1224""
","
","","[{""page_index"":0,""viewing_time"":3890.2999999523163}]","3891.6999999284744","","","","","","","","","","","","","","","","","","","","","","","",""
"pit-comprehension","116","872529","0.0-2.0-25.0-0.0","battery-v0.2","","""event"",""trial"",""time""
""fullscreenenter"",""1"",""1224""
""blur"",""37"",""405847""
""focus"",""37"",""405849""
","""event"",""trial"",""time""
""blur"",""37"",""405847""
","""event"",""trial"",""time""
""focus"",""37"",""405849""
","""event"",""trial"",""time""
""fullscreenenter"",""1"",""1224""
","
","","","12606.5","[""True""]","0","15","16218","357","","","","","","","","","","","","","","","","","","",""
"pit-instructions","117","874088","0.0-2.0-25.0-1.0","battery-v0.2","","""event"",""trial"",""time""
""fullscreenenter"",""1"",""1224""
""blur"",""37"",""405847""
""focus"",""37"",""405849""
","""event"",""trial"",""time""
""blur"",""37"",""405847""
","""event"",""trial"",""time""
""focus"",""37"",""405849""
","""event"",""trial"",""time""
""fullscreenenter"",""1"",""1224""
","
","","[{""page_index"":0,""viewing_time"":1510.3999999761581}]","1512.2999999523163","","","","","","","","","","","","","","","","","","","","","","","",""
"pit-comprehension","118","879349","0.0-2.0-26.0-0.0","battery-v0.2","","""event"",""trial"",""time""
""fullscreenenter"",""1"",""1224""
""blur"",""37"",""405847""
""focus"",""37"",""405849""
","""event"",""trial"",""time""
""blur"",""37"",""405847""
","""event"",""trial"",""time""
""focus"",""37"",""405849""
","""event"",""trial"",""time""
""fullscreenenter"",""1"",""1224""
","
","","","5248.399999976158","[""False""]","0","15","16218","357","","","","","","","","","","","","","","","","","","",""
"pit-instructions","119","881100","0.0-2.0-26.0-1.0","battery-v0.2","","""event"",""trial"",""time""
""fullscreenenter"",""1"",""1224""
""blur"",""37"",""405847""
""focus"",""37"",""405849""
","""event"",""trial"",""time""
""blur"",""37"",""405847""
","""event"",""trial"",""time""
""focus"",""37"",""405849""
","""event"",""trial"",""time""
""fullscreenenter"",""1"",""1224""
","
","","[{""page_index"":0,""viewing_time"":1703.3999999761581}]","1704.6999999284744","","","","","","","","","","","","","","","","","","","","","","","",""
"pit-instructions","120","897363","0.0-3.0","battery-v0.2","","""event"",""trial"",""time""
""fullscreenenter"",""1"",""1224""
""blur"",""37"",""405847""
""focus"",""37"",""405849""
","""event"",""trial"",""time""
""blur"",""37"",""405847""
","""event"",""trial"",""time""
""focus"",""37"",""405849""
","""event"",""trial"",""time""
""fullscreenenter"",""1"",""1224""
","
","","[{""page_index"":0,""viewing_time"":4671.5},{""page_index"":1,""viewing_time"":5308.799999952316},{""page_index"":2,""viewing_time"":6276.200000047684}]","16258.699999928474","","","","","","","","","","","","","","","","","","","","","","","",""
"pit-trial","121","900940","0.0-4.0","battery-v0.2","","""event"",""trial"",""time""
""fullscreenenter"",""1"",""1224""
""blur"",""37"",""405847""
""focus"",""37"",""405849""
","""event"",""trial"",""time""
""blur"",""37"",""405847""
","""event"",""trial"",""time""
""focus"",""37"",""405849""
","""event"",""trial"",""time""
""fullscreenenter"",""1"",""1224""
","
","","","715.7000000476837","","","15","16218","357","&#9730;","elianto","#3366ff99"," "," ","1","+10","[1565.7000000476837]","1","1","","","16218","1","1","1","win","go","0"
"pit-trial","122","903872","0.0-5.0","battery-v0.2","","""event"",""trial"",""time""
""fullscreenenter"",""1"",""1224""
""blur"",""37"",""405847""
""focus"",""37"",""405849""
","""event"",""trial"",""time""
""blur"",""37"",""405847""
","""event"",""trial"",""time""
""focus"",""37"",""405849""
","""event"",""trial"",""time""
""fullscreenenter"",""1"",""1224""
","
","","","74.39999997615814","","","15","16218","357","&#9752;","elianto","#f73b6a7A"," "," ","1","0","[925.6000000238419]","1","1","","","16218","2","3","3","lose","go","0"
"pit-trial","123","907380","0.0-6.0","battery-v0.2","","""event"",""trial"",""time""
""fullscreenenter"",""1"",""1224""
""blur"",""37"",""405847""
""focus"",""37"",""405849""
","""event"",""trial"",""time""
""blur"",""37"",""405847""
","""event"",""trial"",""time""
""focus"",""37"",""405849""
","""event"",""trial"",""time""
""fullscreenenter"",""1"",""1224""
","
","","","651.5","","","15","16218","357","&#9733;","elianto","#3366ff99","-1"," ","0","0","[1501.6000000238419]","1","1","","","16218","3","2","2","win","no-go","0"
"pit-trial","124","910341","0.0-7.0","battery-v0.2","","""event"",""trial"",""time""
""fullscreenenter"",""1"",""1224""
""blur"",""37"",""405847""
""focus"",""37"",""405849""
","""event"",""trial"",""time""
""blur"",""37"",""405847""
","""event"",""trial"",""time""
""focus"",""37"",""405849""
","""event"",""trial"",""time""
""fullscreenenter"",""1"",""1224""
","
","","","105.19999992847443","","","15","16218","357","&#9728;","elianto","#f73b6a7A","-1"," ","0","-10","[955.3999999761581]","1","1","","","16218","4","0","4","lose","no-go","0"
"pit-trial","125","913927","0.0-8.0","battery-v0.2","","""event"",""trial"",""time""
""fullscreenenter"",""1"",""1224""
""blur"",""37"",""405847""
""focus"",""37"",""405849""
","""event"",""trial"",""time""
""blur"",""37"",""405847""
","""event"",""trial"",""time""
""focus"",""37"",""405849""
","""event"",""trial"",""time""
""fullscreenenter"",""1"",""1224""
","
","","","730","","","15","16218","357","&#9752;","elianto","#f73b6a7A"," "," ","1","-10","[1580.1000000238419]","1","1","","","16218","5","3","3","lose","go","1"
"pit-trial","126","917329","0.0-9.0","battery-v0.2","","""event"",""trial"",""time""
""fullscreenenter"",""1"",""1224""
""blur"",""37"",""405847""
""focus"",""37"",""405849""
","""event"",""trial"",""time""
""blur"",""37"",""405847""
","""event"",""trial"",""time""
""focus"",""37"",""405849""
","""event"",""trial"",""time""
""fullscreenenter"",""1"",""1224""
","
","","","542.1000000238419","","","15","16218","357","&#9733;","elianto","#3366ff99","-1"," ","0","0","[1395.6999999284744]","1","1","","","16218","6","2","2","win","no-go","0"
"pit-trial","127","920926","0.0-10.0","battery-v0.2","","""event"",""trial"",""time""
""fullscreenenter"",""1"",""1224""
""blur"",""37"",""405847""
""focus"",""37"",""405849""
","""event"",""trial"",""time""
""blur"",""37"",""405847""
","""event"",""trial"",""time""
""focus"",""37"",""405849""
","""event"",""trial"",""time""
""fullscreenenter"",""1"",""1224""
","
","","","740.2000000476837","","","15","16218","357","&#9730;","elianto","#3366ff99"," "," ","1","+10","[1590.1000000238419]","1","1","","","16218","7","1","1","win","go","0"
"pit-trial","128","925781","0.0-11.0","battery-v0.2","","""event"",""trial"",""time""
""fullscreenenter"",""1"",""1224""
""blur"",""37"",""405847""
""focus"",""37"",""405849""
","""event"",""trial"",""time""
""blur"",""37"",""405847""
","""event"",""trial"",""time""
""focus"",""37"",""405849""
","""event"",""trial"",""time""
""fullscreenenter"",""1"",""1224""
","
","","","-1","","","15","16218","357","&#9728;","elianto","#f73b6a7A","-1","-1","1","-10","[]","0","1","","","16218","8","0","4","lose","no-go","1"
"pit-trial","129","929283","0.0-12.0","battery-v0.2","","""event"",""trial"",""time""
""fullscreenenter"",""1"",""1224""
""blur"",""37"",""405847""
""focus"",""37"",""405849""
","""event"",""trial"",""time""
""blur"",""37"",""405847""
","""event"",""trial"",""time""
""focus"",""37"",""405849""
","""event"",""trial"",""time""
""fullscreenenter"",""1"",""1224""
","
","","","641.1000000238419","","","15","16218","357","&#9728;","elianto","#f73b6a7A","-1"," ","0","-10","[1495.7000000476837]","1","1","","","16218","9","0","4","lose","no-go","0"
"pit-trial","130","932872","0.0-13.0","battery-v0.2","","""event"",""trial"",""time""
""fullscreenenter"",""1"",""1224""
""blur"",""37"",""405847""
""focus"",""37"",""405849""
","""event"",""trial"",""time""
""blur"",""37"",""405847""
","""event"",""trial"",""time""
""focus"",""37"",""405849""
","""event"",""trial"",""time""
""fullscreenenter"",""1"",""1224""
","
","","","730.9000000953674","","","15","16218","357","&#9730;","elianto","#3366ff99"," "," ","1","+10","[1581.2000000476837]","1","1","","","16218","10","1","1","win","go","0"
"pit-trial","131","936518","0.0-14.0","battery-v0.2","","""event"",""trial"",""time""
""fullscreenenter"",""1"",""1224""
""blur"",""37"",""405847""
""focus"",""37"",""405849""
","""event"",""trial"",""time""
""blur"",""37"",""405847""
","""event"",""trial"",""time""
""focus"",""37"",""405849""
","""event"",""trial"",""time""
""fullscreenenter"",""1"",""1224""
","
","","","790.2999999523163","","","15","16218","357","&#9752;","elianto","#f73b6a7A"," "," ","1","0","[1640.3999999761581]","1","1","","","16218","11","3","3","lose","go","0"
"pit-trial","132","941373","0.0-15.0","battery-v0.2","","""event"",""trial"",""time""
""fullscreenenter"",""1"",""1224""
""blur"",""37"",""405847""
""focus"",""37"",""405849""
","""event"",""trial"",""time""
""blur"",""37"",""405847""
","""event"",""trial"",""time""
""focus"",""37"",""405849""
","""event"",""trial"",""time""
""fullscreenenter"",""1"",""1224""
","
","","","-1","","","15","16218","357","&#9733;","elianto","#3366ff99","-1","-1","1","+10","[]","0","1","","","16218","12","2","2","win","no-go","0"
"pit-trial","133","945023","0.0-16.0","battery-v0.2","","""event"",""trial"",""time""
""fullscreenenter"",""1"",""1224""
""blur"",""37"",""405847""
""focus"",""37"",""405849""
","""event"",""trial"",""time""
""blur"",""37"",""405847""
","""event"",""trial"",""time""
""focus"",""37"",""405849""
","""event"",""trial"",""time""
""fullscreenenter"",""1"",""1224""
","
","","","793.5999999046326","","","15","16218","357","&#9752;","elianto","#f73b6a7A"," "," ","1","0","[1643.7999999523163]","1","1","","","16218","13","3","3","lose","go","0"
"pit-trial","134","949879","0.0-17.0","battery-v0.2","","""event"",""trial"",""time""
""fullscreenenter"",""1"",""1224""
""blur"",""37"",""405847""
""focus"",""37"",""405849""
","""event"",""trial"",""time""
""blur"",""37"",""405847""
","""event"",""trial"",""time""
""focus"",""37"",""405849""
","""event"",""trial"",""time""
""fullscreenenter"",""1"",""1224""
","
","","","-1","","","15","16218","357","&#9733;","elianto","#3366ff99","-1","-1","1","+10","[]","0","1","","","16218","14","2","2","win","no-go","0"
"pit-trial","135","954736","0.0-18.0","battery-v0.2","","""event"",""trial"",""time""
""fullscreenenter"",""1"",""1224""
""blur"",""37"",""405847""
""focus"",""37"",""405849""
","""event"",""trial"",""time""
""blur"",""37"",""405847""
","""event"",""trial"",""time""
""focus"",""37"",""405849""
","""event"",""trial"",""time""
""fullscreenenter"",""1"",""1224""
","
","","","-1","","","15","16218","357","&#9728;","elianto","#f73b6a7A","-1","-1","1","0","[]","0","1","","","16218","15","0","4","lose","no-go","0"
"pit-trial","136","958261","0.0-19.0","battery-v0.2","","""event"",""trial"",""time""
""fullscreenenter"",""1"",""1224""
""blur"",""37"",""405847""
""focus"",""37"",""405849""
","""event"",""trial"",""time""
""blur"",""37"",""405847""
","""event"",""trial"",""time""
""focus"",""37"",""405849""
","""event"",""trial"",""time""
""fullscreenenter"",""1"",""1224""
","
","","","661.8999999761581","","","15","16218","357","&#9730;","elianto","#3366ff99"," "," ","1","+10","[1518.5999999046326]","1","1","","","16218","16","1","1","win","go","0"
"pit-trial","137","961834","0.0-20.0","battery-v0.2","","""event"",""trial"",""time""
""fullscreenenter"",""1"",""1224""
""blur"",""37"",""405847""
""focus"",""37"",""405849""
","""event"",""trial"",""time""
""blur"",""37"",""405847""
","""event"",""trial"",""time""
""focus"",""37"",""405849""
","""event"",""trial"",""time""
""fullscreenenter"",""1"",""1224""
","
","","","716.2000000476837","","","15","16218","357","&#9730;","elianto","#3366ff99"," "," ","1","+10","[1566.3999999761581]","1","1","","","16218","17","1","1","win","go","0"
"pit-trial","138","966691","0.0-21.0","battery-v0.2","","""event"",""trial"",""time""
""fullscreenenter"",""1"",""1224""
""blur"",""37"",""405847""
""focus"",""37"",""405849""
","""event"",""trial"",""time""
""blur"",""37"",""405847""
","""event"",""trial"",""time""
""focus"",""37"",""405849""
","""event"",""trial"",""time""
""fullscreenenter"",""1"",""1224""
","
","","","-1","","","15","16218","357","&#9733;","elianto","#3366ff99","-1","-1","1","+10","[]","0","1","","","16218","18","2","2","win","no-go","0"
"pit-trial","139","971547","0.0-22.0","battery-v0.2","","""event"",""trial"",""time""
""fullscreenenter"",""1"",""1224""
""blur"",""37"",""405847""
""focus"",""37"",""405849""
","""event"",""trial"",""time""
""blur"",""37"",""405847""
","""event"",""trial"",""time""
""focus"",""37"",""405849""
","""event"",""trial"",""time""
""fullscreenenter"",""1"",""1224""
","
","","","-1","","","15","16218","357","&#9728;","elianto","#f73b6a7A","-1","-1","1","0","[]","0","1","","","16218","19","0","4","lose","no-go","0"
"pit-trial","140","975230","0.0-23.0","battery-v0.2","","""event"",""trial"",""time""
""fullscreenenter"",""1"",""1224""
""blur"",""37"",""405847""
""focus"",""37"",""405849""
","""event"",""trial"",""time""
""blur"",""37"",""405847""
","""event"",""trial"",""time""
""focus"",""37"",""405849""
","""event"",""trial"",""time""
""fullscreenenter"",""1"",""1224""
","
","","","826.1000000238419","","","15","16218","357","&#9752;","elianto","#f73b6a7A"," "," ","1","-10","[1676.2000000476837]","1","1","","","16218","20","3","3","lose","go","1"
"pit-instructions","141","988339","0.0-24.0","battery-v0.2","","""event"",""trial"",""time""
""fullscreenenter"",""1"",""1224""
""blur"",""37"",""405847""
""focus"",""37"",""405849""
","""event"",""trial"",""time""
""blur"",""37"",""405847""
","""event"",""trial"",""time""
""focus"",""37"",""405849""
","""event"",""trial"",""time""
""fullscreenenter"",""1"",""1224""
","
","","[{""page_index"":0,""viewing_time"":5893.399999976158},{""page_index"":1,""viewing_time"":7210.699999928474}]","13105.199999928474","","","","","","","","","","","","","","","","","","","","","","","",""
"pit-trial","142","992965","0.0-25.0","battery-v0.2","","""event"",""trial"",""time""
""fullscreenenter"",""1"",""1224""
""blur"",""37"",""405847""
""focus"",""37"",""405849""
","""event"",""trial"",""time""
""blur"",""37"",""405847""
","""event"",""trial"",""time""
""focus"",""37"",""405849""
","""event"",""trial"",""time""
""fullscreenenter"",""1"",""1224""
","
","","","1765.7000000476837","","","15","16218","357","f","elianto","#3366ff99"," "," ","1","+10","[2616]","1","2","","","16218","21","1","1","win","go","0"
"pit-trial","143","997822","0.0-26.0","battery-v0.2","","""event"",""trial"",""time""
""fullscreenenter"",""1"",""1224""
""blur"",""37"",""405847""
""focus"",""37"",""405849""
","""event"",""trial"",""time""
""blur"",""37"",""405847""
","""event"",""trial"",""time""
""focus"",""37"",""405849""
","""event"",""trial"",""time""
""fullscreenenter"",""1"",""1224""
","
","","","-1","","","15","16218","357","b","elianto","#f73b6a7A"," ","-1","0","-10","[]","0","2","","","16218","22","3","3","lose","go","0"
"pit-trial","144","1001474","0.0-27.0","battery-v0.2","","""event"",""trial"",""time""
""fullscreenenter"",""1"",""1224""
""blur"",""37"",""405847""
""focus"",""37"",""405849""
","""event"",""trial"",""time""
""blur"",""37"",""405847""
","""event"",""trial"",""time""
""focus"",""37"",""405849""
","""event"",""trial"",""time""
""fullscreenenter"",""1"",""1224""
","
","","","795.3000000715256","","","15","16218","357","n","elianto","#f73b6a7A","-1"," ","0","-10","[1645.3999999761581]","1","2","","","16218","23","0","4","lose","no-go","0"
"pit-trial","145","1005606","0.0-28.0","battery-v0.2","","""event"",""trial"",""time""
""fullscreenenter"",""1"",""1224""
""blur"",""37"",""405847""
""focus"",""37"",""405849""
","""event"",""trial"",""time""
""blur"",""37"",""405847""
","""event"",""trial"",""time""
""focus"",""37"",""405849""
","""event"",""trial"",""time""
""fullscreenenter"",""1"",""1224""
","
","","","1270.6000000238419","","","15","16218","357","t","elianto","#f73b6a7A","-1"," ","0","-10","[2124.8000000715256]","1","2","","","16218","24","2","4","lose","no-go","0"
"pit-trial","146","1010462","0.0-29.0","battery-v0.2","","""event"",""trial"",""time""
""fullscreenenter"",""1"",""1224""
""blur"",""37"",""405847""
""focus"",""37"",""405849""
","""event"",""trial"",""time""
""blur"",""37"",""405847""
","""event"",""trial"",""time""
""focus"",""37"",""405849""
","""event"",""trial"",""time""
""fullscreenenter"",""1"",""1224""
","
","","","-1","","","15","16218","357","n","elianto","#f73b6a7A","-1","-1","1","0","[]","0","2","","","16218","25","0","4","lose","no-go","0"
"pit-trial","147","1015318","0.0-30.0","battery-v0.2","","""event"",""trial"",""time""
""fullscreenenter"",""1"",""1224""
""blur"",""37"",""405847""
""focus"",""37"",""405849""
","""event"",""trial"",""time""
""blur"",""37"",""405847""
","""event"",""trial"",""time""
""focus"",""37"",""405849""
","""event"",""trial"",""time""
""fullscreenenter"",""1"",""1224""
","
","","","-1","","","15","16218","357","t","elianto","#f73b6a7A","-1","-1","1","-10","[]","0","2","","","16218","26","2","4","lose","no-go","1"
"pit-trial","148","1019055","0.0-31.0","battery-v0.2","","""event"",""trial"",""time""
""fullscreenenter"",""1"",""1224""
""blur"",""37"",""405847""
""focus"",""37"",""405849""
","""event"",""trial"",""time""
""blur"",""37"",""405847""
","""event"",""trial"",""time""
""focus"",""37"",""405849""
","""event"",""trial"",""time""
""fullscreenenter"",""1"",""1224""
","
","","","882.2999999523163","","","15","16218","357","f","elianto","#3366ff99"," "," ","1","0","[1732.3999999761581]","1","2","","","16218","27","1","1","win","go","1"
"pit-trial","149","1023909","0.0-32.0","battery-v0.2","","""event"",""trial"",""time""
""fullscreenenter"",""1"",""1224""
""blur"",""37"",""405847""
""focus"",""37"",""405849""
","""event"",""trial"",""time""
""blur"",""37"",""405847""
","""event"",""trial"",""time""
""focus"",""37"",""405849""
","""event"",""trial"",""time""
""fullscreenenter"",""1"",""1224""
","
","","","-1","","","15","16218","357","b","elianto","#f73b6a7A"," ","-1","0","-10","[]","0","2","","","16218","28","3","3","lose","go","0"
"pit-trial","150","1027342","0.0-33.0","battery-v0.2","","""event"",""trial"",""time""
""fullscreenenter"",""1"",""1224""
""blur"",""37"",""405847""
""focus"",""37"",""405849""
","""event"",""trial"",""time""
""blur"",""37"",""405847""
","""event"",""trial"",""time""
""focus"",""37"",""405849""
","""event"",""trial"",""time""
""fullscreenenter"",""1"",""1224""
","
","","","579.3000000715256","","","15","16218","357","b","elianto","#f73b6a7A"," "," ","1","0","[1429.3999999761581]","1","2","","","16218","29","3","3","lose","go","0"
"pit-trial","151","1030269","0.0-34.0","battery-v0.2","","""event"",""trial"",""time""
""fullscreenenter"",""1"",""1224""
""blur"",""37"",""405847""
""focus"",""37"",""405849""
","""event"",""trial"",""time""
""blur"",""37"",""405847""
","""event"",""trial"",""time""
""focus"",""37"",""405849""
","""event"",""trial"",""time""
""fullscreenenter"",""1"",""1224""
","
","","","73.5","","","15","16218","357","t","elianto","#f73b6a7A","-1"," ","0","0","[923.7000000476837]","1","2","","","16218","30","2","4","lose","no-go","1"
"pit-trial","152","1033577","0.0-35.0","battery-v0.2","","""event"",""trial"",""time""
""fullscreenenter"",""1"",""1224""
""blur"",""37"",""405847""
""focus"",""37"",""405849""
","""event"",""trial"",""time""
""blur"",""37"",""405847""
","""event"",""trial"",""time""
""focus"",""37"",""405849""
","""event"",""trial"",""time""
""fullscreenenter"",""1"",""1224""
","
","","","453.8000000715256","","","15","16218","357","n","elianto","#f73b6a7A","-1"," ","0","-10","[1304.6000000238419]","1","2","","","16218","31","0","4","lose","no-go","0"
"pit-trial","153","1036913","0.0-36.0","battery-v0.2","","""event"",""trial"",""time""
""fullscreenenter"",""1"",""1224""
""blur"",""37"",""405847""
""focus"",""37"",""405849""
","""event"",""trial"",""time""
""blur"",""37"",""405847""
","""event"",""trial"",""time""
""focus"",""37"",""405849""
","""event"",""trial"",""time""
""fullscreenenter"",""1"",""1224""
","
","","","479.2000000476837","","","15","16218","357","f","elianto","#3366ff99"," "," ","1","0","[1332]","1","2","","","16218","32","1","1","win","go","1"
"pit-trial","154","1040801","0.0-37.0","battery-v0.2","","""event"",""trial"",""time""
""fullscreenenter"",""1"",""1224""
""blur"",""37"",""405847""
""focus"",""37"",""405849""
","""event"",""trial"",""time""
""blur"",""37"",""405847""
","""event"",""trial"",""time""
""focus"",""37"",""405849""
","""event"",""trial"",""time""
""fullscreenenter"",""1"",""1224""
","
","","","1032.5","","","15","16218","357","f","elianto","#3366ff99"," "," ","1","+10","[1883]","1","2","","","16218","33","1","1","win","go","0"
"pit-trial","155","1044902","0.0-38.0","battery-v0.2","","""event"",""trial"",""time""
""fullscreenenter"",""1"",""1224""
""blur"",""37"",""405847""
""focus"",""37"",""405849""
","""event"",""trial"",""time""
""blur"",""37"",""405847""
","""event"",""trial"",""time""
""focus"",""37"",""405849""
","""event"",""trial"",""time""
""fullscreenenter"",""1"",""1224""
","
","","","1246.2000000476837","","","15","16218","357","t","elianto","#f73b6a7A","-1"," ","0","-10","[2096.3000000715256]","1","2","","","16218","34","2","4","lose","no-go","0"
"pit-trial","156","1049757","0.0-39.0","battery-v0.2","","""event"",""trial"",""time""
""fullscreenenter"",""1"",""1224""
""blur"",""37"",""405847""
""focus"",""37"",""405849""
","""event"",""trial"",""time""
""blur"",""37"",""405847""
","""event"",""trial"",""time""
""focus"",""37"",""405849""
","""event"",""trial"",""time""
""fullscreenenter"",""1"",""1224""
","
","","","-1","","","15","16218","357","b","elianto","#f73b6a7A"," ","-1","0","-10","[]","0","2","","","16218","35","3","3","lose","go","0"
"pit-trial","157","1053400","0.0-40.0","battery-v0.2","","""event"",""trial"",""time""
""fullscreenenter"",""1"",""1224""
""blur"",""37"",""405847""
""focus"",""37"",""405849""
","""event"",""trial"",""time""
""blur"",""37"",""405847""
","""event"",""trial"",""time""
""focus"",""37"",""405849""
","""event"",""trial"",""time""
""fullscreenenter"",""1"",""1224""
","
","","","787.8999999761581","","","15","16218","357","n","elianto","#f73b6a7A","-1"," ","0","-10","[1638]","1","2","","","16218","36","0","4","lose","no-go","0"
"pit-trial","158","1058256","0.0-41.0","battery-v0.2","","""event"",""trial"",""time""
""fullscreenenter"",""1"",""1224""
""blur"",""37"",""405847""
""focus"",""37"",""405849""
","""event"",""trial"",""time""
""blur"",""37"",""405847""
","""event"",""trial"",""time""
""focus"",""37"",""405849""
","""event"",""trial"",""time""
""fullscreenenter"",""1"",""1224""
","
","","","-1","","","15","16218","357","n","elianto","#f73b6a7A","-1","-1","1","0","[]","0","2","","","16218","37","0","4","lose","no-go","0"
"pit-trial","159","1063111","0.0-42.0","battery-v0.2","","""event"",""trial"",""time""
""fullscreenenter"",""1"",""1224""
""blur"",""37"",""405847""
""focus"",""37"",""405849""
","""event"",""trial"",""time""
""blur"",""37"",""405847""
","""event"",""trial"",""time""
""focus"",""37"",""405849""
","""event"",""trial"",""time""
""fullscreenenter"",""1"",""1224""
","
","","","-1","","","15","16218","357","b","elianto","#f73b6a7A"," ","-1","0","-10","[]","0","2","","","16218","38","3","3","lose","go","0"
"pit-trial","160","1067967","0.0-43.0","battery-v0.2","","""event"",""trial"",""time""
""fullscreenenter"",""1"",""1224""
""blur"",""37"",""405847""
""focus"",""37"",""405849""
","""event"",""trial"",""time""
""blur"",""37"",""405847""
","""event"",""trial"",""time""
""focus"",""37"",""405849""
","""event"",""trial"",""time""
""fullscreenenter"",""1"",""1224""
","
","","","-1","","","15","16218","357","t","elianto","#f73b6a7A","-1","-1","1","0","[]","0","2","","","16218","39","2","4","lose","no-go","0"
"pit-trial","161","1072821","0.0-44.0","battery-v0.2","","""event"",""trial"",""time""
""fullscreenenter"",""1"",""1224""
""blur"",""37"",""405847""
""focus"",""37"",""405849""
","""event"",""trial"",""time""
""blur"",""37"",""405847""
","""event"",""trial"",""time""
""focus"",""37"",""405849""
","""event"",""trial"",""time""
""fullscreenenter"",""1"",""1224""
","
","","","-1","","","15","16218","357","f","elianto","#3366ff99"," ","-1","0","0","[]","0","2","","","16218","40","1","1","win","go","0"
"pit-trial","162","1077676","0.0-45.0","battery-v0.2","","""event"",""trial"",""time""
""fullscreenenter"",""1"",""1224""
""blur"",""37"",""405847""
""focus"",""37"",""405849""
","""event"",""trial"",""time""
""blur"",""37"",""405847""
","""event"",""trial"",""time""
""focus"",""37"",""405849""
","""event"",""trial"",""time""
""fullscreenenter"",""1"",""1224""
","
","","","-1","","","15","16218","357","b","elianto","#f73b6a7A"," ","-1","0","-10","[]","0","2","","","16218","41","3","3","lose","go","0"
"pit-trial","163","1081725","0.0-46.0","battery-v0.2","","""event"",""trial"",""time""
""fullscreenenter"",""1"",""1224""
""blur"",""37"",""405847""
""focus"",""37"",""405849""
","""event"",""trial"",""time""
""blur"",""37"",""405847""
","""event"",""trial"",""time""
""focus"",""37"",""405849""
","""event"",""trial"",""time""
""fullscreenenter"",""1"",""1224""
","
","","","1193.7999999523163","","","15","16218","357","f","elianto","#3366ff99"," "," ","1","+10","[2044]","1","2","","","16218","42","1","1","win","go","0"
"pit-trial","164","1086580","0.0-47.0","battery-v0.2","","""event"",""trial"",""time""
""fullscreenenter"",""1"",""1224""
""blur"",""37"",""405847""
""focus"",""37"",""405849""
","""event"",""trial"",""time""
""blur"",""37"",""405847""
","""event"",""trial"",""time""
""focus"",""37"",""405849""
","""event"",""trial"",""time""
""fullscreenenter"",""1"",""1224""
","
","","","-1","","","15","16218","357","t","elianto","#f73b6a7A","-1","-1","1","0","[]","0","2","","","16218","43","2","4","lose","no-go","0"
"pit-trial","165","1091436","0.0-48.0","battery-v0.2","","""event"",""trial"",""time""
""fullscreenenter"",""1"",""1224""
""blur"",""37"",""405847""
""focus"",""37"",""405849""
","""event"",""trial"",""time""
""blur"",""37"",""405847""
","""event"",""trial"",""time""
""focus"",""37"",""405849""
","""event"",""trial"",""time""
""fullscreenenter"",""1"",""1224""
","
","","","-1","","","15","16218","357","n","elianto","#f73b6a7A","-1","-1","1","0","[]","0","2","","","16218","44","0","4","lose","no-go","0"
"pit-trial","166","1095443","0.0-49.0","battery-v0.2","","""event"",""trial"",""time""
""fullscreenenter"",""1"",""1224""
""blur"",""37"",""405847""
""focus"",""37"",""405849""
","""event"",""trial"",""time""
""blur"",""37"",""405847""
","""event"",""trial"",""time""
""focus"",""37"",""405849""
","""event"",""trial"",""time""
""fullscreenenter"",""1"",""1224""
","
","","","1147.1000000238419","","","15","16218","357","c","elianto","#3366ff99","-1"," ","0","0","[2001.7000000476837]","1","2","","","16218","45","4","2","win","no-go","0"
"pit-trial","167","1100298","0.0-50.0","battery-v0.2","","""event"",""trial"",""time""
""fullscreenenter"",""1"",""1224""
""blur"",""37"",""405847""
""focus"",""37"",""405849""
","""event"",""trial"",""time""
""blur"",""37"",""405847""
","""event"",""trial"",""time""
""focus"",""37"",""405849""
","""event"",""trial"",""time""
""fullscreenenter"",""1"",""1224""
","
","","","-1","","","15","16218","357","t","elianto","#f73b6a7A","-1","-1","1","0","[]","0","2","","","16218","46","2","4","lose","no-go","0"
"pit-trial","168","1105154","0.0-51.0","battery-v0.2","","""event"",""trial"",""time""
""fullscreenenter"",""1"",""1224""
""blur"",""37"",""405847""
""focus"",""37"",""405849""
","""event"",""trial"",""time""
""blur"",""37"",""405847""
","""event"",""trial"",""time""
""focus"",""37"",""405849""
","""event"",""trial"",""time""
""fullscreenenter"",""1"",""1224""
","
","","","-1","","","15","16218","357","n","elianto","#f73b6a7A","-1","-1","1","0","[]","0","2","","","16218","47","0","4","lose","no-go","0"
"pit-trial","169","1109010","0.0-52.0","battery-v0.2","","""event"",""trial"",""time""
""fullscreenenter"",""1"",""1224""
""blur"",""37"",""405847""
""focus"",""37"",""405849""
","""event"",""trial"",""time""
""blur"",""37"",""405847""
","""event"",""trial"",""time""
""focus"",""37"",""405849""
","""event"",""trial"",""time""
""fullscreenenter"",""1"",""1224""
","
","","","999.1999999284744","","","15","16218","357","b","elianto","#f73b6a7A"," "," ","1","0","[1849.3000000715256]","1","2","","","16218","48","3","3","lose","go","0"
"pit-trial","170","1113031","0.0-53.0","battery-v0.2","","""event"",""trial"",""time""
""fullscreenenter"",""1"",""1224""
""blur"",""37"",""405847""
""focus"",""37"",""405849""
","""event"",""trial"",""time""
""blur"",""37"",""405847""
","""event"",""trial"",""time""
""focus"",""37"",""405849""
","""event"",""trial"",""time""
""fullscreenenter"",""1"",""1224""
","
","","","1165.1999999284744","","","15","16218","357","f","elianto","#3366ff99"," "," ","1","+10","[2015.1000000238419]","1","2","","","16218","49","1","1","win","go","0"
"pit-trial","171","1117886","0.0-54.0","battery-v0.2","","""event"",""trial"",""time""
""fullscreenenter"",""1"",""1224""
""blur"",""37"",""405847""
""focus"",""37"",""405849""
","""event"",""trial"",""time""
""blur"",""37"",""405847""
","""event"",""trial"",""time""
""focus"",""37"",""405849""
","""event"",""trial"",""time""
""fullscreenenter"",""1"",""1224""
","
","","","-1","","","15","16218","357","n","elianto","#f73b6a7A","-1","-1","1","0","[]","0","2","","","16218","50","0","4","lose","no-go","0"
"pit-trial","172","1122742","0.0-55.0","battery-v0.2","","""event"",""trial"",""time""
""fullscreenenter"",""1"",""1224""
""blur"",""37"",""405847""
""focus"",""37"",""405849""
","""event"",""trial"",""time""
""blur"",""37"",""405847""
","""event"",""trial"",""time""
""focus"",""37"",""405849""
","""event"",""trial"",""time""
""fullscreenenter"",""1"",""1224""
","
","","","-1","","","15","16218","357","c","elianto","#3366ff99","-1","-1","1","+10","[2917]","1","2","","","16218","51","4","2","win","no-go","0"
"pit-trial","173","1127042","0.0-56.0","battery-v0.2","","""event"",""trial"",""time""
""fullscreenenter"",""1"",""1224""
""blur"",""37"",""405847""
""focus"",""37"",""405849""
","""event"",""trial"",""time""
""blur"",""37"",""405847""
","""event"",""trial"",""time""
""focus"",""37"",""405849""
","""event"",""trial"",""time""
""fullscreenenter"",""1"",""1224""
","
","","","1443.3999999761581","","","15","16218","357","b","elianto","#f73b6a7A"," "," ","1","0","[2293.5999999046326]","1","2","","","16218","52","3","3","lose","go","0"
"pit-trial","174","1131897","0.0-57.0","battery-v0.2","","""event"",""trial"",""time""
""fullscreenenter"",""1"",""1224""
""blur"",""37"",""405847""
""focus"",""37"",""405849""
","""event"",""trial"",""time""
""blur"",""37"",""405847""
","""event"",""trial"",""time""
""focus"",""37"",""405849""
","""event"",""trial"",""time""
""fullscreenenter"",""1"",""1224""
","
","","","-1","","","15","16218","357","t","elianto","#f73b6a7A","-1","-1","1","0","[]","0","2","","","16218","53","2","4","lose","no-go","0"
"pit-trial","175","1135735","0.0-58.0","battery-v0.2","","""event"",""trial"",""time""
""fullscreenenter"",""1"",""1224""
""blur"",""37"",""405847""
""focus"",""37"",""405849""
","""event"",""trial"",""time""
""blur"",""37"",""405847""
","""event"",""trial"",""time""
""focus"",""37"",""405849""
","""event"",""trial"",""time""
""fullscreenenter"",""1"",""1224""
","
","","","978.2999999523163","","","15","16218","357","c","elianto","#3366ff99","-1"," ","0","0","[1831.4000000953674]","1","2","","","16218","54","4","2","win","no-go","0"
"pit-trial","176","1140591","0.0-59.0","battery-v0.2","","""event"",""trial"",""time""
""fullscreenenter"",""1"",""1224""
""blur"",""37"",""405847""
""focus"",""37"",""405849""
","""event"",""trial"",""time""
""blur"",""37"",""405847""
","""event"",""trial"",""time""
""focus"",""37"",""405849""
","""event"",""trial"",""time""
""fullscreenenter"",""1"",""1224""
","
","","","-1","","","15","16218","357","n","elianto","#f73b6a7A","-1","-1","1","-10","[]","0","2","","","16218","55","0","4","lose","no-go","1"
"pit-trial","177","1144316","0.0-60.0","battery-v0.2","","""event"",""trial"",""time""
""fullscreenenter"",""1"",""1224""
""blur"",""37"",""405847""
""focus"",""37"",""405849""
","""event"",""trial"",""time""
""blur"",""37"",""405847""
","""event"",""trial"",""time""
""focus"",""37"",""405849""
","""event"",""trial"",""time""
""fullscreenenter"",""1"",""1224""
","
","","","867.2000000476837","","","15","16218","357","f","elianto","#3366ff99"," "," ","1","+10","[1719.7000000476837]","1","2","","","16218","56","1","1","win","go","0"
"pit-trial","178","1148225","0.0-61.0","battery-v0.2","","""event"",""trial"",""time""
""fullscreenenter"",""1"",""1224""
""blur"",""37"",""405847""
""focus"",""37"",""405849""
","""event"",""trial"",""time""
""blur"",""37"",""405847""
","""event"",""trial"",""time""
""focus"",""37"",""405849""
","""event"",""trial"",""time""
""fullscreenenter"",""1"",""1224""
","
","","","1052.6000000238419","","","15","16218","357","b","elianto","#f73b6a7A"," "," ","1","0","[1902.7000000476837]","1","2","","","16218","57","3","3","lose","go","0"
"pit-trial","179","1152281","0.0-62.0","battery-v0.2","","""event"",""trial"",""time""
""fullscreenenter"",""1"",""1224""
""blur"",""37"",""405847""
""focus"",""37"",""405849""
","""event"",""trial"",""time""
""blur"",""37"",""405847""
","""event"",""trial"",""time""
""focus"",""37"",""405849""
","""event"",""trial"",""time""
""fullscreenenter"",""1"",""1224""
","
","","","1198.8999999761581","","","15","16218","357","c","elianto","#3366ff99","-1"," ","0","0","[2049.2999999523163]","1","2","","","16218","58","4","2","win","no-go","0"
"pit-trial","180","1157136","0.0-63.0","battery-v0.2","","""event"",""trial"",""time""
""fullscreenenter"",""1"",""1224""
""blur"",""37"",""405847""
""focus"",""37"",""405849""
","""event"",""trial"",""time""
""blur"",""37"",""405847""
","""event"",""trial"",""time""
""focus"",""37"",""405849""
","""event"",""trial"",""time""
""fullscreenenter"",""1"",""1224""
","
","","","-1","","","15","16218","357","n","elianto","#f73b6a7A","-1","-1","1","-10","[]","0","2","","","16218","59","0","4","lose","no-go","1"
"pit-trial","181","1160577","0.0-64.0","battery-v0.2","","""event"",""trial"",""time""
""fullscreenenter"",""1"",""1224""
""blur"",""37"",""405847""
""focus"",""37"",""405849""
","""event"",""trial"",""time""
""blur"",""37"",""405847""
","""event"",""trial"",""time""
""focus"",""37"",""405849""
","""event"",""trial"",""time""
""fullscreenenter"",""1"",""1224""
","
","","","584.5","","","15","16218","357","f","elianto","#3366ff99"," "," ","1","+10","[1434.3999999761581]","1","2","","","16218","60","1","1","win","go","0"
"pit-trial","182","1164389","0.0-65.0","battery-v0.2","","""event"",""trial"",""time""
""fullscreenenter"",""1"",""1224""
""blur"",""37"",""405847""
""focus"",""37"",""405849""
","""event"",""trial"",""time""
""blur"",""37"",""405847""
","""event"",""trial"",""time""
""focus"",""37"",""405849""
","""event"",""trial"",""time""
""fullscreenenter"",""1"",""1224""
","
","","","955.7999999523163","","","15","16218","357","b","elianto","#f73b6a7A"," "," ","1","0","[1805.7999999523163]","1","2","","","16218","61","3","3","lose","go","0"
"pit-trial","183","1169245","0.0-66.0","battery-v0.2","","""event"",""trial"",""time""
""fullscreenenter"",""1"",""1224""
""blur"",""37"",""405847""
""focus"",""37"",""405849""
","""event"",""trial"",""time""
""blur"",""37"",""405847""
","""event"",""trial"",""time""
""focus"",""37"",""405849""
","""event"",""trial"",""time""
""fullscreenenter"",""1"",""1224""
","
","","","-1","","","15","16218","357","c","elianto","#3366ff99","-1","-1","1","+10","[]","0","2","","","16218","62","4","2","win","no-go","0"
"pit-trial","184","1174101","0.0-67.0","battery-v0.2","","""event"",""trial"",""time""
""fullscreenenter"",""1"",""1224""
""blur"",""37"",""405847""
""focus"",""37"",""405849""
","""event"",""trial"",""time""
""blur"",""37"",""405847""
","""event"",""trial"",""time""
""focus"",""37"",""405849""
","""event"",""trial"",""time""
""fullscreenenter"",""1"",""1224""
","
","","","-1","","","15","16218","357","t","elianto","#f73b6a7A","-1","-1","1","-10","[]","0","2","","","16218","63","2","4","lose","no-go","1"
"pit-trial","185","1178410","0.0-68.0","battery-v0.2","","""event"",""trial"",""time""
""fullscreenenter"",""1"",""1224""
""blur"",""37"",""405847""
""focus"",""37"",""405849""
","""event"",""trial"",""time""
""blur"",""37"",""405847""
","""event"",""trial"",""time""
""focus"",""37"",""405849""
","""event"",""trial"",""time""
""fullscreenenter"",""1"",""1224""
","
","","","1453.3999999761581","","","15","16218","357","f","elianto","#3366ff99"," "," ","1","+10","[2303.5]","1","2","","","16218","64","1","1","win","go","0"
"pit-trial","186","1182363","0.0-69.0","battery-v0.2","","""event"",""trial"",""time""
""fullscreenenter"",""1"",""1224""
""blur"",""37"",""405847""
""focus"",""37"",""405849""
","""event"",""trial"",""time""
""blur"",""37"",""405847""
","""event"",""trial"",""time""
""focus"",""37"",""405849""
","""event"",""trial"",""time""
""fullscreenenter"",""1"",""1224""
","
","","","1096.1000000238419","","","15","16218","357","b","elianto","#f73b6a7A"," "," ","1","0","[1946.1000000238419]","1","2","","","16218","65","3","3","lose","go","0"
"pit-trial","187","1186082","0.0-70.0","battery-v0.2","","""event"",""trial"",""time""
""fullscreenenter"",""1"",""1224""
""blur"",""37"",""405847""
""focus"",""37"",""405849""
","""event"",""trial"",""time""
""blur"",""37"",""405847""
","""event"",""trial"",""time""
""focus"",""37"",""405849""
","""event"",""trial"",""time""
""fullscreenenter"",""1"",""1224""
","
","","","862.1999999284744","","","15","16218","357","f","elianto","#3366ff99"," "," ","1","+10","[1712.1999999284744]","1","2","","","16218","66","1","1","win","go","0"
"pit-trial","188","1190939","0.0-71.0","battery-v0.2","","""event"",""trial"",""time""
""fullscreenenter"",""1"",""1224""
""blur"",""37"",""405847""
""focus"",""37"",""405849""
","""event"",""trial"",""time""
""blur"",""37"",""405847""
","""event"",""trial"",""time""
""focus"",""37"",""405849""
","""event"",""trial"",""time""
""fullscreenenter"",""1"",""1224""
","
","","","-1","","","15","16218","357","c","elianto","#3366ff99","-1","-1","1","0","[]","0","2","","","16218","67","4","2","win","no-go","1"
"pit-trial","189","1195796","0.0-72.0","battery-v0.2","","""event"",""trial"",""time""
""fullscreenenter"",""1"",""1224""
""blur"",""37"",""405847""
""focus"",""37"",""405849""
","""event"",""trial"",""time""
""blur"",""37"",""405847""
","""event"",""trial"",""time""
""focus"",""37"",""405849""
","""event"",""trial"",""time""
""fullscreenenter"",""1"",""1224""
","
","","","-1","","","15","16218","357","t","elianto","#f73b6a7A","-1","-1","1","0","[]","0","2","","","16218","68","2","4","lose","no-go","0"
"pit-trial","190","1200018","0.0-73.0","battery-v0.2","","""event"",""trial"",""time""
""fullscreenenter"",""1"",""1224""
""blur"",""37"",""405847""
""focus"",""37"",""405849""
","""event"",""trial"",""time""
""blur"",""37"",""405847""
","""event"",""trial"",""time""
""focus"",""37"",""405849""
","""event"",""trial"",""time""
""fullscreenenter"",""1"",""1224""
","
","","","1366","","","15","16218","357","z","elianto","#3366ff99"," "," ","1","0","[2216]","1","2","","","16218","69","5","1","win","go","1"
"pit-trial","191","1204006","0.0-74.0","battery-v0.2","","""event"",""trial"",""time""
""fullscreenenter"",""1"",""1224""
""blur"",""37"",""405847""
""focus"",""37"",""405849""
","""event"",""trial"",""time""
""blur"",""37"",""405847""
","""event"",""trial"",""time""
""focus"",""37"",""405849""
","""event"",""trial"",""time""
""fullscreenenter"",""1"",""1224""
","
","","","1131.5","","","15","16218","357","b","elianto","#f73b6a7A"," "," ","1","-10","[1981.7000000476837]","1","2","","","16218","70","3","3","lose","go","1"
"pit-trial","192","1207905","0.0-75.0","battery-v0.2","","""event"",""trial"",""time""
""fullscreenenter"",""1"",""1224""
""blur"",""37"",""405847""
""focus"",""37"",""405849""
","""event"",""trial"",""time""
""blur"",""37"",""405847""
","""event"",""trial"",""time""
""focus"",""37"",""405849""
","""event"",""trial"",""time""
""fullscreenenter"",""1"",""1224""
","
","","","1042.3999999761581","","","15","16218","357","f","elianto","#3366ff99"," "," ","1","+10","[1892.6000000238419]","1","2","","","16218","71","1","1","win","go","0"
"pit-trial","193","1212761","0.0-76.0","battery-v0.2","","""event"",""trial"",""time""
""fullscreenenter"",""1"",""1224""
""blur"",""37"",""405847""
""focus"",""37"",""405849""
","""event"",""trial"",""time""
""blur"",""37"",""405847""
","""event"",""trial"",""time""
""focus"",""37"",""405849""
","""event"",""trial"",""time""
""fullscreenenter"",""1"",""1224""
","
","","","-1","","","15","16218","357","c","elianto","#3366ff99","-1","-1","1","0","[]","0","2","","","16218","72","4","2","win","no-go","1"
"pit-trial","194","1216551","0.0-77.0","battery-v0.2","","""event"",""trial"",""time""
