"trial_type","trial_index","time_elapsed","internal_node_id","task_version","subject_id","interactions","blur_events","focus_events","fullscreenenter_events","fullscreenexit_events","success","view_history","rt","responses","num_errors","age","subject","participantId","rune","rune_set","hex","correct","choice","accuracy","outcome","keys","total_keys","block","practice","value","sub","trial","stimulus","robot","valence","action","sham"
"pavlovia","0","5","0.0-0.0","battery-v0.2","","""event"",""trial"",""time""
""fullscreenenter"",""1"",""2988""
","
","
","""event"",""trial"",""time""
""fullscreenenter"",""1"",""2988""
","
","","","","","","","","","","","","","","","","","","","","","","","","","","",""
"fullscreen","1","3972","0.0-1.0","battery-v0.2","","""event"",""trial"",""time""
""fullscreenenter"",""1"",""2988""
","
","
","""event"",""trial"",""time""
""fullscreenenter"",""1"",""2988""
","
","true","","","","","","","","","","","","","","","","","","","","","","","","","",""
"pit-instructions","2","7562","0.0-2.0-0.0","battery-v0.2","","""event"",""trial"",""time""
""fullscreenenter"",""1"",""2988""
","
","
","""event"",""trial"",""time""
""fullscreenenter"",""1"",""2988""
","
","","[{""page_index"":0,""viewing_time"":3583.600000143051}]","3583.9000000953674","","","","","","","","","","","","","","","","","","","","","","","",""
"pit-comprehension","3","11078","0.0-2.0-1.0-0.0","battery-v0.2","","""event"",""trial"",""time""
""fullscreenenter"",""1"",""2988""
","
","
","""event"",""trial"",""time""
""fullscreenenter"",""1"",""2988""
","
","","","3514.100000143051","[""shark""]","0","18","10933","5065","","","","","","","","","","","","","","","","","","",""
"pit-instructions","4","16848","0.0-2.0-1.0-1.0","battery-v0.2","","""event"",""trial"",""time""
""fullscreenenter"",""1"",""2988""
","
","
","""event"",""trial"",""time""
""fullscreenenter"",""1"",""2988""
","
","","[{""page_index"":0,""viewing_time"":5759.599999904633}]","5759.799999952316","","","","","","","","","","","","","","","","","","","","","","","",""
"pit-comprehension","5","21094","0.0-2.0-2.0-0.0","battery-v0.2","","""event"",""trial"",""time""
""fullscreenenter"",""1"",""2988""
","
","
","""event"",""trial"",""time""
""fullscreenenter"",""1"",""2988""
","
","","","4244.300000190735","[""tiger""]","0","18","10933","5065","","","","","","","","","","","","","","","","","","",""
"pit-instructions","6","28117","0.0-2.0-2.0-1.0","battery-v0.2","","""event"",""trial"",""time""
""fullscreenenter"",""1"",""2988""
","
","
","""event"",""trial"",""time""
""fullscreenenter"",""1"",""2988""
","
","","[{""page_index"":0,""viewing_time"":7020.899999856949}]","7021.199999809265","","","","","","","","","","","","","","","","","","","","","","","",""
"pit-instructions","7","170311","0.0-2.0-3.0","battery-v0.2","","""event"",""trial"",""time""
""fullscreenenter"",""1"",""2988""
","
","
","""event"",""trial"",""time""
""fullscreenenter"",""1"",""2988""
","
","","[{""page_index"":0,""viewing_time"":51143.699999809265},{""page_index"":1,""viewing_time"":6867.200000047684},{""page_index"":2,""viewing_time"":6164.799999952316},{""page_index"":3,""viewing_time"":5901.100000143051},{""page_index"":4,""viewing_time"":7049.5},{""page_index"":5,""viewing_time"":6150.399999856949},{""page_index"":6,""viewing_time"":7298.900000095367},{""page_index"":7,""viewing_time"":7117.799999952316},{""page_index"":8,""viewing_time"":7721.100000143051},{""page_index"":9,""viewing_time"":8614.099999904633},{""page_index"":10,""viewing_time"":7298.700000047684},{""page_index"":11,""viewing_time"":7600.200000047684},{""page_index"":12,""viewing_time"":7466.799999952316},{""page_index"":13,""viewing_time"":5800.299999952316}]","142195","","","","","","","","","","","","","","","","","","","","","","","",""
"pit-trial","8","173913","0.0-2.0-4.0-0.0","battery-v0.2","","""event"",""trial"",""time""
""fullscreenenter"",""1"",""2988""
","
","
","""event"",""trial"",""time""
""fullscreenenter"",""1"",""2988""
","
","","","741.2000000476837","","","18","10933","5065","&#9784;","elianto","#FFFFF080"," "," ","1","&#10004","[1593.2000000476837]","1","0","0","","","","","","","",""
"pit-trial","9","177537","0.0-2.0-4.1-0.1","battery-v0.2","","""event"",""trial"",""time""
""fullscreenenter"",""1"",""2988""
","
","
","""event"",""trial"",""time""
""fullscreenenter"",""1"",""2988""
","
","","","754.2999999523163","","","18","10933","5065","&#9784;","elianto","#FFFFF080"," "," ","1","&#10004","[1610]","1","0","0","","","","","","","",""
"pit-trial","10","181341","0.0-2.0-4.2-0.2","battery-v0.2","","""event"",""trial"",""time""
""fullscreenenter"",""1"",""2988""
","
","
","""event"",""trial"",""time""
""fullscreenenter"",""1"",""2988""
","
","","","945.7999999523163","","","18","10933","5065","&#9784;","elianto","#FFFFF080"," "," ","1","&#10004","[1797.6999998092651]","1","0","0","","","","","","","",""
"pit-trial","11","184897","0.0-2.0-4.3-0.3","battery-v0.2","","""event"",""trial"",""time""
""fullscreenenter"",""1"",""2988""
","
","
","""event"",""trial"",""time""
""fullscreenenter"",""1"",""2988""
","
","","","683.7999999523163","","","18","10933","5065","&#9784;","elianto","#FFFFF080"," "," ","1","&#10004","[1542.2999999523163]","1","0","0","","","","","","","",""
"pit-trial","12","188520","0.0-2.0-4.4-0.4","battery-v0.2","","""event"",""trial"",""time""
""fullscreenenter"",""1"",""2988""
","
","
","""event"",""trial"",""time""
""fullscreenenter"",""1"",""2988""
","
","","","753.9000000953674","","","18","10933","5065","&#9784;","elianto","#FFFFF080"," "," ","1","&#10004","[1611.9000000953674]","1","0","0","","","","","","","",""
"pit-instructions","13","209160","0.0-2.0-5.0","battery-v0.2","","""event"",""trial"",""time""
""fullscreenenter"",""1"",""2988""
","
","
","""event"",""trial"",""time""
""fullscreenenter"",""1"",""2988""
","
","","[{""page_index"":0,""viewing_time"":4852},{""page_index"":1,""viewing_time"":5500.600000143051},{""page_index"":2,""viewing_time"":5022.200000047684},{""page_index"":3,""viewing_time"":5260.5}]","20635.60000014305","","","","","","","","","","","","","","","","","","","","","","","",""
"pit-trial","14","214032","0.0-2.0-6.0-0.0","battery-v0.2","","""event"",""trial"",""time""
""fullscreenenter"",""1"",""2988""
","
","
","""event"",""trial"",""time""
""fullscreenenter"",""1"",""2988""
","
","","","-1","","","18","10933","5065","&#9854;","elianto","#FFFFF080","-1","-1","1","&#10004","[]","0","0","1","","","","","","","",""
"pit-trial","15","218904","0.0-2.0-6.1-0.1","battery-v0.2","","""event"",""trial"",""time""
""fullscreenenter"",""1"",""2988""
","
","
","""event"",""trial"",""time""
""fullscreenenter"",""1"",""2988""
","
","","","-1","","","18","10933","5065","&#9854;","elianto","#FFFFF080","-1","-1","1","&#10004","[]","0","0","1","","","","","","","",""
"pit-trial","16","223776","0.0-2.0-6.2-0.2","battery-v0.2","","""event"",""trial"",""time""
""fullscreenenter"",""1"",""2988""
","
","
","""event"",""trial"",""time""
""fullscreenenter"",""1"",""2988""
","
","","","-1","","","18","10933","5065","&#9854;","elianto","#FFFFF080","-1","-1","1","&#10004","[]","0","0","1","","","","","","","",""
"pit-trial","17","228648","0.0-2.0-6.3-0.3","battery-v0.2","","""event"",""trial"",""time""
""fullscreenenter"",""1"",""2988""
","
","
","""event"",""trial"",""time""
""fullscreenenter"",""1"",""2988""
","
","","","-1","","","18","10933","5065","&#9854;","elianto","#FFFFF080","-1","-1","1","&#10004","[]","0","0","1","","","","","","","",""
"pit-trial","18","233515","0.0-2.0-6.4-0.4","battery-v0.2","","""event"",""trial"",""time""
""fullscreenenter"",""1"",""2988""
","
","
","""event"",""trial"",""time""
""fullscreenenter"",""1"",""2988""
","
","","","-1","","","18","10933","5065","&#9854;","elianto","#FFFFF080","-1","-1","1","&#10004","[]","0","0","1","","","","","","","",""
"pit-instructions","19","360228","0.0-2.0-7.0","battery-v0.2","","""event"",""trial"",""time""
""fullscreenenter"",""1"",""2988""
","
","
","""event"",""trial"",""time""
""fullscreenenter"",""1"",""2988""
","
","","[{""page_index"":0,""viewing_time"":5691.299999952316},{""page_index"":1,""viewing_time"":7699.799999952316},{""page_index"":2,""viewing_time"":6017.700000047684},{""page_index"":3,""viewing_time"":6682.400000095367},{""page_index"":4,""viewing_time"":6049.599999904633},{""page_index"":5,""viewing_time"":6085},{""page_index"":6,""viewing_time"":4882.400000095367},{""page_index"":7,""viewing_time"":8254.200000047684},{""page_index"":8,""viewing_time"":6586.099999904633},{""page_index"":9,""viewing_time"":7260.299999952316},{""page_index"":10,""viewing_time"":8284.900000095367},{""page_index"":11,""viewing_time"":6049.399999856949},{""page_index"":12,""viewing_time"":7366.100000143051},{""page_index"":13,""viewing_time"":8818.200000047684},{""page_index"":14,""viewing_time"":8798.899999856949},{""page_index"":15,""viewing_time"":6817.100000143051},{""page_index"":16,""viewing_time"":6483.299999952316},{""page_index"":17,""viewing_time"":8884.700000047684}]","126711.79999995232","","","","","","","","","","","","","","","","","","","","","","","",""
"pit-trial","20","363804","0.0-2.0-8.0-0.0","battery-v0.2","","""event"",""trial"",""time""
""fullscreenenter"",""1"",""2988""
","
","
","""event"",""trial"",""time""
""fullscreenenter"",""1"",""2988""
","
","","","714.7999999523163","","","18","10933","5065","&#9776;","elianto","#3366ff99"," "," ","1","+10","[1565]","1","0","1","","","","","","","",""
"pit-trial","21","367060","0.0-2.0-8.0-1.0","battery-v0.2","","""event"",""trial"",""time""
""fullscreenenter"",""1"",""2988""
","
","
","""event"",""trial"",""time""
""fullscreenenter"",""1"",""2988""
","
","","","395.89999985694885","","","18","10933","5065","&#9776;","elianto","#3366ff99"," "," ","1","+10","[1246.5]","1","0","1","","","","","","","",""
"pit-trial","22","370357","0.0-2.0-8.0-2.0","battery-v0.2","","""event"",""trial"",""time""
""fullscreenenter"",""1"",""2988""
","
","
","""event"",""trial"",""time""
""fullscreenenter"",""1"",""2988""
","
","","","422.2000000476837","","","18","10933","5065","&#9776;","elianto","#3366ff99"," "," ","1","+10","[1280.2999999523163]","1","0","1","","","","","","","",""
"pit-trial","23","373668","0.0-2.0-8.0-3.0","battery-v0.2","","""event"",""trial"",""time""
""fullscreenenter"",""1"",""2988""
","
","
","""event"",""trial"",""time""
""fullscreenenter"",""1"",""2988""
","
","","","444.40000009536743","","","18","10933","5065","&#9776;","elianto","#3366ff99"," "," ","1","0","[1301.8999998569489]","1","0","1","","","","","","","",""
"pit-trial","24","376972","0.0-2.0-8.0-4.0","battery-v0.2","","""event"",""trial"",""time""
""fullscreenenter"",""1"",""2988""
","
","
","""event"",""trial"",""time""
""fullscreenenter"",""1"",""2988""
","
","","","436.5","","","18","10933","5065","&#9776;","elianto","#3366ff99"," "," ","1","+10","[1289.2999999523163]","1","0","1","","","","","","","",""
"pit-trial","25","380332","0.0-2.0-8.1-0.1","battery-v0.2","","""event"",""trial"",""time""
""fullscreenenter"",""1"",""2988""
","
","
","""event"",""trial"",""time""
""fullscreenenter"",""1"",""2988""
","
","","","492.09999990463257","","","18","10933","5065","&#9776;","elianto","#3366ff99"," "," ","1","+10","[1345.8999998569489]","1","0","1","","","","","","","",""
"pit-trial","26","383796","0.0-2.0-8.1-1.1","battery-v0.2","","""event"",""trial"",""time""
""fullscreenenter"",""1"",""2988""
","
","
","""event"",""trial"",""time""
""fullscreenenter"",""1"",""2988""
","
","","","593.1000001430511","","","18","10933","5065","&#9776;","elianto","#3366ff99"," "," ","1","+10","[1447.7000000476837]","1","0","1","","","","","","","",""
"pit-trial","27","387220","0.0-2.0-8.1-2.1","battery-v0.2","","""event"",""trial"",""time""
""fullscreenenter"",""1"",""2988""
","
","
","""event"",""trial"",""time""
""fullscreenenter"",""1"",""2988""
","
","","","555.7999999523163","","","18","10933","5065","&#9776;","elianto","#3366ff99"," "," ","1","+10","[1413.6000001430511]","1","0","1","","","","","","","",""
"pit-trial","28","390668","0.0-2.0-8.1-3.1","battery-v0.2","","""event"",""trial"",""time""
""fullscreenenter"",""1"",""2988""
","
","
","""event"",""trial"",""time""
""fullscreenenter"",""1"",""2988""
","
","","","579.8999998569489","","","18","10933","5065","&#9776;","elianto","#3366ff99"," "," ","1","0","[1431.0999999046326]","1","0","1","","","","","","","",""
"pit-trial","29","393916","0.0-2.0-8.1-4.1","battery-v0.2","","""event"",""trial"",""time""
""fullscreenenter"",""1"",""2988""
","
","
","""event"",""trial"",""time""
""fullscreenenter"",""1"",""2988""
","
","","","382.19999980926514","","","18","10933","5065","&#9776;","elianto","#3366ff99"," "," ","1","+10","[1234.3999998569489]","1","0","1","","","","","","","",""
"pit-trial","30","396948","0.0-2.0-8.2-0.2","battery-v0.2","","""event"",""trial"",""time""
""fullscreenenter"",""1"",""2988""
","
","
","""event"",""trial"",""time""
""fullscreenenter"",""1"",""2988""
","
","","","173.29999995231628","","","18","10933","5065","&#9776;","elianto","#3366ff99"," "," ","1","+10","[1027.5999999046326]","1","0","1","","","","","","","",""
"pit-trial","31","400508","0.0-2.0-8.2-1.2","battery-v0.2","","""event"",""trial"",""time""
""fullscreenenter"",""1"",""2988""
","
","
","""event"",""trial"",""time""
""fullscreenenter"",""1"",""2988""
","
","","","689.2999999523163","","","18","10933","5065","&#9776;","elianto","#3366ff99"," "," ","1","+10","[1544.5999999046326]","1","0","1","","","","","","","",""
"pit-trial","32","403721","0.0-2.0-8.2-2.2","battery-v0.2","","""event"",""trial"",""time""
""fullscreenenter"",""1"",""2988""
","
","
","""event"",""trial"",""time""
""fullscreenenter"",""1"",""2988""
","
","","","348.7999999523163","","","18","10933","5065","&#9776;","elianto","#3366ff99"," "," ","1","+10","[1206]","1","0","1","","","","","","","",""
"pit-trial","33","406971","0.0-2.0-8.2-3.2","battery-v0.2","","""event"",""trial"",""time""
""fullscreenenter"",""1"",""2988""
","
","
","""event"",""trial"",""time""
""fullscreenenter"",""1"",""2988""
","
","","","389","","","18","10933","5065","&#9776;","elianto","#3366ff99"," "," ","1","0","[1239.1999998092651]","1","0","1","","","","","","","",""
"pit-trial","34","410233","0.0-2.0-8.2-4.2","battery-v0.2","","""event"",""trial"",""time""
""fullscreenenter"",""1"",""2988""
","
","
","""event"",""trial"",""time""
""fullscreenenter"",""1"",""2988""
","
","","","392.60000014305115","","","18","10933","5065","&#9776;","elianto","#3366ff99"," "," ","1","+10","[1249.7999999523163]","1","0","1","","","","","","","",""
"call-function","35","410236","0.0-2.0-9.0","battery-v0.2","","""event"",""trial"",""time""
""fullscreenenter"",""1"",""2988""
","
","
","""event"",""trial"",""time""
""fullscreenenter"",""1"",""2988""
","
","","","","","","","","","","","","","","","","","","","","","","","","","","",""
"pit-instructions","36","458661","0.0-2.0-10.0","battery-v0.2","","""event"",""trial"",""time""
""fullscreenenter"",""1"",""2988""
","
","
","""event"",""trial"",""time""
""fullscreenenter"",""1"",""2988""
","
","","[{""page_index"":0,""viewing_time"":7648.200000047684},{""page_index"":1,""viewing_time"":7908.799999952316},{""page_index"":2,""viewing_time"":12116.799999952316},{""page_index"":3,""viewing_time"":13183.900000095367},{""page_index"":4,""viewing_time"":7567.099999904633}]","48425.200000047684","","","","","","","","","","","","","","","","","","","","","","","",""
"pit-trial","37","463530","0.0-2.0-11.0-0.0","battery-v0.2","","""event"",""trial"",""time""
""fullscreenenter"",""1"",""2988""
","
","
","""event"",""trial"",""time""
""fullscreenenter"",""1"",""2988""
","
","","","-1","","","18","10933","5065","&#9761;","elianto","#3366ff99","-1","-1","1","+10","[]","0","0","2","","","","","","","",""
"pit-trial","38","468401","0.0-2.0-11.0-1.0","battery-v0.2","","""event"",""trial"",""time""
""fullscreenenter"",""1"",""2988""
","
","
","""event"",""trial"",""time""
""fullscreenenter"",""1"",""2988""
","
","","","-1","","","18","10933","5065","&#9761;","elianto","#3366ff99","-1","-1","1","+10","[]","0","0","2","","","","","","","",""
"pit-trial","39","473272","0.0-2.0-11.0-2.0","battery-v0.2","","""event"",""trial"",""time""
""fullscreenenter"",""1"",""2988""
","
","
","""event"",""trial"",""time""
""fullscreenenter"",""1"",""2988""
","
","","","-1","","","18","10933","5065","&#9761;","elianto","#3366ff99","-1","-1","1","+10","[]","0","0","2","","","","","","","",""
"pit-trial","40","478146","0.0-2.0-11.0-3.0","battery-v0.2","","""event"",""trial"",""time""
""fullscreenenter"",""1"",""2988""
","
","
","""event"",""trial"",""time""
""fullscreenenter"",""1"",""2988""
","
","","","-1","","","18","10933","5065","&#9761;","elianto","#3366ff99","-1","-1","1","0","[]","0","0","2","","","","","","","",""
"pit-trial","41","481337","0.0-2.0-11.0-4.0","battery-v0.2","","""event"",""trial"",""time""
""fullscreenenter"",""1"",""2988""
","
","
","""event"",""trial"",""time""
""fullscreenenter"",""1"",""2988""
","
","","","319.5","","","18","10933","5065","&#9761;","elianto","#3366ff99","-1"," ","0","0","[1176.2000000476837]","1","0","2","","","","","","","",""
"pit-trial","42","486210","0.0-2.0-11.1-0.1","battery-v0.2","","""event"",""trial"",""time""
""fullscreenenter"",""1"",""2988""
","
","
","""event"",""trial"",""time""
""fullscreenenter"",""1"",""2988""
","
","","","-1","","","18","10933","5065","&#9761;","elianto","#3366ff99","-1","-1","1","+10","[]","0","0","2","","","","","","","",""
"pit-trial","43","491081","0.0-2.0-11.1-1.1","battery-v0.2","","""event"",""trial"",""time""
""fullscreenenter"",""1"",""2988""
","
","
","""event"",""trial"",""time""
""fullscreenenter"",""1"",""2988""
","
","","","-1","","","18","10933","5065","&#9761;","elianto","#3366ff99","-1","-1","1","+10","[]","0","0","2","","","","","","","",""
"pit-trial","44","495954","0.0-2.0-11.1-2.1","battery-v0.2","","""event"",""trial"",""time""
""fullscreenenter"",""1"",""2988""
","
","
","""event"",""trial"",""time""
""fullscreenenter"",""1"",""2988""
","
","","","-1","","","18","10933","5065","&#9761;","elianto","#3366ff99","-1","-1","1","+10","[]","0","0","2","","","","","","","",""
"pit-trial","45","499281","0.0-2.0-11.1-3.1","battery-v0.2","","""event"",""trial"",""time""
""fullscreenenter"",""1"",""2988""
","
","
","""event"",""trial"",""time""
""fullscreenenter"",""1"",""2988""
","
","","","460.90000009536743","","","18","10933","5065","&#9761;","elianto","#3366ff99","-1"," ","0","+10","[1311.2999999523163]","1","0","2","","","","","","","",""
"pit-trial","46","502801","0.0-2.0-11.1-4.1","battery-v0.2","","""event"",""trial"",""time""
""fullscreenenter"",""1"",""2988""
","
","
","""event"",""trial"",""time""
""fullscreenenter"",""1"",""2988""
","
","","","649.6000001430511","","","18","10933","5065","&#9761;","elianto","#3366ff99","-1"," ","0","0","[1506]","1","0","2","","","","","","","",""
"pit-trial","47","507669","0.0-2.0-11.2-0.2","battery-v0.2","","""event"",""trial"",""time""
""fullscreenenter"",""1"",""2988""
","
","
","""event"",""trial"",""time""
""fullscreenenter"",""1"",""2988""
","
","","","-1","","","18","10933","5065","&#9761;","elianto","#3366ff99","-1","-1","1","+10","[]","0","0","2","","","","","","","",""
"pit-trial","48","512537","0.0-2.0-11.2-1.2","battery-v0.2","","""event"",""trial"",""time""
""fullscreenenter"",""1"",""2988""
","
","
","""event"",""trial"",""time""
""fullscreenenter"",""1"",""2988""
","
","","","-1","","","18","10933","5065","&#9761;","elianto","#3366ff99","-1","-1","1","+10","[]","0","0","2","","","","","","","",""
"pit-trial","49","517406","0.0-2.0-11.2-2.2","battery-v0.2","","""event"",""trial"",""time""
""fullscreenenter"",""1"",""2988""
","
","
","""event"",""trial"",""time""
""fullscreenenter"",""1"",""2988""
","
","","","-1","","","18","10933","5065","&#9761;","elianto","#3366ff99","-1","-1","1","+10","[]","0","0","2","","","","","","","",""
"pit-trial","50","522281","0.0-2.0-11.2-3.2","battery-v0.2","","""event"",""trial"",""time""
""fullscreenenter"",""1"",""2988""
","
","
","""event"",""trial"",""time""
""fullscreenenter"",""1"",""2988""
","
","","","-1","","","18","10933","5065","&#9761;","elianto","#3366ff99","-1","-1","1","0","[]","0","0","2","","","","","","","",""
"pit-trial","51","527152","0.0-2.0-11.2-4.2","battery-v0.2","","""event"",""trial"",""time""
""fullscreenenter"",""1"",""2988""
","
","
","""event"",""trial"",""time""
""fullscreenenter"",""1"",""2988""
","
","","","-1","","","18","10933","5065","&#9761;","elianto","#3366ff99","-1","-1","1","+10","[]","0","0","2","","","","","","","",""
"pit-trial","52","532024","0.0-2.0-11.3-0.3","battery-v0.2","","""event"",""trial"",""time""
""fullscreenenter"",""1"",""2988""
","
","
","""event"",""trial"",""time""
""fullscreenenter"",""1"",""2988""
","
","","","-1","","","18","10933","5065","&#9761;","elianto","#3366ff99","-1","-1","1","+10","[]","0","0","2","","","","","","","",""
"pit-trial","53","536892","0.0-2.0-11.3-1.3","battery-v0.2","","""event"",""trial"",""time""
""fullscreenenter"",""1"",""2988""
","
","
","""event"",""trial"",""time""
""fullscreenenter"",""1"",""2988""
","
","","","-1","","","18","10933","5065","&#9761;","elianto","#3366ff99","-1","-1","1","+10","[]","0","0","2","","","","","","","",""
"pit-trial","54","541758","0.0-2.0-11.3-2.3","battery-v0.2","","""event"",""trial"",""time""
""fullscreenenter"",""1"",""2988""
","
","
","""event"",""trial"",""time""
""fullscreenenter"",""1"",""2988""
","
","","","-1","","","18","10933","5065","&#9761;","elianto","#3366ff99","-1","-1","1","+10","[]","0","0","2","","","","","","","",""
"pit-trial","55","546632","0.0-2.0-11.3-3.3","battery-v0.2","","""event"",""trial"",""time""
""fullscreenenter"",""1"",""2988""
","
","
","""event"",""trial"",""time""
""fullscreenenter"",""1"",""2988""
","
","","","-1","","","18","10933","5065","&#9761;","elianto","#3366ff99","-1","-1","1","0","[]","0","0","2","","","","","","","",""
"pit-trial","56","551504","0.0-2.0-11.3-4.3","battery-v0.2","","""event"",""trial"",""time""
""fullscreenenter"",""1"",""2988""
","
","
","""event"",""trial"",""time""
""fullscreenenter"",""1"",""2988""
","
","","","-1","","","18","10933","5065","&#9761;","elianto","#3366ff99","-1","-1","1","+10","[]","0","0","2","","","","","","","",""
"call-function","57","551507","0.0-2.0-12.0","battery-v0.2","","""event"",""trial"",""time""
""fullscreenenter"",""1"",""2988""
","
","
","""event"",""trial"",""time""
""fullscreenenter"",""1"",""2988""
","
","","","","","","","","","","","","","","","","","","","","","","","","","","",""
"pit-instructions","58","583228","0.0-2.0-13.0","battery-v0.2","","""event"",""trial"",""time""
""fullscreenenter"",""1"",""2988""
","
","
","""event"",""trial"",""time""
""fullscreenenter"",""1"",""2988""
","
","","[{""page_index"":0,""viewing_time"":5435.400000095367},{""page_index"":1,""viewing_time"":7083.799999952316},{""page_index"":2,""viewing_time"":3567.4000000953674},{""page_index"":3,""viewing_time"":10665.700000047684},{""page_index"":4,""viewing_time"":4967.799999952316}]","31720.60000014305","","","","","","","","","","","","","","","","","","","","","","","",""
"pit-trial","59","586623","0.0-2.0-14.0-0.0","battery-v0.2","","""event"",""trial"",""time""
""fullscreenenter"",""1"",""2988""
","
","
","""event"",""trial"",""time""
""fullscreenenter"",""1"",""2988""
","
","","","530","","","18","10933","5065","&#9826;","elianto","#f73b6a7A","-1"," ","0","-10","[1383.2999999523163]","1","0","3","","","","","","","",""
"pit-trial","60","591495","0.0-2.0-14.0-1.0","battery-v0.2","","""event"",""trial"",""time""
""fullscreenenter"",""1"",""2988""
","
","
","""event"",""trial"",""time""
""fullscreenenter"",""1"",""2988""
","
","","","-1","","","18","10933","5065","&#9826;","elianto","#f73b6a7A","-1","-1","1","0","[]","0","0","3","","","","","","","",""
"pit-trial","61","596363","0.0-2.0-14.0-2.0","battery-v0.2","","""event"",""trial"",""time""
""fullscreenenter"",""1"",""2988""
","
","
","""event"",""trial"",""time""
""fullscreenenter"",""1"",""2988""
","
","","","-1","","","18","10933","5065","&#9826;","elianto","#f73b6a7A","-1","-1","1","0","[]","0","0","3","","","","","","","",""
"pit-trial","62","601231","0.0-2.0-14.0-3.0","battery-v0.2","","""event"",""trial"",""time""
""fullscreenenter"",""1"",""2988""
","
","
","""event"",""trial"",""time""
""fullscreenenter"",""1"",""2988""
","
","","","-1","","","18","10933","5065","&#9826;","elianto","#f73b6a7A","-1","-1","1","-10","[]","0","0","3","","","","","","","",""
"pit-trial","63","606101","0.0-2.0-14.0-4.0","battery-v0.2","","""event"",""trial"",""time""
""fullscreenenter"",""1"",""2988""
","
","
","""event"",""trial"",""time""
""fullscreenenter"",""1"",""2988""
","
","","","-1","","","18","10933","5065","&#9826;","elianto","#f73b6a7A","-1","-1","1","0","[]","0","0","3","","","","","","","",""
"pit-trial","64","610970","0.0-2.0-14.1-0.1","battery-v0.2","","""event"",""trial"",""time""
""fullscreenenter"",""1"",""2988""
","
","
","""event"",""trial"",""time""
""fullscreenenter"",""1"",""2988""
","
","","","-1","","","18","10933","5065","&#9826;","elianto","#f73b6a7A","-1","-1","1","0","[]","0","0","3","","","","","","","",""
"pit-trial","65","615839","0.0-2.0-14.1-1.1","battery-v0.2","","""event"",""trial"",""time""
""fullscreenenter"",""1"",""2988""
","
","
","""event"",""trial"",""time""
""fullscreenenter"",""1"",""2988""
","
","","","-1","","","18","10933","5065","&#9826;","elianto","#f73b6a7A","-1","-1","1","0","[]","0","0","3","","","","","","","",""
"pit-trial","66","620710","0.0-2.0-14.1-2.1","battery-v0.2","","""event"",""trial"",""time""
""fullscreenenter"",""1"",""2988""
","
","
","""event"",""trial"",""time""
""fullscreenenter"",""1"",""2988""
","
","","","-1","","","18","10933","5065","&#9826;","elianto","#f73b6a7A","-1","-1","1","0","[]","0","0","3","","","","","","","",""
"pit-trial","67","625583","0.0-2.0-14.1-3.1","battery-v0.2","","""event"",""trial"",""time""
""fullscreenenter"",""1"",""2988""
","
","
","""event"",""trial"",""time""
""fullscreenenter"",""1"",""2988""
","
","","","-1","","","18","10933","5065","&#9826;","elianto","#f73b6a7A","-1","-1","1","-10","[]","0","0","3","","","","","","","",""
"pit-trial","68","630453","0.0-2.0-14.1-4.1","battery-v0.2","","""event"",""trial"",""time""
""fullscreenenter"",""1"",""2988""
","
","
","""event"",""trial"",""time""
""fullscreenenter"",""1"",""2988""
","
","","","-1","","","18","10933","5065","&#9826;","elianto","#f73b6a7A","-1","-1","1","0","[]","0","0","3","","","","","","","",""
"pit-trial","69","635326","0.0-2.0-14.2-0.2","battery-v0.2","","""event"",""trial"",""time""
""fullscreenenter"",""1"",""2988""
","
","
","""event"",""trial"",""time""
""fullscreenenter"",""1"",""2988""
","
","","","-1","","","18","10933","5065","&#9826;","elianto","#f73b6a7A","-1","-1","1","0","[]","0","0","3","","","","","","","",""
"pit-trial","70","640198","0.0-2.0-14.2-1.2","battery-v0.2","","""event"",""trial"",""time""
""fullscreenenter"",""1"",""2988""
","
","
","""event"",""trial"",""time""
""fullscreenenter"",""1"",""2988""
","
","","","-1","","","18","10933","5065","&#9826;","elianto","#f73b6a7A","-1","-1","1","0","[]","0","0","3","","","","","","","",""
"pit-trial","71","645070","0.0-2.0-14.2-2.2","battery-v0.2","","""event"",""trial"",""time""
""fullscreenenter"",""1"",""2988""
","
","
","""event"",""trial"",""time""
""fullscreenenter"",""1"",""2988""
","
","","","-1","","","18","10933","5065","&#9826;","elianto","#f73b6a7A","-1","-1","1","0","[]","0","0","3","","","","","","","",""
"pit-trial","72","649937","0.0-2.0-14.2-3.2","battery-v0.2","","""event"",""trial"",""time""
""fullscreenenter"",""1"",""2988""
","
","
","""event"",""trial"",""time""
""fullscreenenter"",""1"",""2988""
","
","","","-1","","","18","10933","5065","&#9826;","elianto","#f73b6a7A","-1","-1","1","-10","[]","0","0","3","","","","","","","",""
"pit-trial","73","654806","0.0-2.0-14.2-4.2","battery-v0.2","","""event"",""trial"",""time""
""fullscreenenter"",""1"",""2988""
","
","
","""event"",""trial"",""time""
""fullscreenenter"",""1"",""2988""
","
","","","-1","","","18","10933","5065","&#9826;","elianto","#f73b6a7A","-1","-1","1","0","[]","0","0","3","","","","","","","",""
"pit-trial","74","659677","0.0-2.0-14.3-0.3","battery-v0.2","","""event"",""trial"",""time""
""fullscreenenter"",""1"",""2988""
","
","
","""event"",""trial"",""time""
""fullscreenenter"",""1"",""2988""
","
","","","-1","","","18","10933","5065","&#9826;","elianto","#f73b6a7A","-1","-1","1","0","[]","0","0","3","","","","","","","",""
"pit-trial","75","664544","0.0-2.0-14.3-1.3","battery-v0.2","","""event"",""trial"",""time""
""fullscreenenter"",""1"",""2988""
","
","
","""event"",""trial"",""time""
""fullscreenenter"",""1"",""2988""
","
","","","-1","","","18","10933","5065","&#9826;","elianto","#f73b6a7A","-1","-1","1","0","[]","0","0","3","","","","","","","",""
"pit-trial","76","669413","0.0-2.0-14.3-2.3","battery-v0.2","","""event"",""trial"",""time""
""fullscreenenter"",""1"",""2988""
","
","
","""event"",""trial"",""time""
""fullscreenenter"",""1"",""2988""
","
","","","-1","","","18","10933","5065","&#9826;","elianto","#f73b6a7A","-1","-1","1","0","[]","0","0","3","","","","","","","",""
"pit-trial","77","674282","0.0-2.0-14.3-3.3","battery-v0.2","","""event"",""trial"",""time""
""fullscreenenter"",""1"",""2988""
","
","
","""event"",""trial"",""time""
""fullscreenenter"",""1"",""2988""
","
","","","-1","","","18","10933","5065","&#9826;","elianto","#f73b6a7A","-1","-1","1","-10","[]","0","0","3","","","","","","","",""
"pit-trial","78","679157","0.0-2.0-14.3-4.3","battery-v0.2","","""event"",""trial"",""time""
""fullscreenenter"",""1"",""2988""
","
","
","""event"",""trial"",""time""
""fullscreenenter"",""1"",""2988""
","
","","","-1","","","18","10933","5065","&#9826;","elianto","#f73b6a7A","-1","-1","1","0","[]","0","0","3","","","","","","","",""
"call-function","79","679161","0.0-2.0-15.0","battery-v0.2","","""event"",""trial"",""time""
""fullscreenenter"",""1"",""2988""
","
","
","""event"",""trial"",""time""
""fullscreenenter"",""1"",""2988""
","
","","","","","","","","","","","","","","","","","","","","","","","","","","",""
"pit-instructions","80","707093","0.0-2.0-16.0","battery-v0.2","","""event"",""trial"",""time""
""fullscreenenter"",""1"",""2988""
","
","
","""event"",""trial"",""time""
""fullscreenenter"",""1"",""2988""
","
","","[{""page_index"":0,""viewing_time"":9356.200000047684},{""page_index"":1,""viewing_time"":8927.099999904633},{""page_index"":2,""viewing_time"":4599.200000047684},{""page_index"":3,""viewing_time"":5049.799999952316}]","27932.599999904633","","","","","","","","","","","","","","","","","","","","","","","",""
"pit-trial","81","710357","0.0-2.0-17.0-0.0","battery-v0.2","","""event"",""trial"",""time""
""fullscreenenter"",""1"",""2988""
","
","
","""event"",""trial"",""time""
""fullscreenenter"",""1"",""2988""
","
","","","391.09999990463257","","","18","10933","5065","&#9789;","elianto","#f73b6a7A"," "," ","1","0","[1249.7000000476837]","1","0","4","","","","","","","",""
"pit-trial","82","713516","0.0-2.0-17.0-1.0","battery-v0.2","","""event"",""trial"",""time""
""fullscreenenter"",""1"",""2988""
","
","
","""event"",""trial"",""time""
""fullscreenenter"",""1"",""2988""
","
","","","287.7000000476837","","","18","10933","5065","&#9789;","elianto","#f73b6a7A"," "," ","1","0","[1144.4000000953674]","1","0","4","","","","","","","",""
"pit-trial","83","716532","0.0-2.0-17.0-2.0","battery-v0.2","","""event"",""trial"",""time""
""fullscreenenter"",""1"",""2988""
","
","
","""event"",""trial"",""time""
""fullscreenenter"",""1"",""2988""
","
","","","151.40000009536743","","","18","10933","5065","&#9789;","elianto","#f73b6a7A"," "," ","1","0","[1002.4000000953674]","1","0","4","","","","","","","",""
"pit-trial","84","719579","0.0-2.0-17.0-3.0","battery-v0.2","","""event"",""trial"",""time""
""fullscreenenter"",""1"",""2988""
","
","
","""event"",""trial"",""time""
""fullscreenenter"",""1"",""2988""
","
","","","183.29999995231628","","","18","10933","5065","&#9789;","elianto","#f73b6a7A"," "," ","1","-10","[1034]","1","0","4","","","","","","","",""
"pit-trial","85","722816","0.0-2.0-17.0-4.0","battery-v0.2","","""event"",""trial"",""time""
""fullscreenenter"",""1"",""2988""
","
","
","""event"",""trial"",""time""
""fullscreenenter"",""1"",""2988""
","
","","","370.2000000476837","","","18","10933","5065","&#9789;","elianto","#f73b6a7A"," "," ","1","0","[1228.1999998092651]","1","0","4","","","","","","","",""
"pit-trial","86","726028","0.0-2.0-17.1-0.1","battery-v0.2","","""event"",""trial"",""time""
""fullscreenenter"",""1"",""2988""
","
","
","""event"",""trial"",""time""
""fullscreenenter"",""1"",""2988""
","
","","","345.2000000476837","","","18","10933","5065","&#9789;","elianto","#f73b6a7A"," "," ","1","0","[1197.5999999046326]","1","0","4","","","","","","","",""
"pit-trial","87","729160","0.0-2.0-17.1-1.1","battery-v0.2","","""event"",""trial"",""time""
""fullscreenenter"",""1"",""2988""
","
","
","""event"",""trial"",""time""
""fullscreenenter"",""1"",""2988""
","
","","","264.5","","","18","10933","5065","&#9789;","elianto","#f73b6a7A"," "," ","1","0","[1120.1000001430511]","1","0","4","","","","","","","",""
"pit-trial","88","732408","0.0-2.0-17.1-2.1","battery-v0.2","","""event"",""trial"",""time""
""fullscreenenter"",""1"",""2988""
","
","
","""event"",""trial"",""time""
""fullscreenenter"",""1"",""2988""
","
","","","382.90000009536743","","","18","10933","5065","&#9789;","elianto","#f73b6a7A"," "," ","1","0","[1235]","1","0","4","","","","","","","",""
"pit-trial","89","735700","0.0-2.0-17.1-3.1","battery-v0.2","","""event"",""trial"",""time""
""fullscreenenter"",""1"",""2988""
","
","
","""event"",""trial"",""time""
""fullscreenenter"",""1"",""2988""
","
","","","420.7999999523163","","","18","10933","5065","&#9789;","elianto","#f73b6a7A"," "," ","1","-10","[1281.7000000476837]","1","0","4","","","","","","","",""
"pit-trial","90","738972","0.0-2.0-17.1-4.1","battery-v0.2","","""event"",""trial"",""time""
""fullscreenenter"",""1"",""2988""
","
","
","""event"",""trial"",""time""
""fullscreenenter"",""1"",""2988""
","
","","","409.7000000476837","","","18","10933","5065","&#9789;","elianto","#f73b6a7A"," "," ","1","0","[1262.5]","1","0","4","","","","","","","",""
"pit-trial","91","742490","0.0-2.0-17.2-0.2","battery-v0.2","","""event"",""trial"",""time""
""fullscreenenter"",""1"",""2988""
","
","
","""event"",""trial"",""time""
""fullscreenenter"",""1"",""2988""
","
","","","658.5","","","18","10933","5065","&#9789;","elianto","#f73b6a7A"," "," ","1","0","[1508.5]","1","0","4","","","","","","","",""
"pit-trial","92","745683","0.0-2.0-17.2-1.2","battery-v0.2","","""event"",""trial"",""time""
""fullscreenenter"",""1"",""2988""
","
","
","""event"",""trial"",""time""
""fullscreenenter"",""1"",""2988""
","
","","","320.2999999523163","","","18","10933","5065","&#9789;","elianto","#f73b6a7A"," "," ","1","0","[1177.7999999523163]","1","0","4","","","","","","","",""
"pit-trial","93","748972","0.0-2.0-17.2-2.2","battery-v0.2","","""event"",""trial"",""time""
""fullscreenenter"",""1"",""2988""
","
","
","""event"",""trial"",""time""
""fullscreenenter"",""1"",""2988""
","
","","","425.7999999523163","","","18","10933","5065","&#9789;","elianto","#f73b6a7A"," "," ","1","0","[1278.0999999046326]","1","0","4","","","","","","","",""
"pit-trial","94","752255","0.0-2.0-17.2-3.2","battery-v0.2","","""event"",""trial"",""time""
""fullscreenenter"",""1"",""2988""
","
","
","""event"",""trial"",""time""
""fullscreenenter"",""1"",""2988""
","
","","","417.90000009536743","","","18","10933","5065","&#9789;","elianto","#f73b6a7A"," "," ","1","-10","[1274.9000000953674]","1","0","4","","","","","","","",""
"pit-trial","95","755539","0.0-2.0-17.2-4.2","battery-v0.2","","""event"",""trial"",""time""
""fullscreenenter"",""1"",""2988""
","
","
","""event"",""trial"",""time""
""fullscreenenter"",""1"",""2988""
","
","","","416.5","","","18","10933","5065","&#9789;","elianto","#f73b6a7A"," "," ","1","0","[1266.9000000953674]","1","0","4","","","","","","","",""
"pit-trial","96","758859","0.0-2.0-17.3-0.3","battery-v0.2","","""event"",""trial"",""time""
""fullscreenenter"",""1"",""2988""
","
","
","""event"",""trial"",""time""
""fullscreenenter"",""1"",""2988""
","
","","","452.2999999523163","","","18","10933","5065","&#9789;","elianto","#f73b6a7A"," "," ","1","0","[1308.8000001907349]","1","0","4","","","","","","","",""
"pit-trial","97","762161","0.0-2.0-17.3-1.3","battery-v0.2","","""event"",""trial"",""time""
""fullscreenenter"",""1"",""2988""
","
","
","""event"",""trial"",""time""
""fullscreenenter"",""1"",""2988""
","
","","","430.7999999523163","","","18","10933","5065","&#9789;","elianto","#f73b6a7A"," "," ","1","0","[1288.7999999523163]","1","0","4","","","","","","","",""
"pit-trial","98","765419","0.0-2.0-17.3-2.3","battery-v0.2","","""event"",""trial"",""time""
""fullscreenenter"",""1"",""2988""
","
","
","""event"",""trial"",""time""
""fullscreenenter"",""1"",""2988""
","
","","","390.2999999523163","","","18","10933","5065","&#9789;","elianto","#f73b6a7A"," "," ","1","0","[1246.7000000476837]","1","0","4","","","","","","","",""
"pit-trial","99","768739","0.0-2.0-17.3-3.3","battery-v0.2","","""event"",""trial"",""time""
""fullscreenenter"",""1"",""2988""
","
","
","""event"",""trial"",""time""
""fullscreenenter"",""1"",""2988""
","
","","","454.7999999523163","","","18","10933","5065","&#9789;","elianto","#f73b6a7A"," "," ","1","-10","[1305.3999998569489]","1","0","4","","","","","","","",""
"pit-trial","100","772051","0.0-2.0-17.3-4.3","battery-v0.2","","""event"",""trial"",""time""
""fullscreenenter"",""1"",""2988""
","
","
","""event"",""trial"",""time""
""fullscreenenter"",""1"",""2988""
","
","","","444.40000009536743","","","18","10933","5065","&#9789;","elianto","#f73b6a7A"," "," ","1","0","[1294.9000000953674]","1","0","4","","","","","","","",""
"call-function","101","772054","0.0-2.0-18.0","battery-v0.2","","""event"",""trial"",""time""
""fullscreenenter"",""1"",""2988""
","
","
","""event"",""trial"",""time""
""fullscreenenter"",""1"",""2988""
","
","","","","","","","","","","","","","","","","","","","","","","","","","","",""
"pit-instructions","102","845010","0.0-2.0-19.0","battery-v0.2","","""event"",""trial"",""time""
""fullscreenenter"",""1"",""2988""
","
","
","""event"",""trial"",""time""
""fullscreenenter"",""1"",""2988""
","
","","[{""page_index"":0,""viewing_time"":6465.400000095367},{""page_index"":1,""viewing_time"":6041.5},{""page_index"":2,""viewing_time"":15182.099999904633},{""page_index"":3,""viewing_time"":8334.5},{""page_index"":4,""viewing_time"":9122.900000095367},{""page_index"":5,""viewing_time"":8166.299999952316},{""page_index"":6,""viewing_time"":8977.799999952316},{""page_index"":7,""viewing_time"":6434.600000143051},{""page_index"":8,""viewing_time"":4232.099999904633}]","72957.5","","","","","","","","","","","","","","","","","","","","","","","",""
"pit-comprehension","103","849644","0.0-2.0-20.0-0.0","battery-v0.2","","""event"",""trial"",""time""
""fullscreenenter"",""1"",""2988""
","
","
","""event"",""trial"",""time""
""fullscreenenter"",""1"",""2988""
","
","","","4631.099999904633","[""SPACE""]","0","18","10933","5065","","","","","","","","","","","","","","","","","","",""
"pit-instructions","104","854194","0.0-2.0-20.0-1.0","battery-v0.2","","""event"",""trial"",""time""
""fullscreenenter"",""1"",""2988""
","
","
","""event"",""trial"",""time""
""fullscreenenter"",""1"",""2988""
","
","","[{""page_index"":0,""viewing_time"":4524.300000190735}]","4524.5","","","","","","","","","","","","","","","","","","","","","","","",""
"pit-comprehension","105","859153","0.0-2.0-21.0-0.0","battery-v0.2","","""event"",""trial"",""time""
""fullscreenenter"",""1"",""2988""
","
","
","""event"",""trial"",""time""
""fullscreenenter"",""1"",""2988""
","
","","","4956.400000095367","[""10""]","0","18","10933","5065","","","","","","","","","","","","","","","","","","",""
"pit-instructions","106","861188","0.0-2.0-21.0-1.0","battery-v0.2","","""event"",""trial"",""time""
""fullscreenenter"",""1"",""2988""
","
","
","""event"",""trial"",""time""
""fullscreenenter"",""1"",""2988""
","
","","[{""page_index"":0,""viewing_time"":2012.2000000476837}]","2012.4000000953674","","","","","","","","","","","","","","","","","","","","","","","",""
"pit-comprehension","107","869334","0.0-2.0-22.0-0.0","battery-v0.2","","""event"",""trial"",""time""
""fullscreenenter"",""1"",""2988""
","
","
","""event"",""trial"",""time""
""fullscreenenter"",""1"",""2988""
","
","","","8144.200000047684","[""0""]","0","18","10933","5065","","","","","","","","","","","","","","","","","","",""
"pit-instructions","108","870912","0.0-2.0-22.0-1.0","battery-v0.2","","""event"",""trial"",""time""
""fullscreenenter"",""1"",""2988""
","
","
","""event"",""trial"",""time""
""fullscreenenter"",""1"",""2988""
","
","","[{""page_index"":0,""viewing_time"":1554.1999998092651}]","1554.3999998569489","","","","","","","","","","","","","","","","","","","","","","","",""
"pit-comprehension","109","886362","0.0-2.0-23.0-0.0","battery-v0.2","","""event"",""trial"",""time""
""fullscreenenter"",""1"",""2988""
","
","
","""event"",""trial"",""time""
""fullscreenenter"",""1"",""2988""
","
","","","15449.099999904633","[""True""]","0","18","10933","5065","","","","","","","","","","","","","","","","","","",""
"pit-instructions","110","888120","0.0-2.0-23.0-1.0","battery-v0.2","","""event"",""trial"",""time""
""fullscreenenter"",""1"",""2988""
","
","
","""event"",""trial"",""time""
""fullscreenenter"",""1"",""2988""
","
","","[{""page_index"":0,""viewing_time"":1732.8999998569489}]","1733.2000000476837","","","","","","","","","","","","","","","","","","","","","","","",""
"pit-comprehension","111","895677","0.0-2.0-24.0-0.0","battery-v0.2","","""event"",""trial"",""time""
""fullscreenenter"",""1"",""2988""
","
","
","""event"",""trial"",""time""
""fullscreenenter"",""1"",""2988""
","
","","","7554.900000095367","[""True""]","0","18","10933","5065","","","","","","","","","","","","","","","","","","",""
"pit-instructions","112","897277","0.0-2.0-24.0-1.0","battery-v0.2","","""event"",""trial"",""time""
""fullscreenenter"",""1"",""2988""
","
","
","""event"",""trial"",""time""
""fullscreenenter"",""1"",""2988""
","
","","[{""page_index"":0,""viewing_time"":1572.9000000953674}]","1573.0999999046326","","","","","","","","","","","","","","","","","","","","","","","",""
"pit-comprehension","113","903845","0.0-2.0-25.0-0.0","battery-v0.2","","""event"",""trial"",""time""
""fullscreenenter"",""1"",""2988""
","
","
","""event"",""trial"",""time""
""fullscreenenter"",""1"",""2988""
","
","","","6565.399999856949","[""True""]","0","18","10933","5065","","","","","","","","","","","","","","","","","","",""
"pit-instructions","114","905483","0.0-2.0-25.0-1.0","battery-v0.2","","""event"",""trial"",""time""
""fullscreenenter"",""1"",""2988""
","
","
","""event"",""trial"",""time""
""fullscreenenter"",""1"",""2988""
","
","","[{""page_index"":0,""viewing_time"":1613.7000000476837}]","1613.8999998569489","","","","","","","","","","","","","","","","","","","","","","","",""
"pit-comprehension","115","910913","0.0-2.0-26.0-0.0","battery-v0.2","","""event"",""trial"",""time""
""fullscreenenter"",""1"",""2988""
","
","
","""event"",""trial"",""time""
""fullscreenenter"",""1"",""2988""
","
","","","5428.200000047684","[""False""]","0","18","10933","5065","","","","","","","","","","","","","","","","","","",""
"pit-instructions","116","913093","0.0-2.0-26.0-1.0","battery-v0.2","","""event"",""trial"",""time""
""fullscreenenter"",""1"",""2988""
","
","
","""event"",""trial"",""time""
""fullscreenenter"",""1"",""2988""
","
","","[{""page_index"":0,""viewing_time"":2154.7000000476837}]","2154.899999856949","","","","","","","","","","","","","","","","","","","","","","","",""
"pit-instructions","117","929594","0.0-3.0","battery-v0.2","","""event"",""trial"",""time""
""fullscreenenter"",""1"",""2988""
","
","
","""event"",""trial"",""time""
""fullscreenenter"",""1"",""2988""
","
","","[{""page_index"":0,""viewing_time"":3698.300000190735},{""page_index"":1,""viewing_time"":5116.899999856949},{""page_index"":2,""viewing_time"":7683.700000047684}]","16499.10000014305","","","","","","","","","","","","","","","","","","","","","","","",""
"pit-trial","118","932863","0.0-4.0","battery-v0.2","","""event"",""trial"",""time""
""fullscreenenter"",""1"",""2988""
","
","
","""event"",""trial"",""time""
""fullscreenenter"",""1"",""2988""
","
","","","398.39999985694885","","","18","10933","5065","&#9733;","elianto","#3366ff99","-1"," ","0","0","[1251.7999999523163]","1","1","","","10933","1","2","2","win","no-go","0"
"pit-trial","119","936388","0.0-5.0","battery-v0.2","","""event"",""trial"",""time""
""fullscreenenter"",""1"",""2988""
","
","
","""event"",""trial"",""time""
""fullscreenenter"",""1"",""2988""
","
","","","658.4000000953674","","","18","10933","5065","&#9728;","elianto","#f73b6a7A","-1"," ","0","-10","[1512.7000000476837]","1","1","","","10933","2","0","4","lose","no-go","0"
"pit-trial","120","939842","0.0-6.0","battery-v0.2","","""event"",""trial"",""time""
""fullscreenenter"",""1"",""2988""
","
","
","""event"",""trial"",""time""
""fullscreenenter"",""1"",""2988""
","
","","","592.3999998569489","","","18","10933","5065","&#9730;","elianto","#3366ff99"," "," ","1","0","[1442.9000000953674]","1","1","","","10933","3","1","1","win","go","1"
"pit-trial","121","943359","0.0-7.0","battery-v0.2","","""event"",""trial"",""time""
""fullscreenenter"",""1"",""2988""
","
","
","""event"",""trial"",""time""
""fullscreenenter"",""1"",""2988""
","
","","","647.7000000476837","","","18","10933","5065","&#9752;","elianto","#f73b6a7A"," "," ","1","0","[1501.7999999523163]","1","1","","","10933","4","3","3","lose","go","0"
"pit-trial","122","946943","0.0-8.0","battery-v0.2","","""event"",""trial"",""time""
""fullscreenenter"",""1"",""2988""
","
","
","""event"",""trial"",""time""
""fullscreenenter"",""1"",""2988""
","
","","","716.8999998569489","","","18","10933","5065","&#9733;","elianto","#3366ff99","-1"," ","0","0","[1574]","1","1","","","10933","5","2","2","win","no-go","0"
"pit-trial","123","950621","0.0-9.0","battery-v0.2","","""event"",""trial"",""time""
""fullscreenenter"",""1"",""2988""
","
","
","""event"",""trial"",""time""
""fullscreenenter"",""1"",""2988""
","
","","","806.4000000953674","","","18","10933","5065","&#9752;","elianto","#f73b6a7A"," "," ","1","-10","[1664]","1","1","","","10933","6","3","3","lose","go","1"
"pit-trial","124","955495","0.0-10.0","battery-v0.2","","""event"",""trial"",""time""
""fullscreenenter"",""1"",""2988""
","
","
","""event"",""trial"",""time""
""fullscreenenter"",""1"",""2988""
","
","","","-1","","","18","10933","5065","&#9728;","elianto","#f73b6a7A","-1","-1","1","0","[]","0","1","","","10933","7","0","4","lose","no-go","0"
"pit-trial","125","960366","0.0-11.0","battery-v0.2","","""event"",""trial"",""time""
""fullscreenenter"",""1"",""2988""
","
","
","""event"",""trial"",""time""
""fullscreenenter"",""1"",""2988""
","
","","","-1","","","18","10933","5065","&#9730;","elianto","#3366ff99"," ","-1","0","0","[]","0","1","","","10933","8","1","1","win","go","0"
"pit-trial","126","964134","0.0-12.0","battery-v0.2","","""event"",""trial"",""time""
""fullscreenenter"",""1"",""2988""
","
","
","""event"",""trial"",""time""
""fullscreenenter"",""1"",""2988""
","
","","","896.9000000953674","","","18","10933","5065","&#9728;","elianto","#f73b6a7A","-1"," ","0","0","[1750.6000001430511]","1","1","","","10933","9","0","4","lose","no-go","1"
"pit-trial","127","969007","0.0-13.0","battery-v0.2","","""event"",""trial"",""time""
""fullscreenenter"",""1"",""2988""
","
","
","""event"",""trial"",""time""
""fullscreenenter"",""1"",""2988""
","
","","","-1","","","18","10933","5065","&#9733;","elianto","#3366ff99","-1","-1","1","+10","[]","0","1","","","10933","10","2","2","win","no-go","0"
"pit-trial","128","973390","0.0-14.0","battery-v0.2","","""event"",""trial"",""time""
""fullscreenenter"",""1"",""2988""
","
","
","""event"",""trial"",""time""
""fullscreenenter"",""1"",""2988""
","
","","","1519.2000000476837","","","18","10933","5065","&#9730;","elianto","#3366ff99"," "," ","1","+10","[2374]","1","1","","","10933","11","1","1","win","go","0"
"pit-trial","129","978262","0.0-15.0","battery-v0.2","","""event"",""trial"",""time""
""fullscreenenter"",""1"",""2988""
","
","
","""event"",""trial"",""time""
""fullscreenenter"",""1"",""2988""
","
","","","-1","","","18","10933","5065","&#9752;","elianto","#f73b6a7A"," ","-1","0","-10","[]","0","1","","","10933","12","3","3","lose","go","0"
"pit-trial","130","981870","0.0-16.0","battery-v0.2","","""event"",""trial"",""time""
""fullscreenenter"",""1"",""2988""
","
","
","""event"",""trial"",""time""
""fullscreenenter"",""1"",""2988""
","
","","","735.5999999046326","","","18","10933","5065","&#9733;","elianto","#3366ff99","-1"," ","0","0","[1592.7999999523163]","1","1","","","10933","13","2","2","win","no-go","0"
"pit-trial","131","986740","0.0-17.0","battery-v0.2","","""event"",""trial"",""time""
""fullscreenenter"",""1"",""2988""
","
","
","""event"",""trial"",""time""
""fullscreenenter"",""1"",""2988""
","
","","","-1","","","18","10933","5065","&#9752;","elianto","#f73b6a7A"," ","-1","0","-10","[]","0","1","","","10933","14","3","3","lose","go","0"
"pit-trial","132","991611","0.0-18.0","battery-v0.2","","""event"",""trial"",""time""
""fullscreenenter"",""1"",""2988""
","
","
","""event"",""trial"",""time""
""fullscreenenter"",""1"",""2988""
","
","","","-1","","","18","10933","5065","&#9728;","elianto","#f73b6a7A","-1","-1","1","0","[]","0","1","","","10933","15","0","4","lose","no-go","0"
"pit-trial","133","995427","0.0-19.0","battery-v0.2","","""event"",""trial"",""time""
""fullscreenenter"",""1"",""2988""
","
","
","""event"",""trial"",""time""
""fullscreenenter"",""1"",""2988""
","
","","","945","","","18","10933","5065","&#9730;","elianto","#3366ff99"," "," ","1","+10","[1803.5]","1","1","","","10933","16","1","1","win","go","0"
"pit-trial","134","1000301","0.0-20.0","battery-v0.2","","""event"",""trial"",""time""
""fullscreenenter"",""1"",""2988""
","
","
","""event"",""trial"",""time""
""fullscreenenter"",""1"",""2988""
","
","","","-1","","","18","10933","5065","&#9730;","elianto","#3366ff99"," ","-1","0","0","[2984.9000000953674]","1","1","","","10933","17","1","1","win","go","0"
"pit-trial","135","1004697","0.0-21.0","battery-v0.2","","""event"",""trial"",""time""
""fullscreenenter"",""1"",""2988""
","
","
","""event"",""trial"",""time""
""fullscreenenter"",""1"",""2988""
","
","","","1532.5999999046326","","","18","10933","5065","&#9752;","elianto","#f73b6a7A"," "," ","1","0","[2383.2000000476837]","1","1","","","10933","18","3","3","lose","go","0"
"pit-trial","136","1009565","0.0-22.0","battery-v0.2","","""event"",""trial"",""time""
""fullscreenenter"",""1"",""2988""
","
","
","""event"",""trial"",""time""
""fullscreenenter"",""1"",""2988""
","
","","","-1","","","18","10933","5065","&#9733;","elianto","#3366ff99","-1","-1","1","+10","[]","0","1","","","10933","19","2","2","win","no-go","0"
"pit-trial","137","1014422","0.0-23.0","battery-v0.2","","""event"",""trial"",""time""
""fullscreenenter"",""1"",""2988""
","
","
","""event"",""trial"",""time""
""fullscreenenter"",""1"",""2988""
","
","","","1986.1999998092651","","","18","10933","5065","&#9728;","elianto","#f73b6a7A","-1"," ","0","0","[2840.699999809265]","1","1","","","10933","20","0","4","lose","no-go","1"
"pit-instructions","138","1059077","0.0-24.0","battery-v0.2","","""event"",""trial"",""time""
""fullscreenenter"",""1"",""2988""
","
","
","""event"",""trial"",""time""
""fullscreenenter"",""1"",""2988""
","
","","[{""page_index"":0,""viewing_time"":6542.599999904633},{""page_index"":1,""viewing_time"":38110.59999990463}]","44653.5","","","","","","","","","","","","","","","","","","","","","","","",""
"pit-trial","139","1063245","0.0-25.0","battery-v0.2","","""event"",""trial"",""time""
""fullscreenenter"",""1"",""2988""
","
","
","""event"",""trial"",""time""
""fullscreenenter"",""1"",""2988""
","
","","","1296.6000001430511","","","18","10933","5065","e","elianto","#f73b6a7A","-1"," ","0","-10","[2153.699999809265]","1","2","","","10933","21","2","4","lose","no-go","0"
"pit-trial","140","1067228","0.0-26.0","battery-v0.2","","""event"",""trial"",""time""
""fullscreenenter"",""1"",""2988""
","
","
","""event"",""trial"",""time""
""fullscreenenter"",""1"",""2988""
","
","","","1114.8000001907349","","","18","10933","5065","j","elianto","#f73b6a7A","-1"," ","0","0","[1971.7000000476837]","1","2","","","10933","22","0","4","lose","no-go","1"
"pit-trial","141","1071311","0.0-27.0","battery-v0.2","","""event"",""trial"",""time""
""fullscreenenter"",""1"",""2988""
","
","
","""event"",""trial"",""time""
""fullscreenenter"",""1"",""2988""
","
","","","1214.5999999046326","","","18","10933","5065","d","elianto","#3366ff99"," "," ","1","+10","[2071.5999999046326]","1","2","","","10933","23","1","1","win","go","0"
"pit-trial","142","1075132","0.0-28.0","battery-v0.2","","""event"",""trial"",""time""
""fullscreenenter"",""1"",""2988""
","
","
","""event"",""trial"",""time""
""fullscreenenter"",""1"",""2988""
","
","","","956.2999999523163","","","18","10933","5065","w","elianto","#f73b6a7A"," "," ","1","0","[1810.4000000953674]","1","2","","","10933","24","3","3","lose","go","0"
"pit-trial","143","1078919","0.0-29.0","battery-v0.2","","""event"",""trial"",""time""
""fullscreenenter"",""1"",""2988""
","
","
","""event"",""trial"",""time""
""fullscreenenter"",""1"",""2988""
","
","","","921.6999998092651","","","18","10933","5065","w","elianto","#f73b6a7A"," "," ","1","0","[1776.5999999046326]","1","2","","","10933","25","3","3","lose","go","0"
"pit-trial","144","1083786","0.0-30.0","battery-v0.2","","""event"",""trial"",""time""
""fullscreenenter"",""1"",""2988""
","
","
","""event"",""trial"",""time""
""fullscreenenter"",""1"",""2988""
","
","","","-1","","","18","10933","5065","e","elianto","#f73b6a7A","-1","-1","1","0","[]","0","2","","","10933","26","2","4","lose","no-go","0"
"pit-trial","145","1087759","0.0-31.0","battery-v0.2","","""event"",""trial"",""time""
""fullscreenenter"",""1"",""2988""
","
","
","""event"",""trial"",""time""
""fullscreenenter"",""1"",""2988""
","
","","","1110.2000000476837","","","18","10933","5065","j","elianto","#f73b6a7A","-1"," ","0","-10","[1960.5999999046326]","1","2","","","10933","27","0","4","lose","no-go","0"
"pit-trial","146","1091796","0.0-32.0","battery-v0.2","","""event"",""trial"",""time""
""fullscreenenter"",""1"",""2988""
","
","
","""event"",""trial"",""time""
""fullscreenenter"",""1"",""2988""
","
","","","1171.5999999046326","","","18","10933","5065","d","elianto","#3366ff99"," "," ","1","+10","[2026]","1","2","","","10933","28","1","1","win","go","0"
"pit-trial","147","1096663","0.0-33.0","battery-v0.2","","""event"",""trial"",""time""
""fullscreenenter"",""1"",""2988""
","
","
","""event"",""trial"",""time""
""fullscreenenter"",""1"",""2988""
","
","","","-1","","","18","10933","5065","e","elianto","#f73b6a7A","-1","-1","1","-10","[]","0","2","","","10933","29","2","4","lose","no-go","1"
"pit-trial","148","1101529","0.0-34.0","battery-v0.2","","""event"",""trial"",""time""
""fullscreenenter"",""1"",""2988""
","
","
","""event"",""trial"",""time""
""fullscreenenter"",""1"",""2988""
","
","","","-1","","","18","10933","5065","j","elianto","#f73b6a7A","-1","-1","1","0","[]","0","2","","","10933","30","0","4","lose","no-go","0"
"pit-trial","149","1105323","0.0-35.0","battery-v0.2","","""event"",""trial"",""time""
""fullscreenenter"",""1"",""2988""
","
","
","""event"",""trial"",""time""
""fullscreenenter"",""1"",""2988""
","
","","","926.8999998569489","","","18","10933","5065","w","elianto","#f73b6a7A"," "," ","1","0","[1783.9000000953674]","1","2","","","10933","31","3","3","lose","go","0"
"pit-trial","150","1109507","0.0-36.0","battery-v0.2","","""event"",""trial"",""time""
""fullscreenenter"",""1"",""2988""
","
","
","""event"",""trial"",""time""
""fullscreenenter"",""1"",""2988""
","
","","","1311.3999998569489","","","18","10933","5065","d","elianto","#3366ff99"," "," ","1","+10","[2168.2000000476837]","1","2","","","10933","32","1","1","win","go","0"
"pit-trial","151","1114375","0.0-37.0","battery-v0.2","","""event"",""trial"",""time""
""fullscreenenter"",""1"",""2988""
","
","
","""event"",""trial"",""time""
""fullscreenenter"",""1"",""2988""
","
","","","-1","","","18","10933","5065","j","elianto","#f73b6a7A","-1","-1","1","0","[]","0","2","","","10933","33","0","4","lose","no-go","0"
"pit-trial","152","1118971","0.0-38.0","battery-v0.2","","""event"",""trial"",""time""
""fullscreenenter"",""1"",""2988""
","
","
","""event"",""trial"",""time""
""fullscreenenter"",""1"",""2988""
","
","","","1726.7999999523163","","","18","10933","5065","d","elianto","#3366ff99"," "," ","1","+10","[2579.7000000476837]","1","2","","","10933","34","1","1","win","go","0"
"pit-trial","153","1123843","0.0-39.0","battery-v0.2","","""event"",""trial"",""time""
""fullscreenenter"",""1"",""2988""
","
","
","""event"",""trial"",""time""
""fullscreenenter"",""1"",""2988""
","
","","","-1","","","18","10933","5065","e","elianto","#f73b6a7A","-1","-1","1","0","[]","0","2","","","10933","35","2","4","lose","no-go","0"
"pit-trial","154","1128059","0.0-40.0","battery-v0.2","","""event"",""trial"",""time""
""fullscreenenter"",""1"",""2988""
","
","
","""event"",""trial"",""time""
""fullscreenenter"",""1"",""2988""
","
","","","1342.7999999523163","","","18","10933","5065","w","elianto","#f73b6a7A"," "," ","1","0","[2199.7999999523163]","1","2","","","10933","36","3","3","lose","go","0"
"pit-trial","155","1131890","0.0-41.0","battery-v0.2","","""event"",""trial"",""time""
""fullscreenenter"",""1"",""2988""
","
","
","""event"",""trial"",""time""
""fullscreenenter"",""1"",""2988""
","
","","","958.2000000476837","","","18","10933","5065","w","elianto","#f73b6a7A"," "," ","1","-10","[1814.8999998569489]","1","2","","","10933","37","3","3","lose","go","1"
"pit-trial","156","1136760","0.0-42.0","battery-v0.2","","""event"",""trial"",""time""
""fullscreenenter"",""1"",""2988""
","
","
","""event"",""trial"",""time""
""fullscreenenter"",""1"",""2988""
","
","","","-1","","","18","10933","5065","e","elianto","#f73b6a7A","-1","-1","1","0","[]","0","2","","","10933","38","2","4","lose","no-go","0"
"pit-trial","157","1140488","0.0-43.0","battery-v0.2","","""event"",""trial"",""time""
""fullscreenenter"",""1"",""2988""
","
","
","""event"",""trial"",""time""
""fullscreenenter"",""1"",""2988""
","
","","","860.0999999046326","","","18","10933","5065","d","elianto","#3366ff99"," "," ","1","0","[1719.2999999523163]","1","2","","","10933","39","1","1","win","go","1"
"pit-trial","158","1145363","0.0-44.0","battery-v0.2","","""event"",""trial"",""time""
""fullscreenenter"",""1"",""2988""
","
","
","""event"",""trial"",""time""
""fullscreenenter"",""1"",""2988""
","
","","","-1","","","18","10933","5065","j","elianto","#f73b6a7A","-1","-1","1","0","[]","0","2","","","10933","40","0","4","lose","no-go","0"
"pit-trial","159","1149199","0.0-45.0","battery-v0.2","","""event"",""trial"",""time""
""fullscreenenter"",""1"",""2988""
","
","
","""event"",""trial"",""time""
""fullscreenenter"",""1"",""2988""
","
","","","969.1999998092651","","","18","10933","5065","w","elianto","#f73b6a7A"," "," ","1","0","[1826.2000000476837]","1","2","","","10933","41","3","3","lose","go","0"
"pit-trial","160","1154067","0.0-46.0","battery-v0.2","","""event"",""trial"",""time""
""fullscreenenter"",""1"",""2988""
","
","
","""event"",""trial"",""time""
""fullscreenenter"",""1"",""2988""
","
","","","-1","","","18","10933","5065","j","elianto","#f73b6a7A","-1","-1","1","0","[]","0","2","","","10933","42","0","4","lose","no-go","0"
"pit-trial","161","1158938","0.0-47.0","battery-v0.2","","""event"",""trial"",""time""
""fullscreenenter"",""1"",""2988""
","
","
","""event"",""trial"",""time""
""fullscreenenter"",""1"",""2988""
","
","","","-1","","","18","10933","5065","e","elianto","#f73b6a7A","-1","-1","1","0","[]","0","2","","","10933","43","2","4","lose","no-go","0"
"pit-trial","162","1162568","0.0-48.0","battery-v0.2","","""event"",""trial"",""time""
""fullscreenenter"",""1"",""2988""
","
","
","""event"",""trial"",""time""
""fullscreenenter"",""1"",""2988""
","
","","","765.1999998092651","","","18","10933","5065","d","elianto","#3366ff99"," "," ","1","+10","[1615.8999998569489]","1","2","","","10933","44","1","1","win","go","0"
"pit-trial","163","1166582","0.0-49.0","battery-v0.2","","""event"",""trial"",""time""
""fullscreenenter"",""1"",""2988""
","
","
","""event"",""trial"",""time""
""fullscreenenter"",""1"",""2988""
","
","","","1150.7999999523163","","","18","10933","5065","w","elianto","#f73b6a7A"," "," ","1","0","[2002.5]","1","2","","","10933","45","3","3","lose","go","0"
"pit-trial","164","1171146","0.0-50.0","battery-v0.2","","""event"",""trial"",""time""
""fullscreenenter"",""1"",""2988""
","
","
","""event"",""trial"",""time""
""fullscreenenter"",""1"",""2988""
","
","","","1700.7999999523163","","","18","10933","5065","s","elianto","#3366ff99","-1"," ","0","0","[2552.2999999523163]","1","2","","","10933","46","4","2","win","no-go","0"
"pit-trial","165","1176018","0.0-51.0","battery-v0.2","","""event"",""trial"",""time""
""fullscreenenter"",""1"",""2988""
","
","
","""event"",""trial"",""time""
""fullscreenenter"",""1"",""2988""
","
","","","-1","","","18","10933","5065","e","elianto","#f73b6a7A","-1","-1","1","0","[]","0","2","","","10933","47","2","4","lose","no-go","0"
"pit-trial","166","1180887","0.0-52.0","battery-v0.2","","""event"",""trial"",""time""
""fullscreenenter"",""1"",""2988""
","
","
","""event"",""trial"",""time""
""fullscreenenter"",""1"",""2988""
","
","","","-1","","","18","10933","5065","j","elianto","#f73b6a7A","-1","-1","1","0","[]","0","2","","","10933","48","0","4","lose","no-go","0"
"pit-trial","167","1184334","0.0-53.0","battery-v0.2","","""event"",""trial"",""time""
""fullscreenenter"",""1"",""2988""
","
","
","""event"",""trial"",""time""
""fullscreenenter"",""1"",""2988""
","
","","","575.7000000476837","","","18","10933","5065","d","elianto","#3366ff99"," "," ","1","+10","[1435.2000000476837]","1","2","","","10933","49","1","1","win","go","0"
"pit-trial","168","1189201","0.0-54.0","battery-v0.2","","""event"",""trial"",""time""
""fullscreenenter"",""1"",""2988""
","
","
","""event"",""trial"",""time""
""fullscreenenter"",""1"",""2988""
","
","","","-1","","","18","10933","5065","j","elianto","#f73b6a7A","-1","-1","1","0","[]","0","2","","","10933","50","0","4","lose","no-go","0"
"pit-trial","169","1193033","0.0-55.0","battery-v0.2","","""event"",""trial"",""time""
""fullscreenenter"",""1"",""2988""
","
","
","""event"",""trial"",""time""
""fullscreenenter"",""1"",""2988""
","
","","","963.5","","","18","10933","5065","w","elianto","#f73b6a7A"," "," ","1","0","[1816]","1","2","","","10933","51","3","3","lose","go","0"
"pit-trial","170","1197900","0.0-56.0","battery-v0.2","","""event"",""trial"",""time""
""fullscreenenter"",""1"",""2988""
","
","
","""event"",""trial"",""time""
""fullscreenenter"",""1"",""2988""
","
","","","-1","","","18","10933","5065","s","elianto","#3366ff99","-1","-1","1","+10","[]","0","2","","","10933","52","4","2","win","no-go","0"
"pit-trial","171","1202770","0.0-57.0","battery-v0.2","","""event"",""trial"",""time""
""fullscreenenter"",""1"",""2988""
","
","
","""event"",""trial"",""time""
""fullscreenenter"",""1"",""2988""
","
","","","-1","","","18","10933","5065","e","elianto","#f73b6a7A","-1","-1","1","-10","[]","0","2","","","10933","53","2","4","lose","no-go","1"
"pit-trial","172","1207641","0.0-58.0","battery-v0.2","","""event"",""trial"",""time""
""fullscreenenter"",""1"",""2988""
","
","
","""event"",""trial"",""time""
""fullscreenenter"",""1"",""2988""
","
","","","-1","","","18","10933","5065","j","elianto","#f73b6a7A","-1","-1","1","-10","[]","0","2","","","10933","54","0","4","lose","no-go","1"
"pit-trial","173","1212513","0.0-59.0","battery-v0.2","","""event"",""trial"",""time""
""fullscreenenter"",""1"",""2988""
","
","
","""event"",""trial"",""time""
""fullscreenenter"",""1"",""2988""
","
","","","-1","","","18","10933","5065","s","elianto","#3366ff99","-1","-1","1","+10","[]","0","2","","","10933","55","4","2","win","no-go","0"
"pit-trial","174","1216329","0.0-60.0","battery-v0.2","","""event"",""trial"",""time""
""fullscreenenter"",""1"",""2988""
","
","
","""event"",""trial"",""time""
""fullscreenenter"",""1"",""2988""
","
","","","949.9000000953674","","","18","10933","5065","d","elianto","#3366ff99"," "," ","1","+10","[1804.7999999523163]","1","2","","","10933","56","1","1","win","go","0"
"pit-trial","175","1221201","0.0-61.0","battery-v0.2","","""event"",""trial"",""time""
""fullscreenenter"",""1"",""2988""
","
","
","""event"",""trial"",""time""
""fullscreenenter"",""1"",""2988""
","
","","","-1","","","18","10933","5065","j","elianto","#f73b6a7A","-1","-1","1","-10","[]","0","2","","","10933","57","0","4","lose","no-go","1"
"pit-trial","176","1226072","0.0-62.0","battery-v0.2","","""event"",""trial"",""time""
""fullscreenenter"",""1"",""2988""
","
","
","""event"",""trial"",""time""
""fullscreenenter"",""1"",""2988""
","
","","","-1","","","18","10933","5065","s","elianto","#3366ff99","-1","-1","1","+10","[]","0","2","","","10933","58","4","2","win","no-go","0"
"pit-trial","177","1230017","0.0-63.0","battery-v0.2","","""event"",""trial"",""time""
""fullscreenenter"",""1"",""2988""
","
","
","""event"",""trial"",""time""
""fullscreenenter"",""1"",""2988""
","
","","","1072.5999999046326","","","18","10933","5065","w","elianto","#f73b6a7A"," "," ","1","0","[1929.5]","1","2","","","10933","59","3","3","lose","go","0"
"pit-trial","178","1233745","0.0-64.0","battery-v0.2","","""event"",""trial"",""time""
""fullscreenenter"",""1"",""2988""
","
","
","""event"",""trial"",""time""
""fullscreenenter"",""1"",""2988""
","
","","","865.3999998569489","","","18","10933","5065","d","elianto","#3366ff99"," "," ","1","+10","[1716]","1","2","","","10933","60","1","1","win","go","0"
"pit-trial","179","1237483","0.0-65.0","battery-v0.2","","""event"",""trial"",""time""
""fullscreenenter"",""1"",""2988""
","
","
","""event"",""trial"",""time""
""fullscreenenter"",""1"",""2988""
","
","","","872.2999999523163","","","18","10933","5065","d","elianto","#3366ff99"," "," ","1","+10","[1728.1000001430511]","1","2","","","10933","61","1","1","win","go","0"
"pit-trial","180","1241275","0.0-66.0","battery-v0.2","","""event"",""trial"",""time""
""fullscreenenter"",""1"",""2988""
","
","
","""event"",""trial"",""time""
""fullscreenenter"",""1"",""2988""
","
","","","927","","","18","10933","5065","w","elianto","#f73b6a7A"," "," ","1","-10","[1778.9000000953674]","1","2","","","10933","62","3","3","lose","go","1"
"pit-trial","181","1246140","0.0-67.0","battery-v0.2","","""event"",""trial"",""time""
""fullscreenenter"",""1"",""2988""
","
","
","""event"",""trial"",""time""
""fullscreenenter"",""1"",""2988""
","
","","","-1","","","18","10933","5065","e","elianto","#f73b6a7A","-1","-1","1","0","[]","0","2","","","10933","63","2","4","lose","no-go","0"
"pit-trial","182","1251008","0.0-68.0","battery-v0.2","","""event"",""trial"",""time""
""fullscreenenter"",""1"",""2988""
","
","
","""event"",""trial"",""time""
""fullscreenenter"",""1"",""2988""
","
","","","-1","","","18","10933","5065","s","elianto","#3366ff99","-1","-1","1","0","[]","0","2","","","10933","64","4","2","win","no-go","1"
"pit-trial","183","1255880","0.0-69.0","battery-v0.2","","""event"",""trial"",""time""
""fullscreenenter"",""1"",""2988""
","
","
","""event"",""trial"",""time""
""fullscreenenter"",""1"",""2988""
","
","","","-1","","","18","10933","5065","e","elianto","#f73b6a7A","-1","-1","1","0","[]","0","2","","","10933","65","2","4","lose","no-go","0"
"pit-trial","184","1260752","0.0-70.0","battery-v0.2","","""event"",""trial"",""time""
""fullscreenenter"",""1"",""2988""
","
","
","""event"",""trial"",""time""
""fullscreenenter"",""1"",""2988""
","
","","","-1","","","18","10933","5065","s","elianto","#3366ff99","-1","-1","1","+10","[]","0","2","","","10933","66","4","2","win","no-go","0"
"pit-trial","185","1264767","0.0-71.0","battery-v0.2","","""event"",""trial"",""time""
""fullscreenenter"",""1"",""2988""
","
","
","""event"",""trial"",""time""
""fullscreenenter"",""1"",""2988""
","
","","","1150.0999999046326","","","18","10933","5065","w","elianto","#f73b6a7A"," "," ","1","0","[2001.9000000953674]","1","2","","","10933","67","3","3","lose","go","0"
"pit-trial","186","1268472","0.0-72.0","battery-v0.2","","""event"",""trial"",""time""
""fullscreenenter"",""1"",""2988""
","
","
","""event"",""trial"",""time""
""fullscreenenter"",""1"",""2988""
","
","","","836.9000000953674","","","18","10933","5065","d","elianto","#3366ff99"," "," ","1","0","[1689.5]","1","2","","","10933","68","1","1","win","go","1"
"pit-trial","187","1272215","0.0-73.0","battery-v0.2","","""event"",""trial"",""time""
""fullscreenenter"",""1"",""2988""
","
","
","""event"",""trial"",""time""
""fullscreenenter"",""1"",""2988""
","
","","","873.7999999523163","","","18","10933","5065","w","elianto","#f73b6a7A"," "," ","1","0","[1729.5]","1","2","","","10933","69","3","3","lose","go","0"
"pit-trial","188","1275863","0.0-74.0","battery-v0.2","","""event"",""trial"",""time""
""fullscreenenter"",""1"",""2988""
","
","
","""event"",""trial"",""time""
""fullscreenenter"",""1"",""2988""
","
","","","782.5999999046326","","","18","10933","5065","d","elianto","#3366ff99"," "," ","1","+10","[1637.7000000476837]","1","2","","","10933","70","1","1","win","go","0"
"pit-trial","189","1280735","0.0-75.0","battery-v0.2","","""event"",""trial"",""time""
""fullscreenenter"",""1"",""2988""
","
","
","""event"",""trial"",""time""
""fullscreenenter"",""1"",""2988""
","
","","","-1","","","18","10933","5065","s","elianto","#3366ff99","-1","-1","1","0","[]","0","2","","","10933","71","4","2","win","no-go","1"
"pit-trial","190","1284886","0.0-76.0","battery-v0.2","","""event"",""trial"",""time""
""fullscreenenter"",""1"",""2988""
","
","
","""event"",""trial"",""time""
""fullscreenenter"",""1"",""2988""
","
","","","1285.7999999523163","","","18","10933","5065","p","elianto","#3366ff99"," "," ","1","0","[2135.7999999523163]","1","2","","","10933","72","5","1","win","go","1"
"pit-trial","191","1288799","0.0-77.0","battery-v0.2","","""event"",""trial"",""time""
""fullscreenenter"",""1"",""2988""
","
","
","""event"",""trial"",""time""
""fullscreenenter"",""1"",""2988""
","
","","","1051.4000000953674","","","18","10933","5065","p","elianto","#3366ff99"," "," ","1","+10","[1902.3999998569489,1969.5]","2","2","","","10933","73","5","1","win","go","0"
"pit-trial","192","1293263","0.0-78.0","battery-v0.2","","""event"",""trial"",""time""
""fullscreenenter"",""1"",""2988""
","
","
","""event"",""trial"",""time""
""fullscreenenter"",""1"",""2988""
","
","","","1595.0999999046326","","","18","10933","5065","s","elianto","#3366ff99","-1"," ","0","0","[2449.4000000953674]","1","2","","","10933","74","4","2","win","no-go","0"
"pit-trial","193","1297191","0.0-79.0","battery-v0.2","","""event"",""trial"",""time""
""fullscreenenter"",""1"",""2988""
","
","
","""event"",""trial"",""time""
""fullscreenenter"",""1"",""2988""
","
","","","1058.2999999523163","","","18","10933","5065","w","elianto","#f73b6a7A"," "," ","1","0","[1916]","1","2","","","10933","75","3","3","lose","go","0"
"pit-trial","194","1301109","0.0-80.0","battery-v0.2","","""event"",""trial"",""time""
""fullscreenenter"",""1"",""2988""
","
","
","""event"",""trial"",""time""
""fullscreenenter"",""1"",""2988""
","
","","","1049.5","","","18","10933","5065","d","elianto","#3366ff99"," "," ","1","+10","[1907.2000000476837]","1","2","","","10933","76","1","1","win","go","0"
"pit-trial","195","1305028","0.0-81.0","battery-v0.2","","""event"",""trial"",""time""
""fullscreenenter"",""1"",""2988""
","
","
","""event"",""trial"",""time""
""fullscreenenter"",""1"",""2988""
","
","","","1050.6000001430511","","","18","10933","5065","w","elianto","#f73b6a7A"," "," ","1","-10","[1910.2999999523163]","1","2","","","10933","77","3","3","lose","go","1"
"pit-trial","196","1309898","0.0-82.0","battery-v0.2","","""event"",""trial"",""time""
""fullscreenenter"",""1"",""2988""
","
","
","""event"",""trial"",""time""
""fullscreenenter"",""1"",""2988""
","
","","","-1","","","18","10933","5065","p","elianto","#3366ff99"," ","-1","0","+10","[]","0","2","","","10933","78","5","1","win","go","1"
"pit-trial","197","1314373","0.0-83.0","battery-v0.2","","""event"",""trial"",""time""
""fullscreenenter"",""1"",""2988""
","
","
","""event"",""trial"",""time""
""fullscreenenter"",""1"",""2988""
","
","","","1606.5999999046326","","","18","10933","5065","g","elianto","#f73b6a7A","-1"," ","0","-10","[2462.5]","1","2","","","10933","79","6","4","lose","no-go","0"
"pit-trial","198","1319247","0.0-84.0","battery-v0.2","","""event"",""trial"",""time""
""fullscreenenter"",""1"",""2988""
","
","
","""event"",""trial"",""time""
""fullscreenenter"",""1"",""2988""
","
","","","-1","","","18","10933","5065","s","elianto","#3366ff99","-1","-1","1","+10","[]","0","2","","","10933","80","4","2","win","no-go","0"
"pit-trial","199","1324116","0.0-85.0","battery-v0.2","","""event"",""trial"",""time""
""fullscreenenter"",""1"",""2988""
","
","
","""event"",""trial"",""time""
""fullscreenenter"",""1"",""2988""
","
","","","-1","","","18","10933","5065","g","elianto","#f73b6a7A","-1","-1","1","0","[]","0","2","","","10933","81","6","4","lose","no-go","0"
"pit-trial","200","1328978","0.0-86.0","battery-v0.2","","""event"",""trial"",""time""
""fullscreenenter"",""1"",""2988""
","
","
","""event"",""trial"",""time""
""fullscreenenter"",""1"",""2988""
","
","","","-1","","","18","10933","5065","s","elianto","#3366ff99","-1","-1","1","+10","[]","0","2","","","10933","82","4","2","win","no-go","0"
"pit-trial","201","1333843","0.0-87.0","battery-v0.2","","""event"",""trial"",""time""
""fullscreenenter"",""1"",""2988""
","
","
","""event"",""trial"",""time""
""fullscreenenter"",""1"",""2988""
","
","","","-1","","","18","10933","5065","p","elianto","#3366ff99"," ","-1","0","+10","[]","0","2","","","10933","83","5","1","win","go","1"
"pit-trial","202","1338153","0.0-88.0","battery-v0.2","","""event"",""trial"",""time""
""fullscreenenter"",""1"",""2988""
","
","
","""event"",""trial"",""time""
""fullscreenenter"",""1"",""2988""
","
","","","1445.8999998569489","","","18","10933","5065","a","elianto","#f73b6a7A"," "," ","1","0","[2297.7999999523163]","1","2","","","10933","84","7","3","lose","go","0"
"pit-trial","203","1343022","0.0-89.0","battery-v0.2","","""event"",""trial"",""time""
""fullscreenenter"",""1"",""2988""
","
","
","""event"",""trial"",""time""
""fullscreenenter"",""1"",""2988""
","
","","","-1","","","18","10933","5065","g","elianto","#f73b6a7A","-1","-1","1","0","[]","0","2","","","10933","85","6","4","lose","no-go","0"
"pit-trial","204","1347894","0.0-90.0","battery-v0.2","","""event"",""trial"",""time""
""fullscreenenter"",""1"",""2988""
","
","
","""event"",""trial"",""time""
""fullscreenenter"",""1"",""2988""
","
","","","-1","","","18","10933","5065","p","elianto","#3366ff99"," ","-1","0","0","[]","0","2","","","10933","86","5","1","win","go","0"
"pit-trial","205","1352765","0.0-91.0","battery-v0.2","","""event"",""trial"",""time""
""fullscreenenter"",""1"",""2988""
","
","
","""event"",""trial"",""time""
""fullscreenenter"",""1"",""2988""
","
","","","-1","","","18","10933","5065","s","elianto","#3366ff99","-1","-1","1","+10","[]","0","2","","","10933","87","4","2","win","no-go","0"
"pit-trial","206","1357638","0.0-92.0","battery-v0.2","","""event"",""trial"",""time""
""fullscreenenter"",""1"",""2988""
","
","
","""event"",""trial"",""time""
""fullscreenenter"",""1"",""2988""
","
","","","-1","","","18","10933","5065","a","elianto","#f73b6a7A"," ","-1","0","-10","[2953.399999856949]","1","2","","","10933","88","7","3","lose","go","0"
"pit-trial","207","1362509","0.0-93.0","battery-v0.2","","""event"",""trial"",""time""
""fullscreenenter"",""1"",""2988""
","
","
","""event"",""trial"",""time""
""fullscreenenter"",""1"",""2988""
","
","","","-1","","","18","10933","5065","g","elianto","#f73b6a7A","-1","-1","1","0","[]","0","2","","","10933","89","6","4","lose","no-go","0"
"pit-trial","208","1367381","0.0-94.0","battery-v0.2","","""event"",""trial"",""time""
""fullscreenenter"",""1"",""2988""
","
","
","""event"",""trial"",""time""
""fullscreenenter"",""1"",""2988""
","
","","","-1","","","18","10933","5065","p","elianto","#3366ff99"," ","-1","0","0","[]","0","2","","","10933","90","5","1","win","go","0"
"pit-trial","209","1372253","0.0-95.0","battery-v0.2","","""event"",""trial"",""time""
""fullscreenenter"",""1"",""2988""
","
","
","""event"",""trial"",""time""
""fullscreenenter"",""1"",""2988""
","
","","","-1","","","18","10933","5065","s","elianto","#3366ff99","-1","-1","1","+10","[]","0","2","","","10933","91","4","2","win","no-go","0"
"pit-trial","210","1376436","0.0-96.0","battery-v0.2","","""event"",""trial"",""time""
""fullscreenenter"",""1"",""2988""
","
","
","""event"",""trial"",""time""
""fullscreenenter"",""1"",""2988""
","
","","","1318","","","18","10933","5065","a","elianto","#f73b6a7A"," "," ","1","0","[2169.0999999046326]","1","2","","","10933","92","7","3","lose","go","0"
"pit-trial","211","1380690","0.0-97.0","battery-v0.2","","""event"",""trial"",""time""
""fullscreenenter"",""1"",""2988""
","
","
","""event"",""trial"",""time""
""fullscreenenter"",""1"",""2988""
","
","","","1393.7000000476837","","","18","10933","5065","a","elianto","#f73b6a7A"," "," ","1","0","[2244.2000000476837]","1","2","","","10933","93","7","3","lose","go","0"
"pit-trial","212","1385555","0.0-98.0","battery-v0.2","","""event"",""trial"",""time""
""fullscreenenter"",""1"",""2988""
","
","
","""event"",""trial"",""time""
""fullscreenenter"",""1"",""2988""
","
","","","-1","","","18","10933","5065","g","elianto","#f73b6a7A","-1","-1","1","0","[]","0","2","","","10933","94","6","4","lose","no-go","0"
"pit-trial","213","1389763","0.0-99.0","battery-v0.2","","""event"",""trial"",""time""
""fullscreenenter"",""1"",""2988""
","
","
","""event"",""trial"",""time""
""fullscreenenter"",""1"",""2988""
","
","","","1349.3999998569489","","","18","10933","5065","l","elianto","#3366ff99","-1"," ","0","0","[2199.7000000476837]","1","2","","","10933","95","8","2","win","no-go","0"
"pit-trial","214","1394636","0.0-100.0","battery-v0.2","","""event"",""trial"",""time""
""fullscreenenter"",""1"",""2988""
","
","
","""event"",""trial"",""time""
""fullscreenenter"",""1"",""2988""
","
","","","-1","","","18","10933","5065","p","elianto","#3366ff99"," ","-1","0","0","[]","0","2","","","10933","96","5","1","win","go","0"
"pit-trial","215","1399509","0.0-101.0","battery-v0.2","","""event"",""trial"",""time""
""fullscreenenter"",""1"",""2988""
","
","
","""event"",""trial"",""time""
""fullscreenenter"",""1"",""2988""
","
","","","-1","","","18","10933","5065","g","elianto","#f73b6a7A","-1","-1","1","0","[]","0","2","","","10933","97","6","4","lose","no-go","0"
"pit-trial","216","1403484","0.0-102.0","battery-v0.2","","""event"",""trial"",""time""
""fullscreenenter"",""1"",""2988""
","
","
","""event"",""trial"",""time""
""fullscreenenter"",""1"",""2988""
","
","","","1108.8999998569489","","","18","10933","5065","p","elianto","#3366ff99"," "," ","1","+10","[1965.7999999523163]","1","2","","","10933","98","5","1","win","go","0"
"pit-trial","217","1407858","0.0-103.0","battery-v0.2","","""event"",""trial"",""time""
""fullscreenenter"",""1"",""2988""
","
","
","""event"",""trial"",""time""
""fullscreenenter"",""1"",""2988""
","
","","","1514.5","","","18","10933","5065","a","elianto","#f73b6a7A"," "," ","1","0","[2365.7999999523163]","1","2","","","10933","99","7","3","lose","go","0"
"pit-trial","218","1412733","0.0-104.0","battery-v0.2","","""event"",""trial"",""time""
""fullscreenenter"",""1"",""2988""
","
","
","""event"",""trial"",""time""
""fullscreenenter"",""1"",""2988""
","
","","","-1","","","18","10933","5065","l","elianto","#3366ff99","-1","-1","1","+10","[]","0","2","","","10933","100","8","2","win","no-go","0"
"pit-trial","219","1417602","0.0-105.0","battery-v0.2","","""event"",""trial"",""time""
""fullscreenenter"",""1"",""2988""
","
","
","""event"",""trial"",""time""
""fullscreenenter"",""1"",""2988""
","
","","","-1","","","18","10933","5065","l","elianto","#3366ff99","-1","-1","1","0","[]","0","2","","","10933","101","8","2","win","no-go","1"
"pit-trial","220","1422473","0.0-106.0","battery-v0.2","","""event"",""trial"",""time""
""fullscreenenter"",""1"",""2988""
","
","
","""event"",""trial"",""time""
""fullscreenenter"",""1"",""2988""
","
","","","-1","","","18","10933","5065","g","elianto","#f73b6a7A","-1","-1","1","0","[]","0","2","","","10933","102","6","4","lose","no-go","0"
"pit-trial","221","1426228","0.0-107.0","battery-v0.2","","""event"",""trial"",""time""
""fullscreenenter"",""1"",""2988""
","
","
","""event"",""trial"",""time""
""fullscreenenter"",""1"",""2988""
","
","","","893.1000001430511","","","18","10933","5065","p","elianto","#3366ff99"," "," ","1","+10","[1743.6000001430511]","1","2","","","10933","103","5","1","win","go","0"
"pit-trial","222","1430372","0.0-108.0","battery-v0.2","","""event"",""trial"",""time""
""fullscreenenter"",""1"",""2988""
","
","
","""event"",""trial"",""time""
""fullscreenenter"",""1"",""2988""
","
","","","1278","","","18","10933","5065","u","elianto","#3366ff99","-1"," ","0","0","[2133.9000000953674]","1","2","","","10933","104","9","2","win","no-go","0"
"pit-trial","223","1435244","0.0-109.0","battery-v0.2","","""event"",""trial"",""time""
""fullscreenenter"",""1"",""2988""
","
","
","""event"",""trial"",""time""
""fullscreenenter"",""1"",""2988""
","
","","","-1","","","18","10933","5065","g","elianto","#f73b6a7A","-1","-1","1","0","[]","0","2","","","10933","105","6","4","lose","no-go","0"
"pit-trial","224","1440115","0.0-110.0","battery-v0.2","","""event"",""trial"",""time""
""fullscreenenter"",""1"",""2988""
","
","
","""event"",""trial"",""time""
""fullscreenenter"",""1"",""2988""
","
","","","-1","","","18","10933","5065","u","elianto","#3366ff99","-1","-1","1","+10","[]","0","2","","","10933","106","9","2","win","no-go","0"
"pit-trial","225","1444073","0.0-111.0","battery-v0.2","","""event"",""trial"",""time""
""fullscreenenter"",""1"",""2988""
","
","
","""event"",""trial"",""time""
""fullscreenenter"",""1"",""2988""
","
","","","1094.2999999523163","","","18","10933","5065","p","elianto","#3366ff99"," "," ","1","+10","[1947.2999999523163]","1","2","","","10933","107","5","1","win","go","0"
"pit-trial","226","1448947","0.0-112.0","battery-v0.2","","""event"",""trial"",""time""
""fullscreenenter"",""1"",""2988""
","
","
","""event"",""trial"",""time""
""fullscreenenter"",""1"",""2988""
","
","","","-1","","","18","10933","5065","l","elianto","#3366ff99","-1","-1","1","0","[]","0","2","","","10933","108","8","2","win","no-go","1"
"pit-trial","227","1453818","0.0-113.0","battery-v0.2","","""event"",""trial"",""time""
""fullscreenenter"",""1"",""2988""
","
","
","""event"",""trial"",""time""
""fullscreenenter"",""1"",""2988""
","
","","","-1","","","18","10933","5065","u","elianto","#3366ff99","-1","-1","1","+10","[]","0","2","","","10933","109","9","2","win","no-go","0"
"pit-trial","228","1457651","0.0-114.0","battery-v0.2","","""event"",""trial"",""time""
""fullscreenenter"",""1"",""2988""
","
","
","""event"",""trial"",""time""
""fullscreenenter"",""1"",""2988""
","
","","","968.2000000476837","","","18","10933","5065","p","elianto","#3366ff99"," "," ","1","+10","[1818.2000000476837]","1","2","","","10933","110","5","1","win","go","0"
"pit-trial","229","1462035","0.0-115.0","battery-v0.2","","""event"",""trial"",""time""
""fullscreenenter"",""1"",""2988""
","
","
","""event"",""trial"",""time""
""fullscreenenter"",""1"",""2988""
","
","","","1520.5999999046326","","","18","10933","5065","l","elianto","#3366ff99","-1"," ","0","+10","[2372.9000000953674]","1","2","","","10933","111","8","2","win","no-go","1"
"pit-trial","230","1466908","0.0-116.0","battery-v0.2","","""event"",""trial"",""time""
""fullscreenenter"",""1"",""2988""
","
","
","""event"",""trial"",""time""
""fullscreenenter"",""1"",""2988""
","
","","","-1","","","18","10933","5065","g","elianto","#f73b6a7A","-1","-1","1","0","[]","0","2","","","10933","112","6","4","lose","no-go","0"
"pit-trial","231","1470918","0.0-117.0","battery-v0.2","","""event"",""trial"",""time""
""fullscreenenter"",""1"",""2988""
","
","
","""event"",""trial"",""time""
""fullscreenenter"",""1"",""2988""
","
","","","1147.2999999523163","","","18","10933","5065","l","elianto","#3366ff99","-1"," ","0","0","[2001.6000001430511]","1","2","","","10933","113","8","2","win","no-go","0"
"pit-trial","232","1475536","0.0-118.0","battery-v0.2","","""event"",""trial"",""time""
""fullscreenenter"",""1"",""2988""
","
","
","""event"",""trial"",""time""
""fullscreenenter"",""1"",""2988""
","
","","","1755.6000001430511","","","18","10933","5065","a","elianto","#f73b6a7A"," "," ","1","0","[2606.2999999523163]","1","2","","","10933","114","7","3","lose","go","0"
"pit-trial","233","1480250","0.0-119.0","battery-v0.2","","""event"",""trial"",""time""
""fullscreenenter"",""1"",""2988""
","
","
","""event"",""trial"",""time""
""fullscreenenter"",""1"",""2988""
","
","","","1849.1000001430511","","","18","10933","5065","p","elianto","#3366ff99"," "," ","1","+10","[2700.399999856949]","1","2","","","10933","115","5","1","win","go","0"
"pit-trial","234","1485119","0.0-120.0","battery-v0.2","","""event"",""trial"",""time""
""fullscreenenter"",""1"",""2988""
","
","
","""event"",""trial"",""time""
""fullscreenenter"",""1"",""2988""
","
","","","-1","","","18","10933","5065","u","elianto","#3366ff99","-1","-1","1","0","[]","0","2","","","10933","116","9","2","win","no-go","1"
"pit-trial","235","1489760","0.0-121.0","battery-v0.2","","""event"",""trial"",""time""
""fullscreenenter"",""1"",""2988""
","
","
","""event"",""trial"",""time""
""fullscreenenter"",""1"",""2988""
","
","","","1778.5","","","18","10933","5065","p","elianto","#3366ff99"," "," ","1","+10","[2629.0999999046326]","1","2","","","10933","117","5","1","win","go","0"
"pit-trial","236","1494635","0.0-122.0","battery-v0.2","","""event"",""trial"",""time""
""fullscreenenter"",""1"",""2988""
","
","
","""event"",""trial"",""time""
""fullscreenenter"",""1"",""2988""
","
","","","-1","","","18","10933","5065","g","elianto","#f73b6a7A","-1","-1","1","0","[]","0","2","","","10933","118","6","4","lose","no-go","0"
"pit-trial","237","1499506","0.0-123.0","battery-v0.2","","""event"",""trial"",""time""
""fullscreenenter"",""1"",""2988""
","
","
","""event"",""trial"",""time""
""fullscreenenter"",""1"",""2988""
","
","","","-1","","","18","10933","5065","u","elianto","#3366ff99","-1","-1","1","+10","[]","0","2","","","10933","119","9","2","win","no-go","0"
"pit-trial","238","1504374","0.0-124.0","battery-v0.2","","""event"",""trial"",""time""
""fullscreenenter"",""1"",""2988""
","
","
","""event"",""trial"",""time""
""fullscreenenter"",""1"",""2988""
","
","","","-1","","","18","10933","5065","l","elianto","#3366ff99","-1","-1","1","+10","[]","0","2","","","10933","120","8","2","win","no-go","0"
"pit-trial","239","1509242","0.0-125.0","battery-v0.2","","""event"",""trial"",""time""
""fullscreenenter"",""1"",""2988""
","
","
","""event"",""trial"",""time""
""fullscreenenter"",""1"",""2988""
","
","","","-1","","","18","10933","5065","u","elianto","#3366ff99","-1","-1","1","+10","[]","0","2","","","10933","121","9","2","win","no-go","0"
"pit-trial","240","1513474","0.0-126.0","battery-v0.2","","""event"",""trial"",""time""
""fullscreenenter"",""1"",""2988""
","
","
","""event"",""trial"",""time""
""fullscreenenter"",""1"",""2988""
","
","","","1358","","","18","10933","5065","a","elianto","#f73b6a7A"," "," ","1","0","[2215]","1","2","","","10933","122","7","3","lose","go","0"
"pit-trial","241","1518346","0.0-127.0","battery-v0.2","","""event"",""trial"",""time""
""fullscreenenter"",""1"",""2988""
","
","
","""event"",""trial"",""time""
""fullscreenenter"",""1"",""2988""
","
","","","-1","","","18","10933","5065","l","elianto","#3366ff99","-1","-1","1","+10","[]","0","2","","","10933","123","8","2","win","no-go","0"
"pit-trial","242","1522594","0.0-128.0","battery-v0.2","","""event"",""trial"",""time""
""fullscreenenter"",""1"",""2988""
","
","
","""event"",""trial"",""time""
""fullscreenenter"",""1"",""2988""
","
","","","1376.8999998569489","","","18","10933","5065","p","elianto","#3366ff99"," "," ","1","0","[2231.9000000953674]","1","2","","","10933","124","5","1","win","go","1"
"pit-trial","243","1526928","0.0-129.0","battery-v0.2","","""event"",""trial"",""time""
""fullscreenenter"",""1"",""2988""
","
","
","""event"",""trial"",""time""
""fullscreenenter"",""1"",""2988""
","
","","","1461.9000000953674","","","18","10933","5065","a","elianto","#f73b6a7A"," "," ","1","0","[2319.7000000476837]","1","2","","","10933","125","7","3","lose","go","0"
"pit-trial","244","1531802","0.0-130.0","battery-v0.2","","""event"",""trial"",""time""
""fullscreenenter"",""1"",""2988""
","
","
","""event"",""trial"",""time""
""fullscreenenter"",""1"",""2988""
","
","","","-1","","","18","10933","5065","l","elianto","#3366ff99","-1","-1","1","+10","[]","0","2","","","10933","126","8","2","win","no-go","0"
"pit-trial","245","1536674","0.0-131.0","battery-v0.2","","""event"",""trial"",""time""
""fullscreenenter"",""1"",""2988""
","
","
","""event"",""trial"",""time""
""fullscreenenter"",""1"",""2988""
","
","","","-1","","","18","10933","5065","g","elianto","#f73b6a7A","-1","-1","1","0","[]","0","2","","","10933","127","6","4","lose","no-go","0"
"pit-trial","246","1541546","0.0-132.0","battery-v0.2","","""event"",""trial"",""time""
""fullscreenenter"",""1"",""2988""
","
","
","""event"",""trial"",""time""
""fullscreenenter"",""1"",""2988""
","
","","","-1","","","18","10933","5065","u","elianto","#3366ff99","-1","-1","1","+10","[]","0","2","","","10933","128","9","2","win","no-go","0"
"pit-trial","247","1546417","0.0-133.0","battery-v0.2","","""event"",""trial"",""time""
""fullscreenenter"",""1"",""2988""
","
","
","""event"",""trial"",""time""
""fullscreenenter"",""1"",""2988""
","
","","","-1","","","18","10933","5065","l","elianto","#3366ff99","-1","-1","1","+10","[]","0","2","","","10933","129","8","2","win","no-go","0"
"pit-trial","248","1551290","0.0-134.0","battery-v0.2","","""event"",""trial"",""time""
""fullscreenenter"",""1"",""2988""
","
","
","""event"",""trial"",""time""
""fullscreenenter"",""1"",""2988""
","
","","","-1","","","18","10933","5065","u","elianto","#3366ff99","-1","-1","1","+10","[]","0","2","","","10933","130","9","2","win","no-go","0"
"pit-trial","249","1556161","0.0-135.0","battery-v0.2","","""event"",""trial"",""time""
""fullscreenenter"",""1"",""2988""
","
","
","""event"",""trial"",""time""
""fullscreenenter"",""1"",""2988""
","
","","","-1","","","18","10933","5065","g","elianto","#f73b6a7A","-1","-1","1","0","[]","0","2","","","10933","131","6","4","lose","no-go","0"
"pit-trial","250","1560953","0.0-136.0","battery-v0.2","","""event"",""trial"",""time""
""fullscreenenter"",""1"",""2988""
","
","
","""event"",""trial"",""time""
""fullscreenenter"",""1"",""2988""
","
","","","1919.1000001430511","","","18","10933","5065","a","elianto","#f73b6a7A"," "," ","1","0","[2773.7000000476837]","1","2","","","10933","132","7","3","lose","go","0"
"pit-trial","251","1565825","0.0-137.0","battery-v0.2","","""event"",""trial"",""time""
""fullscreenenter"",""1"",""2988""
","
","
","""event"",""trial"",""time""
""fullscreenenter"",""1"",""2988""
","
","","","-1","","","18","10933","5065","l","elianto","#3366ff99","-1","-1","1","+10","[]","0","2","","","10933","133","8","2","win","no-go","0"
"pit-trial","252","1569953","0.0-138.0","battery-v0.2","","""event"",""trial"",""time""
""fullscreenenter"",""1"",""2988""
","
","
","""event"",""trial"",""time""
""fullscreenenter"",""1"",""2988""
","
","","","1256.5","","","18","10933","5065","a","elianto","#f73b6a7A"," "," ","1","0","[2113.9000000953674]","1","2","","","10933","134","7","3","lose","go","0"
"pit-trial","253","1574825","0.0-139.0","battery-v0.2","","""event"",""trial"",""time""
""fullscreenenter"",""1"",""2988""
","
","
","""event"",""trial"",""time""
""fullscreenenter"",""1"",""2988""
","
","","","-1","","","18","10933","5065","u","elianto","#3366ff99","-1","-1","1","+10","[]","0","2","","","10933","135","9","2","win","no-go","0"
"pit-trial","254","1579697","0.0-140.0","battery-v0.2","","""event"",""trial"",""time""
""fullscreenenter"",""1"",""2988""
","
","
","""event"",""trial"",""time""
""fullscreenenter"",""1"",""2988""
","
","","","-1","","","18","10933","5065","g","elianto","#f73b6a7A","-1","-1","1","0","[]","0","2","","","10933","136","6","4","lose","no-go","0"
"pit-trial","255","1584569","0.0-141.0","battery-v0.2","","""event"",""trial"",""time""
""fullscreenenter"",""1"",""2988""
","
","
","""event"",""trial"",""time""
""fullscreenenter"",""1"",""2988""
","
","","","-1","","","18","10933","5065","u","elianto","#3366ff99","-1","-1","1","+10","[]","0","2","","","10933","137","9","2","win","no-go","0"
"pit-trial","256","1589438","0.0-142.0","battery-v0.2","","""event"",""trial"",""time""
""fullscreenenter"",""1"",""2988""
","
","
","""event"",""trial"",""time""
""fullscreenenter"",""1"",""2988""
","
","","","-1","","","18","10933","5065","g","elianto","#f73b6a7A","-1","-1","1","0","[]","0","2","","","10933","138","6","4","lose","no-go","0"
"pit-trial","257","1594307","0.0-143.0","battery-v0.2","","""event"",""trial"",""time""
""fullscreenenter"",""1"",""2988""
","
","
","""event"",""trial"",""time""
""fullscreenenter"",""1"",""2988""
","
","","","-1","","","18","10933","5065","l","elianto","#3366ff99","-1","-1","1","+10","[]","0","2","","","10933","139","8","2","win","no-go","0"
"pit-trial","258","1598357","0.0-144.0","battery-v0.2","","""event"",""trial"",""time""
""fullscreenenter"",""1"",""2988""
","
","
","""event"",""trial"",""time""
""fullscreenenter"",""1"",""2988""
","
","","","1189.4000000953674","","","18","10933","5065","a","elianto","#f73b6a7A"," "," ","1","0","[2043.9000000953674]","1","2","","","10933","140","7","3","lose","go","0"
"pit-instructions","259","1670094","0.0-145.0","battery-v0.2","","""event"",""trial"",""time""
""fullscreenenter"",""1"",""2988""
","
","
","""event"",""trial"",""time""
""fullscreenenter"",""1"",""2988""
","
","","[{""page_index"":0,""viewing_time"":6340},{""page_index"":1,""viewing_time"":65377.09999990463}]","71717.19999980927","","","","","","","","","","","","","","","","","","","","","","","",""
"pit-trial","260","1674281","0.0-146.0","battery-v0.2","","""event"",""trial"",""time""
""fullscreenenter"",""1"",""2988""
","
","
","""event"",""trial"",""time""
""fullscreenenter"",""1"",""2988""
","
","","","1313","","","18","10933","5065","t","elianto","#f73b6a7A"," "," ","1","0","[2172.2000000476837]","1","3","","","10933","141","2","3","lose","go","0"
"pit-trial","261","1678016","0.0-147.0","battery-v0.2","","""event"",""trial"",""time""
""fullscreenenter"",""1"",""2988""
","
","
","""event"",""trial"",""time""
""fullscreenenter"",""1"",""2988""
","
","","","868.2999999523163","","","18","10933","5065","f","elianto","#3366ff99","-1"," ","0","0","[1724.7999999523163]","1","3","","","10933","142","1","2","win","no-go","0"
"pit-trial","262","1682023","0.0-148.0","battery-v0.2","","""event"",""trial"",""time""
""fullscreenenter"",""1"",""2988""
","
","
","""event"",""trial"",""time""
""fullscreenenter"",""1"",""2988""
","
","","","1138.8000001907349","","","18","10933","5065","b","elianto","#f73b6a7A","-1"," ","0","-10","[1993.3999998569489]","1","3","","","10933","143","3","4","lose","no-go","0"
"pit-trial","263","1686897","0.0-149.0","battery-v0.2","","""event"",""trial"",""time""
""fullscreenenter"",""1"",""2988""
","
","
","""event"",""trial"",""time""
""fullscreenenter"",""1"",""2988""
","
","","","-1","","","18","10933","5065","n","elianto","#f73b6a7A"," ","-1","0","-10","[]","0","3","","","10933","144","0","3","lose","go","0"
"pit-trial","264","1691033","0.0-150.0","battery-v0.2","","""event"",""trial"",""time""
""fullscreenenter"",""1"",""2988""
","
","
","""event"",""trial"",""time""
""fullscreenenter"",""1"",""2988""
","
","","","1265.9000000953674","","","18","10933","5065","t","elianto","#f73b6a7A"," "," ","1","0","[2120.600000143051]","1","3","","","10933","145","2","3","lose","go","0"
"pit-trial","265","1695905","0.0-151.0","battery-v0.2","","""event"",""trial"",""time""
""fullscreenenter"",""1"",""2988""
","
","
","""event"",""trial"",""time""
""fullscreenenter"",""1"",""2988""
","
","","","-1","","","18","10933","5065","f","elianto","#3366ff99","-1","-1","1","0","[]","0","3","","","10933","146","1","2","win","no-go","1"
"pit-trial","266","1700662","0.0-152.0","battery-v0.2","","""event"",""trial"",""time""
""fullscreenenter"",""1"",""2988""
","
","
","""event"",""trial"",""time""
""fullscreenenter"",""1"",""2988""
","
","","","1895.7999999523163","","","18","10933","5065","n","elianto","#f73b6a7A"," "," ","1","0","[2746.0999999046326]","1","3","","","10933","147","0","3","lose","go","0"