"trial_type","trial_index","time_elapsed","internal_node_id","task_version","subject_id","interactions","blur_events","focus_events","fullscreenenter_events","fullscreenexit_events","success","view_history","rt","responses","num_errors","age","subject","participantId","rune","rune_set","hex","correct","choice","accuracy","outcome","keys","total_keys","block","practice","value","sub","trial","stimulus","robot","valence","action","sham"
"pavlovia","0","37","0.0-0.0","battery-v0.2","","""event"",""trial"",""time""
""fullscreenenter"",""1"",""2978""
","
","
","""event"",""trial"",""time""
""fullscreenenter"",""1"",""2978""
","
","","","","","","","","","","","","","","","","","","","","","","","","","","",""
"fullscreen","1","3936","0.0-1.0","battery-v0.2","","""event"",""trial"",""time""
""fullscreenenter"",""1"",""2978""
","
","
","""event"",""trial"",""time""
""fullscreenenter"",""1"",""2978""
","
","true","","","","","","","","","","","","","","","","","","","","","","","","","",""
"pit-instructions","2","12962","0.0-2.0-0.0","battery-v0.2","","""event"",""trial"",""time""
""fullscreenenter"",""1"",""2978""
","
","
","""event"",""trial"",""time""
""fullscreenenter"",""1"",""2978""
","
","","[{""page_index"":0,""viewing_time"":9006.899999856949}]","9010","","","","","","","","","","","","","","","","","","","","","","","",""
"pit-comprehension","3","16877","0.0-2.0-1.0-0.0","battery-v0.2","","""event"",""trial"",""time""
""fullscreenenter"",""1"",""2978""
","
","
","""event"",""trial"",""time""
""fullscreenenter"",""1"",""2978""
","
","","","3877.7000000476837","[""shark""]","0","11","13511","5783","","","","","","","","","","","","","","","","","","",""
"pit-instructions","4","18877","0.0-2.0-1.0-1.0","battery-v0.2","","""event"",""trial"",""time""
""fullscreenenter"",""1"",""2978""
","
","
","""event"",""trial"",""time""
""fullscreenenter"",""1"",""2978""
","
","","[{""page_index"":0,""viewing_time"":1848.8999998569489}]","1849.3999998569489","","","","","","","","","","","","","","","","","","","","","","","",""
"pit-comprehension","5","24307","0.0-2.0-2.0-0.0","battery-v0.2","","""event"",""trial"",""time""
""fullscreenenter"",""1"",""2978""
","
","
","""event"",""trial"",""time""
""fullscreenenter"",""1"",""2978""
","
","","","5423.5","[""tiger""]","0","11","13511","5783","","","","","","","","","","","","","","","","","","",""
"pit-instructions","6","25979","0.0-2.0-2.0-1.0","battery-v0.2","","""event"",""trial"",""time""
""fullscreenenter"",""1"",""2978""
","
","
","""event"",""trial"",""time""
""fullscreenenter"",""1"",""2978""
","
","","[{""page_index"":0,""viewing_time"":1666.2999999523163}]","1666.7000000476837","","","","","","","","","","","","","","","","","","","","","","","",""
"pit-instructions","7","252725","0.0-2.0-3.0","battery-v0.2","","""event"",""trial"",""time""
""fullscreenenter"",""1"",""2978""
","
","
","""event"",""trial"",""time""
""fullscreenenter"",""1"",""2978""
","
","","[{""page_index"":0,""viewing_time"":11036.399999856949},{""page_index"":1,""viewing_time"":8960.200000047684},{""page_index"":2,""viewing_time"":6625.5},{""page_index"":3,""viewing_time"":7154.299999952316},{""page_index"":4,""viewing_time"":10446.5},{""page_index"":5,""viewing_time"":11593.100000143051},{""page_index"":6,""viewing_time"":100701},{""page_index"":7,""viewing_time"":15921.699999809265},{""page_index"":8,""viewing_time"":7979.5},{""page_index"":9,""viewing_time"":14203.900000095367},{""page_index"":10,""viewing_time"":9564.700000047684},{""page_index"":11,""viewing_time"":4935.599999904633},{""page_index"":12,""viewing_time"":8725.700000047684},{""page_index"":13,""viewing_time"":8889.700000047684}]","226738.29999995232","","","","","","","","","","","","","","","","","","","","","","","",""
"pit-trial","8","255765","0.0-2.0-4.0-0.0","battery-v0.2","","""event"",""trial"",""time""
""fullscreenenter"",""1"",""2978""
","
","
","""event"",""trial"",""time""
""fullscreenenter"",""1"",""2978""
","
","","","172.20000004768372","","","11","13511","5783","&#9784;","elianto","#FFFFF080"," "," ","1","&#10004","[1024.2000000476837]","1","0","0","","","","","","","",""
"pit-trial","9","259551","0.0-2.0-4.1-0.1","battery-v0.2","","""event"",""trial"",""time""
""fullscreenenter"",""1"",""2978""
","
","
","""event"",""trial"",""time""
""fullscreenenter"",""1"",""2978""
","
","","","910.4000000953674","","","11","13511","5783","&#9784;","elianto","#FFFFF080"," "," ","1","&#10004","[1765.3000001907349]","1","0","0","","","","","","","",""
"pit-trial","10","263176","0.0-2.0-4.2-0.2","battery-v0.2","","""event"",""trial"",""time""
""fullscreenenter"",""1"",""2978""
","
","
","""event"",""trial"",""time""
""fullscreenenter"",""1"",""2978""
","
","","","757.9000000953674","","","11","13511","5783","&#9784;","elianto","#FFFFF080"," "," ","1","&#10004","[1609.5]","1","0","0","","","","","","","",""
"pit-trial","11","266847","0.0-2.0-4.3-0.3","battery-v0.2","","""event"",""trial"",""time""
""fullscreenenter"",""1"",""2978""
","
","
","""event"",""trial"",""time""
""fullscreenenter"",""1"",""2978""
","
","","","795.4000000953674","","","11","13511","5783","&#9784;","elianto","#FFFFF080"," "," ","1","&#10004","[1654.3999998569489]","1","0","0","","","","","","","",""
"pit-trial","12","270461","0.0-2.0-4.4-0.4","battery-v0.2","","""event"",""trial"",""time""
""fullscreenenter"",""1"",""2978""
","
","
","""event"",""trial"",""time""
""fullscreenenter"",""1"",""2978""
","
","","","737.7999999523163","","","11","13511","5783","&#9784;","elianto","#FFFFF080"," "," ","1","&#10004","[1591.5999999046326]","1","0","0","","","","","","","",""
"pit-instructions","13","322615","0.0-2.0-5.0","battery-v0.2","","""event"",""trial"",""time""
""fullscreenenter"",""1"",""2978""
","
","
","""event"",""trial"",""time""
""fullscreenenter"",""1"",""2978""
","
","","[{""page_index"":0,""viewing_time"":7237.600000143051},{""page_index"":1,""viewing_time"":13700.5},{""page_index"":2,""viewing_time"":20436.799999952316},{""page_index"":3,""viewing_time"":10772.099999904633}]","52147.700000047684","","","","","","","","","","","","","","","","","","","","","","","",""
"pit-trial","14","327491","0.0-2.0-6.0-0.0","battery-v0.2","","""event"",""trial"",""time""
""fullscreenenter"",""1"",""2978""
","
","
","""event"",""trial"",""time""
""fullscreenenter"",""1"",""2978""
","
","","","-1","","","11","13511","5783","&#9854;","elianto","#FFFFF080","-1","-1","1","&#10004","[]","0","0","1","","","","","","","",""
"pit-trial","15","332371","0.0-2.0-6.1-0.1","battery-v0.2","","""event"",""trial"",""time""
""fullscreenenter"",""1"",""2978""
","
","
","""event"",""trial"",""time""
""fullscreenenter"",""1"",""2978""
","
","","","-1","","","11","13511","5783","&#9854;","elianto","#FFFFF080","-1","-1","1","&#10004","[]","0","0","1","","","","","","","",""
"pit-trial","16","337242","0.0-2.0-6.2-0.2","battery-v0.2","","""event"",""trial"",""time""
""fullscreenenter"",""1"",""2978""
","
","
","""event"",""trial"",""time""
""fullscreenenter"",""1"",""2978""
","
","","","-1","","","11","13511","5783","&#9854;","elianto","#FFFFF080","-1","-1","1","&#10004","[]","0","0","1","","","","","","","",""
"pit-trial","17","342121","0.0-2.0-6.3-0.3","battery-v0.2","","""event"",""trial"",""time""
""fullscreenenter"",""1"",""2978""
","
","
","""event"",""trial"",""time""
""fullscreenenter"",""1"",""2978""
","
","","","-1","","","11","13511","5783","&#9854;","elianto","#FFFFF080","-1","-1","1","&#10004","[]","0","0","1","","","","","","","",""
"pit-trial","18","347001","0.0-2.0-6.4-0.4","battery-v0.2","","""event"",""trial"",""time""
""fullscreenenter"",""1"",""2978""
","
","
","""event"",""trial"",""time""
""fullscreenenter"",""1"",""2978""
","
","","","-1","","","11","13511","5783","&#9854;","elianto","#FFFFF080","-1","-1","1","&#10004","[]","0","0","1","","","","","","","",""
"pit-instructions","19","538175","0.0-2.0-7.0","battery-v0.2","","""event"",""trial"",""time""
""fullscreenenter"",""1"",""2978""
","
","
","""event"",""trial"",""time""
""fullscreenenter"",""1"",""2978""
","
","","[{""page_index"":0,""viewing_time"":7334.799999952316},{""page_index"":1,""viewing_time"":6320.200000047684},{""page_index"":2,""viewing_time"":12771.099999904633},{""page_index"":3,""viewing_time"":12364.600000143051},{""page_index"":4,""viewing_time"":8798.699999809265},{""page_index"":5,""viewing_time"":8182.5},{""page_index"":6,""viewing_time"":10096.200000047684},{""page_index"":7,""viewing_time"":12074.900000095367},{""page_index"":8,""viewing_time"":11898.799999952316},{""page_index"":9,""viewing_time"":7672.200000047684},{""page_index"":10,""viewing_time"":10829.599999904633},{""page_index"":11,""viewing_time"":10234.799999952316},{""page_index"":12,""viewing_time"":11944},{""page_index"":13,""viewing_time"":12994.200000047684},{""page_index"":14,""viewing_time"":12209.100000143051},{""page_index"":15,""viewing_time"":13420.5},{""page_index"":16,""viewing_time"":10134.5},{""page_index"":17,""viewing_time"":11883.199999809265}]","191165.20000004768","","","","","","","","","","","","","","","","","","","","","","","",""
"pit-trial","20","541877","0.0-2.0-8.0-0.0","battery-v0.2","","""event"",""trial"",""time""
""fullscreenenter"",""1"",""2978""
","
","
","""event"",""trial"",""time""
""fullscreenenter"",""1"",""2978""
","
","","","838.7000000476837","","","11","13511","5783","&#9776;","elianto","#3366ff99"," "," ","1","+10","[1695]","1","0","1","","","","","","","",""
"pit-trial","21","545407","0.0-2.0-8.0-1.0","battery-v0.2","","""event"",""trial"",""time""
""fullscreenenter"",""1"",""2978""
","
","
","""event"",""trial"",""time""
""fullscreenenter"",""1"",""2978""
","
","","","672.5","","","11","13511","5783","&#9776;","elianto","#3366ff99"," "," ","1","+10","[1523.8000001907349]","1","0","1","","","","","","","",""
"pit-trial","22","549070","0.0-2.0-8.0-2.0","battery-v0.2","","""event"",""trial"",""time""
""fullscreenenter"",""1"",""2978""
","
","
","""event"",""trial"",""time""
""fullscreenenter"",""1"",""2978""
","
","","","797.2000000476837","","","11","13511","5783","&#9776;","elianto","#3366ff99"," "," ","1","+10","[1648.2000000476837]","1","0","1","","","","","","","",""
"pit-trial","23","552612","0.0-2.0-8.0-3.0","battery-v0.2","","""event"",""trial"",""time""
""fullscreenenter"",""1"",""2978""
","
","
","""event"",""trial"",""time""
""fullscreenenter"",""1"",""2978""
","
","","","674.9000000953674","","","11","13511","5783","&#9776;","elianto","#3366ff99"," "," ","1","0","[1527.2999999523163]","1","0","1","","","","","","","",""
"pit-trial","24","556582","0.0-2.0-8.0-4.0","battery-v0.2","","""event"",""trial"",""time""
""fullscreenenter"",""1"",""2978""
","
","
","""event"",""trial"",""time""
""fullscreenenter"",""1"",""2978""
","
","","","1107.5999999046326","","","11","13511","5783","&#9776;","elianto","#3366ff99"," "," ","1","+10","[1963.0999999046326]","1","0","1","","","","","","","",""
"pit-trial","25","560012","0.0-2.0-8.1-0.1","battery-v0.2","","""event"",""trial"",""time""
""fullscreenenter"",""1"",""2978""
","
","
","""event"",""trial"",""time""
""fullscreenenter"",""1"",""2978""
","
","","","569.6999998092651","","","11","13511","5783","&#9776;","elianto","#3366ff99"," "," ","1","+10","[1421.9000000953674]","1","0","1","","","","","","","",""
"pit-trial","26","563482","0.0-2.0-8.1-1.1","battery-v0.2","","""event"",""trial"",""time""
""fullscreenenter"",""1"",""2978""
","
","
","""event"",""trial"",""time""
""fullscreenenter"",""1"",""2978""
","
","","","604.0999999046326","","","11","13511","5783","&#9776;","elianto","#3366ff99"," "," ","1","+10","[1457.5]","1","0","1","","","","","","","",""
"pit-trial","27","566963","0.0-2.0-8.1-2.1","battery-v0.2","","""event"",""trial"",""time""
""fullscreenenter"",""1"",""2978""
","
","
","""event"",""trial"",""time""
""fullscreenenter"",""1"",""2978""
","
","","","621.6999998092651","","","11","13511","5783","&#9776;","elianto","#3366ff99"," "," ","1","+10","[1475.4000000953674]","1","0","1","","","","","","","",""
"pit-trial","28","570754","0.0-2.0-8.1-3.1","battery-v0.2","","""event"",""trial"",""time""
""fullscreenenter"",""1"",""2978""
","
","
","""event"",""trial"",""time""
""fullscreenenter"",""1"",""2978""
","
","","","921","","","11","13511","5783","&#9776;","elianto","#3366ff99"," "," ","1","0","[1773.2000000476837]","1","0","1","","","","","","","",""
"pit-trial","29","574492","0.0-2.0-8.1-4.1","battery-v0.2","","""event"",""trial"",""time""
""fullscreenenter"",""1"",""2978""
","
","
","""event"",""trial"",""time""
""fullscreenenter"",""1"",""2978""
","
","","","878.2000000476837","","","11","13511","5783","&#9776;","elianto","#3366ff99"," "," ","1","+10","[1731.7999999523163]","1","0","1","","","","","","","",""
"pit-trial","30","578020","0.0-2.0-8.2-0.2","battery-v0.2","","""event"",""trial"",""time""
""fullscreenenter"",""1"",""2978""
","
","
","""event"",""trial"",""time""
""fullscreenenter"",""1"",""2978""
","
","","","665.9000000953674","","","11","13511","5783","&#9776;","elianto","#3366ff99"," "," ","1","+10","[1520.1000001430511]","1","0","1","","","","","","","",""
"pit-trial","31","581479","0.0-2.0-8.2-1.2","battery-v0.2","","""event"",""trial"",""time""
""fullscreenenter"",""1"",""2978""
","
","
","""event"",""trial"",""time""
""fullscreenenter"",""1"",""2978""
","
","","","589.7999999523163","","","11","13511","5783","&#9776;","elianto","#3366ff99"," "," ","1","+10","[1446.8999998569489]","1","0","1","","","","","","","",""
"pit-trial","32","585055","0.0-2.0-8.2-2.2","battery-v0.2","","""event"",""trial"",""time""
""fullscreenenter"",""1"",""2978""
","
","
","""event"",""trial"",""time""
""fullscreenenter"",""1"",""2978""
","
","","","714.0999999046326","","","11","13511","5783","&#9776;","elianto","#3366ff99"," "," ","1","+10","[1565.9000000953674]","1","0","1","","","","","","","",""
"pit-trial","33","588506","0.0-2.0-8.2-3.2","battery-v0.2","","""event"",""trial"",""time""
""fullscreenenter"",""1"",""2978""
","
","
","""event"",""trial"",""time""
""fullscreenenter"",""1"",""2978""
","
","","","587.5999999046326","","","11","13511","5783","&#9776;","elianto","#3366ff99"," "," ","1","0","[1439.7000000476837]","1","0","1","","","","","","","",""
"pit-trial","34","593374","0.0-2.0-8.2-4.2","battery-v0.2","","""event"",""trial"",""time""
""fullscreenenter"",""1"",""2978""
","
","
","""event"",""trial"",""time""
""fullscreenenter"",""1"",""2978""
","
","","","-1","","","11","13511","5783","&#9776;","elianto","#3366ff99"," ","-1","0","0","[3216.5]","1","0","1","","","","","","","",""
"call-function","35","593380","0.0-2.0-9.0","battery-v0.2","","""event"",""trial"",""time""
""fullscreenenter"",""1"",""2978""
","
","
","""event"",""trial"",""time""
""fullscreenenter"",""1"",""2978""
","
","","","","","","","","","","","","","","","","","","","","","","","","","","",""
"pit-instructions","36","669565","0.0-2.0-10.0","battery-v0.2","","""event"",""trial"",""time""
""fullscreenenter"",""1"",""2978""
","
","
","""event"",""trial"",""time""
""fullscreenenter"",""1"",""2978""
","
","","[{""page_index"":0,""viewing_time"":17609.599999904633},{""page_index"":1,""viewing_time"":7194.400000095367},{""page_index"":2,""viewing_time"":14954.399999856949},{""page_index"":3,""viewing_time"":20943.60000014305},{""page_index"":4,""viewing_time"":15480.799999952316}]","76183.69999980927","","","","","","","","","","","","","","","","","","","","","","","",""
"pit-trial","37","673110","0.0-2.0-11.0-0.0","battery-v0.2","","""event"",""trial"",""time""
""fullscreenenter"",""1"",""2978""
","
","
","""event"",""trial"",""time""
""fullscreenenter"",""1"",""2978""
","
","","","669.6000001430511","","","11","13511","5783","&#9761;","elianto","#3366ff99","-1"," ","0","0","[1528.7999999523163]","1","0","2","","","","","","","",""
"pit-trial","38","676602","0.0-2.0-11.0-1.0","battery-v0.2","","""event"",""trial"",""time""
""fullscreenenter"",""1"",""2978""
","
","
","""event"",""trial"",""time""
""fullscreenenter"",""1"",""2978""
","
","","","621.7999999523163","","","11","13511","5783","&#9761;","elianto","#3366ff99","-1"," ","0","0","[1480.2999999523163]","1","0","2","","","","","","","",""
"pit-trial","39","681464","0.0-2.0-11.0-2.0","battery-v0.2","","""event"",""trial"",""time""
""fullscreenenter"",""1"",""2978""
","
","
","""event"",""trial"",""time""
""fullscreenenter"",""1"",""2978""
","
","","","-1","","","11","13511","5783","&#9761;","elianto","#3366ff99","-1","-1","1","+10","[]","0","0","2","","","","","","","",""
"pit-trial","40","686333","0.0-2.0-11.0-3.0","battery-v0.2","","""event"",""trial"",""time""
""fullscreenenter"",""1"",""2978""
","
","
","""event"",""trial"",""time""
""fullscreenenter"",""1"",""2978""
","
","","","-1","","","11","13511","5783","&#9761;","elianto","#3366ff99","-1","-1","1","0","[]","0","0","2","","","","","","","",""
"pit-trial","41","689791","0.0-2.0-11.0-4.0","battery-v0.2","","""event"",""trial"",""time""
""fullscreenenter"",""1"",""2978""
","
","
","""event"",""trial"",""time""
""fullscreenenter"",""1"",""2978""
","
","","","586.6000001430511","","","11","13511","5783","&#9761;","elianto","#3366ff99","-1"," ","0","0","[1444.1000001430511]","1","0","2","","","","","","","",""
"pit-trial","42","693618","0.0-2.0-11.1-0.1","battery-v0.2","","""event"",""trial"",""time""
""fullscreenenter"",""1"",""2978""
","
","
","""event"",""trial"",""time""
""fullscreenenter"",""1"",""2978""
","
","","","960.7999999523163","","","11","13511","5783","&#9761;","elianto","#3366ff99","-1"," ","0","0","[1811.4000000953674]","1","0","2","","","","","","","",""
"pit-trial","43","696908","0.0-2.0-11.1-1.1","battery-v0.2","","""event"",""trial"",""time""
""fullscreenenter"",""1"",""2978""
","
","
","""event"",""trial"",""time""
""fullscreenenter"",""1"",""2978""
","
","","","433.90000009536743","","","11","13511","5783","&#9761;","elianto","#3366ff99","-1"," ","0","0","[1286.5]","1","0","2","","","","","","","",""
"pit-trial","44","700387","0.0-2.0-11.1-2.1","battery-v0.2","","""event"",""trial"",""time""
""fullscreenenter"",""1"",""2978""
","
","
","""event"",""trial"",""time""
""fullscreenenter"",""1"",""2978""
","
","","","618.1000001430511","","","11","13511","5783","&#9761;","elianto","#3366ff99","-1"," ","0","0","[1475.5]","1","0","2","","","","","","","",""
"pit-trial","45","704061","0.0-2.0-11.1-3.1","battery-v0.2","","""event"",""trial"",""time""
""fullscreenenter"",""1"",""2978""
","
","
","""event"",""trial"",""time""
""fullscreenenter"",""1"",""2978""
","
","","","814.8000001907349","","","11","13511","5783","&#9761;","elianto","#3366ff99","-1"," ","0","+10","[1670.6000001430511]","1","0","2","","","","","","","",""
"pit-trial","46","708931","0.0-2.0-11.1-4.1","battery-v0.2","","""event"",""trial"",""time""
""fullscreenenter"",""1"",""2978""
","
","
","""event"",""trial"",""time""
""fullscreenenter"",""1"",""2978""
","
","","","-1","","","11","13511","5783","&#9761;","elianto","#3366ff99","-1","-1","1","+10","[]","0","0","2","","","","","","","",""
"pit-trial","47","713799","0.0-2.0-11.2-0.2","battery-v0.2","","""event"",""trial"",""time""
""fullscreenenter"",""1"",""2978""
","
","
","""event"",""trial"",""time""
""fullscreenenter"",""1"",""2978""
","
","","","-1","","","11","13511","5783","&#9761;","elianto","#3366ff99","-1","-1","1","+10","[]","0","0","2","","","","","","","",""
"pit-trial","48","718663","0.0-2.0-11.2-1.2","battery-v0.2","","""event"",""trial"",""time""
""fullscreenenter"",""1"",""2978""
","
","
","""event"",""trial"",""time""
""fullscreenenter"",""1"",""2978""
","
","","","-1","","","11","13511","5783","&#9761;","elianto","#3366ff99","-1","-1","1","+10","[]","0","0","2","","","","","","","",""
"pit-trial","49","723532","0.0-2.0-11.2-2.2","battery-v0.2","","""event"",""trial"",""time""
""fullscreenenter"",""1"",""2978""
","
","
","""event"",""trial"",""time""
""fullscreenenter"",""1"",""2978""
","
","","","-1","","","11","13511","5783","&#9761;","elianto","#3366ff99","-1","-1","1","+10","[]","0","0","2","","","","","","","",""
"pit-trial","50","728407","0.0-2.0-11.2-3.2","battery-v0.2","","""event"",""trial"",""time""
""fullscreenenter"",""1"",""2978""
","
","
","""event"",""trial"",""time""
""fullscreenenter"",""1"",""2978""
","
","","","-1","","","11","13511","5783","&#9761;","elianto","#3366ff99","-1","-1","1","0","[]","0","0","2","","","","","","","",""
"pit-trial","51","733265","0.0-2.0-11.2-4.2","battery-v0.2","","""event"",""trial"",""time""
""fullscreenenter"",""1"",""2978""
","
","
","""event"",""trial"",""time""
""fullscreenenter"",""1"",""2978""
","
","","","-1","","","11","13511","5783","&#9761;","elianto","#3366ff99","-1","-1","1","+10","[]","0","0","2","","","","","","","",""
"pit-trial","52","738132","0.0-2.0-11.3-0.3","battery-v0.2","","""event"",""trial"",""time""
""fullscreenenter"",""1"",""2978""
","
","
","""event"",""trial"",""time""
""fullscreenenter"",""1"",""2978""
","
","","","-1","","","11","13511","5783","&#9761;","elianto","#3366ff99","-1","-1","1","+10","[]","0","0","2","","","","","","","",""
"pit-trial","53","743000","0.0-2.0-11.3-1.3","battery-v0.2","","""event"",""trial"",""time""
""fullscreenenter"",""1"",""2978""
","
","
","""event"",""trial"",""time""
""fullscreenenter"",""1"",""2978""
","
","","","-1","","","11","13511","5783","&#9761;","elianto","#3366ff99","-1","-1","1","+10","[]","0","0","2","","","","","","","",""
"pit-trial","54","747871","0.0-2.0-11.3-2.3","battery-v0.2","","""event"",""trial"",""time""
""fullscreenenter"",""1"",""2978""
","
","
","""event"",""trial"",""time""
""fullscreenenter"",""1"",""2978""
","
","","","-1","","","11","13511","5783","&#9761;","elianto","#3366ff99","-1","-1","1","+10","[]","0","0","2","","","","","","","",""
"pit-trial","55","752736","0.0-2.0-11.3-3.3","battery-v0.2","","""event"",""trial"",""time""
""fullscreenenter"",""1"",""2978""
","
","
","""event"",""trial"",""time""
""fullscreenenter"",""1"",""2978""
","
","","","-1","","","11","13511","5783","&#9761;","elianto","#3366ff99","-1","-1","1","0","[]","0","0","2","","","","","","","",""
"pit-trial","56","757602","0.0-2.0-11.3-4.3","battery-v0.2","","""event"",""trial"",""time""
""fullscreenenter"",""1"",""2978""
","
","
","""event"",""trial"",""time""
""fullscreenenter"",""1"",""2978""
","
","","","-1","","","11","13511","5783","&#9761;","elianto","#3366ff99","-1","-1","1","+10","[]","0","0","2","","","","","","","",""
"call-function","57","757607","0.0-2.0-12.0","battery-v0.2","","""event"",""trial"",""time""
""fullscreenenter"",""1"",""2978""
","
","
","""event"",""trial"",""time""
""fullscreenenter"",""1"",""2978""
","
","","","","","","","","","","","","","","","","","","","","","","","","","","",""
"pit-instructions","58","889180","0.0-2.0-13.0","battery-v0.2","","""event"",""trial"",""time""
""fullscreenenter"",""1"",""2978""
","
","
","""event"",""trial"",""time""
""fullscreenenter"",""1"",""2978""
","
","","[{""page_index"":0,""viewing_time"":5849.099999904633},{""page_index"":1,""viewing_time"":10513.700000047684},{""page_index"":2,""viewing_time"":83944.59999990463},{""page_index"":3,""viewing_time"":20999.299999952316},{""page_index"":4,""viewing_time"":10264.400000095367}]","131571.59999990463","","","","","","","","","","","","","","","","","","","","","","","",""
"pit-trial","59","894049","0.0-2.0-14.0-0.0","battery-v0.2","","""event"",""trial"",""time""
""fullscreenenter"",""1"",""2978""
","
","
","""event"",""trial"",""time""
""fullscreenenter"",""1"",""2978""
","
","","","-1","","","11","13511","5783","&#9826;","elianto","#f73b6a7A","-1","-1","1","0","[]","0","0","3","","","","","","","",""
"pit-trial","60","897456","0.0-2.0-14.0-1.0","battery-v0.2","","""event"",""trial"",""time""
""fullscreenenter"",""1"",""2978""
","
","
","""event"",""trial"",""time""
""fullscreenenter"",""1"",""2978""
","
","","","549.0999999046326","","","11","13511","5783","&#9826;","elianto","#f73b6a7A","-1"," ","0","-10","[1400.3999998569489]","1","0","3","","","","","","","",""
"pit-trial","61","900902","0.0-2.0-14.0-2.0","battery-v0.2","","""event"",""trial"",""time""
""fullscreenenter"",""1"",""2978""
","
","
","""event"",""trial"",""time""
""fullscreenenter"",""1"",""2978""
","
","","","574.8999998569489","","","11","13511","5783","&#9826;","elianto","#f73b6a7A","-1"," ","0","-10","[1427.2999999523163]","1","0","3","","","","","","","",""
"pit-trial","62","905447","0.0-2.0-14.0-3.0","battery-v0.2","","""event"",""trial"",""time""
""fullscreenenter"",""1"",""2978""
","
","
","""event"",""trial"",""time""
""fullscreenenter"",""1"",""2978""
","
","","","1683.5","","","11","13511","5783","&#9826;","elianto","#f73b6a7A","-1"," ","0","0","[2540.100000143051]","1","0","3","","","","","","","",""
"pit-trial","63","910318","0.0-2.0-14.0-4.0","battery-v0.2","","""event"",""trial"",""time""
""fullscreenenter"",""1"",""2978""
","
","
","""event"",""trial"",""time""
""fullscreenenter"",""1"",""2978""
","
","","","-1","","","11","13511","5783","&#9826;","elianto","#f73b6a7A","-1","-1","1","0","[]","0","0","3","","","","","","","",""
"pit-trial","64","913637","0.0-2.0-14.1-0.1","battery-v0.2","","""event"",""trial"",""time""
""fullscreenenter"",""1"",""2978""
","
","
","""event"",""trial"",""time""
""fullscreenenter"",""1"",""2978""
","
","","","454.60000014305115","","","11","13511","5783","&#9826;","elianto","#f73b6a7A","-1"," ","0","-10","[1305.7999999523163]","1","0","3","","","","","","","",""
"pit-trial","65","917063","0.0-2.0-14.1-1.1","battery-v0.2","","""event"",""trial"",""time""
""fullscreenenter"",""1"",""2978""
","
","
","""event"",""trial"",""time""
""fullscreenenter"",""1"",""2978""
","
","","","563.0999999046326","","","11","13511","5783","&#9826;","elianto","#f73b6a7A","-1"," ","0","-10","[1421.7000000476837]","1","0","3","","","","","","","",""
"pit-trial","66","920606","0.0-2.0-14.1-2.1","battery-v0.2","","""event"",""trial"",""time""
""fullscreenenter"",""1"",""2978""
","
","
","""event"",""trial"",""time""
""fullscreenenter"",""1"",""2978""
","
","","","685.5","","","11","13511","5783","&#9826;","elianto","#f73b6a7A","-1"," ","0","-10","[1536.7999999523163]","1","0","3","","","","","","","",""
"pit-trial","67","925467","0.0-2.0-14.1-3.1","battery-v0.2","","""event"",""trial"",""time""
""fullscreenenter"",""1"",""2978""
","
","
","""event"",""trial"",""time""
""fullscreenenter"",""1"",""2978""
","
","","","-1","","","11","13511","5783","&#9826;","elianto","#f73b6a7A","-1","-1","1","-10","[]","0","0","3","","","","","","","",""
"pit-trial","68","929025","0.0-2.0-14.1-4.1","battery-v0.2","","""event"",""trial"",""time""
""fullscreenenter"",""1"",""2978""
","
","
","""event"",""trial"",""time""
""fullscreenenter"",""1"",""2978""
","
","","","698.9000000953674","","","11","13511","5783","&#9826;","elianto","#f73b6a7A","-1"," ","0","-10","[1550.8999998569489]","1","0","3","","","","","","","",""
"pit-trial","69","932303","0.0-2.0-14.2-0.2","battery-v0.2","","""event"",""trial"",""time""
""fullscreenenter"",""1"",""2978""
","
","
","""event"",""trial"",""time""
""fullscreenenter"",""1"",""2978""
","
","","","419.2999999523163","","","11","13511","5783","&#9826;","elianto","#f73b6a7A","-1"," ","0","-10","[1271.4000000953674]","1","0","3","","","","","","","",""
"pit-trial","70","937169","0.0-2.0-14.2-1.2","battery-v0.2","","""event"",""trial"",""time""
""fullscreenenter"",""1"",""2978""
","
","
","""event"",""trial"",""time""
""fullscreenenter"",""1"",""2978""
","
","","","-1","","","11","13511","5783","&#9826;","elianto","#f73b6a7A","-1","-1","1","0","[]","0","0","3","","","","","","","",""
"pit-trial","71","942038","0.0-2.0-14.2-2.2","battery-v0.2","","""event"",""trial"",""time""
""fullscreenenter"",""1"",""2978""
","
","
","""event"",""trial"",""time""
""fullscreenenter"",""1"",""2978""
","
","","","-1","","","11","13511","5783","&#9826;","elianto","#f73b6a7A","-1","-1","1","0","[]","0","0","3","","","","","","","",""
"pit-trial","72","946907","0.0-2.0-14.2-3.2","battery-v0.2","","""event"",""trial"",""time""
""fullscreenenter"",""1"",""2978""
","
","
","""event"",""trial"",""time""
""fullscreenenter"",""1"",""2978""
","
","","","-1","","","11","13511","5783","&#9826;","elianto","#f73b6a7A","-1","-1","1","-10","[]","0","0","3","","","","","","","",""
"pit-trial","73","951769","0.0-2.0-14.2-4.2","battery-v0.2","","""event"",""trial"",""time""
""fullscreenenter"",""1"",""2978""
","
","
","""event"",""trial"",""time""
""fullscreenenter"",""1"",""2978""
","
","","","-1","","","11","13511","5783","&#9826;","elianto","#f73b6a7A","-1","-1","1","0","[]","0","0","3","","","","","","","",""
"pit-trial","74","956642","0.0-2.0-14.3-0.3","battery-v0.2","","""event"",""trial"",""time""
""fullscreenenter"",""1"",""2978""
","
","
","""event"",""trial"",""time""
""fullscreenenter"",""1"",""2978""
","
","","","-1","","","11","13511","5783","&#9826;","elianto","#f73b6a7A","-1","-1","1","0","[]","0","0","3","","","","","","","",""
"pit-trial","75","961520","0.0-2.0-14.3-1.3","battery-v0.2","","""event"",""trial"",""time""
""fullscreenenter"",""1"",""2978""
","
","
","""event"",""trial"",""time""
""fullscreenenter"",""1"",""2978""
","
","","","-1","","","11","13511","5783","&#9826;","elianto","#f73b6a7A","-1","-1","1","0","[]","0","0","3","","","","","","","",""
"pit-trial","76","966390","0.0-2.0-14.3-2.3","battery-v0.2","","""event"",""trial"",""time""
""fullscreenenter"",""1"",""2978""
","
","
","""event"",""trial"",""time""
""fullscreenenter"",""1"",""2978""
","
","","","-1","","","11","13511","5783","&#9826;","elianto","#f73b6a7A","-1","-1","1","0","[]","0","0","3","","","","","","","",""
"pit-trial","77","971252","0.0-2.0-14.3-3.3","battery-v0.2","","""event"",""trial"",""time""
""fullscreenenter"",""1"",""2978""
","
","
","""event"",""trial"",""time""
""fullscreenenter"",""1"",""2978""
","
","","","-1","","","11","13511","5783","&#9826;","elianto","#f73b6a7A","-1","-1","1","-10","[]","0","0","3","","","","","","","",""
"pit-trial","78","976114","0.0-2.0-14.3-4.3","battery-v0.2","","""event"",""trial"",""time""
""fullscreenenter"",""1"",""2978""
","
","
","""event"",""trial"",""time""
""fullscreenenter"",""1"",""2978""
","
","","","-1","","","11","13511","5783","&#9826;","elianto","#f73b6a7A","-1","-1","1","0","[]","0","0","3","","","","","","","",""
"call-function","79","976119","0.0-2.0-15.0","battery-v0.2","","""event"",""trial"",""time""
""fullscreenenter"",""1"",""2978""
","
","
","""event"",""trial"",""time""
""fullscreenenter"",""1"",""2978""
","
","","","","","","","","","","","","","","","","","","","","","","","","","","",""
"pit-instructions","80","1161056","0.0-2.0-16.0","battery-v0.2","","""event"",""trial"",""time""
""fullscreenenter"",""1"",""2978""
","
","
","""event"",""trial"",""time""
""fullscreenenter"",""1"",""2978""
","
","","[{""page_index"":0,""viewing_time"":22907.900000095367},{""page_index"":1,""viewing_time"":147766.90000009537},{""page_index"":2,""viewing_time"":8509.399999856949},{""page_index"":3,""viewing_time"":5748.400000095367}]","184933.30000019073","","","","","","","","","","","","","","","","","","","","","","","",""
"pit-trial","81","1165926","0.0-2.0-17.0-0.0","battery-v0.2","","""event"",""trial"",""time""
""fullscreenenter"",""1"",""2978""
","
","
","""event"",""trial"",""time""
""fullscreenenter"",""1"",""2978""
","
","","","-1","","","11","13511","5783","&#9789;","elianto","#f73b6a7A"," ","-1","0","-10","[]","0","0","4","","","","","","","",""
"pit-trial","82","1170792","0.0-2.0-17.0-1.0","battery-v0.2","","""event"",""trial"",""time""
""fullscreenenter"",""1"",""2978""
","
","
","""event"",""trial"",""time""
""fullscreenenter"",""1"",""2978""
","
","","","-1","","","11","13511","5783","&#9789;","elianto","#f73b6a7A"," ","-1","0","-10","[]","0","0","4","","","","","","","",""
"pit-trial","83","1174314","0.0-2.0-17.0-2.0","battery-v0.2","","""event"",""trial"",""time""
""fullscreenenter"",""1"",""2978""
","
","
","""event"",""trial"",""time""
""fullscreenenter"",""1"",""2978""
","
","","","657.7999999523163","","","11","13511","5783","&#9789;","elianto","#f73b6a7A"," "," ","1","0","[1512.6999998092651]","1","0","4","","","","","","","",""
"pit-trial","84","1177545","0.0-2.0-17.0-3.0","battery-v0.2","","""event"",""trial"",""time""
""fullscreenenter"",""1"",""2978""
","
","
","""event"",""trial"",""time""
""fullscreenenter"",""1"",""2978""
","
","","","362.2999999523163","","","11","13511","5783","&#9789;","elianto","#f73b6a7A"," "," ","1","-10","[1219.1000001430511]","1","0","4","","","","","","","",""
"pit-trial","85","1180575","0.0-2.0-17.0-4.0","battery-v0.2","","""event"",""trial"",""time""
""fullscreenenter"",""1"",""2978""
","
","
","""event"",""trial"",""time""
""fullscreenenter"",""1"",""2978""
","
","","","167.79999995231628","","","11","13511","5783","&#9789;","elianto","#f73b6a7A"," "," ","1","0","[1023.2000000476837]","1","0","4","","","","","","","",""
"pit-trial","86","1185444","0.0-2.0-17.1-0.1","battery-v0.2","","""event"",""trial"",""time""
""fullscreenenter"",""1"",""2978""
","
","
","""event"",""trial"",""time""
""fullscreenenter"",""1"",""2978""
","
","","","-1","","","11","13511","5783","&#9789;","elianto","#f73b6a7A"," ","-1","0","-10","[]","0","0","4","","","","","","","",""
"pit-trial","87","1188721","0.0-2.0-17.1-1.1","battery-v0.2","","""event"",""trial"",""time""
""fullscreenenter"",""1"",""2978""
","
","
","""event"",""trial"",""time""
""fullscreenenter"",""1"",""2978""
","
","","","413.7999999523163","","","11","13511","5783","&#9789;","elianto","#f73b6a7A"," "," ","1","0","[1267.6999998092651]","1","0","4","","","","","","","",""
"pit-trial","88","1191949","0.0-2.0-17.1-2.1","battery-v0.2","","""event"",""trial"",""time""
""fullscreenenter"",""1"",""2978""
","
","
","""event"",""trial"",""time""
""fullscreenenter"",""1"",""2978""
","
","","","363.09999990463257","","","11","13511","5783","&#9789;","elianto","#f73b6a7A"," "," ","1","0","[1216.7999999523163]","1","0","4","","","","","","","",""
"pit-trial","89","1196822","0.0-2.0-17.1-3.1","battery-v0.2","","""event"",""trial"",""time""
""fullscreenenter"",""1"",""2978""
","
","
","""event"",""trial"",""time""
""fullscreenenter"",""1"",""2978""
","
","","","-1","","","11","13511","5783","&#9789;","elianto","#f73b6a7A"," ","-1","0","0","[]","0","0","4","","","","","","","",""
"pit-trial","90","1199832","0.0-2.0-17.1-4.1","battery-v0.2","","""event"",""trial"",""time""
""fullscreenenter"",""1"",""2978""
","
","
","""event"",""trial"",""time""
""fullscreenenter"",""1"",""2978""
","
","","","142.29999995231628","","","11","13511","5783","&#9789;","elianto","#f73b6a7A"," "," ","1","0","[998.9000000953674]","1","0","4","","","","","","","",""
"pit-trial","91","1204695","0.0-2.0-17.2-0.2","battery-v0.2","","""event"",""trial"",""time""
""fullscreenenter"",""1"",""2978""
","
","
","""event"",""trial"",""time""
""fullscreenenter"",""1"",""2978""
","
","","","-1","","","11","13511","5783","&#9789;","elianto","#f73b6a7A"," ","-1","0","-10","[]","0","0","4","","","","","","","",""
"pit-trial","92","1209564","0.0-2.0-17.2-1.2","battery-v0.2","","""event"",""trial"",""time""
""fullscreenenter"",""1"",""2978""
","
","
","""event"",""trial"",""time""
""fullscreenenter"",""1"",""2978""
","
","","","-1","","","11","13511","5783","&#9789;","elianto","#f73b6a7A"," ","-1","0","-10","[]","0","0","4","","","","","","","",""
"pit-trial","93","1212629","0.0-2.0-17.2-2.2","battery-v0.2","","""event"",""trial"",""time""
""fullscreenenter"",""1"",""2978""
","
","
","""event"",""trial"",""time""
""fullscreenenter"",""1"",""2978""
","
","","","203.59999990463257","","","11","13511","5783","&#9789;","elianto","#f73b6a7A"," "," ","1","0","[1059.1000001430511]","1","0","4","","","","","","","",""
"pit-trial","94","1215892","0.0-2.0-17.2-3.2","battery-v0.2","","""event"",""trial"",""time""
""fullscreenenter"",""1"",""2978""
","
","
","""event"",""trial"",""time""
""fullscreenenter"",""1"",""2978""
","
","","","400.09999990463257","","","11","13511","5783","&#9789;","elianto","#f73b6a7A"," "," ","1","-10","[1254.6000001430511]","1","0","4","","","","","","","",""
"pit-trial","95","1219214","0.0-2.0-17.2-4.2","battery-v0.2","","""event"",""trial"",""time""
""fullscreenenter"",""1"",""2978""
","
","
","""event"",""trial"",""time""
""fullscreenenter"",""1"",""2978""
","
","","","454.10000014305115","","","11","13511","5783","&#9789;","elianto","#f73b6a7A"," "," ","1","0","[1309.3999998569489]","1","0","4","","","","","","","",""
"pit-trial","96","1222444","0.0-2.0-17.3-0.3","battery-v0.2","","""event"",""trial"",""time""
""fullscreenenter"",""1"",""2978""
","
","
","""event"",""trial"",""time""
""fullscreenenter"",""1"",""2978""
","
","","","365.5","","","11","13511","5783","&#9789;","elianto","#f73b6a7A"," "," ","1","0","[1216.8999998569489]","1","0","4","","","","","","","",""
"pit-trial","97","1225767","0.0-2.0-17.3-1.3","battery-v0.2","","""event"",""trial"",""time""
""fullscreenenter"",""1"",""2978""
","
","
","""event"",""trial"",""time""
""fullscreenenter"",""1"",""2978""
","
","","","458.7000000476837","","","11","13511","5783","&#9789;","elianto","#f73b6a7A"," "," ","1","0","[1310.3000001907349]","1","0","4","","","","","","","",""
"pit-trial","98","1228836","0.0-2.0-17.3-2.3","battery-v0.2","","""event"",""trial"",""time""
""fullscreenenter"",""1"",""2978""
","
","
","""event"",""trial"",""time""
""fullscreenenter"",""1"",""2978""
","
","","","203.70000004768372","","","11","13511","5783","&#9789;","elianto","#f73b6a7A"," "," ","1","0","[1058.2999999523163]","1","0","4","","","","","","","",""
"pit-trial","99","1232120","0.0-2.0-17.3-3.3","battery-v0.2","","""event"",""trial"",""time""
""fullscreenenter"",""1"",""2978""
","
","
","""event"",""trial"",""time""
""fullscreenenter"",""1"",""2978""
","
","","","418.2999999523163","","","11","13511","5783","&#9789;","elianto","#f73b6a7A"," "," ","1","-10","[1271.3000001907349]","1","0","4","","","","","","","",""
"pit-trial","100","1236982","0.0-2.0-17.3-4.3","battery-v0.2","","""event"",""trial"",""time""
""fullscreenenter"",""1"",""2978""
","
","
","""event"",""trial"",""time""
""fullscreenenter"",""1"",""2978""
","
","","","-1","","","11","13511","5783","&#9789;","elianto","#f73b6a7A"," ","-1","0","-10","[]","0","0","4","","","","","","","",""
"call-function","101","1236986","0.0-2.0-18.0","battery-v0.2","","""event"",""trial"",""time""
""fullscreenenter"",""1"",""2978""
","
","
","""event"",""trial"",""time""
""fullscreenenter"",""1"",""2978""
","
","","","","","","","","","","","","","","","","","","","","","","","","","","",""
"pit-instructions","102","1324771","0.0-2.0-19.0","battery-v0.2","","""event"",""trial"",""time""
""fullscreenenter"",""1"",""2978""
","
","
","""event"",""trial"",""time""
""fullscreenenter"",""1"",""2978""
","
","","[{""page_index"":0,""viewing_time"":8190.599999904633},{""page_index"":1,""viewing_time"":7402.599999904633},{""page_index"":2,""viewing_time"":11214},{""page_index"":3,""viewing_time"":7013.800000190735},{""page_index"":4,""viewing_time"":10296.299999952316},{""page_index"":5,""viewing_time"":8835.599999904633},{""page_index"":6,""viewing_time"":12200.299999952316},{""page_index"":7,""viewing_time"":11636.800000190735},{""page_index"":8,""viewing_time"":10991.899999856949}]","87782.69999980927","","","","","","","","","","","","","","","","","","","","","","","",""
"pit-comprehension","103","1330434","0.0-2.0-20.0-0.0","battery-v0.2","","""event"",""trial"",""time""
""fullscreenenter"",""1"",""2978""
","
","
","""event"",""trial"",""time""
""fullscreenenter"",""1"",""2978""
","
","","","5644.400000095367","[""SPACE""]","0","11","13511","5783","","","","","","","","","","","","","","","","","","",""
"pit-instructions","104","1336587","0.0-2.0-20.0-1.0","battery-v0.2","","""event"",""trial"",""time""
""fullscreenenter"",""1"",""2978""
","
","
","""event"",""trial"",""time""
""fullscreenenter"",""1"",""2978""
","
","","[{""page_index"":0,""viewing_time"":5953.900000095367}]","5954.700000047684","","","","","","","","","","","","","","","","","","","","","","","",""
"pit-comprehension","105","1344805","0.0-2.0-21.0-0.0","battery-v0.2","","""event"",""trial"",""time""
""fullscreenenter"",""1"",""2978""
","
","
","""event"",""trial"",""time""
""fullscreenenter"",""1"",""2978""
","
","","","8205.400000095367","[""10""]","0","11","13511","5783","","","","","","","","","","","","","","","","","","",""
"pit-instructions","106","1349734","0.0-2.0-21.0-1.0","battery-v0.2","","""event"",""trial"",""time""
""fullscreenenter"",""1"",""2978""
","
","
","""event"",""trial"",""time""
""fullscreenenter"",""1"",""2978""
","
","","[{""page_index"":0,""viewing_time"":4812.599999904633}]","4813.399999856949","","","","","","","","","","","","","","","","","","","","","","","",""
"pit-comprehension","107","1358797","0.0-2.0-22.0-0.0","battery-v0.2","","""event"",""trial"",""time""
""fullscreenenter"",""1"",""2978""
","
","
","""event"",""trial"",""time""
""fullscreenenter"",""1"",""2978""
","
","","","9052.299999952316","[""0""]","0","11","13511","5783","","","","","","","","","","","","","","","","","","",""
"pit-instructions","108","1362735","0.0-2.0-22.0-1.0","battery-v0.2","","""event"",""trial"",""time""
""fullscreenenter"",""1"",""2978""
","
","
","""event"",""trial"",""time""
""fullscreenenter"",""1"",""2978""
","
","","[{""page_index"":0,""viewing_time"":3764.2999999523163}]","3765.0999999046326","","","","","","","","","","","","","","","","","","","","","","","",""
"pit-comprehension","109","1373127","0.0-2.0-23.0-0.0","battery-v0.2","","""event"",""trial"",""time""
""fullscreenenter"",""1"",""2978""
","
","
","""event"",""trial"",""time""
""fullscreenenter"",""1"",""2978""
","
","","","10383.5","[""True""]","0","11","13511","5783","","","","","","","","","","","","","","","","","","",""
"pit-instructions","110","1376891","0.0-2.0-23.0-1.0","battery-v0.2","","""event"",""trial"",""time""
""fullscreenenter"",""1"",""2978""
","
","
","""event"",""trial"",""time""
""fullscreenenter"",""1"",""2978""
","
","","[{""page_index"":0,""viewing_time"":3694.7999999523163}]","3695.5999999046326","","","","","","","","","","","","","","","","","","","","","","","",""
"pit-comprehension","111","1386538","0.0-2.0-24.0-0.0","battery-v0.2","","""event"",""trial"",""time""
""fullscreenenter"",""1"",""2978""
","
","
","""event"",""trial"",""time""
""fullscreenenter"",""1"",""2978""
","
","","","9638.899999856949","[""True""]","0","11","13511","5783","","","","","","","","","","","","","","","","","","",""
"pit-instructions","112","1389827","0.0-2.0-24.0-1.0","battery-v0.2","","""event"",""trial"",""time""
""fullscreenenter"",""1"",""2978""
","
","
","""event"",""trial"",""time""
""fullscreenenter"",""1"",""2978""
","
","","[{""page_index"":0,""viewing_time"":3105.600000143051}]","3106.300000190735","","","","","","","","","","","","","","","","","","","","","","","",""
"pit-comprehension","113","1397888","0.0-2.0-25.0-0.0","battery-v0.2","","""event"",""trial"",""time""
""fullscreenenter"",""1"",""2978""
","
","
","""event"",""trial"",""time""
""fullscreenenter"",""1"",""2978""
","
","","","8051.799999952316","[""True""]","0","11","13511","5783","","","","","","","","","","","","","","","","","","",""
"pit-instructions","114","1400351","0.0-2.0-25.0-1.0","battery-v0.2","","""event"",""trial"",""time""
""fullscreenenter"",""1"",""2978""
","
","
","""event"",""trial"",""time""
""fullscreenenter"",""1"",""2978""
","
","","[{""page_index"":0,""viewing_time"":2317.5999999046326}]","2318.0999999046326","","","","","","","","","","","","","","","","","","","","","","","",""
"pit-comprehension","115","1409758","0.0-2.0-26.0-0.0","battery-v0.2","","""event"",""trial"",""time""
""fullscreenenter"",""1"",""2978""
","
","
","""event"",""trial"",""time""
""fullscreenenter"",""1"",""2978""
","
","","","9399.400000095367","[""True""]","1","11","13511","5783","","","","","","","","","","","","","","","","","","",""
"pit-instructions","116","1412767","0.0-2.0-26.0-1.0","battery-v0.2","","""event"",""trial"",""time""
""fullscreenenter"",""1"",""2978""
","
","
","""event"",""trial"",""time""
""fullscreenenter"",""1"",""2978""
","
","","[{""page_index"":0,""viewing_time"":2835.0999999046326}]","2835.7000000476837","","","","","","","","","","","","","","","","","","","","","","","",""
"pit-instructions","117","1413920","0.0-2.0-26.0-2.0-0.0","battery-v0.2","","""event"",""trial"",""time""
""fullscreenenter"",""1"",""2978""
","
","
","""event"",""trial"",""time""
""fullscreenenter"",""1"",""2978""
","
","","[{""page_index"":0,""viewing_time"":1145.2999999523163}]","1146.2000000476837","","","","","","","","","","","","","","","","","","","","","","","",""
"pit-comprehension","118","1418550","0.0-2.0-26.1-0.1","battery-v0.2","","""event"",""trial"",""time""
""fullscreenenter"",""1"",""2978""
","
","
","""event"",""trial"",""time""
""fullscreenenter"",""1"",""2978""
","
","","","4622.899999856949","[""False""]","0","11","13511","5783","","","","","","","","","","","","","","","","","","",""
"pit-instructions","119","1423565","0.0-2.0-26.1-1.1","battery-v0.2","","""event"",""trial"",""time""
""fullscreenenter"",""1"",""2978""
","
","
","""event"",""trial"",""time""
""fullscreenenter"",""1"",""2978""
","
","","[{""page_index"":0,""viewing_time"":4869.700000047684}]","4871","","","","","","","","","","","","","","","","","","","","","","","",""
"pit-instructions","120","1450256","0.0-3.0","battery-v0.2","","""event"",""trial"",""time""
""fullscreenenter"",""1"",""2978""
","
","
","""event"",""trial"",""time""
""fullscreenenter"",""1"",""2978""
","
","","[{""page_index"":0,""viewing_time"":9338.199999809265},{""page_index"":1,""viewing_time"":8026.400000095367},{""page_index"":2,""viewing_time"":9320.099999904633}]","26685.299999952316","","","","","","","","","","","","","","","","","","","","","","","",""
"pit-trial","121","1455139","0.0-4.0","battery-v0.2","","""event"",""trial"",""time""
""fullscreenenter"",""1"",""2978""
","
","
","""event"",""trial"",""time""
""fullscreenenter"",""1"",""2978""
","
","","","-1","","","11","13511","5783","&#9728;","elianto","#f73b6a7A","-1","-1","1","0","[]","0","1","","","13511","1","0","4","lose","no-go","0"
"pit-trial","122","1460015","0.0-5.0","battery-v0.2","","""event"",""trial"",""time""
""fullscreenenter"",""1"",""2978""
","
","
","""event"",""trial"",""time""
""fullscreenenter"",""1"",""2978""
","
","","","-1","","","11","13511","5783","&#9730;","elianto","#3366ff99"," ","-1","0","0","[]","0","1","","","13511","2","1","1","win","go","0"
"pit-trial","123","1464888","0.0-6.0","battery-v0.2","","""event"",""trial"",""time""
""fullscreenenter"",""1"",""2978""
","
","
","""event"",""trial"",""time""
""fullscreenenter"",""1"",""2978""
","
","","","-1","","","11","13511","5783","&#9733;","elianto","#3366ff99","-1","-1","1","+10","[]","0","1","","","13511","3","2","2","win","no-go","0"
"pit-trial","124","1469759","0.0-7.0","battery-v0.2","","""event"",""trial"",""time""
""fullscreenenter"",""1"",""2978""
","
","
","""event"",""trial"",""time""
""fullscreenenter"",""1"",""2978""
","
","","","-1","","","11","13511","5783","&#9752;","elianto","#f73b6a7A"," ","-1","0","-10","[]","0","1","","","13511","4","3","3","lose","go","0"
"pit-trial","125","1473439","0.0-8.0","battery-v0.2","","""event"",""trial"",""time""
""fullscreenenter"",""1"",""2978""
","
","
","""event"",""trial"",""time""
""fullscreenenter"",""1"",""2978""
","
","","","806.7999999523163","","","11","13511","5783","&#9730;","elianto","#3366ff99"," "," ","1","+10","[1658]","1","1","","","13511","5","1","1","win","go","0"
"pit-trial","126","1477069","0.0-9.0","battery-v0.2","","""event"",""trial"",""time""
""fullscreenenter"",""1"",""2978""
","
","
","""event"",""trial"",""time""
""fullscreenenter"",""1"",""2978""
","
","","","760.5999999046326","","","11","13511","5783","&#9733;","elianto","#3366ff99","-1"," ","0","0","[1613.7999999523163]","1","1","","","13511","6","2","2","win","no-go","0"
"pit-trial","127","1480740","0.0-10.0","battery-v0.2","","""event"",""trial"",""time""
""fullscreenenter"",""1"",""2978""
","
","
","""event"",""trial"",""time""
""fullscreenenter"",""1"",""2978""
","
","","","807.6000001430511","","","11","13511","5783","&#9728;","elianto","#f73b6a7A","-1"," ","0","-10","[1660.9000000953674]","1","1","","","13511","7","0","4","lose","no-go","0"
"pit-trial","128","1484320","0.0-11.0","battery-v0.2","","""event"",""trial"",""time""
""fullscreenenter"",""1"",""2978""
","
","
","""event"",""trial"",""time""
""fullscreenenter"",""1"",""2978""
","
","","","717.6000001430511","","","11","13511","5783","&#9752;","elianto","#f73b6a7A"," "," ","1","-10","[1568.2000000476837]","1","1","","","13511","8","3","3","lose","go","1"
"pit-trial","129","1487841","0.0-12.0","battery-v0.2","","""event"",""trial"",""time""
""fullscreenenter"",""1"",""2978""
","
","
","""event"",""trial"",""time""
""fullscreenenter"",""1"",""2978""
","
","","","659.5999999046326","","","11","13511","5783","&#9730;","elianto","#3366ff99"," "," ","1","+10","[1509.7999999523163]","1","1","","","13511","9","1","1","win","go","0"
"pit-trial","130","1492699","0.0-13.0","battery-v0.2","","""event"",""trial"",""time""
""fullscreenenter"",""1"",""2978""
","
","
","""event"",""trial"",""time""
""fullscreenenter"",""1"",""2978""
","
","","","-1","","","11","13511","5783","&#9752;","elianto","#f73b6a7A"," ","-1","0","0","[]","0","1","","","13511","10","3","3","lose","go","1"
"pit-trial","131","1496307","0.0-14.0","battery-v0.2","","""event"",""trial"",""time""
""fullscreenenter"",""1"",""2978""
","
","
","""event"",""trial"",""time""
""fullscreenenter"",""1"",""2978""
","
","","","748.5999999046326","","","11","13511","5783","&#9733;","elianto","#3366ff99","-1"," ","0","0","[1601.4000000953674]","1","1","","","13511","11","2","2","win","no-go","0"
"pit-trial","132","1501170","0.0-15.0","battery-v0.2","","""event"",""trial"",""time""
""fullscreenenter"",""1"",""2978""
","
","
","""event"",""trial"",""time""
""fullscreenenter"",""1"",""2978""
","
","","","-1","","","11","13511","5783","&#9728;","elianto","#f73b6a7A","-1","-1","1","0","[]","0","1","","","13511","12","0","4","lose","no-go","0"
"pit-trial","133","1506033","0.0-16.0","battery-v0.2","","""event"",""trial"",""time""
""fullscreenenter"",""1"",""2978""
","
","
","""event"",""trial"",""time""
""fullscreenenter"",""1"",""2978""
","
","","","-1","","","11","13511","5783","&#9752;","elianto","#f73b6a7A"," ","-1","0","-10","[]","0","1","","","13511","13","3","3","lose","go","0"
"pit-trial","134","1509431","0.0-17.0","battery-v0.2","","""event"",""trial"",""time""
""fullscreenenter"",""1"",""2978""
","
","
","""event"",""trial"",""time""
""fullscreenenter"",""1"",""2978""
","
","","","533.1000001430511","","","11","13511","5783","&#9733;","elianto","#3366ff99","-1"," ","0","+10","[1385.1000001430511]","1","1","","","13511","14","2","2","win","no-go","1"
"pit-trial","135","1514311","0.0-18.0","battery-v0.2","","""event"",""trial"",""time""
""fullscreenenter"",""1"",""2978""
","
","
","""event"",""trial"",""time""
""fullscreenenter"",""1"",""2978""
","
","","","-1","","","11","13511","5783","&#9728;","elianto","#f73b6a7A","-1","-1","1","0","[]","0","1","","","13511","15","0","4","lose","no-go","0"
"pit-trial","136","1517814","0.0-19.0","battery-v0.2","","""event"",""trial"",""time""
""fullscreenenter"",""1"",""2978""
","
","
","""event"",""trial"",""time""
""fullscreenenter"",""1"",""2978""
","
","","","632.0999999046326","","","11","13511","5783","&#9730;","elianto","#3366ff99"," "," ","1","+10","[1483.2000000476837]","1","1","","","13511","16","1","1","win","go","0"
"pit-trial","137","1521389","0.0-20.0","battery-v0.2","","""event"",""trial"",""time""
""fullscreenenter"",""1"",""2978""
","
","
","""event"",""trial"",""time""
""fullscreenenter"",""1"",""2978""
","
","","","705.7000000476837","","","11","13511","5783","&#9730;","elianto","#3366ff99"," "," ","1","+10","[1561.2000000476837]","1","1","","","13511","17","1","1","win","go","0"
"pit-trial","138","1526275","0.0-21.0","battery-v0.2","","""event"",""trial"",""time""
""fullscreenenter"",""1"",""2978""
","
","
","""event"",""trial"",""time""
""fullscreenenter"",""1"",""2978""
","
","","","-1","","","11","13511","5783","&#9752;","elianto","#f73b6a7A"," ","-1","0","-10","[]","0","1","","","13511","18","3","3","lose","go","0"
"pit-trial","139","1531137","0.0-22.0","battery-v0.2","","""event"",""trial"",""time""
""fullscreenenter"",""1"",""2978""
","
","
","""event"",""trial"",""time""
""fullscreenenter"",""1"",""2978""
","
","","","-1","","","11","13511","5783","&#9733;","elianto","#3366ff99","-1","-1","1","+10","[]","0","1","","","13511","19","2","2","win","no-go","0"
"pit-trial","140","1535998","0.0-23.0","battery-v0.2","","""event"",""trial"",""time""
""fullscreenenter"",""1"",""2978""
","
","
","""event"",""trial"",""time""
""fullscreenenter"",""1"",""2978""
","
","","","-1","","","11","13511","5783","&#9728;","elianto","#f73b6a7A","-1","-1","1","0","[]","0","1","","","13511","20","0","4","lose","no-go","0"
"pit-instructions","141","1561671","0.0-24.0","battery-v0.2","","""event"",""trial"",""time""
""fullscreenenter"",""1"",""2978""
","
","
","""event"",""trial"",""time""
""fullscreenenter"",""1"",""2978""
","
","","[{""page_index"":0,""viewing_time"":17793.5},{""page_index"":1,""viewing_time"":7876.5}]","25670.599999904633","","","","","","","","","","","","","","","","","","","","","","","",""
"pit-trial","142","1566546","0.0-25.0","battery-v0.2","","""event"",""trial"",""time""
""fullscreenenter"",""1"",""2978""
","
","
","""event"",""trial"",""time""
""fullscreenenter"",""1"",""2978""
","
","","","-1","","","11","13511","5783","f","elianto","#3366ff99"," ","-1","0","0","[]","0","2","","","13511","21","1","1","win","go","0"
"pit-trial","143","1571412","0.0-26.0","battery-v0.2","","""event"",""trial"",""time""
""fullscreenenter"",""1"",""2978""
","
","
","""event"",""trial"",""time""
""fullscreenenter"",""1"",""2978""
","
","","","-1","","","11","13511","5783","b","elianto","#f73b6a7A"," ","-1","0","-10","[]","0","2","","","13511","22","3","3","lose","go","0"
"pit-trial","144","1575430","0.0-27.0","battery-v0.2","","""event"",""trial"",""time""
""fullscreenenter"",""1"",""2978""
","
","
","""event"",""trial"",""time""
""fullscreenenter"",""1"",""2978""
","
","","","1153.6999998092651","","","11","13511","5783","t","elianto","#f73b6a7A","-1"," ","0","-10","[2007.9000000953674]","1","2","","","13511","23","2","4","lose","no-go","0"
"pit-trial","145","1580310","0.0-28.0","battery-v0.2","","""event"",""trial"",""time""
""fullscreenenter"",""1"",""2978""
","
","
","""event"",""trial"",""time""
""fullscreenenter"",""1"",""2978""
","
","","","-1","","","11","13511","5783","n","elianto","#f73b6a7A","-1","-1","1","0","[]","0","2","","","13511","24","0","4","lose","no-go","0"
"pit-trial","146","1584081","0.0-29.0","battery-v0.2","","""event"",""trial"",""time""
""fullscreenenter"",""1"",""2978""
","
","
","""event"",""trial"",""time""
""fullscreenenter"",""1"",""2978""
","
","","","908.3000001907349","","","11","13511","5783","b","elianto","#f73b6a7A"," "," ","1","0","[1760.3999998569489]","1","2","","","13511","25","3","3","lose","go","0"
"pit-trial","147","1587520","0.0-30.0","battery-v0.2","","""event"",""trial"",""time""
""fullscreenenter"",""1"",""2978""
","
","
","""event"",""trial"",""time""
""fullscreenenter"",""1"",""2978""
","
","","","559.2000000476837","","","11","13511","5783","f","elianto","#3366ff99"," "," ","1","+10","[1419.2000000476837]","1","2","","","13511","26","1","1","win","go","0"
"pit-trial","148","1592390","0.0-31.0","battery-v0.2","","""event"",""trial"",""time""
""fullscreenenter"",""1"",""2978""
","
","
","""event"",""trial"",""time""
""fullscreenenter"",""1"",""2978""
","
","","","-1","","","11","13511","5783","n","elianto","#f73b6a7A","-1","-1","1","0","[]","0","2","","","13511","27","0","4","lose","no-go","0"
"pit-trial","149","1596768","0.0-32.0","battery-v0.2","","""event"",""trial"",""time""
""fullscreenenter"",""1"",""2978""
","
","
","""event"",""trial"",""time""
""fullscreenenter"",""1"",""2978""
","
","","","1504.9000000953674","","","11","13511","5783","t","elianto","#f73b6a7A","-1"," ","0","-10","[2369.7000000476837]","1","2","","","13511","28","2","4","lose","no-go","0"
"pit-trial","150","1600531","0.0-33.0","battery-v0.2","","""event"",""trial"",""time""
""fullscreenenter"",""1"",""2978""
","
","
","""event"",""trial"",""time""
""fullscreenenter"",""1"",""2978""
","
","","","902.2999999523163","","","11","13511","5783","b","elianto","#f73b6a7A"," "," ","1","0","[1755.1000001430511]","1","2","","","13511","29","3","3","lose","go","0"
"pit-trial","151","1605075","0.0-34.0","battery-v0.2","","""event"",""trial"",""time""
""fullscreenenter"",""1"",""2978""
","
","
","""event"",""trial"",""time""
""fullscreenenter"",""1"",""2978""
","
","","","1685","","","11","13511","5783","n","elianto","#f73b6a7A","-1"," ","0","-10","[2535.7000000476837]","1","2","","","13511","30","0","4","lose","no-go","0"
"pit-trial","152","1609946","0.0-35.0","battery-v0.2","","""event"",""trial"",""time""
""fullscreenenter"",""1"",""2978""
","
","
","""event"",""trial"",""time""
""fullscreenenter"",""1"",""2978""
","
","","","-1","","","11","13511","5783","f","elianto","#3366ff99"," ","-1","0","0","[2878.9000000953674]","1","2","","","13511","31","1","1","win","go","0"
"pit-trial","153","1614817","0.0-36.0","battery-v0.2","","""event"",""trial"",""time""
""fullscreenenter"",""1"",""2978""
","
","
","""event"",""trial"",""time""
""fullscreenenter"",""1"",""2978""
","
","","","-1","","","11","13511","5783","t","elianto","#f73b6a7A","-1","-1","1","0","[3345]","1","2","","","13511","32","2","4","lose","no-go","0"
"pit-trial","154","1619122","0.0-37.0","battery-v0.2","","""event"",""trial"",""time""
""fullscreenenter"",""1"",""2978""
","
","
","""event"",""trial"",""time""
""fullscreenenter"",""1"",""2978""
","
","","","1449","","","11","13511","5783","f","elianto","#3366ff99"," "," ","1","+10","[2299.600000143051]","1","2","","","13511","33","1","1","win","go","0"
"pit-trial","155","1623223","0.0-38.0","battery-v0.2","","""event"",""trial"",""time""
""fullscreenenter"",""1"",""2978""
","
","
","""event"",""trial"",""time""
""fullscreenenter"",""1"",""2978""
","
","","","1236.4000000953674","","","11","13511","5783","t","elianto","#f73b6a7A","-1"," ","0","-10","[2089.5]","1","2","","","13511","34","2","4","lose","no-go","0"
"pit-trial","156","1627146","0.0-39.0","battery-v0.2","","""event"",""trial"",""time""
""fullscreenenter"",""1"",""2978""
","
","
","""event"",""trial"",""time""
""fullscreenenter"",""1"",""2978""
","
","","","1054.2999999523163","","","11","13511","5783","b","elianto","#f73b6a7A"," "," ","1","0","[1907]","1","2","","","13511","35","3","3","lose","go","0"
"pit-trial","157","1632009","0.0-40.0","battery-v0.2","","""event"",""trial"",""time""
""fullscreenenter"",""1"",""2978""
","
","
","""event"",""trial"",""time""
""fullscreenenter"",""1"",""2978""
","
","","","-1","","","11","13511","5783","n","elianto","#f73b6a7A","-1","-1","1","0","[]","0","2","","","13511","36","0","4","lose","no-go","0"
"pit-trial","158","1636872","0.0-41.0","battery-v0.2","","""event"",""trial"",""time""
""fullscreenenter"",""1"",""2978""
","
","
","""event"",""trial"",""time""
""fullscreenenter"",""1"",""2978""
","
","","","-1","","","11","13511","5783","n","elianto","#f73b6a7A","-1","-1","1","0","[]","0","2","","","13511","37","0","4","lose","no-go","0"
"pit-trial","159","1640609","0.0-42.0","battery-v0.2","","""event"",""trial"",""time""
""fullscreenenter"",""1"",""2978""
","
","
","""event"",""trial"",""time""
""fullscreenenter"",""1"",""2978""
","
","","","865.7000000476837","","","11","13511","5783","b","elianto","#f73b6a7A"," "," ","1","0","[1715.8999998569489]","1","2","","","13511","38","3","3","lose","go","0"
"pit-trial","160","1643986","0.0-43.0","battery-v0.2","","""event"",""trial"",""time""
""fullscreenenter"",""1"",""2978""
","
","
","""event"",""trial"",""time""
""fullscreenenter"",""1"",""2978""
","
","","","519.2999999523163","","","11","13511","5783","f","elianto","#3366ff99"," "," ","1","+10","[1370.2999999523163]","1","2","","","13511","39","1","1","win","go","0"
"pit-trial","161","1647678","0.0-44.0","battery-v0.2","","""event"",""trial"",""time""
""fullscreenenter"",""1"",""2978""
","
","
","""event"",""trial"",""time""
""fullscreenenter"",""1"",""2978""
","
","","","825.8999998569489","","","11","13511","5783","t","elianto","#f73b6a7A","-1"," ","0","-10","[1678.9000000953674]","1","2","","","13511","40","2","4","lose","no-go","0"
"pit-trial","162","1651108","0.0-45.0","battery-v0.2","","""event"",""trial"",""time""
""fullscreenenter"",""1"",""2978""
","
","
","""event"",""trial"",""time""
""fullscreenenter"",""1"",""2978""
","
","","","570.6000001430511","","","11","13511","5783","f","elianto","#3366ff99"," "," ","1","+10","[1424.7999999523163]","1","2","","","13511","41","1","1","win","go","0"
"pit-trial","163","1654664","0.0-46.0","battery-v0.2","","""event"",""trial"",""time""
""fullscreenenter"",""1"",""2978""
","
","
","""event"",""trial"",""time""
""fullscreenenter"",""1"",""2978""
","
","","","692.0999999046326","","","11","13511","5783","t","elianto","#f73b6a7A","-1"," ","0","-10","[1546.2000000476837]","1","2","","","13511","42","2","4","lose","no-go","0"
"pit-trial","164","1659530","0.0-47.0","battery-v0.2","","""event"",""trial"",""time""
""fullscreenenter"",""1"",""2978""
","
","
","""event"",""trial"",""time""
""fullscreenenter"",""1"",""2978""
","
","","","-1","","","11","13511","5783","n","elianto","#f73b6a7A","-1","-1","1","0","[]","0","2","","","13511","43","0","4","lose","no-go","0"
"pit-trial","165","1663141","0.0-48.0","battery-v0.2","","""event"",""trial"",""time""
""fullscreenenter"",""1"",""2978""
","
","
","""event"",""trial"",""time""
""fullscreenenter"",""1"",""2978""
","
","","","749.4000000953674","","","11","13511","5783","b","elianto","#f73b6a7A"," "," ","1","0","[1603.3999998569489]","1","2","","","13511","44","3","3","lose","go","0"
"pit-trial","166","1668001","0.0-49.0","battery-v0.2","","""event"",""trial"",""time""
""fullscreenenter"",""1"",""2978""
","
","
","""event"",""trial"",""time""
""fullscreenenter"",""1"",""2978""
","
","","","-1","","","11","13511","5783","n","elianto","#f73b6a7A","-1","-1","1","0","[]","0","2","","","13511","45","0","4","lose","no-go","0"
"pit-trial","167","1672870","0.0-50.0","battery-v0.2","","""event"",""trial"",""time""
""fullscreenenter"",""1"",""2978""
","
","
","""event"",""trial"",""time""
""fullscreenenter"",""1"",""2978""
","
","","","-1","","","11","13511","5783","b","elianto","#f73b6a7A"," ","-1","0","-10","[]","0","2","","","13511","46","3","3","lose","go","0"
"pit-trial","168","1676660","0.0-51.0","battery-v0.2","","""event"",""trial"",""time""
""fullscreenenter"",""1"",""2978""
","
","
","""event"",""trial"",""time""
""fullscreenenter"",""1"",""2978""
","
","","","924.4000000953674","","","11","13511","5783","t","elianto","#f73b6a7A","-1"," ","0","-10","[1778.8999998569489]","1","2","","","13511","47","2","4","lose","no-go","0"
"pit-trial","169","1680781","0.0-52.0","battery-v0.2","","""event"",""trial"",""time""
""fullscreenenter"",""1"",""2978""
","
","
","""event"",""trial"",""time""
""fullscreenenter"",""1"",""2978""
","
","","","1260","","","11","13511","5783","c","elianto","#3366ff99","-1"," ","0","0","[2110.2999999523163]","1","2","","","13511","48","4","2","win","no-go","0"
"pit-trial","170","1684261","0.0-53.0","battery-v0.2","","""event"",""trial"",""time""
""fullscreenenter"",""1"",""2978""
","
","
","""event"",""trial"",""time""
""fullscreenenter"",""1"",""2978""
","
","","","616.3000001907349","","","11","13511","5783","f","elianto","#3366ff99"," "," ","1","+10","[1469.8000001907349]","1","2","","","13511","49","1","1","win","go","0"
"pit-trial","171","1687857","0.0-54.0","battery-v0.2","","""event"",""trial"",""time""
""fullscreenenter"",""1"",""2978""
","
","
","""event"",""trial"",""time""
""fullscreenenter"",""1"",""2978""
","
","","","736.2999999523163","","","11","13511","5783","c","elianto","#3366ff99","-1"," ","0","+10","[1586.7000000476837]","1","2","","","13511","50","4","2","win","no-go","1"
"pit-trial","172","1692719","0.0-55.0","battery-v0.2","","""event"",""trial"",""time""
""fullscreenenter"",""1"",""2978""
","
","
","""event"",""trial"",""time""
""fullscreenenter"",""1"",""2978""
","
","","","-1","","","11","13511","5783","b","elianto","#f73b6a7A"," ","-1","0","0","[]","0","2","","","13511","51","3","3","lose","go","1"
"pit-trial","173","1697591","0.0-56.0","battery-v0.2","","""event"",""trial"",""time""
""fullscreenenter"",""1"",""2978""
","
","
","""event"",""trial"",""time""
""fullscreenenter"",""1"",""2978""
","
","","","-1","","","11","13511","5783","n","elianto","#f73b6a7A","-1","-1","1","0","[]","0","2","","","13511","52","0","4","lose","no-go","0"
"pit-trial","174","1701096","0.0-57.0","battery-v0.2","","""event"",""trial"",""time""
""fullscreenenter"",""1"",""2978""
","
","
","""event"",""trial"",""time""
""fullscreenenter"",""1"",""2978""
","
","","","636.9000000953674","","","11","13511","5783","f","elianto","#3366ff99"," "," ","1","+10","[1487.2000000476837]","1","2","","","13511","53","1","1","win","go","0"
"pit-trial","175","1704642","0.0-58.0","battery-v0.2","","""event"",""trial"",""time""
""fullscreenenter"",""1"",""2978""
","
","
","""event"",""trial"",""time""
""fullscreenenter"",""1"",""2978""
","
","","","685.4000000953674","","","11","13511","5783","c","elianto","#3366ff99","-1"," ","0","0","[1539]","1","2","","","13511","54","4","2","win","no-go","0"
"pit-trial","176","1708636","0.0-59.0","battery-v0.2","","""event"",""trial"",""time""
""fullscreenenter"",""1"",""2978""
","
","
","""event"",""trial"",""time""
""fullscreenenter"",""1"",""2978""
","
","","","1129.5","","","11","13511","5783","n","elianto","#f73b6a7A","-1"," ","0","-10","[1983.2000000476837]","1","2","","","13511","55","0","4","lose","no-go","0"
"pit-trial","177","1712210","0.0-60.0","battery-v0.2","","""event"",""trial"",""time""
""fullscreenenter"",""1"",""2978""
","
","
","""event"",""trial"",""time""
""fullscreenenter"",""1"",""2978""
","
","","","714","","","11","13511","5783","t","elianto","#f73b6a7A","-1"," ","0","-10","[1568.1000001430511]","1","2","","","13511","56","2","4","lose","no-go","0"
"pit-trial","178","1717079","0.0-61.0","battery-v0.2","","""event"",""trial"",""time""
""fullscreenenter"",""1"",""2978""
","
","
","""event"",""trial"",""time""
""fullscreenenter"",""1"",""2978""
","
","","","-1","","","11","13511","5783","n","elianto","#f73b6a7A","-1","-1","1","0","[]","0","2","","","13511","57","0","4","lose","no-go","0"
"pit-trial","179","1720862","0.0-62.0","battery-v0.2","","""event"",""trial"",""time""
""fullscreenenter"",""1"",""2978""
","
","
","""event"",""trial"",""time""
""fullscreenenter"",""1"",""2978""
","
","","","910.5","","","11","13511","5783","f","elianto","#3366ff99"," "," ","1","+10","[1763.2000000476837]","1","2","","","13511","58","1","1","win","go","0"
"pit-trial","180","1724356","0.0-63.0","battery-v0.2","","""event"",""trial"",""time""
""fullscreenenter"",""1"",""2978""
","
","
","""event"",""trial"",""time""
""fullscreenenter"",""1"",""2978""
","
","","","636.8999998569489","","","11","13511","5783","c","elianto","#3366ff99","-1"," ","0","0","[1489.5]","1","2","","","13511","59","4","2","win","no-go","0"
"pit-trial","181","1727865","0.0-64.0","battery-v0.2","","""event"",""trial"",""time""
""fullscreenenter"",""1"",""2978""
","
","
","""event"",""trial"",""time""
""fullscreenenter"",""1"",""2978""
","
","","","635.5999999046326","","","11","13511","5783","b","elianto","#f73b6a7A"," "," ","1","0","[1490.7000000476837]","1","2","","","13511","60","3","3","lose","go","0"
"pit-trial","182","1731458","0.0-65.0","battery-v0.2","","""event"",""trial"",""time""
""fullscreenenter"",""1"",""2978""
","
","
","""event"",""trial"",""time""
""fullscreenenter"",""1"",""2978""
","
","","","727.7000000476837","","","11","13511","5783","t","elianto","#f73b6a7A","-1"," ","0","-10","[1587.3999998569489]","1","2","","","13511","61","2","4","lose","no-go","0"
"pit-trial","183","1736338","0.0-66.0","battery-v0.2","","""event"",""trial"",""time""
""fullscreenenter"",""1"",""2978""
","
","
","""event"",""trial"",""time""
""fullscreenenter"",""1"",""2978""
","
","","","-1","","","11","13511","5783","b","elianto","#f73b6a7A"," ","-1","0","-10","[]","0","2","","","13511","62","3","3","lose","go","0"
"pit-trial","184","1739809","0.0-67.0","battery-v0.2","","""event"",""trial"",""time""
""fullscreenenter"",""1"",""2978""
","
","
","""event"",""trial"",""time""
""fullscreenenter"",""1"",""2978""
","
","","","613.2000000476837","","","11","13511","5783","f","elianto","#3366ff99"," "," ","1","+10","[1465.2999999523163]","1","2","","","13511","63","1","1","win","go","0"
"pit-trial","185","1743631","0.0-68.0","battery-v0.2","","""event"",""trial"",""time""
""fullscreenenter"",""1"",""2978""
","
","
","""event"",""trial"",""time""
""fullscreenenter"",""1"",""2978""
","
","","","956.1000001430511","","","11","13511","5783","c","elianto","#3366ff99","-1"," ","0","0","[1810.1999998092651]","1","2","","","13511","64","4","2","win","no-go","0"
"pit-trial","186","1747194","0.0-69.0","battery-v0.2","","""event"",""trial"",""time""
""fullscreenenter"",""1"",""2978""
","
","
","""event"",""trial"",""time""
""fullscreenenter"",""1"",""2978""
","
","","","708","","","11","13511","5783","t","elianto","#f73b6a7A","-1"," ","0","-10","[1557.9000000953674]","1","2","","","13511","65","2","4","lose","no-go","0"
"pit-trial","187","1750781","0.0-70.0","battery-v0.2","","""event"",""trial"",""time""
""fullscreenenter"",""1"",""2978""
","
","
","""event"",""trial"",""time""
""fullscreenenter"",""1"",""2978""
","
","","","724.8999998569489","","","11","13511","5783","f","elianto","#3366ff99"," "," ","1","+10","[1578.4000000953674]","1","2","","","13511","66","1","1","win","go","0"
"pit-trial","188","1755644","0.0-71.0","battery-v0.2","","""event"",""trial"",""time""
""fullscreenenter"",""1"",""2978""
","
","
","""event"",""trial"",""time""
""fullscreenenter"",""1"",""2978""
","
","","","-1","","","11","13511","5783","b","elianto","#f73b6a7A"," ","-1","0","-10","[]","0","2","","","13511","67","3","3","lose","go","0"
"pit-trial","189","1759091","0.0-72.0","battery-v0.2","","""event"",""trial"",""time""
""fullscreenenter"",""1"",""2978""
","
","
","""event"",""trial"",""time""
""fullscreenenter"",""1"",""2978""
","
","","","578.7999999523163","","","11","13511","5783","c","elianto","#3366ff99","-1"," ","0","+10","[1429]","1","2","","","13511","68","4","2","win","no-go","1"
"pit-trial","190","1762555","0.0-73.0","battery-v0.2","","""event"",""trial"",""time""
""fullscreenenter"",""1"",""2978""
","
","
","""event"",""trial"",""time""
""fullscreenenter"",""1"",""2978""
","
","","","599.9000000953674","","","11","13511","5783","c","elianto","#3366ff99","-1"," ","0","0","[1451.9000000953674]","1","2","","","13511","69","4","2","win","no-go","0"
"pit-trial","191","1766060","0.0-74.0","battery-v0.2","","""event"",""trial"",""time""
""fullscreenenter"",""1"",""2978""
","
","
","""event"",""trial"",""time""
""fullscreenenter"",""1"",""2978""
","
","","","643.2000000476837","","","11","13511","5783","z","elianto","#3366ff99"," "," ","1","0","[1496.4000000953674]","1","2","","","13511","70","5","1","win","go","1"
"pit-trial","192","1769607","0.0-75.0","battery-v0.2","","""event"",""trial"",""time""
""fullscreenenter"",""1"",""2978""
","
","
","""event"",""trial"",""time""
""fullscreenenter"",""1"",""2978""
","
","","","683.0999999046326","","","11","13511","5783","f","elianto","#3366ff99"," "," ","1","+10","[1534.7999999523163]","1","2","","","13511","71","1","1","win","go","0"
"pit-trial","193","1774471","0.0-76.0","battery-v0.2","","""event"",""trial"",""time""
""fullscreenenter"",""1"",""2978""
","
","
","""event"",""trial"",""time""
""fullscreenenter"",""1"",""2978""
","
","","","-1","","","11","13511","5783","b","elianto","#f73b6a7A"," ","-1","0","-10","[]","0","2","","","13511","72","3","3","lose","go","0"
"pit-trial","194","1779334","0.0-77.0","battery-v0.2","","""event"",""trial"",""time""
""fullscreenenter"",""1"",""2978""
","
","
","""event"",""trial"",""time""
""fullscreenenter"",""1"",""2978""
","
","","","-1","","","11","13511","5783","b","elianto","#f73b6a7A"," ","-1","0","-10","[]","0","2","","","13511","73","3","3","lose","go","0"
"pit-trial","195","1782711","0.0-78.0","battery-v0.2","","""event"",""trial"",""time""
""fullscreenenter"",""1"",""2978""
","
","
","""event"",""trial"",""time""
""fullscreenenter"",""1"",""2978""
","
","","","512.7999999523163","","","11","13511","5783","f","elianto","#3366ff99"," "," ","1","0","[1370.7999999523163]","1","2","","","13511","74","1","1","win","go","1"
"pit-trial","196","1786166","0.0-79.0","battery-v0.2","","""event"",""trial"",""time""
""fullscreenenter"",""1"",""2978""
","
","
","""event"",""trial"",""time""
""fullscreenenter"",""1"",""2978""
","
","","","597.4000000953674","","","11","13511","5783","c","elianto","#3366ff99","-1"," ","0","0","[1447.9000000953674]","1","2","","","13511","75","4","2","win","no-go","0"
"pit-trial","197","1789604","0.0-80.0","battery-v0.2","","""event"",""trial"",""time""
""fullscreenenter"",""1"",""2978""
","
","
","""event"",""trial"",""time""
""fullscreenenter"",""1"",""2978""
","
","","","578.4000000953674","","","11","13511","5783","z","elianto","#3366ff99"," "," ","1","+10","[1430.2999999523163]","1","2","","","13511","76","5","1","win","go","0"
"pit-trial","198","1794466","0.0-81.0","battery-v0.2","","""event"",""trial"",""time""
""fullscreenenter"",""1"",""2978""
","
","
","""event"",""trial"",""time""
""fullscreenenter"",""1"",""2978""
","
","","","-1","","","11","13511","5783","b","elianto","#f73b6a7A"," ","-1","0","-10","[]","0","2","","","13511","77","3","3","lose","go","0"
"pit-trial","199","1797980","0.0-82.0","battery-v0.2","","""event"",""trial"",""time""
""fullscreenenter"",""1"",""2978""
","
","
","""event"",""trial"",""time""
""fullscreenenter"",""1"",""2978""
","
","","","652.7999999523163","","","11","13511","5783","c","elianto","#3366ff99","-1"," ","0","+10","[1502.6999998092651]","1","2","","","13511","78","4","2","win","no-go","1"
"pit-trial","200","1801275","0.0-83.0","battery-v0.2","","""event"",""trial"",""time""
""fullscreenenter"",""1"",""2978""
","
","
","""event"",""trial"",""time""
""fullscreenenter"",""1"",""2978""
","
","","","428.90000009536743","","","11","13511","5783","z","elianto","#3366ff99"," "," ","1","0","[1283.7000000476837]","1","2","","","13511","79","5","1","win","go","1"
"pit-trial","201","1806138","0.0-84.0","battery-v0.2","","""event"",""trial"",""time""
""fullscreenenter"",""1"",""2978""
","
","
","""event"",""trial"",""time""
""fullscreenenter"",""1"",""2978""
","
","","","-1","","","11","13511","5783","h","elianto","#f73b6a7A","-1","-1","1","0","[]","0","2","","","13511","80","6","4","lose","no-go","0"
"pit-trial","202","1809303","0.0-85.0","battery-v0.2","","""event"",""trial"",""time""
""fullscreenenter"",""1"",""2978""
","
","
","""event"",""trial"",""time""
""fullscreenenter"",""1"",""2978""
","
","","","302.60000014305115","","","11","13511","5783","z","elianto","#3366ff99"," "," ","1","0","[1154.4000000953674]","1","2","","","13511","81","5","1","win","go","1"
"pit-trial","203","1814173","0.0-86.0","battery-v0.2","","""event"",""trial"",""time""
""fullscreenenter"",""1"",""2978""
","
","
","""event"",""trial"",""time""
""fullscreenenter"",""1"",""2978""
","
","","","-1","","","11","13511","5783","h","elianto","#f73b6a7A","-1","-1","1","0","[]","0","2","","","13511","82","6","4","lose","no-go","0"
"pit-trial","204","1819036","0.0-87.0","battery-v0.2","","""event"",""trial"",""time""
""fullscreenenter"",""1"",""2978""
","
","
","""event"",""trial"",""time""
""fullscreenenter"",""1"",""2978""
","
","","","-1","","","11","13511","5783","y","elianto","#f73b6a7A"," ","-1","0","-10","[]","0","2","","","13511","83","7","3","lose","go","0"
"pit-trial","205","1822451","0.0-88.0","battery-v0.2","","""event"",""trial"",""time""
""fullscreenenter"",""1"",""2978""
","
","
","""event"",""trial"",""time""
""fullscreenenter"",""1"",""2978""
","
","","","555","","","11","13511","5783","c","elianto","#3366ff99","-1"," ","0","0","[1408.3999998569489]","1","2","","","13511","84","4","2","win","no-go","0"
"pit-trial","206","1827318","0.0-89.0","battery-v0.2","","""event"",""trial"",""time""
""fullscreenenter"",""1"",""2978""
","
","
","""event"",""trial"",""time""
""fullscreenenter"",""1"",""2978""
","
","","","-1","","","11","13511","5783","h","elianto","#f73b6a7A","-1","-1","1","0","[]","0","2","","","13511","85","6","4","lose","no-go","0"
"pit-trial","207","1830760","0.0-90.0","battery-v0.2","","""event"",""trial"",""time""
""fullscreenenter"",""1"",""2978""
","
","
","""event"",""trial"",""time""
""fullscreenenter"",""1"",""2978""
","
","","","578.1999998092651","","","11","13511","5783","c","elianto","#3366ff99","-1"," ","0","0","[1433.8999998569489]","1","2","","","13511","86","4","2","win","no-go","0"
"pit-trial","208","1835617","0.0-91.0","battery-v0.2","","""event"",""trial"",""time""
""fullscreenenter"",""1"",""2978""
","
","
","""event"",""trial"",""time""
""fullscreenenter"",""1"",""2978""
","
","","","-1","","","11","13511","5783","y","elianto","#f73b6a7A"," ","-1","0","-10","[]","0","2","","","13511","87","7","3","lose","go","0"
"pit-trial","209","1839124","0.0-92.0","battery-v0.2","","""event"",""trial"",""time""
""fullscreenenter"",""1"",""2978""
","
","
","""event"",""trial"",""time""
""fullscreenenter"",""1"",""2978""
","
","","","641.7000000476837","","","11","13511","5783","z","elianto","#3366ff99"," "," ","1","+10","[1493]","1","2","","","13511","88","5","1","win","go","0"
"pit-trial","210","1843990","0.0-93.0","battery-v0.2","","""event"",""trial"",""time""
""fullscreenenter"",""1"",""2978""
","
","
","""event"",""trial"",""time""
""fullscreenenter"",""1"",""2978""
","
","","","-1","","","11","13511","5783","y","elianto","#f73b6a7A"," ","-1","0","-10","[]","0","2","","","13511","89","7","3","lose","go","0"
"pit-trial","211","1848865","0.0-94.0","battery-v0.2","","""event"",""trial"",""time""
""fullscreenenter"",""1"",""2978""
","
","
","""event"",""trial"",""time""
""fullscreenenter"",""1"",""2978""
","
","","","-1","","","11","13511","5783","c","elianto","#3366ff99","-1","-1","1","+10","[]","0","2","","","13511","90","4","2","win","no-go","0"
"pit-trial","212","1852440","0.0-95.0","battery-v0.2","","""event"",""trial"",""time""
""fullscreenenter"",""1"",""2978""
","
","
","""event"",""trial"",""time""
""fullscreenenter"",""1"",""2978""
","
","","","708.0999999046326","","","11","13511","5783","z","elianto","#3366ff99"," "," ","1","+10","[1562.5999999046326]","1","2","","","13511","91","5","1","win","go","0"
"pit-trial","213","1857309","0.0-96.0","battery-v0.2","","""event"",""trial"",""time""
""fullscreenenter"",""1"",""2978""
","
","
","""event"",""trial"",""time""
""fullscreenenter"",""1"",""2978""
","
","","","-1","","","11","13511","5783","h","elianto","#f73b6a7A","-1","-1","1","0","[3837.7999999523163]","1","2","","","13511","92","6","4","lose","no-go","0"
"pit-trial","214","1862095","0.0-97.0","battery-v0.2","","""event"",""trial"",""time""
""fullscreenenter"",""1"",""2978""
","
","
","""event"",""trial"",""time""
""fullscreenenter"",""1"",""2978""
","
","","","1923.8999998569489","","","11","13511","5783","r","elianto","#3366ff99","-1"," ","0","0","[2778.100000143051]","1","2","","","13511","93","8","2","win","no-go","0"
"pit-trial","215","1866968","0.0-98.0","battery-v0.2","","""event"",""trial"",""time""
""fullscreenenter"",""1"",""2978""
","
","
","""event"",""trial"",""time""
""fullscreenenter"",""1"",""2978""
","
","","","-1","","","11","13511","5783","y","elianto","#f73b6a7A"," ","-1","0","-10","[]","0","2","","","13511","94","7","3","lose","go","0"
"pit-trial","216","1871831","0.0-99.0","battery-v0.2","","""event"",""trial"",""time""
""fullscreenenter"",""1"",""2978""
","
","
","""event"",""trial"",""time""
""fullscreenenter"",""1"",""2978""
","
","","","-1","","","11","13511","5783","h","elianto","#f73b6a7A","-1","-1","1","0","[]","0","2","","","13511","95","6","4","lose","no-go","0"
"pit-trial","217","1875868","0.0-100.0","battery-v0.2","","""event"",""trial"",""time""
""fullscreenenter"",""1"",""2978""
","
","
","""event"",""trial"",""time""
""fullscreenenter"",""1"",""2978""
","
","","","1178.5","","","11","13511","5783","z","elianto","#3366ff99"," "," ","1","+10","[2032.4000000953674]","1","2","","","13511","96","5","1","win","go","0"
"pit-trial","218","1879865","0.0-101.0","battery-v0.2","","""event"",""trial"",""time""
""fullscreenenter"",""1"",""2978""
","
","
","""event"",""trial"",""time""
""fullscreenenter"",""1"",""2978""
","
","","","1122.2999999523163","","","11","13511","5783","r","elianto","#3366ff99","-1"," ","0","0","[1978.9000000953674]","1","2","","","13511","97","8","2","win","no-go","0"
"pit-trial","219","1884729","0.0-102.0","battery-v0.2","","""event"",""trial"",""time""
""fullscreenenter"",""1"",""2978""
","
","
","""event"",""trial"",""time""
""fullscreenenter"",""1"",""2978""
","
","","","-1","","","11","13511","5783","h","elianto","#f73b6a7A","-1","-1","1","0","[4267.899999856949]","1","2","","","13511","98","6","4","lose","no-go","0"
"pit-trial","220","1888079","0.0-103.0","battery-v0.2","","""event"",""trial"",""time""
""fullscreenenter"",""1"",""2978""
","
","
","""event"",""trial"",""time""
""fullscreenenter"",""1"",""2978""
","
","","","489.10000014305115","","","11","13511","5783","z","elianto","#3366ff99"," "," ","1","0","[1343.5]","1","2","","","13511","99","5","1","win","go","1"
"pit-trial","221","1892958","0.0-104.0","battery-v0.2","","""event"",""trial"",""time""
""fullscreenenter"",""1"",""2978""
","
","
","""event"",""trial"",""time""
""fullscreenenter"",""1"",""2978""
","
","","","-1","","","11","13511","5783","y","elianto","#f73b6a7A"," ","-1","0","0","[]","0","2","","","13511","100","7","3","lose","go","1"
"pit-trial","222","1896470","0.0-105.0","battery-v0.2","","""event"",""trial"",""time""
""fullscreenenter"",""1"",""2978""
","
","
","""event"",""trial"",""time""
""fullscreenenter"",""1"",""2978""
","
","","","655.7999999523163","","","11","13511","5783","r","elianto","#3366ff99","-1"," ","0","0","[1506.7000000476837]","1","2","","","13511","101","8","2","win","no-go","0"
"pit-trial","223","1900226","0.0-106.0","battery-v0.2","","""event"",""trial"",""time""
""fullscreenenter"",""1"",""2978""
","
","
","""event"",""trial"",""time""
""fullscreenenter"",""1"",""2978""
","
","","","882.4000000953674","","","11","13511","5783","z","elianto","#3366ff99"," "," ","1","+10","[1734.8000001907349]","1","2","","","13511","102","5","1","win","go","0"
"pit-trial","224","1905097","0.0-107.0","battery-v0.2","","""event"",""trial"",""time""
""fullscreenenter"",""1"",""2978""
","
","
","""event"",""trial"",""time""
""fullscreenenter"",""1"",""2978""
","
","","","-1","","","11","13511","5783","h","elianto","#f73b6a7A","-1","-1","1","0","[]","0","2","","","13511","103","6","4","lose","no-go","0"
"pit-trial","225","1908494","0.0-108.0","battery-v0.2","","""event"",""trial"",""time""
""fullscreenenter"",""1"",""2978""
","
","
","""event"",""trial"",""time""
""fullscreenenter"",""1"",""2978""
","
","","","534.7000000476837","","","11","13511","5783","m","elianto","#3366ff99","-1"," ","0","0","[1385.4000000953674]","1","2","","","13511","104","9","2","win","no-go","0"
"pit-trial","226","1913362","0.0-109.0","battery-v0.2","","""event"",""trial"",""time""
""fullscreenenter"",""1"",""2978""
","
","
","""event"",""trial"",""time""
""fullscreenenter"",""1"",""2978""
","
","","","-1","","","11","13511","5783","h","elianto","#f73b6a7A","-1","-1","1","0","[]","0","2","","","13511","105","6","4","lose","no-go","0"
"pit-trial","227","1916688","0.0-110.0","battery-v0.2","","""event"",""trial"",""time""
""fullscreenenter"",""1"",""2978""
","
","
","""event"",""trial"",""time""
""fullscreenenter"",""1"",""2978""
","
","","","460.5","","","11","13511","5783","m","elianto","#3366ff99","-1"," ","0","+10","[1316.2000000476837]","1","2","","","13511","106","9","2","win","no-go","1"
"pit-trial","228","1920130","0.0-111.0","battery-v0.2","","""event"",""trial"",""time""
""fullscreenenter"",""1"",""2978""
","
","
","""event"",""trial"",""time""
""fullscreenenter"",""1"",""2978""
","
","","","581.7999999523163","","","11","13511","5783","r","elianto","#3366ff99","-1"," ","0","+10","[1437.1000001430511]","1","2","","","13511","107","8","2","win","no-go","1"
"pit-trial","229","1923546","0.0-112.0","battery-v0.2","","""event"",""trial"",""time""
""fullscreenenter"",""1"",""2978""
","
","
","""event"",""trial"",""time""
""fullscreenenter"",""1"",""2978""
","
","","","556.2999999523163","","","11","13511","5783","z","elianto","#3366ff99"," "," ","1","+10","[1408.9000000953674]","1","2","","","13511","108","5","1","win","go","0"
"pit-trial","230","1927060","0.0-113.0","battery-v0.2","","""event"",""trial"",""time""
""fullscreenenter"",""1"",""2978""
","
","
","""event"",""trial"",""time""
""fullscreenenter"",""1"",""2978""
","
","","","645.3999998569489","","","11","13511","5783","z","elianto","#3366ff99"," "," ","1","0","[1501.7000000476837]","1","2","","","13511","109","5","1","win","go","1"
"pit-trial","231","1930649","0.0-114.0","battery-v0.2","","""event"",""trial"",""time""
""fullscreenenter"",""1"",""2978""
","
","
","""event"",""trial"",""time""
""fullscreenenter"",""1"",""2978""
","
","","","731.6000001430511","","","11","13511","5783","r","elianto","#3366ff99","-1"," ","0","0","[1581.7999999523163]","1","2","","","13511","110","8","2","win","no-go","0"
"pit-trial","232","1935522","0.0-115.0","battery-v0.2","","""event"",""trial"",""time""
""fullscreenenter"",""1"",""2978""
","
","
","""event"",""trial"",""time""
""fullscreenenter"",""1"",""2978""
","
","","","-1","","","11","13511","5783","h","elianto","#f73b6a7A","-1","-1","1","0","[]","0","2","","","13511","111","6","4","lose","no-go","0"
"pit-trial","233","1938935","0.0-116.0","battery-v0.2","","""event"",""trial"",""time""
""fullscreenenter"",""1"",""2978""
","
","
","""event"",""trial"",""time""
""fullscreenenter"",""1"",""2978""
","
","","","542.7000000476837","","","11","13511","5783","m","elianto","#3366ff99","-1"," ","0","+10","[1401.6000001430511]","1","2","","","13511","112","9","2","win","no-go","1"
"pit-trial","234","1943797","0.0-117.0","battery-v0.2","","""event"",""trial"",""time""
""fullscreenenter"",""1"",""2978""
","
","
","""event"",""trial"",""time""
""fullscreenenter"",""1"",""2978""
","
","","","-1","","","11","13511","5783","y","elianto","#f73b6a7A"," ","-1","0","-10","[]","0","2","","","13511","113","7","3","lose","go","0"
"pit-trial","235","1947260","0.0-118.0","battery-v0.2","","""event"",""trial"",""time""
""fullscreenenter"",""1"",""2978""
","
","
","""event"",""trial"",""time""
""fullscreenenter"",""1"",""2978""
","
","","","601.3999998569489","","","11","13511","5783","z","elianto","#3366ff99"," "," ","1","+10","[1451.4000000953674]","1","2","","","13511","114","5","1","win","go","0"
"pit-trial","236","1950590","0.0-119.0","battery-v0.2","","""event"",""trial"",""time""
""fullscreenenter"",""1"",""2978""
","
","
","""event"",""trial"",""time""
""fullscreenenter"",""1"",""2978""
","
","","","463.2999999523163","","","11","13511","5783","m","elianto","#3366ff99","-1"," ","0","0","[1317.7000000476837]","1","2","","","13511","115","9","2","win","no-go","0"
"pit-trial","237","1954017","0.0-120.0","battery-v0.2","","""event"",""trial"",""time""
""fullscreenenter"",""1"",""2978""
","
","
","""event"",""trial"",""time""
""fullscreenenter"",""1"",""2978""
","
","","","553.7000000476837","","","11","13511","5783","r","elianto","#3366ff99","-1"," ","0","0","[1406.2999999523163]","1","2","","","13511","116","8","2","win","no-go","0"
"pit-trial","238","1957337","0.0-121.0","battery-v0.2","","""event"",""trial"",""time""
""fullscreenenter"",""1"",""2978""
","
","
","""event"",""trial"",""time""
""fullscreenenter"",""1"",""2978""
","
","","","452.39999985694885","","","11","13511","5783","m","elianto","#3366ff99","-1"," ","0","0","[1303.7999999523163]","1","2","","","13511","117","9","2","win","no-go","0"
"pit-trial","239","1961000","0.0-122.0","battery-v0.2","","""event"",""trial"",""time""
""fullscreenenter"",""1"",""2978""
","
","
","""event"",""trial"",""time""
""fullscreenenter"",""1"",""2978""
","
","","","804.2999999523163","","","11","13511","5783","h","elianto","#f73b6a7A","-1"," ","0","-10","[1655.7999999523163]","1","2","","","13511","118","6","4","lose","no-go","0"
"pit-trial","240","1964593","0.0-123.0","battery-v0.2","","""event"",""trial"",""time""
""fullscreenenter"",""1"",""2978""
","
","
","""event"",""trial"",""time""
""fullscreenenter"",""1"",""2978""
","
","","","722.5999999046326","","","11","13511","5783","z","elianto","#3366ff99"," "," ","1","+10","[1573.5999999046326]","1","2","","","13511","119","5","1","win","go","0"
"pit-trial","241","1968006","0.0-124.0","battery-v0.2","","""event"",""trial"",""time""
""fullscreenenter"",""1"",""2978""
","
","
","""event"",""trial"",""time""
""fullscreenenter"",""1"",""2978""
","
","","","544.5","","","11","13511","5783","r","elianto","#3366ff99","-1"," ","0","0","[1400.2000000476837]","1","2","","","13511","120","8","2","win","no-go","0"
"pit-trial","242","1971703","0.0-125.0","battery-v0.2","","""event"",""trial"",""time""
""fullscreenenter"",""1"",""2978""
","
","
","""event"",""trial"",""time""
""fullscreenenter"",""1"",""2978""
","
","","","836.5999999046326","","","11","13511","5783","m","elianto","#3366ff99","-1"," ","0","0","[1687.6000001430511]","1","2","","","13511","121","9","2","win","no-go","0"
"pit-trial","243","1975243","0.0-126.0","battery-v0.2","","""event"",""trial"",""time""
""fullscreenenter"",""1"",""2978""
","
","
","""event"",""trial"",""time""
""fullscreenenter"",""1"",""2978""
","
","","","668","","","11","13511","5783","r","elianto","#3366ff99","-1"," ","0","+10","[1523.5]","1","2","","","13511","122","8","2","win","no-go","1"
"pit-trial","244","1980105","0.0-127.0","battery-v0.2","","""event"",""trial"",""time""
""fullscreenenter"",""1"",""2978""
","
","
","""event"",""trial"",""time""
""fullscreenenter"",""1"",""2978""
","
","","","-1","","","11","13511","5783","y","elianto","#f73b6a7A"," ","-1","0","-10","[]","0","2","","","13511","123","7","3","lose","go","0"
"pit-trial","245","1983643","0.0-128.0","battery-v0.2","","""event"",""trial"",""time""
""fullscreenenter"",""1"",""2978""
","
","
","""event"",""trial"",""time""
""fullscreenenter"",""1"",""2978""
","
","","","680.7000000476837","","","11","13511","5783","z","elianto","#3366ff99"," "," ","1","+10","[1531.2999999523163]","1","2","","","13511","124","5","1","win","go","0"
"pit-trial","246","1987173","0.0-129.0","battery-v0.2","","""event"",""trial"",""time""
""fullscreenenter"",""1"",""2978""
","
","
","""event"",""trial"",""time""
""fullscreenenter"",""1"",""2978""
","
","","","660.0999999046326","","","11","13511","5783","m","elianto","#3366ff99","-1"," ","0","0","[1515.1999998092651]","1","2","","","13511","125","9","2","win","no-go","0"
"pit-trial","247","1991809","0.0-130.0","battery-v0.2","","""event"",""trial"",""time""
""fullscreenenter"",""1"",""2978""
","
","
","""event"",""trial"",""time""
""fullscreenenter"",""1"",""2978""
","
","","","1775.0999999046326","","","11","13511","5783","y","elianto","#f73b6a7A"," "," ","1","-10","[2626.9000000953674]","1","2","","","13511","126","7","3","lose","go","1"
"pit-trial","248","1995308","0.0-131.0","battery-v0.2","","""event"",""trial"",""time""
""fullscreenenter"",""1"",""2978""
","
","
","""event"",""trial"",""time""
""fullscreenenter"",""1"",""2978""
","
","","","641","","","11","13511","5783","r","elianto","#3366ff99","-1"," ","0","0","[1493]","1","2","","","13511","127","8","2","win","no-go","0"
"pit-trial","249","2000181","0.0-132.0","battery-v0.2","","""event"",""trial"",""time""
""fullscreenenter"",""1"",""2978""
","
","
","""event"",""trial"",""time""
""fullscreenenter"",""1"",""2978""
","
","","","-1","","","11","13511","5783","h","elianto","#f73b6a7A","-1","-1","1","0","[]","0","2","","","13511","128","6","4","lose","no-go","0"
"pit-trial","250","2003260","0.0-133.0","battery-v0.2","","""event"",""trial"",""time""
""fullscreenenter"",""1"",""2978""
","
","
","""event"",""trial"",""time""
""fullscreenenter"",""1"",""2978""
","
","","","223.29999995231628","","","11","13511","5783","m","elianto","#3366ff99","-1"," ","0","0","[1073.5999999046326]","1","2","","","13511","129","9","2","win","no-go","0"
"pit-trial","251","2006855","0.0-134.0","battery-v0.2","","""event"",""trial"",""time""
""fullscreenenter"",""1"",""2978""
","
","
","""event"",""trial"",""time""
""fullscreenenter"",""1"",""2978""
","
","","","725.3000001907349","","","11","13511","5783","h","elianto","#f73b6a7A","-1"," ","0","-10","[1582.2000000476837]","1","2","","","13511","130","6","4","lose","no-go","0"
"pit-trial","252","2010510","0.0-135.0","battery-v0.2","","""event"",""trial"",""time""
""fullscreenenter"",""1"",""2978""
","
","
","""event"",""trial"",""time""
""fullscreenenter"",""1"",""2978""
","
","","","787.7999999523163","","","11","13511","5783","y","elianto","#f73b6a7A"," "," ","1","-10","[1645.5999999046326]","1","2","","","13511","131","7","3","lose","go","1"
"pit-trial","253","2013975","0.0-136.0","battery-v0.2","","""event"",""trial"",""time""
""fullscreenenter"",""1"",""2978""
","
","
","""event"",""trial"",""time""
""fullscreenenter"",""1"",""2978""
","
","","","599.7999999523163","","","11","13511","5783","r","elianto","#3366ff99","-1"," ","0","0","[1450.1000001430511]","1","2","","","13511","132","8","2","win","no-go","0"
"pit-trial","254","2018841","0.0-137.0","battery-v0.2","","""event"",""trial"",""time""
""fullscreenenter"",""1"",""2978""
","
","
","""event"",""trial"",""time""
""fullscreenenter"",""1"",""2978""
","
","","","-1","","","11","13511","5783","y","elianto","#f73b6a7A"," ","-1","0","0","[]","0","2","","","13511","133","7","3","lose","go","1"
"pit-trial","255","2022304","0.0-138.0","battery-v0.2","","""event"",""trial"",""time""
""fullscreenenter"",""1"",""2978""
","
","
","""event"",""trial"",""time""
""fullscreenenter"",""1"",""2978""
","
","","","601","","","11","13511","5783","r","elianto","#3366ff99","-1"," ","0","0","[1451.6999998092651]","1","2","","","13511","134","8","2","win","no-go","0"
"pit-trial","256","2025759","0.0-139.0","battery-v0.2","","""event"",""trial"",""time""
""fullscreenenter"",""1"",""2978""
","
","
","""event"",""trial"",""time""
""fullscreenenter"",""1"",""2978""
","
","","","596.7999999523163","","","11","13511","5783","m","elianto","#3366ff99","-1"," ","0","0","[1447]","1","2","","","13511","135","9","2","win","no-go","0"
"pit-trial","257","2030631","0.0-140.0","battery-v0.2","","""event"",""trial"",""time""
""fullscreenenter"",""1"",""2978""
","
","
","""event"",""trial"",""time""
""fullscreenenter"",""1"",""2978""
","
","","","-1","","","11","13511","5783","h","elianto","#f73b6a7A","-1","-1","1","0","[]","0","2","","","13511","136","6","4","lose","no-go","0"
"pit-trial","258","2033968","0.0-141.0","battery-v0.2","","""event"",""trial"",""time""
""fullscreenenter"",""1"",""2978""
","
","
","""event"",""trial"",""time""
""fullscreenenter"",""1"",""2978""
","
","","","477.60000014305115","","","11","13511","5783","m","elianto","#3366ff99","-1"," ","0","0","[1329.2000000476837]","1","2","","","13511","137","9","2","win","no-go","0"
"pit-trial","259","2038832","0.0-142.0","battery-v0.2","","""event"",""trial"",""time""
""fullscreenenter"",""1"",""2978""
","
","
","""event"",""trial"",""time""
""fullscreenenter"",""1"",""2978""
","
","","","-1","","","11","13511","5783","h","elianto","#f73b6a7A","-1","-1","1","-10","[]","0","2","","","13511","138","6","4","lose","no-go","1"
"pit-trial","260","2041851","0.0-143.0","battery-v0.2","","""event"",""trial"",""time""
""fullscreenenter"",""1"",""2978""
","
","
","""event"",""trial"",""time""
""fullscreenenter"",""1"",""2978""
","
","","","154.20000004768372","","","11","13511","5783","r","elianto","#3366ff99","-1"," ","0","+10","[1011.5]","1","2","","","13511","139","8","2","win","no-go","1"
"pit-trial","261","2045434","0.0-144.0","battery-v0.2","","""event"",""trial"",""time""
""fullscreenenter"",""1"",""2978""
","
","
","""event"",""trial"",""time""
""fullscreenenter"",""1"",""2978""
","
","","","719.6999998092651","","","11","13511","5783","y","elianto","#f73b6a7A"," "," ","1","0","[1572.0999999046326]","1","2","","","13511","140","7","3","lose","go","0"
"pit-instructions","262","2217056","0.0-145.0","battery-v0.2","","""event"",""trial"",""time""
""fullscreenenter"",""1"",""2978""
","
","
","""event"",""trial"",""time""
""fullscreenenter"",""1"",""2978""
","
","","[{""page_index"":0,""viewing_time"":158664.79999995232},{""page_index"":1,""viewing_time"":12956.799999952316}]","171622.20000004768","","","","","","","","","","","","","","","","","","","","","","","",""
"pit-trial","263","2221631","0.0-146.0","battery-v0.2","","""event"",""trial"",""time""
""fullscreenenter"",""1"",""2978""
","
","
","""event"",""trial"",""time""
""fullscreenenter"",""1"",""2978""
","
","","","1705.1000001430511","","","11","13511","5783","g","elianto","#f73b6a7A","-1"," ","0","-10","[2557.5]","1","3","","","13511","141","3","4","lose","no-go","0"
"pit-trial","264","2226514","0.0-147.0","battery-v0.2","","""event"",""trial"",""time""
""fullscreenenter"",""1"",""2978""
","
","
","""event"",""trial"",""time""
""fullscreenenter"",""1"",""2978""
","
