"trial_type","trial_index","time_elapsed","internal_node_id","task_version","subject_id","interactions","blur_events","focus_events","fullscreenenter_events","fullscreenexit_events","success","view_history","rt","responses","num_errors","age","subject","participantId","rune","rune_set","hex","correct","choice","accuracy","outcome","keys","total_keys","block","practice","value","sub","trial","stimulus","robot","valence","action","sham"
"pavlovia","0","5","0.0-0.0","battery-v0.2","","""event"",""trial"",""time""
""fullscreenenter"",""1"",""2524""
","
","
","""event"",""trial"",""time""
""fullscreenenter"",""1"",""2524""
","
","","","","","","","","","","","","","","","","","","","","","","","","","","",""
"fullscreen","1","3506","0.0-1.0","battery-v0.2","","""event"",""trial"",""time""
""fullscreenenter"",""1"",""2524""
""blur"",""2"",""7377""
""focus"",""2"",""12118""
","""event"",""trial"",""time""
""blur"",""2"",""7377""
","""event"",""trial"",""time""
""focus"",""2"",""12118""
","""event"",""trial"",""time""
""fullscreenenter"",""1"",""2524""
","
","true","","","","","","","","","","","","","","","","","","","","","","","","","",""
"pit-instructions","2","14344","0.0-2.0-0.0","battery-v0.2","","""event"",""trial"",""time""
""fullscreenenter"",""1"",""2524""
""blur"",""2"",""7377""
""focus"",""2"",""12118""
","""event"",""trial"",""time""
""blur"",""2"",""7377""
","""event"",""trial"",""time""
""focus"",""2"",""12118""
","""event"",""trial"",""time""
""fullscreenenter"",""1"",""2524""
","
","","[{""page_index"":0,""viewing_time"":10836.300000000745}]","10836.400000002235","","","","","","","","","","","","","","","","","","","","","","","",""
"pit-comprehension","3","17480","0.0-2.0-1.0-0.0","battery-v0.2","","""event"",""trial"",""time""
""fullscreenenter"",""1"",""2524""
""blur"",""2"",""7377""
""focus"",""2"",""12118""
","""event"",""trial"",""time""
""blur"",""2"",""7377""
","""event"",""trial"",""time""
""focus"",""2"",""12118""
","""event"",""trial"",""time""
""fullscreenenter"",""1"",""2524""
","
","","","3133.60000000149","[""shark""]","0","14","3038","1883","","","","","","","","","","","","","","","","","","",""
"pit-instructions","4","20082","0.0-2.0-1.0-1.0","battery-v0.2","","""event"",""trial"",""time""
""fullscreenenter"",""1"",""2524""
""blur"",""2"",""7377""
""focus"",""2"",""12118""
","""event"",""trial"",""time""
""blur"",""2"",""7377""
","""event"",""trial"",""time""
""focus"",""2"",""12118""
","""event"",""trial"",""time""
""fullscreenenter"",""1"",""2524""
","
","","[{""page_index"":0,""viewing_time"":2596.699999999255}]","2596.89999999851","","","","","","","","","","","","","","","","","","","","","","","",""
"pit-comprehension","5","23343","0.0-2.0-2.0-0.0","battery-v0.2","","""event"",""trial"",""time""
""fullscreenenter"",""1"",""2524""
""blur"",""2"",""7377""
""focus"",""2"",""12118""
","""event"",""trial"",""time""
""blur"",""2"",""7377""
","""event"",""trial"",""time""
""focus"",""2"",""12118""
","""event"",""trial"",""time""
""fullscreenenter"",""1"",""2524""
","
","","","3259.300000000745","[""tiger""]","0","14","3038","1883","","","","","","","","","","","","","","","","","","",""
"pit-instructions","6","24557","0.0-2.0-2.0-1.0","battery-v0.2","","""event"",""trial"",""time""
""fullscreenenter"",""1"",""2524""
""blur"",""2"",""7377""
""focus"",""2"",""12118""
""blur"",""7"",""80164""
""focus"",""7"",""84235""
""blur"",""7"",""89705""
""focus"",""7"",""90866""
","""event"",""trial"",""time""
""blur"",""2"",""7377""
""blur"",""7"",""80164""
""blur"",""7"",""89705""
","""event"",""trial"",""time""
""focus"",""2"",""12118""
""focus"",""7"",""84235""
""focus"",""7"",""90866""
","""event"",""trial"",""time""
""fullscreenenter"",""1"",""2524""
","
","","[{""page_index"":0,""viewing_time"":1211.699999999255}]","1211.8999999985099","","","","","","","","","","","","","","","","","","","","","","","",""
"pit-instructions","7","128565","0.0-2.0-3.0","battery-v0.2","","""event"",""trial"",""time""
""fullscreenenter"",""1"",""2524""
""blur"",""2"",""7377""
""focus"",""2"",""12118""
""blur"",""7"",""80164""
""focus"",""7"",""84235""
""blur"",""7"",""89705""
""focus"",""7"",""90866""
","""event"",""trial"",""time""
""blur"",""2"",""7377""
""blur"",""7"",""80164""
""blur"",""7"",""89705""
","""event"",""trial"",""time""
""focus"",""2"",""12118""
""focus"",""7"",""84235""
""focus"",""7"",""90866""
","""event"",""trial"",""time""
""fullscreenenter"",""1"",""2524""
","
","","[{""page_index"":0,""viewing_time"":9086.199999999255},{""page_index"":1,""viewing_time"":6857.099999997765},{""page_index"":2,""viewing_time"":7536.900000002235},{""page_index"":3,""viewing_time"":6914.89999999851},{""page_index"":4,""viewing_time"":6044.10000000149},{""page_index"":5,""viewing_time"":6492},{""page_index"":6,""viewing_time"":9113.800000000745},{""page_index"":7,""viewing_time"":7769.29999999702},{""page_index"":8,""viewing_time"":6614.800000000745},{""page_index"":9,""viewing_time"":8637},{""page_index"":10,""viewing_time"":7472.400000002235},{""page_index"":11,""viewing_time"":9548.699999999255},{""page_index"":12,""viewing_time"":7208},{""page_index"":13,""viewing_time"":4711.099999997765}]","104006.39999999851","","","","","","","","","","","","","","","","","","","","","","","",""
"pit-trial","8","131941","0.0-2.0-4.0-0.0","battery-v0.2","","""event"",""trial"",""time""
""fullscreenenter"",""1"",""2524""
""blur"",""2"",""7377""
""focus"",""2"",""12118""
""blur"",""7"",""80164""
""focus"",""7"",""84235""
""blur"",""7"",""89705""
""focus"",""7"",""90866""
","""event"",""trial"",""time""
""blur"",""2"",""7377""
""blur"",""7"",""80164""
""blur"",""7"",""89705""
","""event"",""trial"",""time""
""focus"",""2"",""12118""
""focus"",""7"",""84235""
""focus"",""7"",""90866""
","""event"",""trial"",""time""
""fullscreenenter"",""1"",""2524""
","
","","","498.6000000014901","","","14","3038","1883","&#9784;","elianto","#FFFFF080"," "," ","1","&#10004","[1362.199999999255]","1","0","0","","","","","","","",""
"pit-trial","9","135676","0.0-2.0-4.1-0.1","battery-v0.2","","""event"",""trial"",""time""
""fullscreenenter"",""1"",""2524""
""blur"",""2"",""7377""
""focus"",""2"",""12118""
""blur"",""7"",""80164""
""focus"",""7"",""84235""
""blur"",""7"",""89705""
""focus"",""7"",""90866""
","""event"",""trial"",""time""
""blur"",""2"",""7377""
""blur"",""7"",""80164""
""blur"",""7"",""89705""
","""event"",""trial"",""time""
""focus"",""2"",""12118""
""focus"",""7"",""84235""
""focus"",""7"",""90866""
","""event"",""trial"",""time""
""fullscreenenter"",""1"",""2524""
","
","","","872.8999999985099","","","14","3038","1883","&#9784;","elianto","#FFFFF080"," "," ","1","&#10004","[1724.1000000014901]","1","0","0","","","","","","","",""
"pit-trial","10","139064","0.0-2.0-4.2-0.2","battery-v0.2","","""event"",""trial"",""time""
""fullscreenenter"",""1"",""2524""
""blur"",""2"",""7377""
""focus"",""2"",""12118""
""blur"",""7"",""80164""
""focus"",""7"",""84235""
""blur"",""7"",""89705""
""focus"",""7"",""90866""
","""event"",""trial"",""time""
""blur"",""2"",""7377""
""blur"",""7"",""80164""
""blur"",""7"",""89705""
","""event"",""trial"",""time""
""focus"",""2"",""12118""
""focus"",""7"",""84235""
""focus"",""7"",""90866""
","""event"",""trial"",""time""
""fullscreenenter"",""1"",""2524""
","
","","","532.8999999985099","","","14","3038","1883","&#9784;","elianto","#FFFFF080"," "," ","1","&#10004","[1384.8999999985099]","1","0","0","","","","","","","",""
"pit-trial","11","142405","0.0-2.0-4.3-0.3","battery-v0.2","","""event"",""trial"",""time""
""fullscreenenter"",""1"",""2524""
""blur"",""2"",""7377""
""focus"",""2"",""12118""
""blur"",""7"",""80164""
""focus"",""7"",""84235""
""blur"",""7"",""89705""
""focus"",""7"",""90866""
","""event"",""trial"",""time""
""blur"",""2"",""7377""
""blur"",""7"",""80164""
""blur"",""7"",""89705""
","""event"",""trial"",""time""
""focus"",""2"",""12118""
""focus"",""7"",""84235""
""focus"",""7"",""90866""
","""event"",""trial"",""time""
""fullscreenenter"",""1"",""2524""
","
","","","476.6000000014901","","","14","3038","1883","&#9784;","elianto","#FFFFF080"," "," ","1","&#10004","[1335.5999999977648]","1","0","0","","","","","","","",""
"pit-trial","12","145784","0.0-2.0-4.4-0.4","battery-v0.2","","""event"",""trial"",""time""
""fullscreenenter"",""1"",""2524""
""blur"",""2"",""7377""
""focus"",""2"",""12118""
""blur"",""7"",""80164""
""focus"",""7"",""84235""
""blur"",""7"",""89705""
""focus"",""7"",""90866""
""blur"",""13"",""167248""
""focus"",""13"",""170058""
","""event"",""trial"",""time""
""blur"",""2"",""7377""
""blur"",""7"",""80164""
""blur"",""7"",""89705""
""blur"",""13"",""167248""
","""event"",""trial"",""time""
""focus"",""2"",""12118""
""focus"",""7"",""84235""
""focus"",""7"",""90866""
""focus"",""13"",""170058""
","""event"",""trial"",""time""
""fullscreenenter"",""1"",""2524""
","
","","","524.3999999985099","","","14","3038","1883","&#9784;","elianto","#FFFFF080"," "," ","1","&#10004","[1376.5]","1","0","0","","","","","","","",""
"pit-instructions","13","170167","0.0-2.0-5.0","battery-v0.2","","""event"",""trial"",""time""
""fullscreenenter"",""1"",""2524""
""blur"",""2"",""7377""
""focus"",""2"",""12118""
""blur"",""7"",""80164""
""focus"",""7"",""84235""
""blur"",""7"",""89705""
""focus"",""7"",""90866""
""blur"",""13"",""167248""
""focus"",""13"",""170058""
""blur"",""14"",""171196""
""focus"",""14"",""174144""
","""event"",""trial"",""time""
""blur"",""2"",""7377""
""blur"",""7"",""80164""
""blur"",""7"",""89705""
""blur"",""13"",""167248""
""blur"",""14"",""171196""
","""event"",""trial"",""time""
""focus"",""2"",""12118""
""focus"",""7"",""84235""
""focus"",""7"",""90866""
""focus"",""13"",""170058""
""focus"",""14"",""174144""
","""event"",""trial"",""time""
""fullscreenenter"",""1"",""2524""
","
","","[{""page_index"":0,""viewing_time"":5697.39999999851},{""page_index"":1,""viewing_time"":5595.10000000149},{""page_index"":2,""viewing_time"":5792.89999999851},{""page_index"":3,""viewing_time"":7296.10000000149}]","24381.699999999255","","","","","","","","","","","","","","","","","","","","","","","",""
"pit-trial","14","175026","0.0-2.0-6.0-0.0","battery-v0.2","","""event"",""trial"",""time""
""fullscreenenter"",""1"",""2524""
""blur"",""2"",""7377""
""focus"",""2"",""12118""
""blur"",""7"",""80164""
""focus"",""7"",""84235""
""blur"",""7"",""89705""
""focus"",""7"",""90866""
""blur"",""13"",""167248""
""focus"",""13"",""170058""
""blur"",""14"",""171196""
""focus"",""14"",""174144""
","""event"",""trial"",""time""
""blur"",""2"",""7377""
""blur"",""7"",""80164""
""blur"",""7"",""89705""
""blur"",""13"",""167248""
""blur"",""14"",""171196""
","""event"",""trial"",""time""
""focus"",""2"",""12118""
""focus"",""7"",""84235""
""focus"",""7"",""90866""
""focus"",""13"",""170058""
""focus"",""14"",""174144""
","""event"",""trial"",""time""
""fullscreenenter"",""1"",""2524""
","
","","","-1","","","14","3038","1883","&#9854;","elianto","#FFFFF080","-1","-1","1","&#10004","[]","0","0","1","","","","","","","",""
"pit-trial","15","179879","0.0-2.0-6.1-0.1","battery-v0.2","","""event"",""trial"",""time""
""fullscreenenter"",""1"",""2524""
""blur"",""2"",""7377""
""focus"",""2"",""12118""
""blur"",""7"",""80164""
""focus"",""7"",""84235""
""blur"",""7"",""89705""
""focus"",""7"",""90866""
""blur"",""13"",""167248""
""focus"",""13"",""170058""
""blur"",""14"",""171196""
""focus"",""14"",""174144""
","""event"",""trial"",""time""
""blur"",""2"",""7377""
""blur"",""7"",""80164""
""blur"",""7"",""89705""
""blur"",""13"",""167248""
""blur"",""14"",""171196""
","""event"",""trial"",""time""
""focus"",""2"",""12118""
""focus"",""7"",""84235""
""focus"",""7"",""90866""
""focus"",""13"",""170058""
""focus"",""14"",""174144""
","""event"",""trial"",""time""
""fullscreenenter"",""1"",""2524""
","
","","","-1","","","14","3038","1883","&#9854;","elianto","#FFFFF080","-1","-1","1","&#10004","[]","0","0","1","","","","","","","",""
"pit-trial","16","184731","0.0-2.0-6.2-0.2","battery-v0.2","","""event"",""trial"",""time""
""fullscreenenter"",""1"",""2524""
""blur"",""2"",""7377""
""focus"",""2"",""12118""
""blur"",""7"",""80164""
""focus"",""7"",""84235""
""blur"",""7"",""89705""
""focus"",""7"",""90866""
""blur"",""13"",""167248""
""focus"",""13"",""170058""
""blur"",""14"",""171196""
""focus"",""14"",""174144""
","""event"",""trial"",""time""
""blur"",""2"",""7377""
""blur"",""7"",""80164""
""blur"",""7"",""89705""
""blur"",""13"",""167248""
""blur"",""14"",""171196""
","""event"",""trial"",""time""
""focus"",""2"",""12118""
""focus"",""7"",""84235""
""focus"",""7"",""90866""
""focus"",""13"",""170058""
""focus"",""14"",""174144""
","""event"",""trial"",""time""
""fullscreenenter"",""1"",""2524""
","
","","","-1","","","14","3038","1883","&#9854;","elianto","#FFFFF080","-1","-1","1","&#10004","[]","0","0","1","","","","","","","",""
"pit-trial","17","189583","0.0-2.0-6.3-0.3","battery-v0.2","","""event"",""trial"",""time""
""fullscreenenter"",""1"",""2524""
""blur"",""2"",""7377""
""focus"",""2"",""12118""
""blur"",""7"",""80164""
""focus"",""7"",""84235""
""blur"",""7"",""89705""
""focus"",""7"",""90866""
""blur"",""13"",""167248""
""focus"",""13"",""170058""
""blur"",""14"",""171196""
""focus"",""14"",""174144""
","""event"",""trial"",""time""
""blur"",""2"",""7377""
""blur"",""7"",""80164""
""blur"",""7"",""89705""
""blur"",""13"",""167248""
""blur"",""14"",""171196""
","""event"",""trial"",""time""
""focus"",""2"",""12118""
""focus"",""7"",""84235""
""focus"",""7"",""90866""
""focus"",""13"",""170058""
""focus"",""14"",""174144""
","""event"",""trial"",""time""
""fullscreenenter"",""1"",""2524""
","
","","","-1","","","14","3038","1883","&#9854;","elianto","#FFFFF080","-1","-1","1","&#10004","[]","0","0","1","","","","","","","",""
"pit-trial","18","194435","0.0-2.0-6.4-0.4","battery-v0.2","","""event"",""trial"",""time""
""fullscreenenter"",""1"",""2524""
""blur"",""2"",""7377""
""focus"",""2"",""12118""
""blur"",""7"",""80164""
""focus"",""7"",""84235""
""blur"",""7"",""89705""
""focus"",""7"",""90866""
""blur"",""13"",""167248""
""focus"",""13"",""170058""
""blur"",""14"",""171196""
""focus"",""14"",""174144""
""blur"",""19"",""213804""
""focus"",""19"",""215776""
""blur"",""19"",""217203""
""focus"",""19"",""220703""
""blur"",""19"",""259205""
""focus"",""19"",""260809""
","""event"",""trial"",""time""
""blur"",""2"",""7377""
""blur"",""7"",""80164""
""blur"",""7"",""89705""
""blur"",""13"",""167248""
""blur"",""14"",""171196""
""blur"",""19"",""213804""
""blur"",""19"",""217203""
""blur"",""19"",""259205""
","""event"",""trial"",""time""
""focus"",""2"",""12118""
""focus"",""7"",""84235""
""focus"",""7"",""90866""
""focus"",""13"",""170058""
""focus"",""14"",""174144""
""focus"",""19"",""215776""
""focus"",""19"",""220703""
""focus"",""19"",""260809""
","""event"",""trial"",""time""
""fullscreenenter"",""1"",""2524""
","
","","","-1","","","14","3038","1883","&#9854;","elianto","#FFFFF080","-1","-1","1","&#10004","[]","0","0","1","","","","","","","",""
"pit-instructions","19","321824","0.0-2.0-7.0","battery-v0.2","","""event"",""trial"",""time""
""fullscreenenter"",""1"",""2524""
""blur"",""2"",""7377""
""focus"",""2"",""12118""
""blur"",""7"",""80164""
""focus"",""7"",""84235""
""blur"",""7"",""89705""
""focus"",""7"",""90866""
""blur"",""13"",""167248""
""focus"",""13"",""170058""
""blur"",""14"",""171196""
""focus"",""14"",""174144""
""blur"",""19"",""213804""
""focus"",""19"",""215776""
""blur"",""19"",""217203""
""focus"",""19"",""220703""
""blur"",""19"",""259205""
""focus"",""19"",""260809""
","""event"",""trial"",""time""
""blur"",""2"",""7377""
""blur"",""7"",""80164""
""blur"",""7"",""89705""
""blur"",""13"",""167248""
""blur"",""14"",""171196""
""blur"",""19"",""213804""
""blur"",""19"",""217203""
""blur"",""19"",""259205""
","""event"",""trial"",""time""
""focus"",""2"",""12118""
""focus"",""7"",""84235""
""focus"",""7"",""90866""
""focus"",""13"",""170058""
""focus"",""14"",""174144""
""focus"",""19"",""215776""
""focus"",""19"",""220703""
""focus"",""19"",""260809""
","""event"",""trial"",""time""
""fullscreenenter"",""1"",""2524""
","
","","[{""page_index"":0,""viewing_time"":6447.60000000149},{""page_index"":1,""viewing_time"":6251.10000000149},{""page_index"":2,""viewing_time"":8742.79999999702},{""page_index"":3,""viewing_time"":8045.300000000745},{""page_index"":4,""viewing_time"":6648.800000000745},{""page_index"":5,""viewing_time"":6175.10000000149},{""page_index"":6,""viewing_time"":4585.89999999851},{""page_index"":7,""viewing_time"":9727},{""page_index"":8,""viewing_time"":9857},{""page_index"":9,""viewing_time"":7943},{""page_index"":10,""viewing_time"":6724.89999999851},{""page_index"":11,""viewing_time"":4908},{""page_index"":12,""viewing_time"":6861},{""page_index"":13,""viewing_time"":7140},{""page_index"":14,""viewing_time"":6765.20000000298},{""page_index"":15,""viewing_time"":6965},{""page_index"":16,""viewing_time"":6723.79999999702},{""page_index"":17,""viewing_time"":6876.900000002235}]","127388.60000000149","","","","","","","","","","","","","","","","","","","","","","","",""
"pit-trial","20","325132","0.0-2.0-8.0-0.0","battery-v0.2","","""event"",""trial"",""time""
""fullscreenenter"",""1"",""2524""
""blur"",""2"",""7377""
""focus"",""2"",""12118""
""blur"",""7"",""80164""
""focus"",""7"",""84235""
""blur"",""7"",""89705""
""focus"",""7"",""90866""
""blur"",""13"",""167248""
""focus"",""13"",""170058""
""blur"",""14"",""171196""
""focus"",""14"",""174144""
""blur"",""19"",""213804""
""focus"",""19"",""215776""
""blur"",""19"",""217203""
""focus"",""19"",""220703""
""blur"",""19"",""259205""
""focus"",""19"",""260809""
","""event"",""trial"",""time""
""blur"",""2"",""7377""
""blur"",""7"",""80164""
""blur"",""7"",""89705""
""blur"",""13"",""167248""
""blur"",""14"",""171196""
""blur"",""19"",""213804""
""blur"",""19"",""217203""
""blur"",""19"",""259205""
","""event"",""trial"",""time""
""focus"",""2"",""12118""
""focus"",""7"",""84235""
""focus"",""7"",""90866""
""focus"",""13"",""170058""
""focus"",""14"",""174144""
""focus"",""19"",""215776""
""focus"",""19"",""220703""
""focus"",""19"",""260809""
","""event"",""trial"",""time""
""fullscreenenter"",""1"",""2524""
","
","","","453.20000000298023","","","14","3038","1883","&#9776;","elianto","#3366ff99"," "," ","1","+10","[1306.199999999255]","1","0","1","","","","","","","",""
"pit-trial","21","328428","0.0-2.0-8.0-1.0","battery-v0.2","","""event"",""trial"",""time""
""fullscreenenter"",""1"",""2524""
""blur"",""2"",""7377""
""focus"",""2"",""12118""
""blur"",""7"",""80164""
""focus"",""7"",""84235""
""blur"",""7"",""89705""
""focus"",""7"",""90866""
""blur"",""13"",""167248""
""focus"",""13"",""170058""
""blur"",""14"",""171196""
""focus"",""14"",""174144""
""blur"",""19"",""213804""
""focus"",""19"",""215776""
""blur"",""19"",""217203""
""focus"",""19"",""220703""
""blur"",""19"",""259205""
""focus"",""19"",""260809""
","""event"",""trial"",""time""
""blur"",""2"",""7377""
""blur"",""7"",""80164""
""blur"",""7"",""89705""
""blur"",""13"",""167248""
""blur"",""14"",""171196""
""blur"",""19"",""213804""
""blur"",""19"",""217203""
""blur"",""19"",""259205""
","""event"",""trial"",""time""
""focus"",""2"",""12118""
""focus"",""7"",""84235""
""focus"",""7"",""90866""
""focus"",""13"",""170058""
""focus"",""14"",""174144""
""focus"",""19"",""215776""
""focus"",""19"",""220703""
""focus"",""19"",""260809""
","""event"",""trial"",""time""
""fullscreenenter"",""1"",""2524""
","
","","","438.3999999985099","","","14","3038","1883","&#9776;","elianto","#3366ff99"," "," ","1","+10","[1295.699999999255]","1","0","1","","","","","","","",""
"pit-trial","22","331657","0.0-2.0-8.0-2.0","battery-v0.2","","""event"",""trial"",""time""
""fullscreenenter"",""1"",""2524""
""blur"",""2"",""7377""
""focus"",""2"",""12118""
""blur"",""7"",""80164""
""focus"",""7"",""84235""
""blur"",""7"",""89705""
""focus"",""7"",""90866""
""blur"",""13"",""167248""
""focus"",""13"",""170058""
""blur"",""14"",""171196""
""focus"",""14"",""174144""
""blur"",""19"",""213804""
""focus"",""19"",""215776""
""blur"",""19"",""217203""
""focus"",""19"",""220703""
""blur"",""19"",""259205""
""focus"",""19"",""260809""
","""event"",""trial"",""time""
""blur"",""2"",""7377""
""blur"",""7"",""80164""
""blur"",""7"",""89705""
""blur"",""13"",""167248""
""blur"",""14"",""171196""
""blur"",""19"",""213804""
""blur"",""19"",""217203""
""blur"",""19"",""259205""
","""event"",""trial"",""time""
""focus"",""2"",""12118""
""focus"",""7"",""84235""
""focus"",""7"",""90866""
""focus"",""13"",""170058""
""focus"",""14"",""174144""
""focus"",""19"",""215776""
""focus"",""19"",""220703""
""focus"",""19"",""260809""
","""event"",""trial"",""time""
""fullscreenenter"",""1"",""2524""
","
","","","370.80000000074506","","","14","3038","1883","&#9776;","elianto","#3366ff99"," "," ","1","+10","[1226.9000000022352]","1","0","1","","","","","","","",""
"pit-trial","23","334842","0.0-2.0-8.0-3.0","battery-v0.2","","""event"",""trial"",""time""
""fullscreenenter"",""1"",""2524""
""blur"",""2"",""7377""
""focus"",""2"",""12118""
""blur"",""7"",""80164""
""focus"",""7"",""84235""
""blur"",""7"",""89705""
""focus"",""7"",""90866""
""blur"",""13"",""167248""
""focus"",""13"",""170058""
""blur"",""14"",""171196""
""focus"",""14"",""174144""
""blur"",""19"",""213804""
""focus"",""19"",""215776""
""blur"",""19"",""217203""
""focus"",""19"",""220703""
""blur"",""19"",""259205""
""focus"",""19"",""260809""
","""event"",""trial"",""time""
""blur"",""2"",""7377""
""blur"",""7"",""80164""
""blur"",""7"",""89705""
""blur"",""13"",""167248""
""blur"",""14"",""171196""
""blur"",""19"",""213804""
""blur"",""19"",""217203""
""blur"",""19"",""259205""
","""event"",""trial"",""time""
""focus"",""2"",""12118""
""focus"",""7"",""84235""
""focus"",""7"",""90866""
""focus"",""13"",""170058""
""focus"",""14"",""174144""
""focus"",""19"",""215776""
""focus"",""19"",""220703""
""focus"",""19"",""260809""
","""event"",""trial"",""time""
""fullscreenenter"",""1"",""2524""
","
","","","326","","","14","3038","1883","&#9776;","elianto","#3366ff99"," "," ","1","0","[1183.300000000745]","1","0","1","","","","","","","",""
"pit-trial","24","338097","0.0-2.0-8.0-4.0","battery-v0.2","","""event"",""trial"",""time""
""fullscreenenter"",""1"",""2524""
""blur"",""2"",""7377""
""focus"",""2"",""12118""
""blur"",""7"",""80164""
""focus"",""7"",""84235""
""blur"",""7"",""89705""
""focus"",""7"",""90866""
""blur"",""13"",""167248""
""focus"",""13"",""170058""
""blur"",""14"",""171196""
""focus"",""14"",""174144""
""blur"",""19"",""213804""
""focus"",""19"",""215776""
""blur"",""19"",""217203""
""focus"",""19"",""220703""
""blur"",""19"",""259205""
""focus"",""19"",""260809""
","""event"",""trial"",""time""
""blur"",""2"",""7377""
""blur"",""7"",""80164""
""blur"",""7"",""89705""
""blur"",""13"",""167248""
""blur"",""14"",""171196""
""blur"",""19"",""213804""
""blur"",""19"",""217203""
""blur"",""19"",""259205""
","""event"",""trial"",""time""
""focus"",""2"",""12118""
""focus"",""7"",""84235""
""focus"",""7"",""90866""
""focus"",""13"",""170058""
""focus"",""14"",""174144""
""focus"",""19"",""215776""
""focus"",""19"",""220703""
""focus"",""19"",""260809""
","""event"",""trial"",""time""
""fullscreenenter"",""1"",""2524""
","
","","","397.9000000022352","","","14","3038","1883","&#9776;","elianto","#3366ff99"," "," ","1","+10","[1247.8999999985099]","1","0","1","","","","","","","",""
"call-function","25","338098","0.0-2.0-9.0","battery-v0.2","","""event"",""trial"",""time""
""fullscreenenter"",""1"",""2524""
""blur"",""2"",""7377""
""focus"",""2"",""12118""
""blur"",""7"",""80164""
""focus"",""7"",""84235""
""blur"",""7"",""89705""
""focus"",""7"",""90866""
""blur"",""13"",""167248""
""focus"",""13"",""170058""
""blur"",""14"",""171196""
""focus"",""14"",""174144""
""blur"",""19"",""213804""
""focus"",""19"",""215776""
""blur"",""19"",""217203""
""focus"",""19"",""220703""
""blur"",""19"",""259205""
""focus"",""19"",""260809""
""blur"",""26"",""340007""
""focus"",""26"",""344917""
""blur"",""26"",""355217""
""focus"",""26"",""362315""
""blur"",""26"",""363751""
""focus"",""26"",""369585""
","""event"",""trial"",""time""
""blur"",""2"",""7377""
""blur"",""7"",""80164""
""blur"",""7"",""89705""
""blur"",""13"",""167248""
""blur"",""14"",""171196""
""blur"",""19"",""213804""
""blur"",""19"",""217203""
""blur"",""19"",""259205""
""blur"",""26"",""340007""
""blur"",""26"",""355217""
""blur"",""26"",""363751""
","""event"",""trial"",""time""
""focus"",""2"",""12118""
""focus"",""7"",""84235""
""focus"",""7"",""90866""
""focus"",""13"",""170058""
""focus"",""14"",""174144""
""focus"",""19"",""215776""
""focus"",""19"",""220703""
""focus"",""19"",""260809""
""focus"",""26"",""344917""
""focus"",""26"",""362315""
""focus"",""26"",""369585""
","""event"",""trial"",""time""
""fullscreenenter"",""1"",""2524""
","
","","","","","","","","","","","","","","","","","","","","","","","","","","",""
"pit-instructions","26","379997","0.0-2.0-10.0","battery-v0.2","","""event"",""trial"",""time""
""fullscreenenter"",""1"",""2524""
""blur"",""2"",""7377""
""focus"",""2"",""12118""
""blur"",""7"",""80164""
""focus"",""7"",""84235""
""blur"",""7"",""89705""
""focus"",""7"",""90866""
""blur"",""13"",""167248""
""focus"",""13"",""170058""
""blur"",""14"",""171196""
""focus"",""14"",""174144""
""blur"",""19"",""213804""
""focus"",""19"",""215776""
""blur"",""19"",""217203""
""focus"",""19"",""220703""
""blur"",""19"",""259205""
""focus"",""19"",""260809""
""blur"",""26"",""340007""
""focus"",""26"",""344917""
""blur"",""26"",""355217""
""focus"",""26"",""362315""
""blur"",""26"",""363751""
""focus"",""26"",""369585""
","""event"",""trial"",""time""
""blur"",""2"",""7377""
""blur"",""7"",""80164""
""blur"",""7"",""89705""
""blur"",""13"",""167248""
""blur"",""14"",""171196""
""blur"",""19"",""213804""
""blur"",""19"",""217203""
""blur"",""19"",""259205""
""blur"",""26"",""340007""
""blur"",""26"",""355217""
""blur"",""26"",""363751""
","""event"",""trial"",""time""
""focus"",""2"",""12118""
""focus"",""7"",""84235""
""focus"",""7"",""90866""
""focus"",""13"",""170058""
""focus"",""14"",""174144""
""focus"",""19"",""215776""
""focus"",""19"",""220703""
""focus"",""19"",""260809""
""focus"",""26"",""344917""
""focus"",""26"",""362315""
""focus"",""26"",""369585""
","""event"",""trial"",""time""
""fullscreenenter"",""1"",""2524""
","
","","[{""page_index"":0,""viewing_time"":6911.60000000149},{""page_index"":1,""viewing_time"":6884.800000000745},{""page_index"":2,""viewing_time"":10566.300000000745},{""page_index"":3,""viewing_time"":9454},{""page_index"":4,""viewing_time"":8082.199999999255}]","41899.20000000298","","","","","","","","","","","","","","","","","","","","","","","",""
"pit-trial","27","384855","0.0-2.0-11.0-0.0","battery-v0.2","","""event"",""trial"",""time""
""fullscreenenter"",""1"",""2524""
""blur"",""2"",""7377""
""focus"",""2"",""12118""
""blur"",""7"",""80164""
""focus"",""7"",""84235""
""blur"",""7"",""89705""
""focus"",""7"",""90866""
""blur"",""13"",""167248""
""focus"",""13"",""170058""
""blur"",""14"",""171196""
""focus"",""14"",""174144""
""blur"",""19"",""213804""
""focus"",""19"",""215776""
""blur"",""19"",""217203""
""focus"",""19"",""220703""
""blur"",""19"",""259205""
""focus"",""19"",""260809""
""blur"",""26"",""340007""
""focus"",""26"",""344917""
""blur"",""26"",""355217""
""focus"",""26"",""362315""
""blur"",""26"",""363751""
""focus"",""26"",""369585""
","""event"",""trial"",""time""
""blur"",""2"",""7377""
""blur"",""7"",""80164""
""blur"",""7"",""89705""
""blur"",""13"",""167248""
""blur"",""14"",""171196""
""blur"",""19"",""213804""
""blur"",""19"",""217203""
""blur"",""19"",""259205""
""blur"",""26"",""340007""
""blur"",""26"",""355217""
""blur"",""26"",""363751""
","""event"",""trial"",""time""
""focus"",""2"",""12118""
""focus"",""7"",""84235""
""focus"",""7"",""90866""
""focus"",""13"",""170058""
""focus"",""14"",""174144""
""focus"",""19"",""215776""
""focus"",""19"",""220703""
""focus"",""19"",""260809""
""focus"",""26"",""344917""
""focus"",""26"",""362315""
""focus"",""26"",""369585""
","""event"",""trial"",""time""
""fullscreenenter"",""1"",""2524""
","
","","","-1","","","14","3038","1883","&#9761;","elianto","#3366ff99","-1","-1","1","+10","[]","0","0","2","","","","","","","",""
"pit-trial","28","389708","0.0-2.0-11.0-1.0","battery-v0.2","","""event"",""trial"",""time""
""fullscreenenter"",""1"",""2524""
""blur"",""2"",""7377""
""focus"",""2"",""12118""
""blur"",""7"",""80164""
""focus"",""7"",""84235""
""blur"",""7"",""89705""
""focus"",""7"",""90866""
""blur"",""13"",""167248""
""focus"",""13"",""170058""
""blur"",""14"",""171196""
""focus"",""14"",""174144""
""blur"",""19"",""213804""
""focus"",""19"",""215776""
""blur"",""19"",""217203""
""focus"",""19"",""220703""
""blur"",""19"",""259205""
""focus"",""19"",""260809""
""blur"",""26"",""340007""
""focus"",""26"",""344917""
""blur"",""26"",""355217""
""focus"",""26"",""362315""
""blur"",""26"",""363751""
""focus"",""26"",""369585""
","""event"",""trial"",""time""
""blur"",""2"",""7377""
""blur"",""7"",""80164""
""blur"",""7"",""89705""
""blur"",""13"",""167248""
""blur"",""14"",""171196""
""blur"",""19"",""213804""
""blur"",""19"",""217203""
""blur"",""19"",""259205""
""blur"",""26"",""340007""
""blur"",""26"",""355217""
""blur"",""26"",""363751""
","""event"",""trial"",""time""
""focus"",""2"",""12118""
""focus"",""7"",""84235""
""focus"",""7"",""90866""
""focus"",""13"",""170058""
""focus"",""14"",""174144""
""focus"",""19"",""215776""
""focus"",""19"",""220703""
""focus"",""19"",""260809""
""focus"",""26"",""344917""
""focus"",""26"",""362315""
""focus"",""26"",""369585""
","""event"",""trial"",""time""
""fullscreenenter"",""1"",""2524""
","
","","","-1","","","14","3038","1883","&#9761;","elianto","#3366ff99","-1","-1","1","+10","[]","0","0","2","","","","","","","",""
"pit-trial","29","394560","0.0-2.0-11.0-2.0","battery-v0.2","","""event"",""trial"",""time""
""fullscreenenter"",""1"",""2524""
""blur"",""2"",""7377""
""focus"",""2"",""12118""
""blur"",""7"",""80164""
""focus"",""7"",""84235""
""blur"",""7"",""89705""
""focus"",""7"",""90866""
""blur"",""13"",""167248""
""focus"",""13"",""170058""
""blur"",""14"",""171196""
""focus"",""14"",""174144""
""blur"",""19"",""213804""
""focus"",""19"",""215776""
""blur"",""19"",""217203""
""focus"",""19"",""220703""
""blur"",""19"",""259205""
""focus"",""19"",""260809""
""blur"",""26"",""340007""
""focus"",""26"",""344917""
""blur"",""26"",""355217""
""focus"",""26"",""362315""
""blur"",""26"",""363751""
""focus"",""26"",""369585""
","""event"",""trial"",""time""
""blur"",""2"",""7377""
""blur"",""7"",""80164""
""blur"",""7"",""89705""
""blur"",""13"",""167248""
""blur"",""14"",""171196""
""blur"",""19"",""213804""
""blur"",""19"",""217203""
""blur"",""19"",""259205""
""blur"",""26"",""340007""
""blur"",""26"",""355217""
""blur"",""26"",""363751""
","""event"",""trial"",""time""
""focus"",""2"",""12118""
""focus"",""7"",""84235""
""focus"",""7"",""90866""
""focus"",""13"",""170058""
""focus"",""14"",""174144""
""focus"",""19"",""215776""
""focus"",""19"",""220703""
""focus"",""19"",""260809""
""focus"",""26"",""344917""
""focus"",""26"",""362315""
""focus"",""26"",""369585""
","""event"",""trial"",""time""
""fullscreenenter"",""1"",""2524""
","
","","","-1","","","14","3038","1883","&#9761;","elianto","#3366ff99","-1","-1","1","+10","[]","0","0","2","","","","","","","",""
"pit-trial","30","399430","0.0-2.0-11.0-3.0","battery-v0.2","","""event"",""trial"",""time""
""fullscreenenter"",""1"",""2524""
""blur"",""2"",""7377""
""focus"",""2"",""12118""
""blur"",""7"",""80164""
""focus"",""7"",""84235""
""blur"",""7"",""89705""
""focus"",""7"",""90866""
""blur"",""13"",""167248""
""focus"",""13"",""170058""
""blur"",""14"",""171196""
""focus"",""14"",""174144""
""blur"",""19"",""213804""
""focus"",""19"",""215776""
""blur"",""19"",""217203""
""focus"",""19"",""220703""
""blur"",""19"",""259205""
""focus"",""19"",""260809""
""blur"",""26"",""340007""
""focus"",""26"",""344917""
""blur"",""26"",""355217""
""focus"",""26"",""362315""
""blur"",""26"",""363751""
""focus"",""26"",""369585""
","""event"",""trial"",""time""
""blur"",""2"",""7377""
""blur"",""7"",""80164""
""blur"",""7"",""89705""
""blur"",""13"",""167248""
""blur"",""14"",""171196""
""blur"",""19"",""213804""
""blur"",""19"",""217203""
""blur"",""19"",""259205""
""blur"",""26"",""340007""
""blur"",""26"",""355217""
""blur"",""26"",""363751""
","""event"",""trial"",""time""
""focus"",""2"",""12118""
""focus"",""7"",""84235""
""focus"",""7"",""90866""
""focus"",""13"",""170058""
""focus"",""14"",""174144""
""focus"",""19"",""215776""
""focus"",""19"",""220703""
""focus"",""19"",""260809""
""focus"",""26"",""344917""
""focus"",""26"",""362315""
""focus"",""26"",""369585""
","""event"",""trial"",""time""
""fullscreenenter"",""1"",""2524""
","
","","","-1","","","14","3038","1883","&#9761;","elianto","#3366ff99","-1","-1","1","0","[]","0","0","2","","","","","","","",""
"pit-trial","31","404297","0.0-2.0-11.0-4.0","battery-v0.2","","""event"",""trial"",""time""
""fullscreenenter"",""1"",""2524""
""blur"",""2"",""7377""
""focus"",""2"",""12118""
""blur"",""7"",""80164""
""focus"",""7"",""84235""
""blur"",""7"",""89705""
""focus"",""7"",""90866""
""blur"",""13"",""167248""
""focus"",""13"",""170058""
""blur"",""14"",""171196""
""focus"",""14"",""174144""
""blur"",""19"",""213804""
""focus"",""19"",""215776""
""blur"",""19"",""217203""
""focus"",""19"",""220703""
""blur"",""19"",""259205""
""focus"",""19"",""260809""
""blur"",""26"",""340007""
""focus"",""26"",""344917""
""blur"",""26"",""355217""
""focus"",""26"",""362315""
""blur"",""26"",""363751""
""focus"",""26"",""369585""
","""event"",""trial"",""time""
""blur"",""2"",""7377""
""blur"",""7"",""80164""
""blur"",""7"",""89705""
""blur"",""13"",""167248""
""blur"",""14"",""171196""
""blur"",""19"",""213804""
""blur"",""19"",""217203""
""blur"",""19"",""259205""
""blur"",""26"",""340007""
""blur"",""26"",""355217""
""blur"",""26"",""363751""
","""event"",""trial"",""time""
""focus"",""2"",""12118""
""focus"",""7"",""84235""
""focus"",""7"",""90866""
""focus"",""13"",""170058""
""focus"",""14"",""174144""
""focus"",""19"",""215776""
""focus"",""19"",""220703""
""focus"",""19"",""260809""
""focus"",""26"",""344917""
""focus"",""26"",""362315""
""focus"",""26"",""369585""
","""event"",""trial"",""time""
""fullscreenenter"",""1"",""2524""
","
","","","-1","","","14","3038","1883","&#9761;","elianto","#3366ff99","-1","-1","1","+10","[]","0","0","2","","","","","","","",""
"call-function","32","404298","0.0-2.0-12.0","battery-v0.2","","""event"",""trial"",""time""
""fullscreenenter"",""1"",""2524""
""blur"",""2"",""7377""
""focus"",""2"",""12118""
""blur"",""7"",""80164""
""focus"",""7"",""84235""
""blur"",""7"",""89705""
""focus"",""7"",""90866""
""blur"",""13"",""167248""
""focus"",""13"",""170058""
""blur"",""14"",""171196""
""focus"",""14"",""174144""
""blur"",""19"",""213804""
""focus"",""19"",""215776""
""blur"",""19"",""217203""
""focus"",""19"",""220703""
""blur"",""19"",""259205""
""focus"",""19"",""260809""
""blur"",""26"",""340007""
""focus"",""26"",""344917""
""blur"",""26"",""355217""
""focus"",""26"",""362315""
""blur"",""26"",""363751""
""focus"",""26"",""369585""
","""event"",""trial"",""time""
""blur"",""2"",""7377""
""blur"",""7"",""80164""
""blur"",""7"",""89705""
""blur"",""13"",""167248""
""blur"",""14"",""171196""
""blur"",""19"",""213804""
""blur"",""19"",""217203""
""blur"",""19"",""259205""
""blur"",""26"",""340007""
""blur"",""26"",""355217""
""blur"",""26"",""363751""
","""event"",""trial"",""time""
""focus"",""2"",""12118""
""focus"",""7"",""84235""
""focus"",""7"",""90866""
""focus"",""13"",""170058""
""focus"",""14"",""174144""
""focus"",""19"",""215776""
""focus"",""19"",""220703""
""focus"",""19"",""260809""
""focus"",""26"",""344917""
""focus"",""26"",""362315""
""focus"",""26"",""369585""
","""event"",""trial"",""time""
""fullscreenenter"",""1"",""2524""
","
","","","","","","","","","","","","","","","","","","","","","","","","","","",""
"pit-instructions","33","439482","0.0-2.0-13.0","battery-v0.2","","""event"",""trial"",""time""
""fullscreenenter"",""1"",""2524""
""blur"",""2"",""7377""
""focus"",""2"",""12118""
""blur"",""7"",""80164""
""focus"",""7"",""84235""
""blur"",""7"",""89705""
""focus"",""7"",""90866""
""blur"",""13"",""167248""
""focus"",""13"",""170058""
""blur"",""14"",""171196""
""focus"",""14"",""174144""
""blur"",""19"",""213804""
""focus"",""19"",""215776""
""blur"",""19"",""217203""
""focus"",""19"",""220703""
""blur"",""19"",""259205""
""focus"",""19"",""260809""
""blur"",""26"",""340007""
""focus"",""26"",""344917""
""blur"",""26"",""355217""
""focus"",""26"",""362315""
""blur"",""26"",""363751""
""focus"",""26"",""369585""
","""event"",""trial"",""time""
""blur"",""2"",""7377""
""blur"",""7"",""80164""
""blur"",""7"",""89705""
""blur"",""13"",""167248""
""blur"",""14"",""171196""
""blur"",""19"",""213804""
""blur"",""19"",""217203""
""blur"",""19"",""259205""
""blur"",""26"",""340007""
""blur"",""26"",""355217""
""blur"",""26"",""363751""
","""event"",""trial"",""time""
""focus"",""2"",""12118""
""focus"",""7"",""84235""
""focus"",""7"",""90866""
""focus"",""13"",""170058""
""focus"",""14"",""174144""
""focus"",""19"",""215776""
""focus"",""19"",""220703""
""focus"",""19"",""260809""
""focus"",""26"",""344917""
""focus"",""26"",""362315""
""focus"",""26"",""369585""
","""event"",""trial"",""time""
""fullscreenenter"",""1"",""2524""
","
","","[{""page_index"":0,""viewing_time"":5323.89999999851},{""page_index"":1,""viewing_time"":8715},{""page_index"":2,""viewing_time"":4542.800000000745},{""page_index"":3,""viewing_time"":10782.10000000149},{""page_index"":4,""viewing_time"":5820.099999997765}]","35184.099999997765","","","","","","","","","","","","","","","","","","","","","","","",""
"pit-trial","34","443536","0.0-2.0-14.0-0.0","battery-v0.2","","""event"",""trial"",""time""
""fullscreenenter"",""1"",""2524""
""blur"",""2"",""7377""
""focus"",""2"",""12118""
""blur"",""7"",""80164""
""focus"",""7"",""84235""
""blur"",""7"",""89705""
""focus"",""7"",""90866""
""blur"",""13"",""167248""
""focus"",""13"",""170058""
""blur"",""14"",""171196""
""focus"",""14"",""174144""
""blur"",""19"",""213804""
""focus"",""19"",""215776""
""blur"",""19"",""217203""
""focus"",""19"",""220703""
""blur"",""19"",""259205""
""focus"",""19"",""260809""
""blur"",""26"",""340007""
""focus"",""26"",""344917""
""blur"",""26"",""355217""
""focus"",""26"",""362315""
""blur"",""26"",""363751""
""focus"",""26"",""369585""
","""event"",""trial"",""time""
""blur"",""2"",""7377""
""blur"",""7"",""80164""
""blur"",""7"",""89705""
""blur"",""13"",""167248""
""blur"",""14"",""171196""
""blur"",""19"",""213804""
""blur"",""19"",""217203""
""blur"",""19"",""259205""
""blur"",""26"",""340007""
""blur"",""26"",""355217""
""blur"",""26"",""363751""
","""event"",""trial"",""time""
""focus"",""2"",""12118""
""focus"",""7"",""84235""
""focus"",""7"",""90866""
""focus"",""13"",""170058""
""focus"",""14"",""174144""
""focus"",""19"",""215776""
""focus"",""19"",""220703""
""focus"",""19"",""260809""
""focus"",""26"",""344917""
""focus"",""26"",""362315""
""focus"",""26"",""369585""
","""event"",""trial"",""time""
""fullscreenenter"",""1"",""2524""
","
","","","1184.300000000745","","","14","3038","1883","&#9826;","elianto","#f73b6a7A","-1"," ","0","-10","[2043]","1","0","3","","","","","","","",""
"pit-trial","35","448391","0.0-2.0-14.0-1.0","battery-v0.2","","""event"",""trial"",""time""
""fullscreenenter"",""1"",""2524""
""blur"",""2"",""7377""
""focus"",""2"",""12118""
""blur"",""7"",""80164""
""focus"",""7"",""84235""
""blur"",""7"",""89705""
""focus"",""7"",""90866""
""blur"",""13"",""167248""
""focus"",""13"",""170058""
""blur"",""14"",""171196""
""focus"",""14"",""174144""
""blur"",""19"",""213804""
""focus"",""19"",""215776""
""blur"",""19"",""217203""
""focus"",""19"",""220703""
""blur"",""19"",""259205""
""focus"",""19"",""260809""
""blur"",""26"",""340007""
""focus"",""26"",""344917""
""blur"",""26"",""355217""
""focus"",""26"",""362315""
""blur"",""26"",""363751""
""focus"",""26"",""369585""
","""event"",""trial"",""time""
""blur"",""2"",""7377""
""blur"",""7"",""80164""
""blur"",""7"",""89705""
""blur"",""13"",""167248""
""blur"",""14"",""171196""
""blur"",""19"",""213804""
""blur"",""19"",""217203""
""blur"",""19"",""259205""
""blur"",""26"",""340007""
""blur"",""26"",""355217""
""blur"",""26"",""363751""
","""event"",""trial"",""time""
""focus"",""2"",""12118""
""focus"",""7"",""84235""
""focus"",""7"",""90866""
""focus"",""13"",""170058""
""focus"",""14"",""174144""
""focus"",""19"",""215776""
""focus"",""19"",""220703""
""focus"",""19"",""260809""
""focus"",""26"",""344917""
""focus"",""26"",""362315""
""focus"",""26"",""369585""
","""event"",""trial"",""time""
""fullscreenenter"",""1"",""2524""
","
","","","-1","","","14","3038","1883","&#9826;","elianto","#f73b6a7A","-1","-1","1","0","[]","0","0","3","","","","","","","",""
"pit-trial","36","453244","0.0-2.0-14.0-2.0","battery-v0.2","","""event"",""trial"",""time""
""fullscreenenter"",""1"",""2524""
""blur"",""2"",""7377""
""focus"",""2"",""12118""
""blur"",""7"",""80164""
""focus"",""7"",""84235""
""blur"",""7"",""89705""
""focus"",""7"",""90866""
""blur"",""13"",""167248""
""focus"",""13"",""170058""
""blur"",""14"",""171196""
""focus"",""14"",""174144""
""blur"",""19"",""213804""
""focus"",""19"",""215776""
""blur"",""19"",""217203""
""focus"",""19"",""220703""
""blur"",""19"",""259205""
""focus"",""19"",""260809""
""blur"",""26"",""340007""
""focus"",""26"",""344917""
""blur"",""26"",""355217""
""focus"",""26"",""362315""
""blur"",""26"",""363751""
""focus"",""26"",""369585""
","""event"",""trial"",""time""
""blur"",""2"",""7377""
""blur"",""7"",""80164""
""blur"",""7"",""89705""
""blur"",""13"",""167248""
""blur"",""14"",""171196""
""blur"",""19"",""213804""
""blur"",""19"",""217203""
""blur"",""19"",""259205""
""blur"",""26"",""340007""
""blur"",""26"",""355217""
""blur"",""26"",""363751""
","""event"",""trial"",""time""
""focus"",""2"",""12118""
""focus"",""7"",""84235""
""focus"",""7"",""90866""
""focus"",""13"",""170058""
""focus"",""14"",""174144""
""focus"",""19"",""215776""
""focus"",""19"",""220703""
""focus"",""19"",""260809""
""focus"",""26"",""344917""
""focus"",""26"",""362315""
""focus"",""26"",""369585""
","""event"",""trial"",""time""
""fullscreenenter"",""1"",""2524""
","
","","","-1","","","14","3038","1883","&#9826;","elianto","#f73b6a7A","-1","-1","1","0","[]","0","0","3","","","","","","","",""
"pit-trial","37","458111","0.0-2.0-14.0-3.0","battery-v0.2","","""event"",""trial"",""time""
""fullscreenenter"",""1"",""2524""
""blur"",""2"",""7377""
""focus"",""2"",""12118""
""blur"",""7"",""80164""
""focus"",""7"",""84235""
""blur"",""7"",""89705""
""focus"",""7"",""90866""
""blur"",""13"",""167248""
""focus"",""13"",""170058""
""blur"",""14"",""171196""
""focus"",""14"",""174144""
""blur"",""19"",""213804""
""focus"",""19"",""215776""
""blur"",""19"",""217203""
""focus"",""19"",""220703""
""blur"",""19"",""259205""
""focus"",""19"",""260809""
""blur"",""26"",""340007""
""focus"",""26"",""344917""
""blur"",""26"",""355217""
""focus"",""26"",""362315""
""blur"",""26"",""363751""
""focus"",""26"",""369585""
","""event"",""trial"",""time""
""blur"",""2"",""7377""
""blur"",""7"",""80164""
""blur"",""7"",""89705""
""blur"",""13"",""167248""
""blur"",""14"",""171196""
""blur"",""19"",""213804""
""blur"",""19"",""217203""
""blur"",""19"",""259205""
""blur"",""26"",""340007""
""blur"",""26"",""355217""
""blur"",""26"",""363751""
","""event"",""trial"",""time""
""focus"",""2"",""12118""
""focus"",""7"",""84235""
""focus"",""7"",""90866""
""focus"",""13"",""170058""
""focus"",""14"",""174144""
""focus"",""19"",""215776""
""focus"",""19"",""220703""
""focus"",""19"",""260809""
""focus"",""26"",""344917""
""focus"",""26"",""362315""
""focus"",""26"",""369585""
","""event"",""trial"",""time""
""fullscreenenter"",""1"",""2524""
","
","","","-1","","","14","3038","1883","&#9826;","elianto","#f73b6a7A","-1","-1","1","-10","[]","0","0","3","","","","","","","",""
"pit-trial","38","462979","0.0-2.0-14.0-4.0","battery-v0.2","","""event"",""trial"",""time""
""fullscreenenter"",""1"",""2524""
""blur"",""2"",""7377""
""focus"",""2"",""12118""
""blur"",""7"",""80164""
""focus"",""7"",""84235""
""blur"",""7"",""89705""
""focus"",""7"",""90866""
""blur"",""13"",""167248""
""focus"",""13"",""170058""
""blur"",""14"",""171196""
""focus"",""14"",""174144""
""blur"",""19"",""213804""
""focus"",""19"",""215776""
""blur"",""19"",""217203""
""focus"",""19"",""220703""
""blur"",""19"",""259205""
""focus"",""19"",""260809""
""blur"",""26"",""340007""
""focus"",""26"",""344917""
""blur"",""26"",""355217""
""focus"",""26"",""362315""
""blur"",""26"",""363751""
""focus"",""26"",""369585""
","""event"",""trial"",""time""
""blur"",""2"",""7377""
""blur"",""7"",""80164""
""blur"",""7"",""89705""
""blur"",""13"",""167248""
""blur"",""14"",""171196""
""blur"",""19"",""213804""
""blur"",""19"",""217203""
""blur"",""19"",""259205""
""blur"",""26"",""340007""
""blur"",""26"",""355217""
""blur"",""26"",""363751""
","""event"",""trial"",""time""
""focus"",""2"",""12118""
""focus"",""7"",""84235""
""focus"",""7"",""90866""
""focus"",""13"",""170058""
""focus"",""14"",""174144""
""focus"",""19"",""215776""
""focus"",""19"",""220703""
""focus"",""19"",""260809""
""focus"",""26"",""344917""
""focus"",""26"",""362315""
""focus"",""26"",""369585""
","""event"",""trial"",""time""
""fullscreenenter"",""1"",""2524""
","
","","","-1","","","14","3038","1883","&#9826;","elianto","#f73b6a7A","-1","-1","1","0","[]","0","0","3","","","","","","","",""
"call-function","39","462980","0.0-2.0-15.0","battery-v0.2","","""event"",""trial"",""time""
""fullscreenenter"",""1"",""2524""
""blur"",""2"",""7377""
""focus"",""2"",""12118""
""blur"",""7"",""80164""
""focus"",""7"",""84235""
""blur"",""7"",""89705""
""focus"",""7"",""90866""
""blur"",""13"",""167248""
""focus"",""13"",""170058""
""blur"",""14"",""171196""
""focus"",""14"",""174144""
""blur"",""19"",""213804""
""focus"",""19"",""215776""
""blur"",""19"",""217203""
""focus"",""19"",""220703""
""blur"",""19"",""259205""
""focus"",""19"",""260809""
""blur"",""26"",""340007""
""focus"",""26"",""344917""
""blur"",""26"",""355217""
""focus"",""26"",""362315""
""blur"",""26"",""363751""
""focus"",""26"",""369585""
","""event"",""trial"",""time""
""blur"",""2"",""7377""
""blur"",""7"",""80164""
""blur"",""7"",""89705""
""blur"",""13"",""167248""
""blur"",""14"",""171196""
""blur"",""19"",""213804""
""blur"",""19"",""217203""
""blur"",""19"",""259205""
""blur"",""26"",""340007""
""blur"",""26"",""355217""
""blur"",""26"",""363751""
","""event"",""trial"",""time""
""focus"",""2"",""12118""
""focus"",""7"",""84235""
""focus"",""7"",""90866""
""focus"",""13"",""170058""
""focus"",""14"",""174144""
""focus"",""19"",""215776""
""focus"",""19"",""220703""
""focus"",""19"",""260809""
""focus"",""26"",""344917""
""focus"",""26"",""362315""
""focus"",""26"",""369585""
","""event"",""trial"",""time""
""fullscreenenter"",""1"",""2524""
","
","","","","","","","","","","","","","","","","","","","","","","","","","","",""
"pit-instructions","40","488148","0.0-2.0-16.0","battery-v0.2","","""event"",""trial"",""time""
""fullscreenenter"",""1"",""2524""
""blur"",""2"",""7377""
""focus"",""2"",""12118""
""blur"",""7"",""80164""
""focus"",""7"",""84235""
""blur"",""7"",""89705""
""focus"",""7"",""90866""
""blur"",""13"",""167248""
""focus"",""13"",""170058""
""blur"",""14"",""171196""
""focus"",""14"",""174144""
""blur"",""19"",""213804""
""focus"",""19"",""215776""
""blur"",""19"",""217203""
""focus"",""19"",""220703""
""blur"",""19"",""259205""
""focus"",""19"",""260809""
""blur"",""26"",""340007""
""focus"",""26"",""344917""
""blur"",""26"",""355217""
""focus"",""26"",""362315""
""blur"",""26"",""363751""
""focus"",""26"",""369585""
","""event"",""trial"",""time""
""blur"",""2"",""7377""
""blur"",""7"",""80164""
""blur"",""7"",""89705""
""blur"",""13"",""167248""
""blur"",""14"",""171196""
""blur"",""19"",""213804""
""blur"",""19"",""217203""
""blur"",""19"",""259205""
""blur"",""26"",""340007""
""blur"",""26"",""355217""
""blur"",""26"",""363751""
","""event"",""trial"",""time""
""focus"",""2"",""12118""
""focus"",""7"",""84235""
""focus"",""7"",""90866""
""focus"",""13"",""170058""
""focus"",""14"",""174144""
""focus"",""19"",""215776""
""focus"",""19"",""220703""
""focus"",""19"",""260809""
""focus"",""26"",""344917""
""focus"",""26"",""362315""
""focus"",""26"",""369585""
","""event"",""trial"",""time""
""fullscreenenter"",""1"",""2524""
","
","","[{""page_index"":0,""viewing_time"":6830.199999999255},{""page_index"":1,""viewing_time"":8488},{""page_index"":2,""viewing_time"":4961.89999999851},{""page_index"":3,""viewing_time"":4888.199999999255}]","25168.5","","","","","","","","","","","","","","","","","","","","","","","",""
"pit-trial","41","491195","0.0-2.0-17.0-0.0","battery-v0.2","","""event"",""trial"",""time""
""fullscreenenter"",""1"",""2524""
""blur"",""2"",""7377""
""focus"",""2"",""12118""
""blur"",""7"",""80164""
""focus"",""7"",""84235""
""blur"",""7"",""89705""
""focus"",""7"",""90866""
""blur"",""13"",""167248""
""focus"",""13"",""170058""
""blur"",""14"",""171196""
""focus"",""14"",""174144""
""blur"",""19"",""213804""
""focus"",""19"",""215776""
""blur"",""19"",""217203""
""focus"",""19"",""220703""
""blur"",""19"",""259205""
""focus"",""19"",""260809""
""blur"",""26"",""340007""
""focus"",""26"",""344917""
""blur"",""26"",""355217""
""focus"",""26"",""362315""
""blur"",""26"",""363751""
""focus"",""26"",""369585""
","""event"",""trial"",""time""
""blur"",""2"",""7377""
""blur"",""7"",""80164""
""blur"",""7"",""89705""
""blur"",""13"",""167248""
""blur"",""14"",""171196""
""blur"",""19"",""213804""
""blur"",""19"",""217203""
""blur"",""19"",""259205""
""blur"",""26"",""340007""
""blur"",""26"",""355217""
""blur"",""26"",""363751""
","""event"",""trial"",""time""
""focus"",""2"",""12118""
""focus"",""7"",""84235""
""focus"",""7"",""90866""
""focus"",""13"",""170058""
""focus"",""14"",""174144""
""focus"",""19"",""215776""
""focus"",""19"",""220703""
""focus"",""19"",""260809""
""focus"",""26"",""344917""
""focus"",""26"",""362315""
""focus"",""26"",""369585""
","""event"",""trial"",""time""
""fullscreenenter"",""1"",""2524""
","
","","","174.89999999850988","","","14","3038","1883","&#9789;","elianto","#f73b6a7A"," "," ","1","0","[1035.1000000014901]","1","0","4","","","","","","","",""
"pit-trial","42","494266","0.0-2.0-17.0-1.0","battery-v0.2","","""event"",""trial"",""time""
""fullscreenenter"",""1"",""2524""
""blur"",""2"",""7377""
""focus"",""2"",""12118""
""blur"",""7"",""80164""
""focus"",""7"",""84235""
""blur"",""7"",""89705""
""focus"",""7"",""90866""
""blur"",""13"",""167248""
""focus"",""13"",""170058""
""blur"",""14"",""171196""
""focus"",""14"",""174144""
""blur"",""19"",""213804""
""focus"",""19"",""215776""
""blur"",""19"",""217203""
""focus"",""19"",""220703""
""blur"",""19"",""259205""
""focus"",""19"",""260809""
""blur"",""26"",""340007""
""focus"",""26"",""344917""
""blur"",""26"",""355217""
""focus"",""26"",""362315""
""blur"",""26"",""363751""
""focus"",""26"",""369585""
","""event"",""trial"",""time""
""blur"",""2"",""7377""
""blur"",""7"",""80164""
""blur"",""7"",""89705""
""blur"",""13"",""167248""
""blur"",""14"",""171196""
""blur"",""19"",""213804""
""blur"",""19"",""217203""
""blur"",""19"",""259205""
""blur"",""26"",""340007""
""blur"",""26"",""355217""
""blur"",""26"",""363751""
","""event"",""trial"",""time""
""focus"",""2"",""12118""
""focus"",""7"",""84235""
""focus"",""7"",""90866""
""focus"",""13"",""170058""
""focus"",""14"",""174144""
""focus"",""19"",""215776""
""focus"",""19"",""220703""
""focus"",""19"",""260809""
""focus"",""26"",""344917""
""focus"",""26"",""362315""
""focus"",""26"",""369585""
","""event"",""trial"",""time""
""fullscreenenter"",""1"",""2524""
","
","","","201.60000000149012","","","14","3038","1883","&#9789;","elianto","#f73b6a7A"," "," ","1","0","[1054.8999999985099]","1","0","4","","","","","","","",""
"pit-trial","43","497273","0.0-2.0-17.0-2.0","battery-v0.2","","""event"",""trial"",""time""
""fullscreenenter"",""1"",""2524""
""blur"",""2"",""7377""
""focus"",""2"",""12118""
""blur"",""7"",""80164""
""focus"",""7"",""84235""
""blur"",""7"",""89705""
""focus"",""7"",""90866""
""blur"",""13"",""167248""
""focus"",""13"",""170058""
""blur"",""14"",""171196""
""focus"",""14"",""174144""
""blur"",""19"",""213804""
""focus"",""19"",""215776""
""blur"",""19"",""217203""
""focus"",""19"",""220703""
""blur"",""19"",""259205""
""focus"",""19"",""260809""
""blur"",""26"",""340007""
""focus"",""26"",""344917""
""blur"",""26"",""355217""
""focus"",""26"",""362315""
""blur"",""26"",""363751""
""focus"",""26"",""369585""
","""event"",""trial"",""time""
""blur"",""2"",""7377""
""blur"",""7"",""80164""
""blur"",""7"",""89705""
""blur"",""13"",""167248""
""blur"",""14"",""171196""
""blur"",""19"",""213804""
""blur"",""19"",""217203""
""blur"",""19"",""259205""
""blur"",""26"",""340007""
""blur"",""26"",""355217""
""blur"",""26"",""363751""
","""event"",""trial"",""time""
""focus"",""2"",""12118""
""focus"",""7"",""84235""
""focus"",""7"",""90866""
""focus"",""13"",""170058""
""focus"",""14"",""174144""
""focus"",""19"",""215776""
""focus"",""19"",""220703""
""focus"",""19"",""260809""
""focus"",""26"",""344917""
""focus"",""26"",""362315""
""focus"",""26"",""369585""
","""event"",""trial"",""time""
""fullscreenenter"",""1"",""2524""
","
","","","148.19999999925494","","","14","3038","1883","&#9789;","elianto","#f73b6a7A"," "," ","1","0","[1000.1999999992549]","1","0","4","","","","","","","",""
"pit-trial","44","500233","0.0-2.0-17.0-3.0","battery-v0.2","","""event"",""trial"",""time""
""fullscreenenter"",""1"",""2524""
""blur"",""2"",""7377""
""focus"",""2"",""12118""
""blur"",""7"",""80164""
""focus"",""7"",""84235""
""blur"",""7"",""89705""
""focus"",""7"",""90866""
""blur"",""13"",""167248""
""focus"",""13"",""170058""
""blur"",""14"",""171196""
""focus"",""14"",""174144""
""blur"",""19"",""213804""
""focus"",""19"",""215776""
""blur"",""19"",""217203""
""focus"",""19"",""220703""
""blur"",""19"",""259205""
""focus"",""19"",""260809""
""blur"",""26"",""340007""
""focus"",""26"",""344917""
""blur"",""26"",""355217""
""focus"",""26"",""362315""
""blur"",""26"",""363751""
""focus"",""26"",""369585""
","""event"",""trial"",""time""
""blur"",""2"",""7377""
""blur"",""7"",""80164""
""blur"",""7"",""89705""
""blur"",""13"",""167248""
""blur"",""14"",""171196""
""blur"",""19"",""213804""
""blur"",""19"",""217203""
""blur"",""19"",""259205""
""blur"",""26"",""340007""
""blur"",""26"",""355217""
""blur"",""26"",""363751""
","""event"",""trial"",""time""
""focus"",""2"",""12118""
""focus"",""7"",""84235""
""focus"",""7"",""90866""
""focus"",""13"",""170058""
""focus"",""14"",""174144""
""focus"",""19"",""215776""
""focus"",""19"",""220703""
""focus"",""19"",""260809""
""focus"",""26"",""344917""
""focus"",""26"",""362315""
""focus"",""26"",""369585""
","""event"",""trial"",""time""
""fullscreenenter"",""1"",""2524""
","
","","","98.69999999925494","","","14","3038","1883","&#9789;","elianto","#f73b6a7A"," "," ","1","-10","[950.1000000014901]","1","0","4","","","","","","","",""
"pit-trial","45","503505","0.0-2.0-17.0-4.0","battery-v0.2","","""event"",""trial"",""time""
""fullscreenenter"",""1"",""2524""
""blur"",""2"",""7377""
""focus"",""2"",""12118""
""blur"",""7"",""80164""
""focus"",""7"",""84235""
""blur"",""7"",""89705""
""focus"",""7"",""90866""
""blur"",""13"",""167248""
""focus"",""13"",""170058""
""blur"",""14"",""171196""
""focus"",""14"",""174144""
""blur"",""19"",""213804""
""focus"",""19"",""215776""
""blur"",""19"",""217203""
""focus"",""19"",""220703""
""blur"",""19"",""259205""
""focus"",""19"",""260809""
""blur"",""26"",""340007""
""focus"",""26"",""344917""
""blur"",""26"",""355217""
""focus"",""26"",""362315""
""blur"",""26"",""363751""
""focus"",""26"",""369585""
","""event"",""trial"",""time""
""blur"",""2"",""7377""
""blur"",""7"",""80164""
""blur"",""7"",""89705""
""blur"",""13"",""167248""
""blur"",""14"",""171196""
""blur"",""19"",""213804""
""blur"",""19"",""217203""
""blur"",""19"",""259205""
""blur"",""26"",""340007""
""blur"",""26"",""355217""
""blur"",""26"",""363751""
","""event"",""trial"",""time""
""focus"",""2"",""12118""
""focus"",""7"",""84235""
""focus"",""7"",""90866""
""focus"",""13"",""170058""
""focus"",""14"",""174144""
""focus"",""19"",""215776""
""focus"",""19"",""220703""
""focus"",""19"",""260809""
""focus"",""26"",""344917""
""focus"",""26"",""362315""
""focus"",""26"",""369585""
","""event"",""trial"",""time""
""fullscreenenter"",""1"",""2524""
","
","","","413.5","","","14","3038","1883","&#9789;","elianto","#f73b6a7A"," "," ","1","0","[1265.800000000745]","1","0","4","","","","","","","",""
"call-function","46","503506","0.0-2.0-18.0","battery-v0.2","","""event"",""trial"",""time""
""fullscreenenter"",""1"",""2524""
""blur"",""2"",""7377""
""focus"",""2"",""12118""
""blur"",""7"",""80164""
""focus"",""7"",""84235""
""blur"",""7"",""89705""
""focus"",""7"",""90866""
""blur"",""13"",""167248""
""focus"",""13"",""170058""
""blur"",""14"",""171196""
""focus"",""14"",""174144""
""blur"",""19"",""213804""
""focus"",""19"",""215776""
""blur"",""19"",""217203""
""focus"",""19"",""220703""
""blur"",""19"",""259205""
""focus"",""19"",""260809""
""blur"",""26"",""340007""
""focus"",""26"",""344917""
""blur"",""26"",""355217""
""focus"",""26"",""362315""
""blur"",""26"",""363751""
""focus"",""26"",""369585""
","""event"",""trial"",""time""
""blur"",""2"",""7377""
""blur"",""7"",""80164""
""blur"",""7"",""89705""
""blur"",""13"",""167248""
""blur"",""14"",""171196""
""blur"",""19"",""213804""
""blur"",""19"",""217203""
""blur"",""19"",""259205""
""blur"",""26"",""340007""
""blur"",""26"",""355217""
""blur"",""26"",""363751""
","""event"",""trial"",""time""
""focus"",""2"",""12118""
""focus"",""7"",""84235""
""focus"",""7"",""90866""
""focus"",""13"",""170058""
""focus"",""14"",""174144""
""focus"",""19"",""215776""
""focus"",""19"",""220703""
""focus"",""19"",""260809""
""focus"",""26"",""344917""
""focus"",""26"",""362315""
""focus"",""26"",""369585""
","""event"",""trial"",""time""
""fullscreenenter"",""1"",""2524""
","
","","","","","","","","","","","","","","","","","","","","","","","","","","",""
"pit-instructions","47","576115","0.0-2.0-19.0","battery-v0.2","","""event"",""trial"",""time""
""fullscreenenter"",""1"",""2524""
""blur"",""2"",""7377""
""focus"",""2"",""12118""
""blur"",""7"",""80164""
""focus"",""7"",""84235""
""blur"",""7"",""89705""
""focus"",""7"",""90866""
""blur"",""13"",""167248""
""focus"",""13"",""170058""
""blur"",""14"",""171196""
""focus"",""14"",""174144""
""blur"",""19"",""213804""
""focus"",""19"",""215776""
""blur"",""19"",""217203""
""focus"",""19"",""220703""
""blur"",""19"",""259205""
""focus"",""19"",""260809""
""blur"",""26"",""340007""
""focus"",""26"",""344917""
""blur"",""26"",""355217""
""focus"",""26"",""362315""
""blur"",""26"",""363751""
""focus"",""26"",""369585""
","""event"",""trial"",""time""
""blur"",""2"",""7377""
""blur"",""7"",""80164""
""blur"",""7"",""89705""
""blur"",""13"",""167248""
""blur"",""14"",""171196""
""blur"",""19"",""213804""
""blur"",""19"",""217203""
""blur"",""19"",""259205""
""blur"",""26"",""340007""
""blur"",""26"",""355217""
""blur"",""26"",""363751""
","""event"",""trial"",""time""
""focus"",""2"",""12118""
""focus"",""7"",""84235""
""focus"",""7"",""90866""
""focus"",""13"",""170058""
""focus"",""14"",""174144""
""focus"",""19"",""215776""
""focus"",""19"",""220703""
""focus"",""19"",""260809""
""focus"",""26"",""344917""
""focus"",""26"",""362315""
""focus"",""26"",""369585""
","""event"",""trial"",""time""
""fullscreenenter"",""1"",""2524""
","
","","[{""page_index"":0,""viewing_time"":7606.10000000149},{""page_index"":1,""viewing_time"":6995.800000000745},{""page_index"":2,""viewing_time"":13562.199999999255},{""page_index"":3,""viewing_time"":7337.099999997765},{""page_index"":4,""viewing_time"":8448.900000002235},{""page_index"":5,""viewing_time"":8061},{""page_index"":6,""viewing_time"":7966.099999997765},{""page_index"":7,""viewing_time"":6402.900000002235},{""page_index"":8,""viewing_time"":6229}]","72609.30000000075","","","","","","","","","","","","","","","","","","","","","","","",""
"pit-comprehension","48","580809","0.0-2.0-20.0-0.0","battery-v0.2","","""event"",""trial"",""time""
""fullscreenenter"",""1"",""2524""
""blur"",""2"",""7377""
""focus"",""2"",""12118""
""blur"",""7"",""80164""
""focus"",""7"",""84235""
""blur"",""7"",""89705""
""focus"",""7"",""90866""
""blur"",""13"",""167248""
""focus"",""13"",""170058""
""blur"",""14"",""171196""
""focus"",""14"",""174144""
""blur"",""19"",""213804""
""focus"",""19"",""215776""
""blur"",""19"",""217203""
""focus"",""19"",""220703""
""blur"",""19"",""259205""
""focus"",""19"",""260809""
""blur"",""26"",""340007""
""focus"",""26"",""344917""
""blur"",""26"",""355217""
""focus"",""26"",""362315""
""blur"",""26"",""363751""
""focus"",""26"",""369585""
","""event"",""trial"",""time""
""blur"",""2"",""7377""
""blur"",""7"",""80164""
""blur"",""7"",""89705""
""blur"",""13"",""167248""
""blur"",""14"",""171196""
""blur"",""19"",""213804""
""blur"",""19"",""217203""
""blur"",""19"",""259205""
""blur"",""26"",""340007""
""blur"",""26"",""355217""
""blur"",""26"",""363751""
","""event"",""trial"",""time""
""focus"",""2"",""12118""
""focus"",""7"",""84235""
""focus"",""7"",""90866""
""focus"",""13"",""170058""
""focus"",""14"",""174144""
""focus"",""19"",""215776""
""focus"",""19"",""220703""
""focus"",""19"",""260809""
""focus"",""26"",""344917""
""focus"",""26"",""362315""
""focus"",""26"",""369585""
","""event"",""trial"",""time""
""fullscreenenter"",""1"",""2524""
","
","","","4692.60000000149","[""SPACE""]","0","14","3038","1883","","","","","","","","","","","","","","","","","","",""
"pit-instructions","49","584340","0.0-2.0-20.0-1.0","battery-v0.2","","""event"",""trial"",""time""
""fullscreenenter"",""1"",""2524""
""blur"",""2"",""7377""
""focus"",""2"",""12118""
""blur"",""7"",""80164""
""focus"",""7"",""84235""
""blur"",""7"",""89705""
""focus"",""7"",""90866""
""blur"",""13"",""167248""
""focus"",""13"",""170058""
""blur"",""14"",""171196""
""focus"",""14"",""174144""
""blur"",""19"",""213804""
""focus"",""19"",""215776""
""blur"",""19"",""217203""
""focus"",""19"",""220703""
""blur"",""19"",""259205""
""focus"",""19"",""260809""
""blur"",""26"",""340007""
""focus"",""26"",""344917""
""blur"",""26"",""355217""
""focus"",""26"",""362315""
""blur"",""26"",""363751""
""focus"",""26"",""369585""
","""event"",""trial"",""time""
""blur"",""2"",""7377""
""blur"",""7"",""80164""
""blur"",""7"",""89705""
""blur"",""13"",""167248""
""blur"",""14"",""171196""
""blur"",""19"",""213804""
""blur"",""19"",""217203""
""blur"",""19"",""259205""
""blur"",""26"",""340007""
""blur"",""26"",""355217""
""blur"",""26"",""363751""
","""event"",""trial"",""time""
""focus"",""2"",""12118""
""focus"",""7"",""84235""
""focus"",""7"",""90866""
""focus"",""13"",""170058""
""focus"",""14"",""174144""
""focus"",""19"",""215776""
""focus"",""19"",""220703""
""focus"",""19"",""260809""
""focus"",""26"",""344917""
""focus"",""26"",""362315""
""focus"",""26"",""369585""
","""event"",""trial"",""time""
""fullscreenenter"",""1"",""2524""
","
","","[{""page_index"":0,""viewing_time"":3512.699999999255}]","3512.89999999851","","","","","","","","","","","","","","","","","","","","","","","",""
"pit-comprehension","50","589361","0.0-2.0-21.0-0.0","battery-v0.2","","""event"",""trial"",""time""
""fullscreenenter"",""1"",""2524""
""blur"",""2"",""7377""
""focus"",""2"",""12118""
""blur"",""7"",""80164""
""focus"",""7"",""84235""
""blur"",""7"",""89705""
""focus"",""7"",""90866""
""blur"",""13"",""167248""
""focus"",""13"",""170058""
""blur"",""14"",""171196""
""focus"",""14"",""174144""
""blur"",""19"",""213804""
""focus"",""19"",""215776""
""blur"",""19"",""217203""
""focus"",""19"",""220703""
""blur"",""19"",""259205""
""focus"",""19"",""260809""
""blur"",""26"",""340007""
""focus"",""26"",""344917""
""blur"",""26"",""355217""
""focus"",""26"",""362315""
""blur"",""26"",""363751""
""focus"",""26"",""369585""
","""event"",""trial"",""time""
""blur"",""2"",""7377""
""blur"",""7"",""80164""
""blur"",""7"",""89705""
""blur"",""13"",""167248""
""blur"",""14"",""171196""
""blur"",""19"",""213804""
""blur"",""19"",""217203""
""blur"",""19"",""259205""
""blur"",""26"",""340007""
""blur"",""26"",""355217""
""blur"",""26"",""363751""
","""event"",""trial"",""time""
""focus"",""2"",""12118""
""focus"",""7"",""84235""
""focus"",""7"",""90866""
""focus"",""13"",""170058""
""focus"",""14"",""174144""
""focus"",""19"",""215776""
""focus"",""19"",""220703""
""focus"",""19"",""260809""
""focus"",""26"",""344917""
""focus"",""26"",""362315""
""focus"",""26"",""369585""
","""event"",""trial"",""time""
""fullscreenenter"",""1"",""2524""
","
","","","5019.300000000745","[""10""]","0","14","3038","1883","","","","","","","","","","","","","","","","","","",""
"pit-instructions","51","592299","0.0-2.0-21.0-1.0","battery-v0.2","","""event"",""trial"",""time""
""fullscreenenter"",""1"",""2524""
""blur"",""2"",""7377""
""focus"",""2"",""12118""
""blur"",""7"",""80164""
""focus"",""7"",""84235""
""blur"",""7"",""89705""
""focus"",""7"",""90866""
""blur"",""13"",""167248""
""focus"",""13"",""170058""
""blur"",""14"",""171196""
""focus"",""14"",""174144""
""blur"",""19"",""213804""
""focus"",""19"",""215776""
""blur"",""19"",""217203""
""focus"",""19"",""220703""
""blur"",""19"",""259205""
""focus"",""19"",""260809""
""blur"",""26"",""340007""
""focus"",""26"",""344917""
""blur"",""26"",""355217""
""focus"",""26"",""362315""
""blur"",""26"",""363751""
""focus"",""26"",""369585""
","""event"",""trial"",""time""
""blur"",""2"",""7377""
""blur"",""7"",""80164""
""blur"",""7"",""89705""
""blur"",""13"",""167248""
""blur"",""14"",""171196""
""blur"",""19"",""213804""
""blur"",""19"",""217203""
""blur"",""19"",""259205""
""blur"",""26"",""340007""
""blur"",""26"",""355217""
""blur"",""26"",""363751""
","""event"",""trial"",""time""
""focus"",""2"",""12118""
""focus"",""7"",""84235""
""focus"",""7"",""90866""
""focus"",""13"",""170058""
""focus"",""14"",""174144""
""focus"",""19"",""215776""
""focus"",""19"",""220703""
""focus"",""19"",""260809""
""focus"",""26"",""344917""
""focus"",""26"",""362315""
""focus"",""26"",""369585""
","""event"",""trial"",""time""
""fullscreenenter"",""1"",""2524""
","
","","[{""page_index"":0,""viewing_time"":2922.599999997765}]","2922.699999999255","","","","","","","","","","","","","","","","","","","","","","","",""
"pit-comprehension","52","598765","0.0-2.0-22.0-0.0","battery-v0.2","","""event"",""trial"",""time""
""fullscreenenter"",""1"",""2524""
""blur"",""2"",""7377""
""focus"",""2"",""12118""
""blur"",""7"",""80164""
""focus"",""7"",""84235""
""blur"",""7"",""89705""
""focus"",""7"",""90866""
""blur"",""13"",""167248""
""focus"",""13"",""170058""
""blur"",""14"",""171196""
""focus"",""14"",""174144""
""blur"",""19"",""213804""
""focus"",""19"",""215776""
""blur"",""19"",""217203""
""focus"",""19"",""220703""
""blur"",""19"",""259205""
""focus"",""19"",""260809""
""blur"",""26"",""340007""
""focus"",""26"",""344917""
""blur"",""26"",""355217""
""focus"",""26"",""362315""
""blur"",""26"",""363751""
""focus"",""26"",""369585""
","""event"",""trial"",""time""
""blur"",""2"",""7377""
""blur"",""7"",""80164""
""blur"",""7"",""89705""
""blur"",""13"",""167248""
""blur"",""14"",""171196""
""blur"",""19"",""213804""
""blur"",""19"",""217203""
""blur"",""19"",""259205""
""blur"",""26"",""340007""
""blur"",""26"",""355217""
""blur"",""26"",""363751""
","""event"",""trial"",""time""
""focus"",""2"",""12118""
""focus"",""7"",""84235""
""focus"",""7"",""90866""
""focus"",""13"",""170058""
""focus"",""14"",""174144""
""focus"",""19"",""215776""
""focus"",""19"",""220703""
""focus"",""19"",""260809""
""focus"",""26"",""344917""
""focus"",""26"",""362315""
""focus"",""26"",""369585""
","""event"",""trial"",""time""
""fullscreenenter"",""1"",""2524""
","
","","","6464.5","[""0""]","0","14","3038","1883","","","","","","","","","","","","","","","","","","",""
"pit-instructions","53","601927","0.0-2.0-22.0-1.0","battery-v0.2","","""event"",""trial"",""time""
""fullscreenenter"",""1"",""2524""
""blur"",""2"",""7377""
""focus"",""2"",""12118""
""blur"",""7"",""80164""
""focus"",""7"",""84235""
""blur"",""7"",""89705""
""focus"",""7"",""90866""
""blur"",""13"",""167248""
""focus"",""13"",""170058""
""blur"",""14"",""171196""
""focus"",""14"",""174144""
""blur"",""19"",""213804""
""focus"",""19"",""215776""
""blur"",""19"",""217203""
""focus"",""19"",""220703""
""blur"",""19"",""259205""
""focus"",""19"",""260809""
""blur"",""26"",""340007""
""focus"",""26"",""344917""
""blur"",""26"",""355217""
""focus"",""26"",""362315""
""blur"",""26"",""363751""
""focus"",""26"",""369585""
","""event"",""trial"",""time""
""blur"",""2"",""7377""
""blur"",""7"",""80164""
""blur"",""7"",""89705""
""blur"",""13"",""167248""
""blur"",""14"",""171196""
""blur"",""19"",""213804""
""blur"",""19"",""217203""
""blur"",""19"",""259205""
""blur"",""26"",""340007""
""blur"",""26"",""355217""
""blur"",""26"",""363751""
","""event"",""trial"",""time""
""focus"",""2"",""12118""
""focus"",""7"",""84235""
""focus"",""7"",""90866""
""focus"",""13"",""170058""
""focus"",""14"",""174144""
""focus"",""19"",""215776""
""focus"",""19"",""220703""
""focus"",""19"",""260809""
""focus"",""26"",""344917""
""focus"",""26"",""362315""
""focus"",""26"",""369585""
","""event"",""trial"",""time""
""fullscreenenter"",""1"",""2524""
","
","","[{""page_index"":0,""viewing_time"":3146.199999999255}]","3146.300000000745","","","","","","","","","","","","","","","","","","","","","","","",""
"pit-comprehension","54","610703","0.0-2.0-23.0-0.0","battery-v0.2","","""event"",""trial"",""time""
""fullscreenenter"",""1"",""2524""
""blur"",""2"",""7377""
""focus"",""2"",""12118""
""blur"",""7"",""80164""
""focus"",""7"",""84235""
""blur"",""7"",""89705""
""focus"",""7"",""90866""
""blur"",""13"",""167248""
""focus"",""13"",""170058""
""blur"",""14"",""171196""
""focus"",""14"",""174144""
""blur"",""19"",""213804""
""focus"",""19"",""215776""
""blur"",""19"",""217203""
""focus"",""19"",""220703""
""blur"",""19"",""259205""
""focus"",""19"",""260809""
""blur"",""26"",""340007""
""focus"",""26"",""344917""
""blur"",""26"",""355217""
""focus"",""26"",""362315""
""blur"",""26"",""363751""
""focus"",""26"",""369585""
","""event"",""trial"",""time""
""blur"",""2"",""7377""
""blur"",""7"",""80164""
""blur"",""7"",""89705""
""blur"",""13"",""167248""
""blur"",""14"",""171196""
""blur"",""19"",""213804""
""blur"",""19"",""217203""
""blur"",""19"",""259205""
""blur"",""26"",""340007""
""blur"",""26"",""355217""
""blur"",""26"",""363751""
","""event"",""trial"",""time""
""focus"",""2"",""12118""
""focus"",""7"",""84235""
""focus"",""7"",""90866""
""focus"",""13"",""170058""
""focus"",""14"",""174144""
""focus"",""19"",""215776""
""focus"",""19"",""220703""
""focus"",""19"",""260809""
""focus"",""26"",""344917""
""focus"",""26"",""362315""
""focus"",""26"",""369585""
","""event"",""trial"",""time""
""fullscreenenter"",""1"",""2524""
","
","","","8774.699999999255","[""True""]","0","14","3038","1883","","","","","","","","","","","","","","","","","","",""
"pit-instructions","55","612988","0.0-2.0-23.0-1.0","battery-v0.2","","""event"",""trial"",""time""
""fullscreenenter"",""1"",""2524""
""blur"",""2"",""7377""
""focus"",""2"",""12118""
""blur"",""7"",""80164""
""focus"",""7"",""84235""
""blur"",""7"",""89705""
""focus"",""7"",""90866""
""blur"",""13"",""167248""
""focus"",""13"",""170058""
""blur"",""14"",""171196""
""focus"",""14"",""174144""
""blur"",""19"",""213804""
""focus"",""19"",""215776""
""blur"",""19"",""217203""
""focus"",""19"",""220703""
""blur"",""19"",""259205""
""focus"",""19"",""260809""
""blur"",""26"",""340007""
""focus"",""26"",""344917""
""blur"",""26"",""355217""
""focus"",""26"",""362315""
""blur"",""26"",""363751""
""focus"",""26"",""369585""
","""event"",""trial"",""time""
""blur"",""2"",""7377""
""blur"",""7"",""80164""
""blur"",""7"",""89705""
""blur"",""13"",""167248""
""blur"",""14"",""171196""
""blur"",""19"",""213804""
""blur"",""19"",""217203""
""blur"",""19"",""259205""
""blur"",""26"",""340007""
""blur"",""26"",""355217""
""blur"",""26"",""363751""
","""event"",""trial"",""time""
""focus"",""2"",""12118""
""focus"",""7"",""84235""
""focus"",""7"",""90866""
""focus"",""13"",""170058""
""focus"",""14"",""174144""
""focus"",""19"",""215776""
""focus"",""19"",""220703""
""focus"",""19"",""260809""
""focus"",""26"",""344917""
""focus"",""26"",""362315""
""focus"",""26"",""369585""
","""event"",""trial"",""time""
""fullscreenenter"",""1"",""2524""
","
","","[{""page_index"":0,""viewing_time"":2268.699999999255}]","2268.89999999851","","","","","","","","","","","","","","","","","","","","","","","",""
"pit-comprehension","56","622496","0.0-2.0-24.0-0.0","battery-v0.2","","""event"",""trial"",""time""
""fullscreenenter"",""1"",""2524""
""blur"",""2"",""7377""
""focus"",""2"",""12118""
""blur"",""7"",""80164""
""focus"",""7"",""84235""
""blur"",""7"",""89705""
""focus"",""7"",""90866""
""blur"",""13"",""167248""
""focus"",""13"",""170058""
""blur"",""14"",""171196""
""focus"",""14"",""174144""
""blur"",""19"",""213804""
""focus"",""19"",""215776""
""blur"",""19"",""217203""
""focus"",""19"",""220703""
""blur"",""19"",""259205""
""focus"",""19"",""260809""
""blur"",""26"",""340007""
""focus"",""26"",""344917""
""blur"",""26"",""355217""
""focus"",""26"",""362315""
""blur"",""26"",""363751""
""focus"",""26"",""369585""
","""event"",""trial"",""time""
""blur"",""2"",""7377""
""blur"",""7"",""80164""
""blur"",""7"",""89705""
""blur"",""13"",""167248""
""blur"",""14"",""171196""
""blur"",""19"",""213804""
""blur"",""19"",""217203""
""blur"",""19"",""259205""
""blur"",""26"",""340007""
""blur"",""26"",""355217""
""blur"",""26"",""363751""
","""event"",""trial"",""time""
""focus"",""2"",""12118""
""focus"",""7"",""84235""
""focus"",""7"",""90866""
""focus"",""13"",""170058""
""focus"",""14"",""174144""
""focus"",""19"",""215776""
""focus"",""19"",""220703""
""focus"",""19"",""260809""
""focus"",""26"",""344917""
""focus"",""26"",""362315""
""focus"",""26"",""369585""
","""event"",""trial"",""time""
""fullscreenenter"",""1"",""2524""
","
","","","9506.39999999851","[""True""]","0","14","3038","1883","","","","","","","","","","","","","","","","","","",""
"pit-instructions","57","624072","0.0-2.0-24.0-1.0","battery-v0.2","","""event"",""trial"",""time""
""fullscreenenter"",""1"",""2524""
""blur"",""2"",""7377""
""focus"",""2"",""12118""
""blur"",""7"",""80164""
""focus"",""7"",""84235""
""blur"",""7"",""89705""
""focus"",""7"",""90866""
""blur"",""13"",""167248""
""focus"",""13"",""170058""
""blur"",""14"",""171196""
""focus"",""14"",""174144""
""blur"",""19"",""213804""
""focus"",""19"",""215776""
""blur"",""19"",""217203""
""focus"",""19"",""220703""
""blur"",""19"",""259205""
""focus"",""19"",""260809""
""blur"",""26"",""340007""
""focus"",""26"",""344917""
""blur"",""26"",""355217""
""focus"",""26"",""362315""
""blur"",""26"",""363751""
""focus"",""26"",""369585""
","""event"",""trial"",""time""
""blur"",""2"",""7377""
""blur"",""7"",""80164""
""blur"",""7"",""89705""
""blur"",""13"",""167248""
""blur"",""14"",""171196""
""blur"",""19"",""213804""
""blur"",""19"",""217203""
""blur"",""19"",""259205""
""blur"",""26"",""340007""
""blur"",""26"",""355217""
""blur"",""26"",""363751""
","""event"",""trial"",""time""
""focus"",""2"",""12118""
""focus"",""7"",""84235""
""focus"",""7"",""90866""
""focus"",""13"",""170058""
""focus"",""14"",""174144""
""focus"",""19"",""215776""
""focus"",""19"",""220703""
""focus"",""19"",""260809""
""focus"",""26"",""344917""
""focus"",""26"",""362315""
""focus"",""26"",""369585""
","""event"",""trial"",""time""
""fullscreenenter"",""1"",""2524""
","
","","[{""page_index"":0,""viewing_time"":1557.6000000014901}]","1557.800000000745","","","","","","","","","","","","","","","","","","","","","","","",""
"pit-comprehension","58","630776","0.0-2.0-25.0-0.0","battery-v0.2","","""event"",""trial"",""time""
""fullscreenenter"",""1"",""2524""
""blur"",""2"",""7377""
""focus"",""2"",""12118""
""blur"",""7"",""80164""
""focus"",""7"",""84235""
""blur"",""7"",""89705""
""focus"",""7"",""90866""
""blur"",""13"",""167248""
""focus"",""13"",""170058""
""blur"",""14"",""171196""
""focus"",""14"",""174144""
""blur"",""19"",""213804""
""focus"",""19"",""215776""
""blur"",""19"",""217203""
""focus"",""19"",""220703""
""blur"",""19"",""259205""
""focus"",""19"",""260809""
""blur"",""26"",""340007""
""focus"",""26"",""344917""
""blur"",""26"",""355217""
""focus"",""26"",""362315""
""blur"",""26"",""363751""
""focus"",""26"",""369585""
","""event"",""trial"",""time""
""blur"",""2"",""7377""
""blur"",""7"",""80164""
""blur"",""7"",""89705""
""blur"",""13"",""167248""
""blur"",""14"",""171196""
""blur"",""19"",""213804""
""blur"",""19"",""217203""
""blur"",""19"",""259205""
""blur"",""26"",""340007""
""blur"",""26"",""355217""
""blur"",""26"",""363751""
","""event"",""trial"",""time""
""focus"",""2"",""12118""
""focus"",""7"",""84235""
""focus"",""7"",""90866""
""focus"",""13"",""170058""
""focus"",""14"",""174144""
""focus"",""19"",""215776""
""focus"",""19"",""220703""
""focus"",""19"",""260809""
""focus"",""26"",""344917""
""focus"",""26"",""362315""
""focus"",""26"",""369585""
","""event"",""trial"",""time""
""fullscreenenter"",""1"",""2524""
","
","","","6702.60000000149","[""True""]","0","14","3038","1883","","","","","","","","","","","","","","","","","","",""
"pit-instructions","59","632472","0.0-2.0-25.0-1.0","battery-v0.2","","""event"",""trial"",""time""
""fullscreenenter"",""1"",""2524""
""blur"",""2"",""7377""
""focus"",""2"",""12118""
""blur"",""7"",""80164""
""focus"",""7"",""84235""
""blur"",""7"",""89705""
""focus"",""7"",""90866""
""blur"",""13"",""167248""
""focus"",""13"",""170058""
""blur"",""14"",""171196""
""focus"",""14"",""174144""
""blur"",""19"",""213804""
""focus"",""19"",""215776""
""blur"",""19"",""217203""
""focus"",""19"",""220703""
""blur"",""19"",""259205""
""focus"",""19"",""260809""
""blur"",""26"",""340007""
""focus"",""26"",""344917""
""blur"",""26"",""355217""
""focus"",""26"",""362315""
""blur"",""26"",""363751""
""focus"",""26"",""369585""
","""event"",""trial"",""time""
""blur"",""2"",""7377""
""blur"",""7"",""80164""
""blur"",""7"",""89705""
""blur"",""13"",""167248""
""blur"",""14"",""171196""
""blur"",""19"",""213804""
""blur"",""19"",""217203""
""blur"",""19"",""259205""
""blur"",""26"",""340007""
""blur"",""26"",""355217""
""blur"",""26"",""363751""
","""event"",""trial"",""time""
""focus"",""2"",""12118""
""focus"",""7"",""84235""
""focus"",""7"",""90866""
""focus"",""13"",""170058""
""focus"",""14"",""174144""
""focus"",""19"",""215776""
""focus"",""19"",""220703""
""focus"",""19"",""260809""
""focus"",""26"",""344917""
""focus"",""26"",""362315""
""focus"",""26"",""369585""
","""event"",""trial"",""time""
""fullscreenenter"",""1"",""2524""
","
","","[{""page_index"":0,""viewing_time"":1678.800000000745}]","1679","","","","","","","","","","","","","","","","","","","","","","","",""
"pit-comprehension","60","639452","0.0-2.0-26.0-0.0","battery-v0.2","","""event"",""trial"",""time""
""fullscreenenter"",""1"",""2524""
""blur"",""2"",""7377""
""focus"",""2"",""12118""
""blur"",""7"",""80164""
""focus"",""7"",""84235""
""blur"",""7"",""89705""
""focus"",""7"",""90866""
""blur"",""13"",""167248""
""focus"",""13"",""170058""
""blur"",""14"",""171196""
""focus"",""14"",""174144""
""blur"",""19"",""213804""
""focus"",""19"",""215776""
""blur"",""19"",""217203""
""focus"",""19"",""220703""
""blur"",""19"",""259205""
""focus"",""19"",""260809""
""blur"",""26"",""340007""
""focus"",""26"",""344917""
""blur"",""26"",""355217""
""focus"",""26"",""362315""
""blur"",""26"",""363751""
""focus"",""26"",""369585""
","""event"",""trial"",""time""
""blur"",""2"",""7377""
""blur"",""7"",""80164""
""blur"",""7"",""89705""
""blur"",""13"",""167248""
""blur"",""14"",""171196""
""blur"",""19"",""213804""
""blur"",""19"",""217203""
""blur"",""19"",""259205""
""blur"",""26"",""340007""
""blur"",""26"",""355217""
""blur"",""26"",""363751""
","""event"",""trial"",""time""
""focus"",""2"",""12118""
""focus"",""7"",""84235""
""focus"",""7"",""90866""
""focus"",""13"",""170058""
""focus"",""14"",""174144""
""focus"",""19"",""215776""
""focus"",""19"",""220703""
""focus"",""19"",""260809""
""focus"",""26"",""344917""
""focus"",""26"",""362315""
""focus"",""26"",""369585""
","""event"",""trial"",""time""
""fullscreenenter"",""1"",""2524""
","
","","","6978.5","[""False""]","0","14","3038","1883","","","","","","","","","","","","","","","","","","",""
"pit-instructions","61","641010","0.0-2.0-26.0-1.0","battery-v0.2","","""event"",""trial"",""time""
""fullscreenenter"",""1"",""2524""
""blur"",""2"",""7377""
""focus"",""2"",""12118""
""blur"",""7"",""80164""
""focus"",""7"",""84235""
""blur"",""7"",""89705""
""focus"",""7"",""90866""
""blur"",""13"",""167248""
""focus"",""13"",""170058""
""blur"",""14"",""171196""
""focus"",""14"",""174144""
""blur"",""19"",""213804""
""focus"",""19"",""215776""
""blur"",""19"",""217203""
""focus"",""19"",""220703""
""blur"",""19"",""259205""
""focus"",""19"",""260809""
""blur"",""26"",""340007""
""focus"",""26"",""344917""
""blur"",""26"",""355217""
""focus"",""26"",""362315""
""blur"",""26"",""363751""
""focus"",""26"",""369585""
","""event"",""trial"",""time""
""blur"",""2"",""7377""
""blur"",""7"",""80164""
""blur"",""7"",""89705""
""blur"",""13"",""167248""
""blur"",""14"",""171196""
""blur"",""19"",""213804""
""blur"",""19"",""217203""
""blur"",""19"",""259205""
""blur"",""26"",""340007""
""blur"",""26"",""355217""
""blur"",""26"",""363751""
","""event"",""trial"",""time""
""focus"",""2"",""12118""
""focus"",""7"",""84235""
""focus"",""7"",""90866""
""focus"",""13"",""170058""
""focus"",""14"",""174144""
""focus"",""19"",""215776""
""focus"",""19"",""220703""
""focus"",""19"",""260809""
""focus"",""26"",""344917""
""focus"",""26"",""362315""
""focus"",""26"",""369585""
","""event"",""trial"",""time""
""fullscreenenter"",""1"",""2524""
","
","","[{""page_index"":0,""viewing_time"":1539.800000000745}]","1539.8999999985099","","","","","","","","","","","","","","","","","","","","","","","",""
"pit-instructions","62","661654","0.0-3.0","battery-v0.2","","""event"",""trial"",""time""
""fullscreenenter"",""1"",""2524""
""blur"",""2"",""7377""
""focus"",""2"",""12118""
""blur"",""7"",""80164""
""focus"",""7"",""84235""
""blur"",""7"",""89705""
""focus"",""7"",""90866""
""blur"",""13"",""167248""
""focus"",""13"",""170058""
""blur"",""14"",""171196""
""focus"",""14"",""174144""
""blur"",""19"",""213804""
""focus"",""19"",""215776""
""blur"",""19"",""217203""
""focus"",""19"",""220703""
""blur"",""19"",""259205""
""focus"",""19"",""260809""
""blur"",""26"",""340007""
""focus"",""26"",""344917""
""blur"",""26"",""355217""
""focus"",""26"",""362315""
""blur"",""26"",""363751""
""focus"",""26"",""369585""
","""event"",""trial"",""time""
""blur"",""2"",""7377""
""blur"",""7"",""80164""
""blur"",""7"",""89705""
""blur"",""13"",""167248""
""blur"",""14"",""171196""
""blur"",""19"",""213804""
""blur"",""19"",""217203""
""blur"",""19"",""259205""
""blur"",""26"",""340007""
""blur"",""26"",""355217""
""blur"",""26"",""363751""
","""event"",""trial"",""time""
""focus"",""2"",""12118""
""focus"",""7"",""84235""
""focus"",""7"",""90866""
""focus"",""13"",""170058""
""focus"",""14"",""174144""
""focus"",""19"",""215776""
""focus"",""19"",""220703""
""focus"",""19"",""260809""
""focus"",""26"",""344917""
""focus"",""26"",""362315""
""focus"",""26"",""369585""
","""event"",""trial"",""time""
""fullscreenenter"",""1"",""2524""
","
","","[{""page_index"":0,""viewing_time"":5637},{""page_index"":1,""viewing_time"":7579.800000000745},{""page_index"":2,""viewing_time"":7426}]","20643","","","","","","","","","","","","","","","","","","","","","","","",""
"pit-trial","63","665322","0.0-4.0","battery-v0.2","","""event"",""trial"",""time""
""fullscreenenter"",""1"",""2524""
""blur"",""2"",""7377""
""focus"",""2"",""12118""
""blur"",""7"",""80164""
""focus"",""7"",""84235""
""blur"",""7"",""89705""
""focus"",""7"",""90866""
""blur"",""13"",""167248""
""focus"",""13"",""170058""
""blur"",""14"",""171196""
""focus"",""14"",""174144""
""blur"",""19"",""213804""
""focus"",""19"",""215776""
""blur"",""19"",""217203""
""focus"",""19"",""220703""
""blur"",""19"",""259205""
""focus"",""19"",""260809""
""blur"",""26"",""340007""
""focus"",""26"",""344917""
""blur"",""26"",""355217""
""focus"",""26"",""362315""
""blur"",""26"",""363751""
""focus"",""26"",""369585""
","""event"",""trial"",""time""
""blur"",""2"",""7377""
""blur"",""7"",""80164""
""blur"",""7"",""89705""
""blur"",""13"",""167248""
""blur"",""14"",""171196""
""blur"",""19"",""213804""
""blur"",""19"",""217203""
""blur"",""19"",""259205""
""blur"",""26"",""340007""
""blur"",""26"",""355217""
""blur"",""26"",""363751""
","""event"",""trial"",""time""
""focus"",""2"",""12118""
""focus"",""7"",""84235""
""focus"",""7"",""90866""
""focus"",""13"",""170058""
""focus"",""14"",""174144""
""focus"",""19"",""215776""
""focus"",""19"",""220703""
""focus"",""19"",""260809""
""focus"",""26"",""344917""
""focus"",""26"",""362315""
""focus"",""26"",""369585""
","""event"",""trial"",""time""
""fullscreenenter"",""1"",""2524""
","
","","","801.8999999985099","","","14","3038","1883","&#9730;","elianto","#3366ff99"," "," ","1","+10","[1653.4000000022352]","1","1","","","3038","1","1","1","win","go","0"
"pit-trial","64","670176","0.0-5.0","battery-v0.2","","""event"",""trial"",""time""
""fullscreenenter"",""1"",""2524""
""blur"",""2"",""7377""
""focus"",""2"",""12118""
""blur"",""7"",""80164""
""focus"",""7"",""84235""
""blur"",""7"",""89705""
""focus"",""7"",""90866""
""blur"",""13"",""167248""
""focus"",""13"",""170058""
""blur"",""14"",""171196""
""focus"",""14"",""174144""
""blur"",""19"",""213804""
""focus"",""19"",""215776""
""blur"",""19"",""217203""
""focus"",""19"",""220703""
""blur"",""19"",""259205""
""focus"",""19"",""260809""
""blur"",""26"",""340007""
""focus"",""26"",""344917""
""blur"",""26"",""355217""
""focus"",""26"",""362315""
""blur"",""26"",""363751""
""focus"",""26"",""369585""
","""event"",""trial"",""time""
""blur"",""2"",""7377""
""blur"",""7"",""80164""
""blur"",""7"",""89705""
""blur"",""13"",""167248""
""blur"",""14"",""171196""
""blur"",""19"",""213804""
""blur"",""19"",""217203""
""blur"",""19"",""259205""
""blur"",""26"",""340007""
""blur"",""26"",""355217""
""blur"",""26"",""363751""
","""event"",""trial"",""time""
""focus"",""2"",""12118""
""focus"",""7"",""84235""
""focus"",""7"",""90866""
""focus"",""13"",""170058""
""focus"",""14"",""174144""
""focus"",""19"",""215776""
""focus"",""19"",""220703""
""focus"",""19"",""260809""
""focus"",""26"",""344917""
""focus"",""26"",""362315""
""focus"",""26"",""369585""
","""event"",""trial"",""time""
""fullscreenenter"",""1"",""2524""
","
","","","-1","","","14","3038","1883","&#9752;","elianto","#f73b6a7A"," ","-1","0","0","[]","0","1","","","3038","2","3","3","lose","go","1"
"pit-trial","65","675041","0.0-6.0","battery-v0.2","","""event"",""trial"",""time""
""fullscreenenter"",""1"",""2524""
""blur"",""2"",""7377""
""focus"",""2"",""12118""
""blur"",""7"",""80164""
""focus"",""7"",""84235""
""blur"",""7"",""89705""
""focus"",""7"",""90866""
""blur"",""13"",""167248""
""focus"",""13"",""170058""
""blur"",""14"",""171196""
""focus"",""14"",""174144""
""blur"",""19"",""213804""
""focus"",""19"",""215776""
""blur"",""19"",""217203""
""focus"",""19"",""220703""
""blur"",""19"",""259205""
""focus"",""19"",""260809""
""blur"",""26"",""340007""
""focus"",""26"",""344917""
""blur"",""26"",""355217""
""focus"",""26"",""362315""
""blur"",""26"",""363751""
""focus"",""26"",""369585""
","""event"",""trial"",""time""
""blur"",""2"",""7377""
""blur"",""7"",""80164""
""blur"",""7"",""89705""
""blur"",""13"",""167248""
""blur"",""14"",""171196""
""blur"",""19"",""213804""
""blur"",""19"",""217203""
""blur"",""19"",""259205""
""blur"",""26"",""340007""
""blur"",""26"",""355217""
""blur"",""26"",""363751""
","""event"",""trial"",""time""
""focus"",""2"",""12118""
""focus"",""7"",""84235""
""focus"",""7"",""90866""
""focus"",""13"",""170058""
""focus"",""14"",""174144""
""focus"",""19"",""215776""
""focus"",""19"",""220703""
""focus"",""19"",""260809""
""focus"",""26"",""344917""
""focus"",""26"",""362315""
""focus"",""26"",""369585""
","""event"",""trial"",""time""
""fullscreenenter"",""1"",""2524""
","
","","","-1","","","14","3038","1883","&#9733;","elianto","#3366ff99","-1","-1","1","+10","[]","0","1","","","3038","3","2","2","win","no-go","0"
"pit-trial","66","679119","0.0-7.0","battery-v0.2","","""event"",""trial"",""time""
""fullscreenenter"",""1"",""2524""
""blur"",""2"",""7377""
""focus"",""2"",""12118""
""blur"",""7"",""80164""
""focus"",""7"",""84235""
""blur"",""7"",""89705""
""focus"",""7"",""90866""
""blur"",""13"",""167248""
""focus"",""13"",""170058""
""blur"",""14"",""171196""
""focus"",""14"",""174144""
""blur"",""19"",""213804""
""focus"",""19"",""215776""
""blur"",""19"",""217203""
""focus"",""19"",""220703""
""blur"",""19"",""259205""
""focus"",""19"",""260809""
""blur"",""26"",""340007""
""focus"",""26"",""344917""
""blur"",""26"",""355217""
""focus"",""26"",""362315""
""blur"",""26"",""363751""
""focus"",""26"",""369585""
","""event"",""trial"",""time""
""blur"",""2"",""7377""
""blur"",""7"",""80164""
""blur"",""7"",""89705""
""blur"",""13"",""167248""
""blur"",""14"",""171196""
""blur"",""19"",""213804""
""blur"",""19"",""217203""
""blur"",""19"",""259205""
""blur"",""26"",""340007""
""blur"",""26"",""355217""
""blur"",""26"",""363751""
","""event"",""trial"",""time""
""focus"",""2"",""12118""
""focus"",""7"",""84235""
""focus"",""7"",""90866""
""focus"",""13"",""170058""
""focus"",""14"",""174144""
""focus"",""19"",""215776""
""focus"",""19"",""220703""
""focus"",""19"",""260809""
""focus"",""26"",""344917""
""focus"",""26"",""362315""
""focus"",""26"",""369585""
","""event"",""trial"",""time""
""fullscreenenter"",""1"",""2524""
","
","","","1222.300000000745","","","14","3038","1883","&#9728;","elianto","#f73b6a7A","-1"," ","0","-10","[2073.60000000149]","1","1","","","3038","4","0","4","lose","no-go","0"
"pit-trial","67","683973","0.0-8.0","battery-v0.2","","""event"",""trial"",""time""
""fullscreenenter"",""1"",""2524""
""blur"",""2"",""7377""
""focus"",""2"",""12118""
""blur"",""7"",""80164""
""focus"",""7"",""84235""
""blur"",""7"",""89705""
""focus"",""7"",""90866""
""blur"",""13"",""167248""
""focus"",""13"",""170058""
""blur"",""14"",""171196""
""focus"",""14"",""174144""
""blur"",""19"",""213804""
""focus"",""19"",""215776""
""blur"",""19"",""217203""
""focus"",""19"",""220703""
""blur"",""19"",""259205""
""focus"",""19"",""260809""
""blur"",""26"",""340007""
""focus"",""26"",""344917""
""blur"",""26"",""355217""
""focus"",""26"",""362315""
""blur"",""26"",""363751""
""focus"",""26"",""369585""
","""event"",""trial"",""time""
""blur"",""2"",""7377""
""blur"",""7"",""80164""
""blur"",""7"",""89705""
""blur"",""13"",""167248""
""blur"",""14"",""171196""
""blur"",""19"",""213804""
""blur"",""19"",""217203""
""blur"",""19"",""259205""
""blur"",""26"",""340007""
""blur"",""26"",""355217""
""blur"",""26"",""363751""
","""event"",""trial"",""time""
""focus"",""2"",""12118""
""focus"",""7"",""84235""
""focus"",""7"",""90866""
""focus"",""13"",""170058""
""focus"",""14"",""174144""
""focus"",""19"",""215776""
""focus"",""19"",""220703""
""focus"",""19"",""260809""
""focus"",""26"",""344917""
""focus"",""26"",""362315""
""focus"",""26"",""369585""
","""event"",""trial"",""time""
""fullscreenenter"",""1"",""2524""
","
","","","-1","","","14","3038","1883","&#9752;","elianto","#f73b6a7A"," ","-1","0","-10","[]","0","1","","","3038","5","3","3","lose","go","0"
"pit-trial","68","688841","0.0-9.0","battery-v0.2","","""event"",""trial"",""time""
""fullscreenenter"",""1"",""2524""
""blur"",""2"",""7377""
""focus"",""2"",""12118""
""blur"",""7"",""80164""
""focus"",""7"",""84235""
""blur"",""7"",""89705""
""focus"",""7"",""90866""
""blur"",""13"",""167248""
""focus"",""13"",""170058""
""blur"",""14"",""171196""
""focus"",""14"",""174144""
""blur"",""19"",""213804""
""focus"",""19"",""215776""
""blur"",""19"",""217203""
""focus"",""19"",""220703""
""blur"",""19"",""259205""
""focus"",""19"",""260809""
""blur"",""26"",""340007""
""focus"",""26"",""344917""
""blur"",""26"",""355217""
""focus"",""26"",""362315""
""blur"",""26"",""363751""
""focus"",""26"",""369585""
","""event"",""trial"",""time""
""blur"",""2"",""7377""
""blur"",""7"",""80164""
""blur"",""7"",""89705""
""blur"",""13"",""167248""
""blur"",""14"",""171196""
""blur"",""19"",""213804""
""blur"",""19"",""217203""
""blur"",""19"",""259205""
""blur"",""26"",""340007""
""blur"",""26"",""355217""
""blur"",""26"",""363751""
","""event"",""trial"",""time""
""focus"",""2"",""12118""
""focus"",""7"",""84235""
""focus"",""7"",""90866""
""focus"",""13"",""170058""
""focus"",""14"",""174144""
""focus"",""19"",""215776""
""focus"",""19"",""220703""
""focus"",""19"",""260809""
""focus"",""26"",""344917""
""focus"",""26"",""362315""
""focus"",""26"",""369585""
","""event"",""trial"",""time""
""fullscreenenter"",""1"",""2524""
","
","","","-1","","","14","3038","1883","&#9730;","elianto","#3366ff99"," ","-1","0","0","[]","0","1","","","3038","6","1","1","win","go","0"
"pit-trial","69","692480","0.0-10.0","battery-v0.2","","""event"",""trial"",""time""
""fullscreenenter"",""1"",""2524""
""blur"",""2"",""7377""
""focus"",""2"",""12118""
""blur"",""7"",""80164""
""focus"",""7"",""84235""
""blur"",""7"",""89705""
""focus"",""7"",""90866""
""blur"",""13"",""167248""
""focus"",""13"",""170058""
""blur"",""14"",""171196""
""focus"",""14"",""174144""
""blur"",""19"",""213804""
""focus"",""19"",""215776""
""blur"",""19"",""217203""
""focus"",""19"",""220703""
""blur"",""19"",""259205""
""focus"",""19"",""260809""
""blur"",""26"",""340007""
""focus"",""26"",""344917""
""blur"",""26"",""355217""
""focus"",""26"",""362315""
""blur"",""26"",""363751""
""focus"",""26"",""369585""
","""event"",""trial"",""time""
""blur"",""2"",""7377""
""blur"",""7"",""80164""
""blur"",""7"",""89705""
""blur"",""13"",""167248""
""blur"",""14"",""171196""
""blur"",""19"",""213804""
""blur"",""19"",""217203""
""blur"",""19"",""259205""
""blur"",""26"",""340007""
""blur"",""26"",""355217""
""blur"",""26"",""363751""
","""event"",""trial"",""time""
""focus"",""2"",""12118""
""focus"",""7"",""84235""
""focus"",""7"",""90866""
""focus"",""13"",""170058""
""focus"",""14"",""174144""
""focus"",""19"",""215776""
""focus"",""19"",""220703""
""focus"",""19"",""260809""
""focus"",""26"",""344917""
""focus"",""26"",""362315""
""focus"",""26"",""369585""
","""event"",""trial"",""time""
""fullscreenenter"",""1"",""2524""
","
","","","784.6000000014901","","","14","3038","1883","&#9728;","elianto","#f73b6a7A","-1"," ","0","-10","[1637]","1","1","","","3038","7","0","4","lose","no-go","0"
"pit-trial","70","695881","0.0-11.0","battery-v0.2","","""event"",""trial"",""time""
""fullscreenenter"",""1"",""2524""
""blur"",""2"",""7377""
""focus"",""2"",""12118""
""blur"",""7"",""80164""
""focus"",""7"",""84235""
""blur"",""7"",""89705""
""focus"",""7"",""90866""
""blur"",""13"",""167248""
""focus"",""13"",""170058""
""blur"",""14"",""171196""
""focus"",""14"",""174144""
""blur"",""19"",""213804""
""focus"",""19"",""215776""
""blur"",""19"",""217203""
""focus"",""19"",""220703""
""blur"",""19"",""259205""
""focus"",""19"",""260809""
""blur"",""26"",""340007""
""focus"",""26"",""344917""
""blur"",""26"",""355217""
""focus"",""26"",""362315""
""blur"",""26"",""363751""
""focus"",""26"",""369585""
","""event"",""trial"",""time""
""blur"",""2"",""7377""
""blur"",""7"",""80164""
""blur"",""7"",""89705""
""blur"",""13"",""167248""
""blur"",""14"",""171196""
""blur"",""19"",""213804""
""blur"",""19"",""217203""
""blur"",""19"",""259205""
""blur"",""26"",""340007""
""blur"",""26"",""355217""
""blur"",""26"",""363751""
