"trial_type","trial_index","time_elapsed","internal_node_id","task_version","subject_id","interactions","blur_events","focus_events","fullscreenenter_events","fullscreenexit_events","success","view_history","rt","responses","num_errors","age","subject","participantId","rune","rune_set","hex","correct","choice","accuracy","outcome","keys","total_keys","block","practice","value","sub","trial","stimulus","robot","valence","action","sham"
"pavlovia","0","30","0.0-0.0","battery-v0.2","","""event"",""trial"",""time""
""fullscreenenter"",""1"",""3091""
","
","
","""event"",""trial"",""time""
""fullscreenenter"",""1"",""3091""
","
","","","","","","","","","","","","","","","","","","","","","","","","","","",""
"fullscreen","1","4067","0.0-1.0","battery-v0.2","","""event"",""trial"",""time""
""fullscreenenter"",""1"",""3091""
","
","
","""event"",""trial"",""time""
""fullscreenenter"",""1"",""3091""
","
","true","","","","","","","","","","","","","","","","","","","","","","","","","",""
"pit-instructions","2","12680","0.0-2.0-0.0","battery-v0.2","","""event"",""trial"",""time""
""fullscreenenter"",""1"",""3091""
","
","
","""event"",""trial"",""time""
""fullscreenenter"",""1"",""3091""
","
","","[{""page_index"":0,""viewing_time"":8601.400000095367}]","8601.900000095367","","","","","","","","","","","","","","","","","","","","","","","",""
"pit-comprehension","3","17482","0.0-2.0-1.0-0.0","battery-v0.2","","""event"",""trial"",""time""
""fullscreenenter"",""1"",""3091""
","
","
","""event"",""trial"",""time""
""fullscreenenter"",""1"",""3091""
","
","","","4795.099999904633","[""shark""]","0","13","16959","6569","","","","","","","","","","","","","","","","","","",""
"pit-instructions","4","19179","0.0-2.0-1.0-1.0","battery-v0.2","","""event"",""trial"",""time""
""fullscreenenter"",""1"",""3091""
","
","
","""event"",""trial"",""time""
""fullscreenenter"",""1"",""3091""
","
","","[{""page_index"":0,""viewing_time"":1682.3000001907349}]","1682.8000001907349","","","","","","","","","","","","","","","","","","","","","","","",""
"pit-comprehension","5","22354","0.0-2.0-2.0-0.0","battery-v0.2","","""event"",""trial"",""time""
""fullscreenenter"",""1"",""3091""
","
","
","""event"",""trial"",""time""
""fullscreenenter"",""1"",""3091""
","
","","","3170.0999999046326","[""tiger""]","0","13","16959","6569","","","","","","","","","","","","","","","","","","",""
"pit-instructions","6","23572","0.0-2.0-2.0-1.0","battery-v0.2","","""event"",""trial"",""time""
""fullscreenenter"",""1"",""3091""
""blur"",""7"",""121821""
""focus"",""7"",""126689""
","""event"",""trial"",""time""
""blur"",""7"",""121821""
","""event"",""trial"",""time""
""focus"",""7"",""126689""
","""event"",""trial"",""time""
""fullscreenenter"",""1"",""3091""
","
","","[{""page_index"":0,""viewing_time"":1212.5999999046326}]","1213","","","","","","","","","","","","","","","","","","","","","","","",""
"pit-instructions","7","158574","0.0-2.0-3.0","battery-v0.2","","""event"",""trial"",""time""
""fullscreenenter"",""1"",""3091""
""blur"",""7"",""121821""
""focus"",""7"",""126689""
","""event"",""trial"",""time""
""blur"",""7"",""121821""
","""event"",""trial"",""time""
""focus"",""7"",""126689""
","""event"",""trial"",""time""
""fullscreenenter"",""1"",""3091""
","
","","[{""page_index"":0,""viewing_time"":10100.5},{""page_index"":1,""viewing_time"":7202.800000190735},{""page_index"":2,""viewing_time"":12996.599999904633},{""page_index"":3,""viewing_time"":5114},{""page_index"":4,""viewing_time"":15366.300000190735},{""page_index"":5,""viewing_time"":8166.599999904633},{""page_index"":6,""viewing_time"":9823.900000095367},{""page_index"":7,""viewing_time"":7760.299999713898},{""page_index"":8,""viewing_time"":6792.5},{""page_index"":9,""viewing_time"":9132.400000095367},{""page_index"":10,""viewing_time"":18538},{""page_index"":11,""viewing_time"":7597.400000095367},{""page_index"":12,""viewing_time"":10129.099999904633},{""page_index"":13,""viewing_time"":6276.400000095367}]","134997.30000019073","","","","","","","","","","","","","","","","","","","","","","","",""
"pit-trial","8","161957","0.0-2.0-4.0-0.0","battery-v0.2","","""event"",""trial"",""time""
""fullscreenenter"",""1"",""3091""
""blur"",""7"",""121821""
""focus"",""7"",""126689""
","""event"",""trial"",""time""
""blur"",""7"",""121821""
","""event"",""trial"",""time""
""focus"",""7"",""126689""
","""event"",""trial"",""time""
""fullscreenenter"",""1"",""3091""
","
","","","521.6999998092651","","","13","16959","6569","&#9784;","elianto","#FFFFF080"," "," ","1","&#10004","[1374.0999999046326]","1","0","0","","","","","","","",""
"pit-trial","9","165400","0.0-2.0-4.1-0.1","battery-v0.2","","""event"",""trial"",""time""
""fullscreenenter"",""1"",""3091""
""blur"",""7"",""121821""
""focus"",""7"",""126689""
","""event"",""trial"",""time""
""blur"",""7"",""121821""
","""event"",""trial"",""time""
""focus"",""7"",""126689""
","""event"",""trial"",""time""
""fullscreenenter"",""1"",""3091""
","
","","","583.1999998092651","","","13","16959","6569","&#9784;","elianto","#FFFFF080"," "," ","1","&#10004","[1435.5999999046326]","1","0","0","","","","","","","",""
"pit-trial","10","168820","0.0-2.0-4.2-0.2","battery-v0.2","","""event"",""trial"",""time""
""fullscreenenter"",""1"",""3091""
""blur"",""7"",""121821""
""focus"",""7"",""126689""
","""event"",""trial"",""time""
""blur"",""7"",""121821""
","""event"",""trial"",""time""
""focus"",""7"",""126689""
","""event"",""trial"",""time""
""fullscreenenter"",""1"",""3091""
","
","","","563.7000002861023","","","13","16959","6569","&#9784;","elianto","#FFFFF080"," "," ","1","&#10004","[1414.8000001907349]","1","0","0","","","","","","","",""
"pit-trial","11","172590","0.0-2.0-4.3-0.3","battery-v0.2","","""event"",""trial"",""time""
""fullscreenenter"",""1"",""3091""
""blur"",""7"",""121821""
""focus"",""7"",""126689""
","""event"",""trial"",""time""
""blur"",""7"",""121821""
","""event"",""trial"",""time""
""focus"",""7"",""126689""
","""event"",""trial"",""time""
""fullscreenenter"",""1"",""3091""
","
","","","907.8000001907349","","","13","16959","6569","&#9784;","elianto","#FFFFF080"," "," ","1","&#10004","[1761.6999998092651]","1","0","0","","","","","","","",""
"pit-trial","12","175987","0.0-2.0-4.4-0.4","battery-v0.2","","""event"",""trial"",""time""
""fullscreenenter"",""1"",""3091""
""blur"",""7"",""121821""
""focus"",""7"",""126689""
","""event"",""trial"",""time""
""blur"",""7"",""121821""
","""event"",""trial"",""time""
""focus"",""7"",""126689""
","""event"",""trial"",""time""
""fullscreenenter"",""1"",""3091""
","
","","","538.0999999046326","","","13","16959","6569","&#9784;","elianto","#FFFFF080"," "," ","1","&#10004","[1389.8000001907349]","1","0","0","","","","","","","",""
"pit-instructions","13","200934","0.0-2.0-5.0","battery-v0.2","","""event"",""trial"",""time""
""fullscreenenter"",""1"",""3091""
""blur"",""7"",""121821""
""focus"",""7"",""126689""
","""event"",""trial"",""time""
""blur"",""7"",""121821""
","""event"",""trial"",""time""
""focus"",""7"",""126689""
","""event"",""trial"",""time""
""fullscreenenter"",""1"",""3091""
","
","","[{""page_index"":0,""viewing_time"":6659.099999904633},{""page_index"":1,""viewing_time"":7444},{""page_index"":2,""viewing_time"":5155.400000095367},{""page_index"":3,""viewing_time"":5682.599999904633}]","24941.599999904633","","","","","","","","","","","","","","","","","","","","","","","",""
"pit-trial","14","205790","0.0-2.0-6.0-0.0","battery-v0.2","","""event"",""trial"",""time""
""fullscreenenter"",""1"",""3091""
""blur"",""7"",""121821""
""focus"",""7"",""126689""
","""event"",""trial"",""time""
""blur"",""7"",""121821""
","""event"",""trial"",""time""
""focus"",""7"",""126689""
","""event"",""trial"",""time""
""fullscreenenter"",""1"",""3091""
","
","","","-1","","","13","16959","6569","&#9854;","elianto","#FFFFF080","-1","-1","1","&#10004","[]","0","0","1","","","","","","","",""
"pit-trial","15","210648","0.0-2.0-6.1-0.1","battery-v0.2","","""event"",""trial"",""time""
""fullscreenenter"",""1"",""3091""
""blur"",""7"",""121821""
""focus"",""7"",""126689""
","""event"",""trial"",""time""
""blur"",""7"",""121821""
","""event"",""trial"",""time""
""focus"",""7"",""126689""
","""event"",""trial"",""time""
""fullscreenenter"",""1"",""3091""
","
","","","-1","","","13","16959","6569","&#9854;","elianto","#FFFFF080","-1","-1","1","&#10004","[]","0","0","1","","","","","","","",""
"pit-trial","16","215505","0.0-2.0-6.2-0.2","battery-v0.2","","""event"",""trial"",""time""
""fullscreenenter"",""1"",""3091""
""blur"",""7"",""121821""
""focus"",""7"",""126689""
","""event"",""trial"",""time""
""blur"",""7"",""121821""
","""event"",""trial"",""time""
""focus"",""7"",""126689""
","""event"",""trial"",""time""
""fullscreenenter"",""1"",""3091""
","
","","","-1","","","13","16959","6569","&#9854;","elianto","#FFFFF080","-1","-1","1","&#10004","[]","0","0","1","","","","","","","",""
"pit-trial","17","220365","0.0-2.0-6.3-0.3","battery-v0.2","","""event"",""trial"",""time""
""fullscreenenter"",""1"",""3091""
""blur"",""7"",""121821""
""focus"",""7"",""126689""
","""event"",""trial"",""time""
""blur"",""7"",""121821""
","""event"",""trial"",""time""
""focus"",""7"",""126689""
","""event"",""trial"",""time""
""fullscreenenter"",""1"",""3091""
","
","","","-1","","","13","16959","6569","&#9854;","elianto","#FFFFF080","-1","-1","1","&#10004","[]","0","0","1","","","","","","","",""
"pit-trial","18","225221","0.0-2.0-6.4-0.4","battery-v0.2","","""event"",""trial"",""time""
""fullscreenenter"",""1"",""3091""
""blur"",""7"",""121821""
""focus"",""7"",""126689""
","""event"",""trial"",""time""
""blur"",""7"",""121821""
","""event"",""trial"",""time""
""focus"",""7"",""126689""
","""event"",""trial"",""time""
""fullscreenenter"",""1"",""3091""
","
","","","-1","","","13","16959","6569","&#9854;","elianto","#FFFFF080","-1","-1","1","&#10004","[]","0","0","1","","","","","","","",""
"pit-instructions","19","351475","0.0-2.0-7.0","battery-v0.2","","""event"",""trial"",""time""
""fullscreenenter"",""1"",""3091""
""blur"",""7"",""121821""
""focus"",""7"",""126689""
","""event"",""trial"",""time""
""blur"",""7"",""121821""
","""event"",""trial"",""time""
""focus"",""7"",""126689""
","""event"",""trial"",""time""
""fullscreenenter"",""1"",""3091""
","
","","[{""page_index"":0,""viewing_time"":5750.200000286102},{""page_index"":1,""viewing_time"":6800.199999809265},{""page_index"":2,""viewing_time"":7351.400000095367},{""page_index"":3,""viewing_time"":6773.199999809265},{""page_index"":4,""viewing_time"":5674},{""page_index"":5,""viewing_time"":5381.300000190735},{""page_index"":6,""viewing_time"":5183.299999713898},{""page_index"":7,""viewing_time"":8308.800000190735},{""page_index"":8,""viewing_time"":8370.099999904633},{""page_index"":9,""viewing_time"":6343.700000286102},{""page_index"":10,""viewing_time"":6487.89999961853},{""page_index"":11,""viewing_time"":4199.900000095367},{""page_index"":12,""viewing_time"":7578.599999904633},{""page_index"":13,""viewing_time"":7927.800000190735},{""page_index"":14,""viewing_time"":9244.099999904633},{""page_index"":15,""viewing_time"":9474.900000095367},{""page_index"":16,""viewing_time"":7138.599999904633},{""page_index"":17,""viewing_time"":8257.900000095367}]","126246.5","","","","","","","","","","","","","","","","","","","","","","","",""
"pit-trial","20","356220","0.0-2.0-8.0-0.0","battery-v0.2","","""event"",""trial"",""time""
""fullscreenenter"",""1"",""3091""
""blur"",""7"",""121821""
""focus"",""7"",""126689""
","""event"",""trial"",""time""
""blur"",""7"",""121821""
","""event"",""trial"",""time""
""focus"",""7"",""126689""
","""event"",""trial"",""time""
""fullscreenenter"",""1"",""3091""
","
","","","1889","","","13","16959","6569","&#9776;","elianto","#3366ff99"," "," ","1","+10","[2740.2000002861023]","1","0","1","","","","","","","",""
"pit-trial","21","359358","0.0-2.0-8.0-1.0","battery-v0.2","","""event"",""trial"",""time""
""fullscreenenter"",""1"",""3091""
""blur"",""7"",""121821""
""focus"",""7"",""126689""
","""event"",""trial"",""time""
""blur"",""7"",""121821""
","""event"",""trial"",""time""
""focus"",""7"",""126689""
","""event"",""trial"",""time""
""fullscreenenter"",""1"",""3091""
","
","","","283","","","13","16959","6569","&#9776;","elianto","#3366ff99"," "," ","1","+10","[1133.7999997138977]","1","0","1","","","","","","","",""
"pit-trial","22","362386","0.0-2.0-8.0-2.0","battery-v0.2","","""event"",""trial"",""time""
""fullscreenenter"",""1"",""3091""
""blur"",""7"",""121821""
""focus"",""7"",""126689""
","""event"",""trial"",""time""
""blur"",""7"",""121821""
","""event"",""trial"",""time""
""focus"",""7"",""126689""
","""event"",""trial"",""time""
""fullscreenenter"",""1"",""3091""
","
","","","171.5","","","13","16959","6569","&#9776;","elianto","#3366ff99"," "," ","1","+10","[1021.8000001907349]","1","0","1","","","","","","","",""
"pit-trial","23","365335","0.0-2.0-8.0-3.0","battery-v0.2","","""event"",""trial"",""time""
""fullscreenenter"",""1"",""3091""
""blur"",""7"",""121821""
""focus"",""7"",""126689""
","""event"",""trial"",""time""
""blur"",""7"",""121821""
","""event"",""trial"",""time""
""focus"",""7"",""126689""
","""event"",""trial"",""time""
""fullscreenenter"",""1"",""3091""
","
","","","92.30000019073486","","","13","16959","6569","&#9776;","elianto","#3366ff99"," "," ","1","0","[942.6999998092651,1652.8000001907349]","2","0","1","","","","","","","",""
"pit-trial","24","368361","0.0-2.0-8.0-4.0","battery-v0.2","","""event"",""trial"",""time""
""fullscreenenter"",""1"",""3091""
""blur"",""7"",""121821""
""focus"",""7"",""126689""
","""event"",""trial"",""time""
""blur"",""7"",""121821""
","""event"",""trial"",""time""
""focus"",""7"",""126689""
","""event"",""trial"",""time""
""fullscreenenter"",""1"",""3091""
","
","","","169","","","13","16959","6569","&#9776;","elianto","#3366ff99"," "," ","1","+10","[1021.0999999046326]","1","0","1","","","","","","","",""
"pit-trial","25","371341","0.0-2.0-8.1-0.1","battery-v0.2","","""event"",""trial"",""time""
""fullscreenenter"",""1"",""3091""
""blur"",""7"",""121821""
""focus"",""7"",""126689""
","""event"",""trial"",""time""
""blur"",""7"",""121821""
","""event"",""trial"",""time""
""focus"",""7"",""126689""
","""event"",""trial"",""time""
""fullscreenenter"",""1"",""3091""
","
","","","122.2000002861023","","","13","16959","6569","&#9776;","elianto","#3366ff99"," "," ","1","+10","[972.6000003814697]","1","0","1","","","","","","","",""
"pit-trial","26","374528","0.0-2.0-8.1-1.1","battery-v0.2","","""event"",""trial"",""time""
""fullscreenenter"",""1"",""3091""
""blur"",""7"",""121821""
""focus"",""7"",""126689""
","""event"",""trial"",""time""
""blur"",""7"",""121821""
","""event"",""trial"",""time""
""focus"",""7"",""126689""
","""event"",""trial"",""time""
""fullscreenenter"",""1"",""3091""
","
","","","331.5","","","13","16959","6569","&#9776;","elianto","#3366ff99"," "," ","1","+10","[1183]","1","0","1","","","","","","","",""
"pit-trial","27","377745","0.0-2.0-8.1-2.1","battery-v0.2","","""event"",""trial"",""time""
""fullscreenenter"",""1"",""3091""
""blur"",""7"",""121821""
""focus"",""7"",""126689""
","""event"",""trial"",""time""
""blur"",""7"",""121821""
","""event"",""trial"",""time""
""focus"",""7"",""126689""
","""event"",""trial"",""time""
""fullscreenenter"",""1"",""3091""
","
","","","361.69999980926514","","","13","16959","6569","&#9776;","elianto","#3366ff99"," "," ","1","+10","[1212]","1","0","1","","","","","","","",""
"pit-trial","28","381021","0.0-2.0-8.1-3.1","battery-v0.2","","""event"",""trial"",""time""
""fullscreenenter"",""1"",""3091""
""blur"",""7"",""121821""
""focus"",""7"",""126689""
","""event"",""trial"",""time""
""blur"",""7"",""121821""
","""event"",""trial"",""time""
""focus"",""7"",""126689""
","""event"",""trial"",""time""
""fullscreenenter"",""1"",""3091""
","
","","","413.09999990463257","","","13","16959","6569","&#9776;","elianto","#3366ff99"," "," ","1","0","[1264.7000002861023]","1","0","1","","","","","","","",""
"pit-trial","29","384058","0.0-2.0-8.1-4.1","battery-v0.2","","""event"",""trial"",""time""
""fullscreenenter"",""1"",""3091""
""blur"",""7"",""121821""
""focus"",""7"",""126689""
","""event"",""trial"",""time""
""blur"",""7"",""121821""
","""event"",""trial"",""time""
""focus"",""7"",""126689""
","""event"",""trial"",""time""
""fullscreenenter"",""1"",""3091""
","
","","","173.19999980926514","","","13","16959","6569","&#9776;","elianto","#3366ff99"," "," ","1","+10","[1029.8000001907349]","1","0","1","","","","","","","",""
"pit-trial","30","387071","0.0-2.0-8.2-0.2","battery-v0.2","","""event"",""trial"",""time""
""fullscreenenter"",""1"",""3091""
""blur"",""7"",""121821""
""focus"",""7"",""126689""
","""event"",""trial"",""time""
""blur"",""7"",""121821""
","""event"",""trial"",""time""
""focus"",""7"",""126689""
","""event"",""trial"",""time""
""fullscreenenter"",""1"",""3091""
","
","","","144.69999980926514","","","13","16959","6569","&#9776;","elianto","#3366ff99"," "," ","1","+10","[997.9000000953674]","1","0","1","","","","","","","",""
"pit-trial","31","390315","0.0-2.0-8.2-1.2","battery-v0.2","","""event"",""trial"",""time""
""fullscreenenter"",""1"",""3091""
""blur"",""7"",""121821""
""focus"",""7"",""126689""
","""event"",""trial"",""time""
""blur"",""7"",""121821""
","""event"",""trial"",""time""
""focus"",""7"",""126689""
","""event"",""trial"",""time""
""fullscreenenter"",""1"",""3091""
","
","","","382.5","","","13","16959","6569","&#9776;","elianto","#3366ff99"," "," ","1","+10","[1237]","1","0","1","","","","","","","",""
"pit-trial","32","393261","0.0-2.0-8.2-2.2","battery-v0.2","","""event"",""trial"",""time""
""fullscreenenter"",""1"",""3091""
""blur"",""7"",""121821""
""focus"",""7"",""126689""
","""event"",""trial"",""time""
""blur"",""7"",""121821""
","""event"",""trial"",""time""
""focus"",""7"",""126689""
","""event"",""trial"",""time""
""fullscreenenter"",""1"",""3091""
","
","","","84.89999961853027","","","13","16959","6569","&#9776;","elianto","#3366ff99"," "," ","1","+10","[936.6999998092651]","1","0","1","","","","","","","",""
"pit-trial","33","396200","0.0-2.0-8.2-3.2","battery-v0.2","","""event"",""trial"",""time""
""fullscreenenter"",""1"",""3091""
""blur"",""7"",""121821""
""focus"",""7"",""126689""
","""event"",""trial"",""time""
""blur"",""7"",""121821""
","""event"",""trial"",""time""
""focus"",""7"",""126689""
","""event"",""trial"",""time""
""fullscreenenter"",""1"",""3091""
","
","","","72.40000009536743","","","13","16959","6569","&#9776;","elianto","#3366ff99"," "," ","1","0","[924.5]","1","0","1","","","","","","","",""
"pit-trial","34","399241","0.0-2.0-8.2-4.2","battery-v0.2","","""event"",""trial"",""time""
""fullscreenenter"",""1"",""3091""
""blur"",""7"",""121821""
""focus"",""7"",""126689""
","""event"",""trial"",""time""
""blur"",""7"",""121821""
","""event"",""trial"",""time""
""focus"",""7"",""126689""
","""event"",""trial"",""time""
""fullscreenenter"",""1"",""3091""
","
","","","182.80000019073486","","","13","16959","6569","&#9776;","elianto","#3366ff99"," "," ","1","+10","[1034.0999999046326]","1","0","1","","","","","","","",""
"call-function","35","399244","0.0-2.0-9.0","battery-v0.2","","""event"",""trial"",""time""
""fullscreenenter"",""1"",""3091""
""blur"",""7"",""121821""
""focus"",""7"",""126689""
","""event"",""trial"",""time""
""blur"",""7"",""121821""
","""event"",""trial"",""time""
""focus"",""7"",""126689""
","""event"",""trial"",""time""
""fullscreenenter"",""1"",""3091""
","
","","","","","","","","","","","","","","","","","","","","","","","","","","",""
"pit-instructions","36","445899","0.0-2.0-10.0","battery-v0.2","","""event"",""trial"",""time""
""fullscreenenter"",""1"",""3091""
""blur"",""7"",""121821""
""focus"",""7"",""126689""
","""event"",""trial"",""time""
""blur"",""7"",""121821""
","""event"",""trial"",""time""
""focus"",""7"",""126689""
","""event"",""trial"",""time""
""fullscreenenter"",""1"",""3091""
","
","","[{""page_index"":0,""viewing_time"":10791.89999961853},{""page_index"":1,""viewing_time"":7738.400000095367},{""page_index"":2,""viewing_time"":10605},{""page_index"":3,""viewing_time"":9933.300000190735},{""page_index"":4,""viewing_time"":7585.099999904633}]","46654","","","","","","","","","","","","","","","","","","","","","","","",""
"pit-trial","37","450755","0.0-2.0-11.0-0.0","battery-v0.2","","""event"",""trial"",""time""
""fullscreenenter"",""1"",""3091""
""blur"",""7"",""121821""
""focus"",""7"",""126689""
","""event"",""trial"",""time""
""blur"",""7"",""121821""
","""event"",""trial"",""time""
""focus"",""7"",""126689""
","""event"",""trial"",""time""
""fullscreenenter"",""1"",""3091""
","
","","","-1","","","13","16959","6569","&#9761;","elianto","#3366ff99","-1","-1","1","+10","[]","0","0","2","","","","","","","",""
"pit-trial","38","455611","0.0-2.0-11.0-1.0","battery-v0.2","","""event"",""trial"",""time""
""fullscreenenter"",""1"",""3091""
""blur"",""7"",""121821""
""focus"",""7"",""126689""
","""event"",""trial"",""time""
""blur"",""7"",""121821""
","""event"",""trial"",""time""
""focus"",""7"",""126689""
","""event"",""trial"",""time""
""fullscreenenter"",""1"",""3091""
","
","","","-1","","","13","16959","6569","&#9761;","elianto","#3366ff99","-1","-1","1","+10","[]","0","0","2","","","","","","","",""
"pit-trial","39","460467","0.0-2.0-11.0-2.0","battery-v0.2","","""event"",""trial"",""time""
""fullscreenenter"",""1"",""3091""
""blur"",""7"",""121821""
""focus"",""7"",""126689""
","""event"",""trial"",""time""
""blur"",""7"",""121821""
","""event"",""trial"",""time""
""focus"",""7"",""126689""
","""event"",""trial"",""time""
""fullscreenenter"",""1"",""3091""
","
","","","-1","","","13","16959","6569","&#9761;","elianto","#3366ff99","-1","-1","1","+10","[]","0","0","2","","","","","","","",""
"pit-trial","40","465322","0.0-2.0-11.0-3.0","battery-v0.2","","""event"",""trial"",""time""
""fullscreenenter"",""1"",""3091""
""blur"",""7"",""121821""
""focus"",""7"",""126689""
","""event"",""trial"",""time""
""blur"",""7"",""121821""
","""event"",""trial"",""time""
""focus"",""7"",""126689""
","""event"",""trial"",""time""
""fullscreenenter"",""1"",""3091""
","
","","","-1","","","13","16959","6569","&#9761;","elianto","#3366ff99","-1","-1","1","0","[]","0","0","2","","","","","","","",""
"pit-trial","41","470178","0.0-2.0-11.0-4.0","battery-v0.2","","""event"",""trial"",""time""
""fullscreenenter"",""1"",""3091""
""blur"",""7"",""121821""
""focus"",""7"",""126689""
","""event"",""trial"",""time""
""blur"",""7"",""121821""
","""event"",""trial"",""time""
""focus"",""7"",""126689""
","""event"",""trial"",""time""
""fullscreenenter"",""1"",""3091""
","
","","","-1","","","13","16959","6569","&#9761;","elianto","#3366ff99","-1","-1","1","+10","[]","0","0","2","","","","","","","",""
"pit-trial","42","475034","0.0-2.0-11.1-0.1","battery-v0.2","","""event"",""trial"",""time""
""fullscreenenter"",""1"",""3091""
""blur"",""7"",""121821""
""focus"",""7"",""126689""
","""event"",""trial"",""time""
""blur"",""7"",""121821""
","""event"",""trial"",""time""
""focus"",""7"",""126689""
","""event"",""trial"",""time""
""fullscreenenter"",""1"",""3091""
","
","","","-1","","","13","16959","6569","&#9761;","elianto","#3366ff99","-1","-1","1","+10","[]","0","0","2","","","","","","","",""
"pit-trial","43","479897","0.0-2.0-11.1-1.1","battery-v0.2","","""event"",""trial"",""time""
""fullscreenenter"",""1"",""3091""
""blur"",""7"",""121821""
""focus"",""7"",""126689""
","""event"",""trial"",""time""
""blur"",""7"",""121821""
","""event"",""trial"",""time""
""focus"",""7"",""126689""
","""event"",""trial"",""time""
""fullscreenenter"",""1"",""3091""
","
","","","-1","","","13","16959","6569","&#9761;","elianto","#3366ff99","-1","-1","1","+10","[]","0","0","2","","","","","","","",""
"pit-trial","44","484772","0.0-2.0-11.1-2.1","battery-v0.2","","""event"",""trial"",""time""
""fullscreenenter"",""1"",""3091""
""blur"",""7"",""121821""
""focus"",""7"",""126689""
","""event"",""trial"",""time""
""blur"",""7"",""121821""
","""event"",""trial"",""time""
""focus"",""7"",""126689""
","""event"",""trial"",""time""
""fullscreenenter"",""1"",""3091""
","
","","","-1","","","13","16959","6569","&#9761;","elianto","#3366ff99","-1","-1","1","+10","[]","0","0","2","","","","","","","",""
"pit-trial","45","489626","0.0-2.0-11.1-3.1","battery-v0.2","","""event"",""trial"",""time""
""fullscreenenter"",""1"",""3091""
""blur"",""7"",""121821""
""focus"",""7"",""126689""
","""event"",""trial"",""time""
""blur"",""7"",""121821""
","""event"",""trial"",""time""
""focus"",""7"",""126689""
","""event"",""trial"",""time""
""fullscreenenter"",""1"",""3091""
","
","","","-1","","","13","16959","6569","&#9761;","elianto","#3366ff99","-1","-1","1","0","[]","0","0","2","","","","","","","",""
"pit-trial","46","494491","0.0-2.0-11.1-4.1","battery-v0.2","","""event"",""trial"",""time""
""fullscreenenter"",""1"",""3091""
""blur"",""7"",""121821""
""focus"",""7"",""126689""
","""event"",""trial"",""time""
""blur"",""7"",""121821""
","""event"",""trial"",""time""
""focus"",""7"",""126689""
","""event"",""trial"",""time""
""fullscreenenter"",""1"",""3091""
","
","","","-1","","","13","16959","6569","&#9761;","elianto","#3366ff99","-1","-1","1","+10","[]","0","0","2","","","","","","","",""
"pit-trial","47","499356","0.0-2.0-11.2-0.2","battery-v0.2","","""event"",""trial"",""time""
""fullscreenenter"",""1"",""3091""
""blur"",""7"",""121821""
""focus"",""7"",""126689""
","""event"",""trial"",""time""
""blur"",""7"",""121821""
","""event"",""trial"",""time""
""focus"",""7"",""126689""
","""event"",""trial"",""time""
""fullscreenenter"",""1"",""3091""
","
","","","-1","","","13","16959","6569","&#9761;","elianto","#3366ff99","-1","-1","1","+10","[]","0","0","2","","","","","","","",""
"pit-trial","48","504230","0.0-2.0-11.2-1.2","battery-v0.2","","""event"",""trial"",""time""
""fullscreenenter"",""1"",""3091""
""blur"",""7"",""121821""
""focus"",""7"",""126689""
","""event"",""trial"",""time""
""blur"",""7"",""121821""
","""event"",""trial"",""time""
""focus"",""7"",""126689""
","""event"",""trial"",""time""
""fullscreenenter"",""1"",""3091""
","
","","","-1","","","13","16959","6569","&#9761;","elianto","#3366ff99","-1","-1","1","+10","[]","0","0","2","","","","","","","",""
"pit-trial","49","509095","0.0-2.0-11.2-2.2","battery-v0.2","","""event"",""trial"",""time""
""fullscreenenter"",""1"",""3091""
""blur"",""7"",""121821""
""focus"",""7"",""126689""
","""event"",""trial"",""time""
""blur"",""7"",""121821""
","""event"",""trial"",""time""
""focus"",""7"",""126689""
","""event"",""trial"",""time""
""fullscreenenter"",""1"",""3091""
","
","","","-1","","","13","16959","6569","&#9761;","elianto","#3366ff99","-1","-1","1","+10","[]","0","0","2","","","","","","","",""
"pit-trial","50","513967","0.0-2.0-11.2-3.2","battery-v0.2","","""event"",""trial"",""time""
""fullscreenenter"",""1"",""3091""
""blur"",""7"",""121821""
""focus"",""7"",""126689""
","""event"",""trial"",""time""
""blur"",""7"",""121821""
","""event"",""trial"",""time""
""focus"",""7"",""126689""
","""event"",""trial"",""time""
""fullscreenenter"",""1"",""3091""
","
","","","-1","","","13","16959","6569","&#9761;","elianto","#3366ff99","-1","-1","1","0","[]","0","0","2","","","","","","","",""
"pit-trial","51","518828","0.0-2.0-11.2-4.2","battery-v0.2","","""event"",""trial"",""time""
""fullscreenenter"",""1"",""3091""
""blur"",""7"",""121821""
""focus"",""7"",""126689""
","""event"",""trial"",""time""
""blur"",""7"",""121821""
","""event"",""trial"",""time""
""focus"",""7"",""126689""
","""event"",""trial"",""time""
""fullscreenenter"",""1"",""3091""
","
","","","-1","","","13","16959","6569","&#9761;","elianto","#3366ff99","-1","-1","1","+10","[]","0","0","2","","","","","","","",""
"pit-trial","52","523699","0.0-2.0-11.3-0.3","battery-v0.2","","""event"",""trial"",""time""
""fullscreenenter"",""1"",""3091""
""blur"",""7"",""121821""
""focus"",""7"",""126689""
","""event"",""trial"",""time""
""blur"",""7"",""121821""
","""event"",""trial"",""time""
""focus"",""7"",""126689""
","""event"",""trial"",""time""
""fullscreenenter"",""1"",""3091""
","
","","","-1","","","13","16959","6569","&#9761;","elianto","#3366ff99","-1","-1","1","+10","[]","0","0","2","","","","","","","",""
"pit-trial","53","528563","0.0-2.0-11.3-1.3","battery-v0.2","","""event"",""trial"",""time""
""fullscreenenter"",""1"",""3091""
""blur"",""7"",""121821""
""focus"",""7"",""126689""
""fullscreenexit"",""54"",""531944""
","""event"",""trial"",""time""
""blur"",""7"",""121821""
","""event"",""trial"",""time""
""focus"",""7"",""126689""
","""event"",""trial"",""time""
""fullscreenenter"",""1"",""3091""
","""event"",""trial"",""time""
""fullscreenexit"",""54"",""531944""
","","","-1","","","13","16959","6569","&#9761;","elianto","#3366ff99","-1","-1","1","+10","[]","0","0","2","","","","","","","",""
"pit-trial","54","533427","0.0-2.0-11.3-2.3","battery-v0.2","","""event"",""trial"",""time""
""fullscreenenter"",""1"",""3091""
""blur"",""7"",""121821""
""focus"",""7"",""126689""
""fullscreenexit"",""54"",""531944""
","""event"",""trial"",""time""
""blur"",""7"",""121821""
","""event"",""trial"",""time""
""focus"",""7"",""126689""
","""event"",""trial"",""time""
""fullscreenenter"",""1"",""3091""
","""event"",""trial"",""time""
""fullscreenexit"",""54"",""531944""
","","","-1","","","13","16959","6569","&#9761;","elianto","#3366ff99","-1","-1","1","+10","[]","0","0","2","","","","","","","",""
"pit-trial","55","538295","0.0-2.0-11.3-3.3","battery-v0.2","","""event"",""trial"",""time""
""fullscreenenter"",""1"",""3091""
""blur"",""7"",""121821""
""focus"",""7"",""126689""
""fullscreenexit"",""54"",""531944""
","""event"",""trial"",""time""
""blur"",""7"",""121821""
","""event"",""trial"",""time""
""focus"",""7"",""126689""
","""event"",""trial"",""time""
""fullscreenenter"",""1"",""3091""
","""event"",""trial"",""time""
""fullscreenexit"",""54"",""531944""
","","","-1","","","13","16959","6569","&#9761;","elianto","#3366ff99","-1","-1","1","0","[]","0","0","2","","","","","","","",""
"pit-trial","56","543159","0.0-2.0-11.3-4.3","battery-v0.2","","""event"",""trial"",""time""
""fullscreenenter"",""1"",""3091""
""blur"",""7"",""121821""
""focus"",""7"",""126689""
""fullscreenexit"",""54"",""531944""
","""event"",""trial"",""time""
""blur"",""7"",""121821""
","""event"",""trial"",""time""
""focus"",""7"",""126689""
","""event"",""trial"",""time""
""fullscreenenter"",""1"",""3091""
","""event"",""trial"",""time""
""fullscreenexit"",""54"",""531944""
","","","-1","","","13","16959","6569","&#9761;","elianto","#3366ff99","-1","-1","1","+10","[]","0","0","2","","","","","","","",""
"call-function","57","543162","0.0-2.0-12.0","battery-v0.2","","""event"",""trial"",""time""
""fullscreenenter"",""1"",""3091""
""blur"",""7"",""121821""
""focus"",""7"",""126689""
""fullscreenexit"",""54"",""531944""
","""event"",""trial"",""time""
""blur"",""7"",""121821""
","""event"",""trial"",""time""
""focus"",""7"",""126689""
","""event"",""trial"",""time""
""fullscreenenter"",""1"",""3091""
","""event"",""trial"",""time""
""fullscreenexit"",""54"",""531944""
","","","","","","","","","","","","","","","","","","","","","","","","","","",""
"pit-instructions","58","581790","0.0-2.0-13.0","battery-v0.2","","""event"",""trial"",""time""
""fullscreenenter"",""1"",""3091""
""blur"",""7"",""121821""
""focus"",""7"",""126689""
""fullscreenexit"",""54"",""531944""
","""event"",""trial"",""time""
""blur"",""7"",""121821""
","""event"",""trial"",""time""
""focus"",""7"",""126689""
","""event"",""trial"",""time""
""fullscreenenter"",""1"",""3091""
","""event"",""trial"",""time""
""fullscreenexit"",""54"",""531944""
","","[{""page_index"":0,""viewing_time"":6142},{""page_index"":1,""viewing_time"":12954.699999809265},{""page_index"":2,""viewing_time"":3406.4000000953674},{""page_index"":3,""viewing_time"":10831.099999904633},{""page_index"":4,""viewing_time"":5289.5}]","38624.199999809265","","","","","","","","","","","","","","","","","","","","","","","",""
"pit-trial","59","585631","0.0-2.0-14.0-0.0","battery-v0.2","","""event"",""trial"",""time""
""fullscreenenter"",""1"",""3091""
""blur"",""7"",""121821""
""focus"",""7"",""126689""
""fullscreenexit"",""54"",""531944""
","""event"",""trial"",""time""
""blur"",""7"",""121821""
","""event"",""trial"",""time""
""focus"",""7"",""126689""
","""event"",""trial"",""time""
""fullscreenenter"",""1"",""3091""
","""event"",""trial"",""time""
""fullscreenexit"",""54"",""531944""
","","","983.6999998092651","","","13","16959","6569","&#9826;","elianto","#f73b6a7A","-1"," ","0","-10","[1835.8999996185303]","1","0","3","","","","","","","",""
"pit-trial","60","590487","0.0-2.0-14.0-1.0","battery-v0.2","","""event"",""trial"",""time""
""fullscreenenter"",""1"",""3091""
""blur"",""7"",""121821""
""focus"",""7"",""126689""
""fullscreenexit"",""54"",""531944""
","""event"",""trial"",""time""
""blur"",""7"",""121821""
","""event"",""trial"",""time""
""focus"",""7"",""126689""
","""event"",""trial"",""time""
""fullscreenenter"",""1"",""3091""
","""event"",""trial"",""time""
""fullscreenexit"",""54"",""531944""
","","","-1","","","13","16959","6569","&#9826;","elianto","#f73b6a7A","-1","-1","1","0","[]","0","0","3","","","","","","","",""
"pit-trial","61","595343","0.0-2.0-14.0-2.0","battery-v0.2","","""event"",""trial"",""time""
""fullscreenenter"",""1"",""3091""
""blur"",""7"",""121821""
""focus"",""7"",""126689""
""fullscreenexit"",""54"",""531944""
","""event"",""trial"",""time""
""blur"",""7"",""121821""
","""event"",""trial"",""time""
""focus"",""7"",""126689""
","""event"",""trial"",""time""
""fullscreenenter"",""1"",""3091""
","""event"",""trial"",""time""
""fullscreenexit"",""54"",""531944""
","","","-1","","","13","16959","6569","&#9826;","elianto","#f73b6a7A","-1","-1","1","0","[]","0","0","3","","","","","","","",""
"pit-trial","62","600200","0.0-2.0-14.0-3.0","battery-v0.2","","""event"",""trial"",""time""
""fullscreenenter"",""1"",""3091""
""blur"",""7"",""121821""
""focus"",""7"",""126689""
""fullscreenexit"",""54"",""531944""
","""event"",""trial"",""time""
""blur"",""7"",""121821""
","""event"",""trial"",""time""
""focus"",""7"",""126689""
","""event"",""trial"",""time""
""fullscreenenter"",""1"",""3091""
","""event"",""trial"",""time""
""fullscreenexit"",""54"",""531944""
","","","-1","","","13","16959","6569","&#9826;","elianto","#f73b6a7A","-1","-1","1","-10","[]","0","0","3","","","","","","","",""
"pit-trial","63","605055","0.0-2.0-14.0-4.0","battery-v0.2","","""event"",""trial"",""time""
""fullscreenenter"",""1"",""3091""
""blur"",""7"",""121821""
""focus"",""7"",""126689""
""fullscreenexit"",""54"",""531944""
","""event"",""trial"",""time""
""blur"",""7"",""121821""
","""event"",""trial"",""time""
""focus"",""7"",""126689""
","""event"",""trial"",""time""
""fullscreenenter"",""1"",""3091""
","""event"",""trial"",""time""
""fullscreenexit"",""54"",""531944""
","","","-1","","","13","16959","6569","&#9826;","elianto","#f73b6a7A","-1","-1","1","0","[]","0","0","3","","","","","","","",""
"pit-trial","64","609912","0.0-2.0-14.1-0.1","battery-v0.2","","""event"",""trial"",""time""
""fullscreenenter"",""1"",""3091""
""blur"",""7"",""121821""
""focus"",""7"",""126689""
""fullscreenexit"",""54"",""531944""
","""event"",""trial"",""time""
""blur"",""7"",""121821""
","""event"",""trial"",""time""
""focus"",""7"",""126689""
","""event"",""trial"",""time""
""fullscreenenter"",""1"",""3091""
","""event"",""trial"",""time""
""fullscreenexit"",""54"",""531944""
","","","-1","","","13","16959","6569","&#9826;","elianto","#f73b6a7A","-1","-1","1","0","[]","0","0","3","","","","","","","",""
"pit-trial","65","614772","0.0-2.0-14.1-1.1","battery-v0.2","","""event"",""trial"",""time""
""fullscreenenter"",""1"",""3091""
""blur"",""7"",""121821""
""focus"",""7"",""126689""
""fullscreenexit"",""54"",""531944""
","""event"",""trial"",""time""
""blur"",""7"",""121821""
","""event"",""trial"",""time""
""focus"",""7"",""126689""
","""event"",""trial"",""time""
""fullscreenenter"",""1"",""3091""
","""event"",""trial"",""time""
""fullscreenexit"",""54"",""531944""
","","","-1","","","13","16959","6569","&#9826;","elianto","#f73b6a7A","-1","-1","1","0","[]","0","0","3","","","","","","","",""
"pit-trial","66","619644","0.0-2.0-14.1-2.1","battery-v0.2","","""event"",""trial"",""time""
""fullscreenenter"",""1"",""3091""
""blur"",""7"",""121821""
""focus"",""7"",""126689""
""fullscreenexit"",""54"",""531944""
","""event"",""trial"",""time""
""blur"",""7"",""121821""
","""event"",""trial"",""time""
""focus"",""7"",""126689""
","""event"",""trial"",""time""
""fullscreenenter"",""1"",""3091""
","""event"",""trial"",""time""
""fullscreenexit"",""54"",""531944""
","","","-1","","","13","16959","6569","&#9826;","elianto","#f73b6a7A","-1","-1","1","0","[]","0","0","3","","","","","","","",""
"pit-trial","67","624502","0.0-2.0-14.1-3.1","battery-v0.2","","""event"",""trial"",""time""
""fullscreenenter"",""1"",""3091""
""blur"",""7"",""121821""
""focus"",""7"",""126689""
""fullscreenexit"",""54"",""531944""
","""event"",""trial"",""time""
""blur"",""7"",""121821""
","""event"",""trial"",""time""
""focus"",""7"",""126689""
","""event"",""trial"",""time""
""fullscreenenter"",""1"",""3091""
","""event"",""trial"",""time""
""fullscreenexit"",""54"",""531944""
","","","-1","","","13","16959","6569","&#9826;","elianto","#f73b6a7A","-1","-1","1","-10","[]","0","0","3","","","","","","","",""
"pit-trial","68","629362","0.0-2.0-14.1-4.1","battery-v0.2","","""event"",""trial"",""time""
""fullscreenenter"",""1"",""3091""
""blur"",""7"",""121821""
""focus"",""7"",""126689""
""fullscreenexit"",""54"",""531944""
","""event"",""trial"",""time""
""blur"",""7"",""121821""
","""event"",""trial"",""time""
""focus"",""7"",""126689""
","""event"",""trial"",""time""
""fullscreenenter"",""1"",""3091""
","""event"",""trial"",""time""
""fullscreenexit"",""54"",""531944""
","","","-1","","","13","16959","6569","&#9826;","elianto","#f73b6a7A","-1","-1","1","0","[]","0","0","3","","","","","","","",""
"pit-trial","69","634221","0.0-2.0-14.2-0.2","battery-v0.2","","""event"",""trial"",""time""
""fullscreenenter"",""1"",""3091""
""blur"",""7"",""121821""
""focus"",""7"",""126689""
""fullscreenexit"",""54"",""531944""
","""event"",""trial"",""time""
""blur"",""7"",""121821""
","""event"",""trial"",""time""
""focus"",""7"",""126689""
","""event"",""trial"",""time""
""fullscreenenter"",""1"",""3091""
","""event"",""trial"",""time""
""fullscreenexit"",""54"",""531944""
","","","-1","","","13","16959","6569","&#9826;","elianto","#f73b6a7A","-1","-1","1","0","[]","0","0","3","","","","","","","",""
"pit-trial","70","639098","0.0-2.0-14.2-1.2","battery-v0.2","","""event"",""trial"",""time""
""fullscreenenter"",""1"",""3091""
""blur"",""7"",""121821""
""focus"",""7"",""126689""
""fullscreenexit"",""54"",""531944""
","""event"",""trial"",""time""
""blur"",""7"",""121821""
","""event"",""trial"",""time""
""focus"",""7"",""126689""
","""event"",""trial"",""time""
""fullscreenenter"",""1"",""3091""
","""event"",""trial"",""time""
""fullscreenexit"",""54"",""531944""
","","","-1","","","13","16959","6569","&#9826;","elianto","#f73b6a7A","-1","-1","1","0","[]","0","0","3","","","","","","","",""
"pit-trial","71","643969","0.0-2.0-14.2-2.2","battery-v0.2","","""event"",""trial"",""time""
""fullscreenenter"",""1"",""3091""
""blur"",""7"",""121821""
""focus"",""7"",""126689""
""fullscreenexit"",""54"",""531944""
","""event"",""trial"",""time""
""blur"",""7"",""121821""
","""event"",""trial"",""time""
""focus"",""7"",""126689""
","""event"",""trial"",""time""
""fullscreenenter"",""1"",""3091""
","""event"",""trial"",""time""
""fullscreenexit"",""54"",""531944""
","","","-1","","","13","16959","6569","&#9826;","elianto","#f73b6a7A","-1","-1","1","0","[]","0","0","3","","","","","","","",""
"pit-trial","72","648839","0.0-2.0-14.2-3.2","battery-v0.2","","""event"",""trial"",""time""
""fullscreenenter"",""1"",""3091""
""blur"",""7"",""121821""
""focus"",""7"",""126689""
""fullscreenexit"",""54"",""531944""
","""event"",""trial"",""time""
""blur"",""7"",""121821""
","""event"",""trial"",""time""
""focus"",""7"",""126689""
","""event"",""trial"",""time""
""fullscreenenter"",""1"",""3091""
","""event"",""trial"",""time""
""fullscreenexit"",""54"",""531944""
","","","-1","","","13","16959","6569","&#9826;","elianto","#f73b6a7A","-1","-1","1","-10","[]","0","0","3","","","","","","","",""
"pit-trial","73","653701","0.0-2.0-14.2-4.2","battery-v0.2","","""event"",""trial"",""time""
""fullscreenenter"",""1"",""3091""
""blur"",""7"",""121821""
""focus"",""7"",""126689""
""fullscreenexit"",""54"",""531944""
","""event"",""trial"",""time""
""blur"",""7"",""121821""
","""event"",""trial"",""time""
""focus"",""7"",""126689""
","""event"",""trial"",""time""
""fullscreenenter"",""1"",""3091""
","""event"",""trial"",""time""
""fullscreenexit"",""54"",""531944""
","","","-1","","","13","16959","6569","&#9826;","elianto","#f73b6a7A","-1","-1","1","0","[]","0","0","3","","","","","","","",""
"pit-trial","74","658578","0.0-2.0-14.3-0.3","battery-v0.2","","""event"",""trial"",""time""
""fullscreenenter"",""1"",""3091""
""blur"",""7"",""121821""
""focus"",""7"",""126689""
""fullscreenexit"",""54"",""531944""
","""event"",""trial"",""time""
""blur"",""7"",""121821""
","""event"",""trial"",""time""
""focus"",""7"",""126689""
","""event"",""trial"",""time""
""fullscreenenter"",""1"",""3091""
","""event"",""trial"",""time""
""fullscreenexit"",""54"",""531944""
","","","-1","","","13","16959","6569","&#9826;","elianto","#f73b6a7A","-1","-1","1","0","[]","0","0","3","","","","","","","",""
"pit-trial","75","663447","0.0-2.0-14.3-1.3","battery-v0.2","","""event"",""trial"",""time""
""fullscreenenter"",""1"",""3091""
""blur"",""7"",""121821""
""focus"",""7"",""126689""
""fullscreenexit"",""54"",""531944""
","""event"",""trial"",""time""
""blur"",""7"",""121821""
","""event"",""trial"",""time""
""focus"",""7"",""126689""
","""event"",""trial"",""time""
""fullscreenenter"",""1"",""3091""
","""event"",""trial"",""time""
""fullscreenexit"",""54"",""531944""
","","","-1","","","13","16959","6569","&#9826;","elianto","#f73b6a7A","-1","-1","1","0","[]","0","0","3","","","","","","","",""
"pit-trial","76","668308","0.0-2.0-14.3-2.3","battery-v0.2","","""event"",""trial"",""time""
""fullscreenenter"",""1"",""3091""
""blur"",""7"",""121821""
""focus"",""7"",""126689""
""fullscreenexit"",""54"",""531944""
","""event"",""trial"",""time""
""blur"",""7"",""121821""
","""event"",""trial"",""time""
""focus"",""7"",""126689""
","""event"",""trial"",""time""
""fullscreenenter"",""1"",""3091""
","""event"",""trial"",""time""
""fullscreenexit"",""54"",""531944""
","","","-1","","","13","16959","6569","&#9826;","elianto","#f73b6a7A","-1","-1","1","0","[]","0","0","3","","","","","","","",""
"pit-trial","77","673172","0.0-2.0-14.3-3.3","battery-v0.2","","""event"",""trial"",""time""
""fullscreenenter"",""1"",""3091""
""blur"",""7"",""121821""
""focus"",""7"",""126689""
""fullscreenexit"",""54"",""531944""
","""event"",""trial"",""time""
""blur"",""7"",""121821""
","""event"",""trial"",""time""
""focus"",""7"",""126689""
","""event"",""trial"",""time""
""fullscreenenter"",""1"",""3091""
","""event"",""trial"",""time""
""fullscreenexit"",""54"",""531944""
","","","-1","","","13","16959","6569","&#9826;","elianto","#f73b6a7A","-1","-1","1","-10","[]","0","0","3","","","","","","","",""
"pit-trial","78","678030","0.0-2.0-14.3-4.3","battery-v0.2","","""event"",""trial"",""time""
""fullscreenenter"",""1"",""3091""
""blur"",""7"",""121821""
""focus"",""7"",""126689""
""fullscreenexit"",""54"",""531944""
","""event"",""trial"",""time""
""blur"",""7"",""121821""
","""event"",""trial"",""time""
""focus"",""7"",""126689""
","""event"",""trial"",""time""
""fullscreenenter"",""1"",""3091""
","""event"",""trial"",""time""
""fullscreenexit"",""54"",""531944""
","","","-1","","","13","16959","6569","&#9826;","elianto","#f73b6a7A","-1","-1","1","0","[]","0","0","3","","","","","","","",""
"call-function","79","678033","0.0-2.0-15.0","battery-v0.2","","""event"",""trial"",""time""
""fullscreenenter"",""1"",""3091""
""blur"",""7"",""121821""
""focus"",""7"",""126689""
""fullscreenexit"",""54"",""531944""
","""event"",""trial"",""time""
""blur"",""7"",""121821""
","""event"",""trial"",""time""
""focus"",""7"",""126689""
","""event"",""trial"",""time""
""fullscreenenter"",""1"",""3091""
","""event"",""trial"",""time""
""fullscreenexit"",""54"",""531944""
","","","","","","","","","","","","","","","","","","","","","","","","","","",""
"pit-instructions","80","704828","0.0-2.0-16.0","battery-v0.2","","""event"",""trial"",""time""
""fullscreenenter"",""1"",""3091""
""blur"",""7"",""121821""
""focus"",""7"",""126689""
""fullscreenexit"",""54"",""531944""
","""event"",""trial"",""time""
""blur"",""7"",""121821""
","""event"",""trial"",""time""
""focus"",""7"",""126689""
","""event"",""trial"",""time""
""fullscreenenter"",""1"",""3091""
","""event"",""trial"",""time""
""fullscreenexit"",""54"",""531944""
","","[{""page_index"":0,""viewing_time"":7705.200000286102},{""page_index"":1,""viewing_time"":8320.099999904633},{""page_index"":2,""viewing_time"":5532.199999809265},{""page_index"":3,""viewing_time"":5236.599999904633}]","26794.599999904633","","","","","","","","","","","","","","","","","","","","","","","",""
"pit-trial","81","707808","0.0-2.0-17.0-0.0","battery-v0.2","","""event"",""trial"",""time""
""fullscreenenter"",""1"",""3091""
""blur"",""7"",""121821""
""focus"",""7"",""126689""
""fullscreenexit"",""54"",""531944""
","""event"",""trial"",""time""
""blur"",""7"",""121821""
","""event"",""trial"",""time""
""focus"",""7"",""126689""
","""event"",""trial"",""time""
""fullscreenenter"",""1"",""3091""
","""event"",""trial"",""time""
""fullscreenexit"",""54"",""531944""
","","","125.40000009536743","","","13","16959","6569","&#9789;","elianto","#f73b6a7A"," "," ","1","0","[975.6999998092651]","1","0","4","","","","","","","",""
"pit-trial","82","710707","0.0-2.0-17.0-1.0","battery-v0.2","","""event"",""trial"",""time""
""fullscreenenter"",""1"",""3091""
""blur"",""7"",""121821""
""focus"",""7"",""126689""
""fullscreenexit"",""54"",""531944""
","""event"",""trial"",""time""
""blur"",""7"",""121821""
","""event"",""trial"",""time""
""focus"",""7"",""126689""
","""event"",""trial"",""time""
""fullscreenenter"",""1"",""3091""
","""event"",""trial"",""time""
""fullscreenexit"",""54"",""531944""
","","","42.69999980926514","","","13","16959","6569","&#9789;","elianto","#f73b6a7A"," "," ","1","0","[894.0999999046326]","1","0","4","","","","","","","",""
"pit-trial","83","713623","0.0-2.0-17.0-2.0","battery-v0.2","","""event"",""trial"",""time""
""fullscreenenter"",""1"",""3091""
""blur"",""7"",""121821""
""focus"",""7"",""126689""
""fullscreenexit"",""54"",""531944""
","""event"",""trial"",""time""
""blur"",""7"",""121821""
","""event"",""trial"",""time""
""focus"",""7"",""126689""
","""event"",""trial"",""time""
""fullscreenenter"",""1"",""3091""
","""event"",""trial"",""time""
""fullscreenexit"",""54"",""531944""
","","","61","","","13","16959","6569","&#9789;","elianto","#f73b6a7A"," "," ","1","0","[912.3000001907349]","1","0","4","","","","","","","",""
"pit-trial","84","716629","0.0-2.0-17.0-3.0","battery-v0.2","","""event"",""trial"",""time""
""fullscreenenter"",""1"",""3091""
""blur"",""7"",""121821""
""focus"",""7"",""126689""
""fullscreenexit"",""54"",""531944""
","""event"",""trial"",""time""
""blur"",""7"",""121821""
","""event"",""trial"",""time""
""focus"",""7"",""126689""
","""event"",""trial"",""time""
""fullscreenenter"",""1"",""3091""
","""event"",""trial"",""time""
""fullscreenexit"",""54"",""531944""
","","","150.69999980926514","","","13","16959","6569","&#9789;","elianto","#f73b6a7A"," "," ","1","-10","[1001.1999998092651]","1","0","4","","","","","","","",""
"pit-trial","85","720382","0.0-2.0-17.0-4.0","battery-v0.2","","""event"",""trial"",""time""
""fullscreenenter"",""1"",""3091""
""blur"",""7"",""121821""
""focus"",""7"",""126689""
""fullscreenexit"",""54"",""531944""
","""event"",""trial"",""time""
""blur"",""7"",""121821""
","""event"",""trial"",""time""
""focus"",""7"",""126689""
","""event"",""trial"",""time""
""fullscreenenter"",""1"",""3091""
","""event"",""trial"",""time""
""fullscreenexit"",""54"",""531944""
","","","894.9000000953674","","","13","16959","6569","&#9789;","elianto","#f73b6a7A"," "," ","1","0","[811.6000003814697,1747.1000003814697]","2","0","4","","","","","","","",""
"pit-trial","86","723492","0.0-2.0-17.1-0.1","battery-v0.2","","""event"",""trial"",""time""
""fullscreenenter"",""1"",""3091""
""blur"",""7"",""121821""
""focus"",""7"",""126689""
""fullscreenexit"",""54"",""531944""
","""event"",""trial"",""time""
""blur"",""7"",""121821""
","""event"",""trial"",""time""
""focus"",""7"",""126689""
","""event"",""trial"",""time""
""fullscreenenter"",""1"",""3091""
","""event"",""trial"",""time""
""fullscreenexit"",""54"",""531944""
","","","252.80000019073486","","","13","16959","6569","&#9789;","elianto","#f73b6a7A"," "," ","1","0","[1103.8000001907349]","1","0","4","","","","","","","",""
"pit-trial","87","726460","0.0-2.0-17.1-1.1","battery-v0.2","","""event"",""trial"",""time""
""fullscreenenter"",""1"",""3091""
""blur"",""7"",""121821""
""focus"",""7"",""126689""
""fullscreenexit"",""54"",""531944""
","""event"",""trial"",""time""
""blur"",""7"",""121821""
","""event"",""trial"",""time""
""focus"",""7"",""126689""
","""event"",""trial"",""time""
""fullscreenenter"",""1"",""3091""
","""event"",""trial"",""time""
""fullscreenexit"",""54"",""531944""
","","","113.90000009536743","","","13","16959","6569","&#9789;","elianto","#f73b6a7A"," "," ","1","0","[963.8000001907349]","1","0","4","","","","","","","",""
"pit-trial","88","729323","0.0-2.0-17.1-2.1","battery-v0.2","","""event"",""trial"",""time""
""fullscreenenter"",""1"",""3091""
""blur"",""7"",""121821""
""focus"",""7"",""126689""
""fullscreenexit"",""54"",""531944""
","""event"",""trial"",""time""
""blur"",""7"",""121821""
","""event"",""trial"",""time""
""focus"",""7"",""126689""
","""event"",""trial"",""time""
""fullscreenenter"",""1"",""3091""
","""event"",""trial"",""time""
""fullscreenexit"",""54"",""531944""
","","","5.299999713897705","","","13","16959","6569","&#9789;","elianto","#f73b6a7A"," "," ","1","0","[858.6999998092651]","1","0","4","","","","","","","",""
"pit-trial","89","732239","0.0-2.0-17.1-3.1","battery-v0.2","","""event"",""trial"",""time""
""fullscreenenter"",""1"",""3091""
""blur"",""7"",""121821""
""focus"",""7"",""126689""
""fullscreenexit"",""54"",""531944""
","""event"",""trial"",""time""
""blur"",""7"",""121821""
","""event"",""trial"",""time""
""focus"",""7"",""126689""
","""event"",""trial"",""time""
""fullscreenenter"",""1"",""3091""
","""event"",""trial"",""time""
""fullscreenexit"",""54"",""531944""
","","","57.80000019073486","","","13","16959","6569","&#9789;","elianto","#f73b6a7A"," "," ","1","-10","[908.3000001907349]","1","0","4","","","","","","","",""
"pit-trial","90","735141","0.0-2.0-17.1-4.1","battery-v0.2","","""event"",""trial"",""time""
""fullscreenenter"",""1"",""3091""
""blur"",""7"",""121821""
""focus"",""7"",""126689""
""fullscreenexit"",""54"",""531944""
","""event"",""trial"",""time""
""blur"",""7"",""121821""
","""event"",""trial"",""time""
""focus"",""7"",""126689""
","""event"",""trial"",""time""
""fullscreenenter"",""1"",""3091""
","""event"",""trial"",""time""
""fullscreenexit"",""54"",""531944""
","","","41.80000019073486","","","13","16959","6569","&#9789;","elianto","#f73b6a7A"," "," ","1","0","[893.5999999046326]","1","0","4","","","","","","","",""
"pit-trial","91","738400","0.0-2.0-17.2-0.2","battery-v0.2","","""event"",""trial"",""time""
""fullscreenenter"",""1"",""3091""
""blur"",""7"",""121821""
""focus"",""7"",""126689""
""fullscreenexit"",""54"",""531944""
","""event"",""trial"",""time""
""blur"",""7"",""121821""
","""event"",""trial"",""time""
""focus"",""7"",""126689""
","""event"",""trial"",""time""
""fullscreenenter"",""1"",""3091""
","""event"",""trial"",""time""
""fullscreenexit"",""54"",""531944""
","","","390.90000009536743","","","13","16959","6569","&#9789;","elianto","#f73b6a7A"," "," ","1","0","[834.8000001907349,1245.9000000953674]","2","0","4","","","","","","","",""
"pit-trial","92","741378","0.0-2.0-17.2-1.2","battery-v0.2","","""event"",""trial"",""time""
""fullscreenenter"",""1"",""3091""
""blur"",""7"",""121821""
""focus"",""7"",""126689""
""fullscreenexit"",""54"",""531944""
","""event"",""trial"",""time""
""blur"",""7"",""121821""
","""event"",""trial"",""time""
""focus"",""7"",""126689""
","""event"",""trial"",""time""
""fullscreenenter"",""1"",""3091""
","""event"",""trial"",""time""
""fullscreenexit"",""54"",""531944""
","","","111.69999980926514","","","13","16959","6569","&#9789;","elianto","#f73b6a7A"," "," ","1","0","[969.4000000953674]","1","0","4","","","","","","","",""
"pit-trial","93","744258","0.0-2.0-17.2-2.2","battery-v0.2","","""event"",""trial"",""time""
""fullscreenenter"",""1"",""3091""
""blur"",""7"",""121821""
""focus"",""7"",""126689""
""fullscreenexit"",""54"",""531944""
","""event"",""trial"",""time""
""blur"",""7"",""121821""
","""event"",""trial"",""time""
""focus"",""7"",""126689""
","""event"",""trial"",""time""
""fullscreenenter"",""1"",""3091""
","""event"",""trial"",""time""
""fullscreenexit"",""54"",""531944""
","","","19.90000009536743","","","13","16959","6569","&#9789;","elianto","#f73b6a7A"," "," ","1","0","[875.2000002861023]","1","0","4","","","","","","","",""
"pit-trial","94","747962","0.0-2.0-17.2-3.2","battery-v0.2","","""event"",""trial"",""time""
""fullscreenenter"",""1"",""3091""
""blur"",""7"",""121821""
""focus"",""7"",""126689""
""fullscreenexit"",""54"",""531944""
","""event"",""trial"",""time""
""blur"",""7"",""121821""
","""event"",""trial"",""time""
""focus"",""7"",""126689""
","""event"",""trial"",""time""
""fullscreenenter"",""1"",""3091""
","""event"",""trial"",""time""
""fullscreenexit"",""54"",""531944""
","","","840","","","13","16959","6569","&#9789;","elianto","#f73b6a7A"," "," ","1","-10","[1694]","1","0","4","","","","","","","",""
"pit-trial","95","751378","0.0-2.0-17.2-4.2","battery-v0.2","","""event"",""trial"",""time""
""fullscreenenter"",""1"",""3091""
""blur"",""7"",""121821""
""focus"",""7"",""126689""
""fullscreenexit"",""54"",""531944""
","""event"",""trial"",""time""
""blur"",""7"",""121821""
","""event"",""trial"",""time""
""focus"",""7"",""126689""
","""event"",""trial"",""time""
""fullscreenenter"",""1"",""3091""
","""event"",""trial"",""time""
""fullscreenexit"",""54"",""531944""
","","","554","","","13","16959","6569","&#9789;","elianto","#f73b6a7A"," "," ","1","0","[1407.1999998092651]","1","0","4","","","","","","","",""
"pit-trial","96","754540","0.0-2.0-17.3-0.3","battery-v0.2","","""event"",""trial"",""time""
""fullscreenenter"",""1"",""3091""
""blur"",""7"",""121821""
""focus"",""7"",""126689""
""fullscreenexit"",""54"",""531944""
","""event"",""trial"",""time""
""blur"",""7"",""121821""
","""event"",""trial"",""time""
""focus"",""7"",""126689""
","""event"",""trial"",""time""
""fullscreenenter"",""1"",""3091""
","""event"",""trial"",""time""
""fullscreenexit"",""54"",""531944""
","","","303.30000019073486","","","13","16959","6569","&#9789;","elianto","#f73b6a7A"," "," ","1","0","[1155.2000002861023]","1","0","4","","","","","","","",""
"pit-trial","97","757970","0.0-2.0-17.3-1.3","battery-v0.2","","""event"",""trial"",""time""
""fullscreenenter"",""1"",""3091""
""blur"",""7"",""121821""
""focus"",""7"",""126689""
""fullscreenexit"",""54"",""531944""
","""event"",""trial"",""time""
""blur"",""7"",""121821""
","""event"",""trial"",""time""
""focus"",""7"",""126689""
","""event"",""trial"",""time""
""fullscreenenter"",""1"",""3091""
","""event"",""trial"",""time""
""fullscreenexit"",""54"",""531944""
","","","567.9000000953674","","","13","16959","6569","&#9789;","elianto","#f73b6a7A"," "," ","1","0","[1424.8000001907349]","1","0","4","","","","","","","",""
"pit-trial","98","761421","0.0-2.0-17.3-2.3","battery-v0.2","","""event"",""trial"",""time""
""fullscreenenter"",""1"",""3091""
""blur"",""7"",""121821""
""focus"",""7"",""126689""
""fullscreenexit"",""54"",""531944""
","""event"",""trial"",""time""
""blur"",""7"",""121821""
","""event"",""trial"",""time""
""focus"",""7"",""126689""
","""event"",""trial"",""time""
""fullscreenenter"",""1"",""3091""
","""event"",""trial"",""time""
""fullscreenexit"",""54"",""531944""
","","","596.5999999046326","","","13","16959","6569","&#9789;","elianto","#f73b6a7A"," "," ","1","0","[1446.8000001907349]","1","0","4","","","","","","","",""
"pit-trial","99","765172","0.0-2.0-17.3-3.3","battery-v0.2","","""event"",""trial"",""time""
""fullscreenenter"",""1"",""3091""
""blur"",""7"",""121821""
""focus"",""7"",""126689""
""fullscreenexit"",""54"",""531944""
","""event"",""trial"",""time""
""blur"",""7"",""121821""
","""event"",""trial"",""time""
""focus"",""7"",""126689""
","""event"",""trial"",""time""
""fullscreenenter"",""1"",""3091""
","""event"",""trial"",""time""
""fullscreenexit"",""54"",""531944""
","","","892.3000001907349","","","13","16959","6569","&#9789;","elianto","#f73b6a7A"," "," ","1","-10","[1745.3000001907349]","1","0","4","","","","","","","",""
"pit-trial","100","768375","0.0-2.0-17.3-4.3","battery-v0.2","","""event"",""trial"",""time""
""fullscreenenter"",""1"",""3091""
""blur"",""7"",""121821""
""focus"",""7"",""126689""
""fullscreenexit"",""54"",""531944""
","""event"",""trial"",""time""
""blur"",""7"",""121821""
","""event"",""trial"",""time""
""focus"",""7"",""126689""
","""event"",""trial"",""time""
""fullscreenenter"",""1"",""3091""
","""event"",""trial"",""time""
""fullscreenexit"",""54"",""531944""
","","","342.69999980926514","","","13","16959","6569","&#9789;","elianto","#f73b6a7A"," "," ","1","0","[1193.9000000953674]","1","0","4","","","","","","","",""
"call-function","101","768377","0.0-2.0-18.0","battery-v0.2","","""event"",""trial"",""time""
""fullscreenenter"",""1"",""3091""
""blur"",""7"",""121821""
""focus"",""7"",""126689""
""fullscreenexit"",""54"",""531944""
","""event"",""trial"",""time""
""blur"",""7"",""121821""
","""event"",""trial"",""time""
""focus"",""7"",""126689""
","""event"",""trial"",""time""
""fullscreenenter"",""1"",""3091""
","""event"",""trial"",""time""
""fullscreenexit"",""54"",""531944""
","","","","","","","","","","","","","","","","","","","","","","","","","","",""
"pit-instructions","102","858411","0.0-2.0-19.0","battery-v0.2","","""event"",""trial"",""time""
""fullscreenenter"",""1"",""3091""
""blur"",""7"",""121821""
""focus"",""7"",""126689""
""fullscreenexit"",""54"",""531944""
","""event"",""trial"",""time""
""blur"",""7"",""121821""
","""event"",""trial"",""time""
""focus"",""7"",""126689""
","""event"",""trial"",""time""
""fullscreenenter"",""1"",""3091""
","""event"",""trial"",""time""
""fullscreenexit"",""54"",""531944""
","","[{""page_index"":0,""viewing_time"":6684.099999904633},{""page_index"":1,""viewing_time"":6020},{""page_index"":2,""viewing_time"":24151},{""page_index"":3,""viewing_time"":11390},{""page_index"":4,""viewing_time"":8490.300000190735},{""page_index"":5,""viewing_time"":9436.39999961853},{""page_index"":6,""viewing_time"":8665.300000190735},{""page_index"":7,""viewing_time"":6589.099999904633},{""page_index"":8,""viewing_time"":8605.400000095367}]","90032.19999980927","","","","","","","","","","","","","","","","","","","","","","","",""
"pit-comprehension","103","864139","0.0-2.0-20.0-0.0","battery-v0.2","","""event"",""trial"",""time""
""fullscreenenter"",""1"",""3091""
""blur"",""7"",""121821""
""focus"",""7"",""126689""
""fullscreenexit"",""54"",""531944""
","""event"",""trial"",""time""
""blur"",""7"",""121821""
","""event"",""trial"",""time""
""focus"",""7"",""126689""
","""event"",""trial"",""time""
""fullscreenenter"",""1"",""3091""
","""event"",""trial"",""time""
""fullscreenexit"",""54"",""531944""
","","","5722.800000190735","[""SPACE""]","0","13","16959","6569","","","","","","","","","","","","","","","","","","",""
"pit-instructions","104","871369","0.0-2.0-20.0-1.0","battery-v0.2","","""event"",""trial"",""time""
""fullscreenenter"",""1"",""3091""
""blur"",""7"",""121821""
""focus"",""7"",""126689""
""fullscreenexit"",""54"",""531944""
","""event"",""trial"",""time""
""blur"",""7"",""121821""
","""event"",""trial"",""time""
""focus"",""7"",""126689""
","""event"",""trial"",""time""
""fullscreenenter"",""1"",""3091""
","""event"",""trial"",""time""
""fullscreenexit"",""54"",""531944""
","","[{""page_index"":0,""viewing_time"":7175.800000190735}]","7176.200000286102","","","","","","","","","","","","","","","","","","","","","","","",""
"pit-comprehension","105","878062","0.0-2.0-21.0-0.0","battery-v0.2","","""event"",""trial"",""time""
""fullscreenenter"",""1"",""3091""
""blur"",""7"",""121821""
""focus"",""7"",""126689""
""fullscreenexit"",""54"",""531944""
","""event"",""trial"",""time""
""blur"",""7"",""121821""
","""event"",""trial"",""time""
""focus"",""7"",""126689""
","""event"",""trial"",""time""
""fullscreenenter"",""1"",""3091""
","""event"",""trial"",""time""
""fullscreenexit"",""54"",""531944""
","","","6687.400000095367","[""10""]","0","13","16959","6569","","","","","","","","","","","","","","","","","","",""
"pit-instructions","106","882465","0.0-2.0-21.0-1.0","battery-v0.2","","""event"",""trial"",""time""
""fullscreenenter"",""1"",""3091""
""blur"",""7"",""121821""
""focus"",""7"",""126689""
""fullscreenexit"",""54"",""531944""
","""event"",""trial"",""time""
""blur"",""7"",""121821""
","""event"",""trial"",""time""
""focus"",""7"",""126689""
","""event"",""trial"",""time""
""fullscreenenter"",""1"",""3091""
","""event"",""trial"",""time""
""fullscreenexit"",""54"",""531944""
","","[{""page_index"":0,""viewing_time"":4359.700000286102}]","4360.099999904633","","","","","","","","","","","","","","","","","","","","","","","",""
"pit-comprehension","107","889321","0.0-2.0-22.0-0.0","battery-v0.2","","""event"",""trial"",""time""
""fullscreenenter"",""1"",""3091""
""blur"",""7"",""121821""
""focus"",""7"",""126689""
""fullscreenexit"",""54"",""531944""
","""event"",""trial"",""time""
""blur"",""7"",""121821""
","""event"",""trial"",""time""
""focus"",""7"",""126689""
","""event"",""trial"",""time""
""fullscreenenter"",""1"",""3091""
","""event"",""trial"",""time""
""fullscreenexit"",""54"",""531944""
","","","6850.400000095367","[""0""]","0","13","16959","6569","","","","","","","","","","","","","","","","","","",""
"pit-instructions","108","891669","0.0-2.0-22.0-1.0","battery-v0.2","","""event"",""trial"",""time""
""fullscreenenter"",""1"",""3091""
""blur"",""7"",""121821""
""focus"",""7"",""126689""
""fullscreenexit"",""54"",""531944""
","""event"",""trial"",""time""
""blur"",""7"",""121821""
","""event"",""trial"",""time""
""focus"",""7"",""126689""
","""event"",""trial"",""time""
""fullscreenenter"",""1"",""3091""
","""event"",""trial"",""time""
""fullscreenexit"",""54"",""531944""
","","[{""page_index"":0,""viewing_time"":2305.5}]","2305.800000190735","","","","","","","","","","","","","","","","","","","","","","","",""
"pit-comprehension","109","899756","0.0-2.0-23.0-0.0","battery-v0.2","","""event"",""trial"",""time""
""fullscreenenter"",""1"",""3091""
""blur"",""7"",""121821""
""focus"",""7"",""126689""
""fullscreenexit"",""54"",""531944""
","""event"",""trial"",""time""
""blur"",""7"",""121821""
","""event"",""trial"",""time""
""focus"",""7"",""126689""
","""event"",""trial"",""time""
""fullscreenenter"",""1"",""3091""
","""event"",""trial"",""time""
""fullscreenexit"",""54"",""531944""
","","","8082","[""True""]","0","13","16959","6569","","","","","","","","","","","","","","","","","","",""
"pit-instructions","110","901577","0.0-2.0-23.0-1.0","battery-v0.2","","""event"",""trial"",""time""
""fullscreenenter"",""1"",""3091""
""blur"",""7"",""121821""
""focus"",""7"",""126689""
""fullscreenexit"",""54"",""531944""
","""event"",""trial"",""time""
""blur"",""7"",""121821""
","""event"",""trial"",""time""
""focus"",""7"",""126689""
","""event"",""trial"",""time""
""fullscreenenter"",""1"",""3091""
","""event"",""trial"",""time""
""fullscreenexit"",""54"",""531944""
","","[{""page_index"":0,""viewing_time"":1768.5}]","1769.4000000953674","","","","","","","","","","","","","","","","","","","","","","","",""
"pit-comprehension","111","908695","0.0-2.0-24.0-0.0","battery-v0.2","","""event"",""trial"",""time""
""fullscreenenter"",""1"",""3091""
""blur"",""7"",""121821""
""focus"",""7"",""126689""
""fullscreenexit"",""54"",""531944""
","""event"",""trial"",""time""
""blur"",""7"",""121821""
","""event"",""trial"",""time""
""focus"",""7"",""126689""
","""event"",""trial"",""time""
""fullscreenenter"",""1"",""3091""
","""event"",""trial"",""time""
""fullscreenexit"",""54"",""531944""
","","","7113.799999713898","[""True""]","0","13","16959","6569","","","","","","","","","","","","","","","","","","",""
"pit-instructions","112","910231","0.0-2.0-24.0-1.0","battery-v0.2","","""event"",""trial"",""time""
""fullscreenenter"",""1"",""3091""
""blur"",""7"",""121821""
""focus"",""7"",""126689""
""fullscreenexit"",""54"",""531944""
","""event"",""trial"",""time""
""blur"",""7"",""121821""
","""event"",""trial"",""time""
""focus"",""7"",""126689""
","""event"",""trial"",""time""
""fullscreenenter"",""1"",""3091""
","""event"",""trial"",""time""
""fullscreenexit"",""54"",""531944""
","","[{""page_index"":0,""viewing_time"":1477.8000001907349}]","1478.0999999046326","","","","","","","","","","","","","","","","","","","","","","","",""
"pit-comprehension","113","916580","0.0-2.0-25.0-0.0","battery-v0.2","","""event"",""trial"",""time""
""fullscreenenter"",""1"",""3091""
""blur"",""7"",""121821""
""focus"",""7"",""126689""
""fullscreenexit"",""54"",""531944""
","""event"",""trial"",""time""
""blur"",""7"",""121821""
","""event"",""trial"",""time""
""focus"",""7"",""126689""
","""event"",""trial"",""time""
""fullscreenenter"",""1"",""3091""
","""event"",""trial"",""time""
""fullscreenexit"",""54"",""531944""
","","","6344.5","[""True""]","0","13","16959","6569","","","","","","","","","","","","","","","","","","",""
"pit-instructions","114","919893","0.0-2.0-25.0-1.0","battery-v0.2","","""event"",""trial"",""time""
""fullscreenenter"",""1"",""3091""
""blur"",""7"",""121821""
""focus"",""7"",""126689""
""fullscreenexit"",""54"",""531944""
","""event"",""trial"",""time""
""blur"",""7"",""121821""
","""event"",""trial"",""time""
""focus"",""7"",""126689""
","""event"",""trial"",""time""
""fullscreenenter"",""1"",""3091""
","""event"",""trial"",""time""
""fullscreenexit"",""54"",""531944""
","","[{""page_index"":0,""viewing_time"":3260.0999999046326}]","3260.5999999046326","","","","","","","","","","","","","","","","","","","","","","","",""
"pit-comprehension","115","927087","0.0-2.0-26.0-0.0","battery-v0.2","","""event"",""trial"",""time""
""fullscreenenter"",""1"",""3091""
""blur"",""7"",""121821""
""focus"",""7"",""126689""
""fullscreenexit"",""54"",""531944""
","""event"",""trial"",""time""
""blur"",""7"",""121821""
","""event"",""trial"",""time""
""focus"",""7"",""126689""
","""event"",""trial"",""time""
""fullscreenenter"",""1"",""3091""
","""event"",""trial"",""time""
""fullscreenexit"",""54"",""531944""
","","","7188.299999713898","[""False""]","0","13","16959","6569","","","","","","","","","","","","","","","","","","",""
"pit-instructions","116","929596","0.0-2.0-26.0-1.0","battery-v0.2","","""event"",""trial"",""time""
""fullscreenenter"",""1"",""3091""
""blur"",""7"",""121821""
""focus"",""7"",""126689""
""fullscreenexit"",""54"",""531944""
","""event"",""trial"",""time""
""blur"",""7"",""121821""
","""event"",""trial"",""time""
""focus"",""7"",""126689""
","""event"",""trial"",""time""
""fullscreenenter"",""1"",""3091""
","""event"",""trial"",""time""
""fullscreenexit"",""54"",""531944""
","","[{""page_index"":0,""viewing_time"":2462.5}]","2463.2000002861023","","","","","","","","","","","","","","","","","","","","","","","",""
"pit-instructions","117","949519","0.0-3.0","battery-v0.2","","""event"",""trial"",""time""
""fullscreenenter"",""1"",""3091""
""blur"",""7"",""121821""
""focus"",""7"",""126689""
""fullscreenexit"",""54"",""531944""
","""event"",""trial"",""time""
""blur"",""7"",""121821""
","""event"",""trial"",""time""
""focus"",""7"",""126689""
","""event"",""trial"",""time""
""fullscreenenter"",""1"",""3091""
","""event"",""trial"",""time""
""fullscreenexit"",""54"",""531944""
","","[{""page_index"":0,""viewing_time"":3718},{""page_index"":1,""viewing_time"":6427.599999904633},{""page_index"":2,""viewing_time"":9774.099999904633}]","19920.199999809265","","","","","","","","","","","","","","","","","","","","","","","",""
"pit-trial","118","953050","0.0-4.0","battery-v0.2","","""event"",""trial"",""time""
""fullscreenenter"",""1"",""3091""
""blur"",""7"",""121821""
""focus"",""7"",""126689""
""fullscreenexit"",""54"",""531944""
","""event"",""trial"",""time""
""blur"",""7"",""121821""
","""event"",""trial"",""time""
""focus"",""7"",""126689""
","""event"",""trial"",""time""
""fullscreenenter"",""1"",""3091""
","""event"",""trial"",""time""
""fullscreenexit"",""54"",""531944""
","","","672.0999999046326","","","13","16959","6569","&#9752;","elianto","#f73b6a7A"," "," ","1","0","[1522.5999999046326]","1","1","","","16959","1","3","3","lose","go","0"
"pit-trial","119","956042","0.0-5.0","battery-v0.2","","""event"",""trial"",""time""
""fullscreenenter"",""1"",""3091""
""blur"",""7"",""121821""
""focus"",""7"",""126689""
""fullscreenexit"",""54"",""531944""
","""event"",""trial"",""time""
""blur"",""7"",""121821""
","""event"",""trial"",""time""
""focus"",""7"",""126689""
","""event"",""trial"",""time""
""fullscreenenter"",""1"",""3091""
","""event"",""trial"",""time""
""fullscreenexit"",""54"",""531944""
","","","134.7000002861023","","","13","16959","6569","&#9733;","elianto","#3366ff99","-1"," ","0","0","[986.3999996185303]","1","1","","","16959","2","2","2","win","no-go","0"
"pit-trial","120","960054","0.0-6.0","battery-v0.2","","""event"",""trial"",""time""
""fullscreenenter"",""1"",""3091""
""blur"",""7"",""121821""
""focus"",""7"",""126689""
""fullscreenexit"",""54"",""531944""
","""event"",""trial"",""time""
""blur"",""7"",""121821""
","""event"",""trial"",""time""
""focus"",""7"",""126689""
","""event"",""trial"",""time""
""fullscreenenter"",""1"",""3091""
","""event"",""trial"",""time""
""fullscreenexit"",""54"",""531944""
","","","1156.7000002861023","","","13","16959","6569","&#9728;","elianto","#f73b6a7A","-1"," ","0","-10","[2008]","1","1","","","16959","3","0","4","lose","no-go","0"
"pit-trial","121","964062","0.0-7.0","battery-v0.2","","""event"",""trial"",""time""
""fullscreenenter"",""1"",""3091""
""blur"",""7"",""121821""
""focus"",""7"",""126689""
""fullscreenexit"",""54"",""531944""
","""event"",""trial"",""time""
""blur"",""7"",""121821""
","""event"",""trial"",""time""
""focus"",""7"",""126689""
","""event"",""trial"",""time""
""fullscreenenter"",""1"",""3091""
","""event"",""trial"",""time""
""fullscreenexit"",""54"",""531944""
","","","1151.0999999046326","","","13","16959","6569","&#9730;","elianto","#3366ff99"," "," ","1","+10","[2002.3000001907349]","1","1","","","16959","4","1","1","win","go","0"
"pit-trial","122","968352","0.0-8.0","battery-v0.2","","""event"",""trial"",""time""
""fullscreenenter"",""1"",""3091""
""blur"",""7"",""121821""
""focus"",""7"",""126689""
""fullscreenexit"",""54"",""531944""
","""event"",""trial"",""time""
""blur"",""7"",""121821""
","""event"",""trial"",""time""
""focus"",""7"",""126689""
","""event"",""trial"",""time""
""fullscreenenter"",""1"",""3091""
","""event"",""trial"",""time""
""fullscreenexit"",""54"",""531944""
","","","1434.5","","","13","16959","6569","&#9752;","elianto","#f73b6a7A"," "," ","1","-10","[2286.300000190735]","1","1","","","16959","5","3","3","lose","go","1"
"pit-trial","123","971924","0.0-9.0","battery-v0.2","","""event"",""trial"",""time""
""fullscreenenter"",""1"",""3091""
""blur"",""7"",""121821""
""focus"",""7"",""126689""
""fullscreenexit"",""54"",""531944""
","""event"",""trial"",""time""
""blur"",""7"",""121821""
","""event"",""trial"",""time""
""focus"",""7"",""126689""
","""event"",""trial"",""time""
""fullscreenenter"",""1"",""3091""
","""event"",""trial"",""time""
""fullscreenexit"",""54"",""531944""
","","","715.3000001907349","","","13","16959","6569","&#9728;","elianto","#f73b6a7A","-1"," ","0","-10","[1567.0999999046326]","1","1","","","16959","6","0","4","lose","no-go","0"
"pit-trial","124","975572","0.0-10.0","battery-v0.2","","""event"",""trial"",""time""
""fullscreenenter"",""1"",""3091""
""blur"",""7"",""121821""
""focus"",""7"",""126689""
""fullscreenexit"",""54"",""531944""
","""event"",""trial"",""time""
""blur"",""7"",""121821""
","""event"",""trial"",""time""
""focus"",""7"",""126689""
","""event"",""trial"",""time""
""fullscreenenter"",""1"",""3091""
","""event"",""trial"",""time""
""fullscreenexit"",""54"",""531944""
","","","793.3000001907349","","","13","16959","6569","&#9730;","elianto","#3366ff99"," "," ","1","+10","[1643.5]","1","1","","","16959","7","1","1","win","go","0"
"pit-trial","125","979427","0.0-11.0","battery-v0.2","","""event"",""trial"",""time""
""fullscreenenter"",""1"",""3091""
""blur"",""7"",""121821""
""focus"",""7"",""126689""
""fullscreenexit"",""54"",""531944""
","""event"",""trial"",""time""
""blur"",""7"",""121821""
","""event"",""trial"",""time""
""focus"",""7"",""126689""
","""event"",""trial"",""time""
""fullscreenenter"",""1"",""3091""
","""event"",""trial"",""time""
""fullscreenexit"",""54"",""531944""
","","","996.3999996185303","","","13","16959","6569","&#9733;","elianto","#3366ff99","-1"," ","0","0","[1846.6999998092651]","1","1","","","16959","8","2","2","win","no-go","0"
"pit-trial","126","984290","0.0-12.0","battery-v0.2","","""event"",""trial"",""time""
""fullscreenenter"",""1"",""3091""
""blur"",""7"",""121821""
""focus"",""7"",""126689""
""fullscreenexit"",""54"",""531944""
","""event"",""trial"",""time""
""blur"",""7"",""121821""
","""event"",""trial"",""time""
""focus"",""7"",""126689""
","""event"",""trial"",""time""
""fullscreenenter"",""1"",""3091""
","""event"",""trial"",""time""
""fullscreenexit"",""54"",""531944""
","","","-1","","","13","16959","6569","&#9733;","elianto","#3366ff99","-1","-1","1","+10","[]","0","1","","","16959","9","2","2","win","no-go","0"
"pit-trial","127","989147","0.0-13.0","battery-v0.2","","""event"",""trial"",""time""
""fullscreenenter"",""1"",""3091""
""blur"",""7"",""121821""
""focus"",""7"",""126689""
""fullscreenexit"",""54"",""531944""
","""event"",""trial"",""time""
""blur"",""7"",""121821""
","""event"",""trial"",""time""
""focus"",""7"",""126689""
","""event"",""trial"",""time""
""fullscreenenter"",""1"",""3091""
","""event"",""trial"",""time""
""fullscreenexit"",""54"",""531944""
","","","-1","","","13","16959","6569","&#9730;","elianto","#3366ff99"," ","-1","0","0","[2897.5999999046326]","1","1","","","16959","10","1","1","win","go","0"
"pit-trial","128","993251","0.0-14.0","battery-v0.2","","""event"",""trial"",""time""
""fullscreenenter"",""1"",""3091""
""blur"",""7"",""121821""
""focus"",""7"",""126689""
""fullscreenexit"",""54"",""531944""
","""event"",""trial"",""time""
""blur"",""7"",""121821""
","""event"",""trial"",""time""
""focus"",""7"",""126689""
","""event"",""trial"",""time""
""fullscreenenter"",""1"",""3091""
","""event"",""trial"",""time""
""fullscreenexit"",""54"",""531944""
","","","1242.0999999046326","","","13","16959","6569","&#9728;","elianto","#f73b6a7A","-1"," ","0","-10","[2093.9000000953674]","1","1","","","16959","11","0","4","lose","no-go","0"
"pit-trial","129","998115","0.0-15.0","battery-v0.2","","""event"",""trial"",""time""
""fullscreenenter"",""1"",""3091""
""blur"",""7"",""121821""
""focus"",""7"",""126689""
""fullscreenexit"",""54"",""531944""
","""event"",""trial"",""time""
""blur"",""7"",""121821""
","""event"",""trial"",""time""
""focus"",""7"",""126689""
","""event"",""trial"",""time""
""fullscreenenter"",""1"",""3091""
","""event"",""trial"",""time""
""fullscreenexit"",""54"",""531944""
","","","-1","","","13","16959","6569","&#9752;","elianto","#f73b6a7A"," ","-1","0","0","[]","0","1","","","16959","12","3","3","lose","go","1"
"pit-trial","130","1002983","0.0-16.0","battery-v0.2","","""event"",""trial"",""time""
""fullscreenenter"",""1"",""3091""
""blur"",""7"",""121821""
""focus"",""7"",""126689""
""fullscreenexit"",""54"",""531944""
","""event"",""trial"",""time""
""blur"",""7"",""121821""
","""event"",""trial"",""time""
""focus"",""7"",""126689""
","""event"",""trial"",""time""
""fullscreenenter"",""1"",""3091""
","""event"",""trial"",""time""
""fullscreenexit"",""54"",""531944""
","","","-1","","","13","16959","6569","&#9728;","elianto","#f73b6a7A","-1","-1","1","0","[]","0","1","","","16959","13","0","4","lose","no-go","0"
"pit-trial","131","1007160","0.0-17.0","battery-v0.2","","""event"",""trial"",""time""
""fullscreenenter"",""1"",""3091""
""blur"",""7"",""121821""
""focus"",""7"",""126689""
""fullscreenexit"",""54"",""531944""
","""event"",""trial"",""time""
""blur"",""7"",""121821""
","""event"",""trial"",""time""
""focus"",""7"",""126689""
","""event"",""trial"",""time""
""fullscreenenter"",""1"",""3091""
","""event"",""trial"",""time""
""fullscreenexit"",""54"",""531944""
","","","1315.9000000953674","","","13","16959","6569","&#9733;","elianto","#3366ff99","-1"," ","0","0","[2168.199999809265]","1","1","","","16959","14","2","2","win","no-go","0"
"pit-trial","132","1012030","0.0-18.0","battery-v0.2","","""event"",""trial"",""time""
""fullscreenenter"",""1"",""3091""
""blur"",""7"",""121821""
""focus"",""7"",""126689""
""fullscreenexit"",""54"",""531944""
","""event"",""trial"",""time""
""blur"",""7"",""121821""
","""event"",""trial"",""time""
""focus"",""7"",""126689""
","""event"",""trial"",""time""
""fullscreenenter"",""1"",""3091""
","""event"",""trial"",""time""
""fullscreenexit"",""54"",""531944""
","","","-1","","","13","16959","6569","&#9752;","elianto","#f73b6a7A"," ","-1","0","-10","[]","0","1","","","16959","15","3","3","lose","go","0"
"pit-trial","133","1016901","0.0-19.0","battery-v0.2","","""event"",""trial"",""time""
""fullscreenenter"",""1"",""3091""
""blur"",""7"",""121821""
""focus"",""7"",""126689""
""fullscreenexit"",""54"",""531944""
","""event"",""trial"",""time""
""blur"",""7"",""121821""
","""event"",""trial"",""time""
""focus"",""7"",""126689""
","""event"",""trial"",""time""
""fullscreenenter"",""1"",""3091""
","""event"",""trial"",""time""
""fullscreenexit"",""54"",""531944""
","","","-1","","","13","16959","6569","&#9730;","elianto","#3366ff99"," ","-1","0","+10","[]","0","1","","","16959","16","1","1","win","go","1"
"pit-trial","134","1021769","0.0-20.0","battery-v0.2","","""event"",""trial"",""time""
""fullscreenenter"",""1"",""3091""
""blur"",""7"",""121821""
""focus"",""7"",""126689""
""fullscreenexit"",""54"",""531944""
","""event"",""trial"",""time""
""blur"",""7"",""121821""
","""event"",""trial"",""time""
""focus"",""7"",""126689""
","""event"",""trial"",""time""
""fullscreenenter"",""1"",""3091""
","""event"",""trial"",""time""
""fullscreenexit"",""54"",""531944""
","","","-1","","","13","16959","6569","&#9730;","elianto","#3366ff99"," ","-1","0","+10","[]","0","1","","","16959","17","1","1","win","go","1"
"pit-trial","135","1026635","0.0-21.0","battery-v0.2","","""event"",""trial"",""time""
""fullscreenenter"",""1"",""3091""
""blur"",""7"",""121821""
""focus"",""7"",""126689""
""fullscreenexit"",""54"",""531944""
","""event"",""trial"",""time""
""blur"",""7"",""121821""
","""event"",""trial"",""time""
""focus"",""7"",""126689""
","""event"",""trial"",""time""
""fullscreenenter"",""1"",""3091""
","""event"",""trial"",""time""
""fullscreenexit"",""54"",""531944""
","","","-1","","","13","16959","6569","&#9728;","elianto","#f73b6a7A","-1","-1","1","0","[]","0","1","","","16959","18","0","4","lose","no-go","0"
"pit-trial","136","1031500","0.0-22.0","battery-v0.2","","""event"",""trial"",""time""
""fullscreenenter"",""1"",""3091""
""blur"",""7"",""121821""
""focus"",""7"",""126689""
""fullscreenexit"",""54"",""531944""
","""event"",""trial"",""time""
""blur"",""7"",""121821""
","""event"",""trial"",""time""
""focus"",""7"",""126689""
","""event"",""trial"",""time""
""fullscreenenter"",""1"",""3091""
","""event"",""trial"",""time""
""fullscreenexit"",""54"",""531944""
","","","-1","","","13","16959","6569","&#9752;","elianto","#f73b6a7A"," ","-1","0","-10","[]","0","1","","","16959","19","3","3","lose","go","0"
"pit-trial","137","1036374","0.0-23.0","battery-v0.2","","""event"",""trial"",""time""
""fullscreenenter"",""1"",""3091""
""blur"",""7"",""121821""
""focus"",""7"",""126689""
""fullscreenexit"",""54"",""531944""
","""event"",""trial"",""time""
""blur"",""7"",""121821""
","""event"",""trial"",""time""
""focus"",""7"",""126689""
","""event"",""trial"",""time""
""fullscreenenter"",""1"",""3091""
","""event"",""trial"",""time""
""fullscreenexit"",""54"",""531944""
","","","-1","","","13","16959","6569","&#9733;","elianto","#3366ff99","-1","-1","1","0","[]","0","1","","","16959","20","2","2","win","no-go","1"
"pit-instructions","138","1055735","0.0-24.0","battery-v0.2","","""event"",""trial"",""time""
""fullscreenenter"",""1"",""3091""
""blur"",""7"",""121821""
""focus"",""7"",""126689""
""fullscreenexit"",""54"",""531944""
","""event"",""trial"",""time""
""blur"",""7"",""121821""
","""event"",""trial"",""time""
""focus"",""7"",""126689""
","""event"",""trial"",""time""
""fullscreenenter"",""1"",""3091""
","""event"",""trial"",""time""
""fullscreenexit"",""54"",""531944""
","","[{""page_index"":0,""viewing_time"":8659.300000190735},{""page_index"":1,""viewing_time"":10695.799999713898}]","19355.599999904633","","","","","","","","","","","","","","","","","","","","","","","",""
"pit-trial","139","1060591","0.0-25.0","battery-v0.2","","""event"",""trial"",""time""
""fullscreenenter"",""1"",""3091""
""blur"",""7"",""121821""
""focus"",""7"",""126689""
""fullscreenexit"",""54"",""531944""
","""event"",""trial"",""time""
""blur"",""7"",""121821""
","""event"",""trial"",""time""
""focus"",""7"",""126689""
","""event"",""trial"",""time""
""fullscreenenter"",""1"",""3091""
","""event"",""trial"",""time""
""fullscreenexit"",""54"",""531944""
","","","-1","","","13","16959","6569","j","elianto","#f73b6a7A"," ","-1","0","-10","[3007.199999809265]","1","2","","","16959","21","0","3","lose","go","0"
"pit-trial","140","1065029","0.0-26.0","battery-v0.2","","""event"",""trial"",""time""
""fullscreenenter"",""1"",""3091""
""blur"",""7"",""121821""
""focus"",""7"",""126689""
""fullscreenexit"",""54"",""531944""
","""event"",""trial"",""time""
""blur"",""7"",""121821""
","""event"",""trial"",""time""
""focus"",""7"",""126689""
","""event"",""trial"",""time""
""fullscreenenter"",""1"",""3091""
","""event"",""trial"",""time""
""fullscreenexit"",""54"",""531944""
","","","1582.2999997138977","","","13","16959","6569","d","elianto","#3366ff99","-1"," ","0","0","[2432.699999809265]","1","2","","","16959","22","1","2","win","no-go","0"
"pit-trial","141","1069142","0.0-27.0","battery-v0.2","","""event"",""trial"",""time""
""fullscreenenter"",""1"",""3091""
""blur"",""7"",""121821""
""focus"",""7"",""126689""
""fullscreenexit"",""54"",""531944""
","""event"",""trial"",""time""
""blur"",""7"",""121821""
","""event"",""trial"",""time""
""focus"",""7"",""126689""
","""event"",""trial"",""time""
""fullscreenenter"",""1"",""3091""
","""event"",""trial"",""time""
""fullscreenexit"",""54"",""531944""
","","","1258.3999996185303","","","13","16959","6569","e","elianto","#f73b6a7A"," "," ","1","0","[2108.9000000953674]","1","2","","","16959","23","2","3","lose","go","0"
"pit-trial","142","1073287","0.0-28.0","battery-v0.2","","""event"",""trial"",""time""
""fullscreenenter"",""1"",""3091""
""blur"",""7"",""121821""
""focus"",""7"",""126689""
""fullscreenexit"",""54"",""531944""
","""event"",""trial"",""time""
""blur"",""7"",""121821""
","""event"",""trial"",""time""
""focus"",""7"",""126689""
","""event"",""trial"",""time""
""fullscreenenter"",""1"",""3091""
","""event"",""trial"",""time""
""fullscreenexit"",""54"",""531944""
","","","1286.0999999046326","","","13","16959","6569","w","elianto","#f73b6a7A","-1"," ","0","0","[2140.699999809265]","1","2","","","16959","24","3","4","lose","no-go","1"
"pit-trial","143","1077136","0.0-29.0","battery-v0.2","","""event"",""trial"",""time""
""fullscreenenter"",""1"",""3091""
""blur"",""7"",""121821""
""focus"",""7"",""126689""
""fullscreenexit"",""54"",""531944""
","""event"",""trial"",""time""
""blur"",""7"",""121821""
","""event"",""trial"",""time""
""focus"",""7"",""126689""
","""event"",""trial"",""time""
""fullscreenenter"",""1"",""3091""
","""event"",""trial"",""time""
""fullscreenexit"",""54"",""531944""
","","","994.0999999046326","","","13","16959","6569","j","elianto","#f73b6a7A"," "," ","1","-10","[1845.5]","1","2","","","16959","25","0","3","lose","go","1"
"pit-trial","144","1081637","0.0-30.0","battery-v0.2","","""event"",""trial"",""time""
""fullscreenenter"",""1"",""3091""
""blur"",""7"",""121821""
""focus"",""7"",""126689""
""fullscreenexit"",""54"",""531944""
","""event"",""trial"",""time""
""blur"",""7"",""121821""
","""event"",""trial"",""time""
""focus"",""7"",""126689""
","""event"",""trial"",""time""
""fullscreenenter"",""1"",""3091""
","""event"",""trial"",""time""
""fullscreenexit"",""54"",""531944""
","","","1644.8000001907349","","","13","16959","6569","d","elianto","#3366ff99","-1"," ","0","0","[2496.2000002861023]","1","2","","","16959","26","1","2","win","no-go","0"
"pit-trial","145","1086500","0.0-31.0","battery-v0.2","","""event"",""trial"",""time""
""fullscreenenter"",""1"",""3091""
""blur"",""7"",""121821""
""focus"",""7"",""126689""
""fullscreenexit"",""54"",""531944""
","""event"",""trial"",""time""
""blur"",""7"",""121821""
","""event"",""trial"",""time""
""focus"",""7"",""126689""
","""event"",""trial"",""time""
""fullscreenenter"",""1"",""3091""
","""event"",""trial"",""time""
""fullscreenexit"",""54"",""531944""
","","","-1","","","13","16959","6569","e","elianto","#f73b6a7A"," ","-1","0","-10","[3296.9000000953674]","1","2","","","16959","27","2","3","lose","go","0"
"pit-trial","146","1090213","0.0-32.0","battery-v0.2","","""event"",""trial"",""time""
""fullscreenenter"",""1"",""3091""
""blur"",""7"",""121821""
""focus"",""7"",""126689""
""fullscreenexit"",""54"",""531944""
","""event"",""trial"",""time""
""blur"",""7"",""121821""
","""event"",""trial"",""time""
""focus"",""7"",""126689""
","""event"",""trial"",""time""
""fullscreenenter"",""1"",""3091""
","""event"",""trial"",""time""
""fullscreenexit"",""54"",""531944""
","","","852.5","","","13","16959","6569","w","elianto","#f73b6a7A","-1"," ","0","-10","[1704.5]","1","2","","","16959","28","3","4","lose","no-go","0"
"pit-trial","147","1094726","0.0-33.0","battery-v0.2","","""event"",""trial"",""time""
""fullscreenenter"",""1"",""3091""
""blur"",""7"",""121821""
""focus"",""7"",""126689""
""fullscreenexit"",""54"",""531944""
","""event"",""trial"",""time""
""blur"",""7"",""121821""
","""event"",""trial"",""time""
""focus"",""7"",""126689""
","""event"",""trial"",""time""
""fullscreenenter"",""1"",""3091""
","""event"",""trial"",""time""
""fullscreenexit"",""54"",""531944""
","","","1650.0999999046326","","","13","16959","6569","d","elianto","#3366ff99","-1"," ","0","0","[2501.800000190735]","1","2","","","16959","29","1","2","win","no-go","0"
"pit-trial","148","1098628","0.0-34.0","battery-v0.2","","""event"",""trial"",""time""
""fullscreenenter"",""1"",""3091""
""blur"",""7"",""121821""
""focus"",""7"",""126689""
""fullscreenexit"",""54"",""531944""
","""event"",""trial"",""time""
""blur"",""7"",""121821""
","""event"",""trial"",""time""
""focus"",""7"",""126689""
","""event"",""trial"",""time""
""fullscreenenter"",""1"",""3091""
","""event"",""trial"",""time""
""fullscreenexit"",""54"",""531944""
","","","1033.0999999046326","","","13","16959","6569","j","elianto","#f73b6a7A"," "," ","1","0","[1890.3999996185303]","1","2","","","16959","30","0","3","lose","go","0"
"pit-trial","149","1103498","0.0-35.0","battery-v0.2","","""event"",""trial"",""time""
""fullscreenenter"",""1"",""3091""
""blur"",""7"",""121821""
""focus"",""7"",""126689""
""fullscreenexit"",""54"",""531944""
","""event"",""trial"",""time""
""blur"",""7"",""121821""
","""event"",""trial"",""time""
""focus"",""7"",""126689""
","""event"",""trial"",""time""
""fullscreenenter"",""1"",""3091""
","""event"",""trial"",""time""
""fullscreenexit"",""54"",""531944""
","","","-1","","","13","16959","6569","e","elianto","#f73b6a7A"," ","-1","0","-10","[]","0","2","","","16959","31","2","3","lose","go","0"
"pit-trial","150","1106874","0.0-36.0","battery-v0.2","","""event"",""trial"",""time""
""fullscreenenter"",""1"",""3091""
""blur"",""7"",""121821""
""focus"",""7"",""126689""
""fullscreenexit"",""54"",""531944""
","""event"",""trial"",""time""
""blur"",""7"",""121821""
","""event"",""trial"",""time""
""focus"",""7"",""126689""
","""event"",""trial"",""time""
""fullscreenenter"",""1"",""3091""
","""event"",""trial"",""time""
""fullscreenexit"",""54"",""531944""
","","","509.2000002861023","","","13","16959","6569","w","elianto","#f73b6a7A","-1"," ","0","0","[1360]","1","2","","","16959","32","3","4","lose","no-go","1"
"pit-trial","151","1110549","0.0-37.0","battery-v0.2","","""event"",""trial"",""time""
""fullscreenenter"",""1"",""3091""
""blur"",""7"",""121821""
""focus"",""7"",""126689""
""fullscreenexit"",""54"",""531944""
","""event"",""trial"",""time""
""blur"",""7"",""121821""
","""event"",""trial"",""time""
""focus"",""7"",""126689""
","""event"",""trial"",""time""
""fullscreenenter"",""1"",""3091""
","""event"",""trial"",""time""
""fullscreenexit"",""54"",""531944""
","","","817.5","","","13","16959","6569","d","elianto","#3366ff99","-1"," ","0","0","[1668]","1","2","","","16959","33","1","2","win","no-go","0"
"pit-trial","152","1114936","0.0-38.0","battery-v0.2","","""event"",""trial"",""time""
""fullscreenenter"",""1"",""3091""
""blur"",""7"",""121821""
""focus"",""7"",""126689""
""fullscreenexit"",""54"",""531944""
","""event"",""trial"",""time""
""blur"",""7"",""121821""
","""event"",""trial"",""time""
""focus"",""7"",""126689""
","""event"",""trial"",""time""
""fullscreenenter"",""1"",""3091""
","""event"",""trial"",""time""
""fullscreenexit"",""54"",""531944""
","","","1535.5","","","13","16959","6569","e","elianto","#f73b6a7A"," "," ","1","0","[2385.4000000953674]","1","2","","","16959","34","2","3","lose","go","0"
"pit-trial","153","1119596","0.0-39.0","battery-v0.2","","""event"",""trial"",""time""
""fullscreenenter"",""1"",""3091""
""blur"",""7"",""121821""
""focus"",""7"",""126689""
""fullscreenexit"",""54"",""531944""
","""event"",""trial"",""time""
""blur"",""7"",""121821""
","""event"",""trial"",""time""
""focus"",""7"",""126689""
","""event"",""trial"",""time""
""fullscreenenter"",""1"",""3091""
","""event"",""trial"",""time""
""fullscreenexit"",""54"",""531944""
","","","1796.3999996185303","","","13","16959","6569","w","elianto","#f73b6a7A","-1"," ","0","-10","[2653.5]","1","2","","","16959","35","3","4","lose","no-go","0"
"pit-trial","154","1124469","0.0-40.0","battery-v0.2","","""event"",""trial"",""time""
""fullscreenenter"",""1"",""3091""
""blur"",""7"",""121821""
""focus"",""7"",""126689""
""fullscreenexit"",""54"",""531944""
","""event"",""trial"",""time""
""blur"",""7"",""121821""
","""event"",""trial"",""time""
""focus"",""7"",""126689""
","""event"",""trial"",""time""
""fullscreenenter"",""1"",""3091""
","""event"",""trial"",""time""
""fullscreenexit"",""54"",""531944""
","","","-1","","","13","16959","6569","j","elianto","#f73b6a7A"," ","-1","0","-10","[2868.5999999046326]","1","2","","","16959","36","0","3","lose","go","0"
"pit-trial","155","1128413","0.0-41.0","battery-v0.2","","""event"",""trial"",""time""
""fullscreenenter"",""1"",""3091""
""blur"",""7"",""121821""
""focus"",""7"",""126689""
""fullscreenexit"",""54"",""531944""
","""event"",""trial"",""time""
""blur"",""7"",""121821""
","""event"",""trial"",""time""
""focus"",""7"",""126689""
","""event"",""trial"",""time""
""fullscreenenter"",""1"",""3091""
","""event"",""trial"",""time""
""fullscreenexit"",""54"",""531944""
","","","1083.0999999046326","","","13","16959","6569","j","elianto","#f73b6a7A"," "," ","1","0","[1938.1999998092651]","1","2","","","16959","37","0","3","lose","go","0"
"pit-trial","156","1133119","0.0-42.0","battery-v0.2","","""event"",""trial"",""time""
""fullscreenenter"",""1"",""3091""
""blur"",""7"",""121821""
""focus"",""7"",""126689""
""fullscreenexit"",""54"",""531944""
","""event"",""trial"",""time""
""blur"",""7"",""121821""
","""event"",""trial"",""time""
""focus"",""7"",""126689""
","""event"",""trial"",""time""
""fullscreenenter"",""1"",""3091""
","""event"",""trial"",""time""
""fullscreenexit"",""54"",""531944""
","","","1846.3000001907349","","","13","16959","6569","e","elianto","#f73b6a7A"," "," ","1","0","[2701.0999999046326]","1","2","","","16959","38","2","3","lose","go","0"
"pit-trial","157","1137984","0.0-43.0","battery-v0.2","","""event"",""trial"",""time""
""fullscreenenter"",""1"",""3091""
""blur"",""7"",""121821""
""focus"",""7"",""126689""
""fullscreenexit"",""54"",""531944""
","""event"",""trial"",""time""
""blur"",""7"",""121821""
","""event"",""trial"",""time""
""focus"",""7"",""126689""
","""event"",""trial"",""time""
""fullscreenenter"",""1"",""3091""
","""event"",""trial"",""time""
""fullscreenexit"",""54"",""531944""
","","","-1","","","13","16959","6569","d","elianto","#3366ff99","-1","-1","1","+10","[]","0","2","","","16959","39","1","2","win","no-go","0"
"pit-trial","158","1141808","0.0-44.0","battery-v0.2","","""event"",""trial"",""time""
""fullscreenenter"",""1"",""3091""
""blur"",""7"",""121821""
""focus"",""7"",""126689""
""fullscreenexit"",""54"",""531944""
","""event"",""trial"",""time""
""blur"",""7"",""121821""
","""event"",""trial"",""time""
""focus"",""7"",""126689""
","""event"",""trial"",""time""
""fullscreenenter"",""1"",""3091""
","""event"",""trial"",""time""
""fullscreenexit"",""54"",""531944""
","","","965.3000001907349","","","13","16959","6569","w","elianto","#f73b6a7A","-1"," ","0","0","[1819.3000001907349]","1","2","","","16959","40","3","4","lose","no-go","1"
"pit-trial","159","1146141","0.0-45.0","battery-v0.2","","""event"",""trial"",""time""
""fullscreenenter"",""1"",""3091""
""blur"",""7"",""121821""
""focus"",""7"",""126689""
""fullscreenexit"",""54"",""531944""
","""event"",""trial"",""time""
""blur"",""7"",""121821""
","""event"",""trial"",""time""
""focus"",""7"",""126689""
","""event"",""trial"",""time""
""fullscreenenter"",""1"",""3091""
","""event"",""trial"",""time""
""fullscreenexit"",""54"",""531944""
","","","1476.0999999046326","","","13","16959","6569","e","elianto","#f73b6a7A"," "," ","1","0","[2328.4000000953674]","1","2","","","16959","41","2","3","lose","go","0"
"pit-trial","160","1151011","0.0-46.0","battery-v0.2","","""event"",""trial"",""time""
""fullscreenenter"",""1"",""3091""
""blur"",""7"",""121821""
""focus"",""7"",""126689""
""fullscreenexit"",""54"",""531944""
","""event"",""trial"",""time""
""blur"",""7"",""121821""
","""event"",""trial"",""time""
""focus"",""7"",""126689""
","""event"",""trial"",""time""
""fullscreenenter"",""1"",""3091""
","""event"",""trial"",""time""
""fullscreenexit"",""54"",""531944""
","","","-1","","","13","16959","6569","d","elianto","#3366ff99","-1","-1","1","+10","[]","0","2","","","16959","42","1","2","win","no-go","0"
"pit-trial","161","1155620","0.0-47.0","battery-v0.2","","""event"",""trial"",""time""
""fullscreenenter"",""1"",""3091""
""blur"",""7"",""121821""
""focus"",""7"",""126689""
""fullscreenexit"",""54"",""531944""
","""event"",""trial"",""time""
""blur"",""7"",""121821""
","""event"",""trial"",""time""
""focus"",""7"",""126689""
","""event"",""trial"",""time""
""fullscreenenter"",""1"",""3091""
","""event"",""trial"",""time""
""fullscreenexit"",""54"",""531944""
","","","1739.7000002861023","","","13","16959","6569","w","elianto","#f73b6a7A","-1"," ","0","-10","[2590.3999996185303]","1","2","","","16959","43","3","4","lose","no-go","0"
"pit-trial","162","1159578","0.0-48.0","battery-v0.2","","""event"",""trial"",""time""
""fullscreenenter"",""1"",""3091""
""blur"",""7"",""121821""
""focus"",""7"",""126689""
""fullscreenexit"",""54"",""531944""
","""event"",""trial"",""time""
""blur"",""7"",""121821""
","""event"",""trial"",""time""
""focus"",""7"",""126689""
","""event"",""trial"",""time""
""fullscreenenter"",""1"",""3091""
","""event"",""trial"",""time""
""fullscreenexit"",""54"",""531944""
","","","1089.8000001907349","","","13","16959","6569","j","elianto","#f73b6a7A"," "," ","1","0","[1944.3000001907349]","1","2","","","16959","44","0","3","lose","go","0"
"pit-trial","163","1164456","0.0-49.0","battery-v0.2","","""event"",""trial"",""time""
""fullscreenenter"",""1"",""3091""
""blur"",""7"",""121821""
""focus"",""7"",""126689""
""fullscreenexit"",""54"",""531944""
","""event"",""trial"",""time""
""blur"",""7"",""121821""
","""event"",""trial"",""time""
""focus"",""7"",""126689""
","""event"",""trial"",""time""
""fullscreenenter"",""1"",""3091""
