"trial_type","trial_index","time_elapsed","internal_node_id","task_version","subject_id","interactions","blur_events","focus_events","fullscreenenter_events","fullscreenexit_events","success","view_history","rt","responses","num_errors","age","subject","participantId","rune","rune_set","hex","correct","choice","accuracy","outcome","keys","total_keys","block","practice","value","sub","trial","stimulus","robot","valence","action","sham"
"pavlovia","0","13","0.0-0.0","battery-v0.2","","""event"",""trial"",""time""
""fullscreenenter"",""1"",""3766""
","
","
","""event"",""trial"",""time""
""fullscreenenter"",""1"",""3766""
","
","","","","","","","","","","","","","","","","","","","","","","","","","","",""
"fullscreen","1","4750","0.0-1.0","battery-v0.2","","""event"",""trial"",""time""
""fullscreenenter"",""1"",""3766""
","
","
","""event"",""trial"",""time""
""fullscreenenter"",""1"",""3766""
","
","true","","","","","","","","","","","","","","","","","","","","","","","","","",""
"pit-instructions","2","9262","0.0-2.0-0.0","battery-v0.2","","""event"",""trial"",""time""
""fullscreenenter"",""1"",""3766""
","
","
","""event"",""trial"",""time""
""fullscreenenter"",""1"",""3766""
","
","","[{""page_index"":0,""viewing_time"":4504}]","4504.39999999851","","","","","","","","","","","","","","","","","","","","","","","",""
"pit-comprehension","3","14269","0.0-2.0-1.0-0.0","battery-v0.2","","""event"",""trial"",""time""
""fullscreenenter"",""1"",""3766""
","
","
","""event"",""trial"",""time""
""fullscreenenter"",""1"",""3766""
","
","","","5001.29999999702","[""shark""]","0","24","7699","3934","","","","","","","","","","","","","","","","","","",""
"pit-instructions","4","16979","0.0-2.0-1.0-1.0","battery-v0.2","","""event"",""trial"",""time""
""fullscreenenter"",""1"",""3766""
","
","
","""event"",""trial"",""time""
""fullscreenenter"",""1"",""3766""
","
","","[{""page_index"":0,""viewing_time"":2653.7000000029802}]","2654.10000000149","","","","","","","","","","","","","","","","","","","","","","","",""
"pit-comprehension","5","20270","0.0-2.0-2.0-0.0","battery-v0.2","","""event"",""trial"",""time""
""fullscreenenter"",""1"",""3766""
","
","
","""event"",""trial"",""time""
""fullscreenenter"",""1"",""3766""
","
","","","3281.0999999940395","[""tiger""]","0","24","7699","3934","","","","","","","","","","","","","","","","","","",""
"pit-instructions","6","22901","0.0-2.0-2.0-1.0","battery-v0.2","","""event"",""trial"",""time""
""fullscreenenter"",""1"",""3766""
","
","
","""event"",""trial"",""time""
""fullscreenenter"",""1"",""3766""
","
","","[{""page_index"":0,""viewing_time"":2624.60000000149}]","2625","","","","","","","","","","","","","","","","","","","","","","","",""
"pit-instructions","7","131566","0.0-2.0-3.0","battery-v0.2","","""event"",""trial"",""time""
""fullscreenenter"",""1"",""3766""
","
","
","""event"",""trial"",""time""
""fullscreenenter"",""1"",""3766""
","
","","[{""page_index"":0,""viewing_time"":11471},{""page_index"":1,""viewing_time"":7806.80000000447},{""page_index"":2,""viewing_time"":9023.09999999404},{""page_index"":3,""viewing_time"":7559.9000000059605},{""page_index"":4,""viewing_time"":8280.09999999404},{""page_index"":5,""viewing_time"":6536.80000000447},{""page_index"":6,""viewing_time"":6839.60000000149},{""page_index"":7,""viewing_time"":6761},{""page_index"":8,""viewing_time"":6468.29999999702},{""page_index"":9,""viewing_time"":9241.20000000298},{""page_index"":10,""viewing_time"":7251.29999999702},{""page_index"":11,""viewing_time"":8213},{""page_index"":12,""viewing_time"":7301.79999999702},{""page_index"":13,""viewing_time"":5905.9000000059605}]","108660.20000000298","","","","","","","","","","","","","","","","","","","","","","","",""
"pit-trial","8","136450","0.0-2.0-4.0-0.0","battery-v0.2","","""event"",""trial"",""time""
""fullscreenenter"",""1"",""3766""
","
","
","""event"",""trial"",""time""
""fullscreenenter"",""1"",""3766""
","
","","","-1","","","24","7699","3934","&#9784;","elianto","#FFFFF080"," ","-1","0","&#10060","[839.5999999940395]","1","0","0","","","","","","","",""
"pit-trial","9","139910","0.0-2.0-4.1-0.1","battery-v0.2","","""event"",""trial"",""time""
""fullscreenenter"",""1"",""3766""
","
","
","""event"",""trial"",""time""
""fullscreenenter"",""1"",""3766""
","
","","","591.5999999940395","","","24","7699","3934","&#9784;","elianto","#FFFFF080"," "," ","1","&#10004","[1444.7000000029802]","1","0","0","","","","","","","",""
"pit-trial","10","143270","0.0-2.0-4.2-0.2","battery-v0.2","","""event"",""trial"",""time""
""fullscreenenter"",""1"",""3766""
","
","
","""event"",""trial"",""time""
""fullscreenenter"",""1"",""3766""
","
","","","490.69999999552965","","","24","7699","3934","&#9784;","elianto","#FFFFF080"," "," ","1","&#10004","[1350.3999999985099]","1","0","0","","","","","","","",""
"pit-trial","11","146600","0.0-2.0-4.3-0.3","battery-v0.2","","""event"",""trial"",""time""
""fullscreenenter"",""1"",""3766""
","
","
","""event"",""trial"",""time""
""fullscreenenter"",""1"",""3766""
","
","","","455.29999999701977","","","24","7699","3934","&#9784;","elianto","#FFFFF080"," "," ","1","&#10004","[1306.3999999985099]","1","0","0","","","","","","","",""
"pit-trial","12","149870","0.0-2.0-4.4-0.4","battery-v0.2","","""event"",""trial"",""time""
""fullscreenenter"",""1"",""3766""
","
","
","""event"",""trial"",""time""
""fullscreenenter"",""1"",""3766""
","
","","","398.6000000014901","","","24","7699","3934","&#9784;","elianto","#FFFFF080"," "," ","1","&#10004","[1249.7000000029802]","1","0","0","","","","","","","",""
"pit-instructions","13","174260","0.0-2.0-5.0","battery-v0.2","","""event"",""trial"",""time""
""fullscreenenter"",""1"",""3766""
","
","
","""event"",""trial"",""time""
""fullscreenenter"",""1"",""3766""
","
","","[{""page_index"":0,""viewing_time"":6663.60000000149},{""page_index"":1,""viewing_time"":6423.39999999851},{""page_index"":2,""viewing_time"":6153.70000000298},{""page_index"":3,""viewing_time"":5141.39999999851}]","24382.60000000149","","","","","","","","","","","","","","","","","","","","","","","",""
"pit-trial","14","179140","0.0-2.0-6.0-0.0","battery-v0.2","","""event"",""trial"",""time""
""fullscreenenter"",""1"",""3766""
","
","
","""event"",""trial"",""time""
""fullscreenenter"",""1"",""3766""
","
","","","-1","","","24","7699","3934","&#9854;","elianto","#FFFFF080","-1","-1","1","&#10004","[]","0","0","1","","","","","","","",""
"pit-trial","15","184020","0.0-2.0-6.1-0.1","battery-v0.2","","""event"",""trial"",""time""
""fullscreenenter"",""1"",""3766""
","
","
","""event"",""trial"",""time""
""fullscreenenter"",""1"",""3766""
","
","","","-1","","","24","7699","3934","&#9854;","elianto","#FFFFF080","-1","-1","1","&#10004","[]","0","0","1","","","","","","","",""
"pit-trial","16","188890","0.0-2.0-6.2-0.2","battery-v0.2","","""event"",""trial"",""time""
""fullscreenenter"",""1"",""3766""
","
","
","""event"",""trial"",""time""
""fullscreenenter"",""1"",""3766""
","
","","","-1","","","24","7699","3934","&#9854;","elianto","#FFFFF080","-1","-1","1","&#10004","[]","0","0","1","","","","","","","",""
"pit-trial","17","193770","0.0-2.0-6.3-0.3","battery-v0.2","","""event"",""trial"",""time""
""fullscreenenter"",""1"",""3766""
","
","
","""event"",""trial"",""time""
""fullscreenenter"",""1"",""3766""
","
","","","-1","","","24","7699","3934","&#9854;","elianto","#FFFFF080","-1","-1","1","&#10004","[]","0","0","1","","","","","","","",""
"pit-trial","18","198649","0.0-2.0-6.4-0.4","battery-v0.2","","""event"",""trial"",""time""
""fullscreenenter"",""1"",""3766""
","
","
","""event"",""trial"",""time""
""fullscreenenter"",""1"",""3766""
","
","","","-1","","","24","7699","3934","&#9854;","elianto","#FFFFF080","-1","-1","1","&#10004","[]","0","0","1","","","","","","","",""
"pit-instructions","19","335258","0.0-2.0-7.0","battery-v0.2","","""event"",""trial"",""time""
""fullscreenenter"",""1"",""3766""
","
","
","""event"",""trial"",""time""
""fullscreenenter"",""1"",""3766""
","
","","[{""page_index"":0,""viewing_time"":6156.79999999702},{""page_index"":1,""viewing_time"":7402.80000000447},{""page_index"":2,""viewing_time"":8076.69999999553},{""page_index"":3,""viewing_time"":8201.80000000447},{""page_index"":4,""viewing_time"":6851.39999999851},{""page_index"":5,""viewing_time"":5894.70000000298},{""page_index"":6,""viewing_time"":4949.5},{""page_index"":7,""viewing_time"":9191.79999999702},{""page_index"":8,""viewing_time"":6929.70000000298},{""page_index"":9,""viewing_time"":7560},{""page_index"":10,""viewing_time"":8122.79999999702},{""page_index"":11,""viewing_time"":9505.89999999851},{""page_index"":12,""viewing_time"":7999.10000000149},{""page_index"":13,""viewing_time"":8043.79999999702},{""page_index"":14,""viewing_time"":8268.70000000298},{""page_index"":15,""viewing_time"":7008.29999999702},{""page_index"":16,""viewing_time"":7560},{""page_index"":17,""viewing_time"":8876.70000000298}]","136601","","","","","","","","","","","","","","","","","","","","","","","",""
"pit-trial","20","338759","0.0-2.0-8.0-0.0","battery-v0.2","","""event"",""trial"",""time""
""fullscreenenter"",""1"",""3766""
","
","
","""event"",""trial"",""time""
""fullscreenenter"",""1"",""3766""
","
","","","626.6999999955297","","","24","7699","3934","&#9776;","elianto","#3366ff99"," "," ","1","+10","[1477.9000000059605]","1","0","1","","","","","","","",""
"pit-trial","21","342299","0.0-2.0-8.0-1.0","battery-v0.2","","""event"",""trial"",""time""
""fullscreenenter"",""1"",""3766""
","
","
","""event"",""trial"",""time""
""fullscreenenter"",""1"",""3766""
","
","","","677.6999999955297","","","24","7699","3934","&#9776;","elianto","#3366ff99"," "," ","1","+10","[1528.0999999940395]","1","0","1","","","","","","","",""
"pit-trial","22","345769","0.0-2.0-8.0-2.0","battery-v0.2","","""event"",""trial"",""time""
""fullscreenenter"",""1"",""3766""
","
","
","""event"",""trial"",""time""
""fullscreenenter"",""1"",""3766""
","
","","","594.8999999985099","","","24","7699","3934","&#9776;","elianto","#3366ff99"," "," ","1","+10","[1450.2999999970198]","1","0","1","","","","","","","",""
"pit-trial","23","349155","0.0-2.0-8.0-3.0","battery-v0.2","","""event"",""trial"",""time""
""fullscreenenter"",""1"",""3766""
","
","
","""event"",""trial"",""time""
""fullscreenenter"",""1"",""3766""
","
","","","526.5","","","24","7699","3934","&#9776;","elianto","#3366ff99"," "," ","1","0","[1379.5]","1","0","1","","","","","","","",""
"pit-trial","24","352510","0.0-2.0-8.0-4.0","battery-v0.2","","""event"",""trial"",""time""
""fullscreenenter"",""1"",""3766""
","
","
","""event"",""trial"",""time""
""fullscreenenter"",""1"",""3766""
","
","","","480.1000000014901","","","24","7699","3934","&#9776;","elianto","#3366ff99"," "," ","1","+10","[1339]","1","0","1","","","","","","","",""
"pit-trial","25","355919","0.0-2.0-8.1-0.1","battery-v0.2","","""event"",""trial"",""time""
""fullscreenenter"",""1"",""3766""
","
","
","""event"",""trial"",""time""
""fullscreenenter"",""1"",""3766""
","
","","","549.1000000014901","","","24","7699","3934","&#9776;","elianto","#3366ff99"," "," ","1","+10","[1399.2000000029802]","1","0","1","","","","","","","",""
"pit-trial","26","359329","0.0-2.0-8.1-1.1","battery-v0.2","","""event"",""trial"",""time""
""fullscreenenter"",""1"",""3766""
","
","
","""event"",""trial"",""time""
""fullscreenenter"",""1"",""3766""
","
","","","543.2999999970198","","","24","7699","3934","&#9776;","elianto","#3366ff99"," "," ","1","+10","[1398.1999999955297]","1","0","1","","","","","","","",""
"pit-trial","27","362619","0.0-2.0-8.1-2.1","battery-v0.2","","""event"",""trial"",""time""
""fullscreenenter"",""1"",""3766""
","
","
","""event"",""trial"",""time""
""fullscreenenter"",""1"",""3766""
","
","","","422.19999999552965","","","24","7699","3934","&#9776;","elianto","#3366ff99"," "," ","1","+10","[1283.0999999940395]","1","0","1","","","","","","","",""
"pit-trial","28","366046","0.0-2.0-8.1-3.1","battery-v0.2","","""event"",""trial"",""time""
""fullscreenenter"",""1"",""3766""
","
","
","""event"",""trial"",""time""
""fullscreenenter"",""1"",""3766""
","
","","","565.3999999985099","","","24","7699","3934","&#9776;","elianto","#3366ff99"," "," ","1","0","[1416.3000000044703]","1","0","1","","","","","","","",""
"pit-trial","29","369474","0.0-2.0-8.1-4.1","battery-v0.2","","""event"",""trial"",""time""
""fullscreenenter"",""1"",""3766""
","
","
","""event"",""trial"",""time""
""fullscreenenter"",""1"",""3766""
","
","","","561.8999999985099","","","24","7699","3934","&#9776;","elianto","#3366ff99"," "," ","1","+10","[1416.3000000044703]","1","0","1","","","","","","","",""
"pit-trial","30","372806","0.0-2.0-8.2-0.2","battery-v0.2","","""event"",""trial"",""time""
""fullscreenenter"",""1"",""3766""
","
","
","""event"",""trial"",""time""
""fullscreenenter"",""1"",""3766""
","
","","","463.69999999552965","","","24","7699","3934","&#9776;","elianto","#3366ff99"," "," ","1","+10","[1318.0999999940395]","1","0","1","","","","","","","",""
"pit-trial","31","376189","0.0-2.0-8.2-1.2","battery-v0.2","","""event"",""trial"",""time""
""fullscreenenter"",""1"",""3766""
","
","
","""event"",""trial"",""time""
""fullscreenenter"",""1"",""3766""
","
","","","518.6999999955297","","","24","7699","3934","&#9776;","elianto","#3366ff99"," "," ","1","+10","[1374.1999999955297]","1","0","1","","","","","","","",""
"pit-trial","32","379496","0.0-2.0-8.2-2.2","battery-v0.2","","""event"",""trial"",""time""
""fullscreenenter"",""1"",""3766""
","
","
","""event"",""trial"",""time""
""fullscreenenter"",""1"",""3766""
","
","","","447.30000000447035","","","24","7699","3934","&#9776;","elianto","#3366ff99"," "," ","1","+10","[1300.2000000029802]","1","0","1","","","","","","","",""
"pit-trial","33","382744","0.0-2.0-8.2-3.2","battery-v0.2","","""event"",""trial"",""time""
""fullscreenenter"",""1"",""3766""
","
","
","""event"",""trial"",""time""
""fullscreenenter"",""1"",""3766""
","
","","","378.6000000014901","","","24","7699","3934","&#9776;","elianto","#3366ff99"," "," ","1","0","[1229.8999999985099]","1","0","1","","","","","","","",""
"pit-trial","34","386049","0.0-2.0-8.2-4.2","battery-v0.2","","""event"",""trial"",""time""
""fullscreenenter"",""1"",""3766""
","
","
","""event"",""trial"",""time""
""fullscreenenter"",""1"",""3766""
","
","","","443.80000000447035","","","24","7699","3934","&#9776;","elianto","#3366ff99"," "," ","1","+10","[1294.1000000014901]","1","0","1","","","","","","","",""
"call-function","35","386057","0.0-2.0-9.0","battery-v0.2","","""event"",""trial"",""time""
""fullscreenenter"",""1"",""3766""
","
","
","""event"",""trial"",""time""
""fullscreenenter"",""1"",""3766""
","
","","","","","","","","","","","","","","","","","","","","","","","","","","",""
"pit-instructions","36","434360","0.0-2.0-10.0","battery-v0.2","","""event"",""trial"",""time""
""fullscreenenter"",""1"",""3766""
","
","
","""event"",""trial"",""time""
""fullscreenenter"",""1"",""3766""
","
","","[{""page_index"":0,""viewing_time"":10556.80000000447},{""page_index"":1,""viewing_time"":7480.69999999553},{""page_index"":2,""viewing_time"":11048.10000000149},{""page_index"":3,""viewing_time"":10315.89999999851},{""page_index"":4,""viewing_time"":8899.20000000298}]","48301.20000000298","","","","","","","","","","","","","","","","","","","","","","","",""
"pit-trial","37","437644","0.0-2.0-11.0-0.0","battery-v0.2","","""event"",""trial"",""time""
""fullscreenenter"",""1"",""3766""
","
","
","""event"",""trial"",""time""
""fullscreenenter"",""1"",""3766""
","
","","","411.70000000298023","","","24","7699","3934","&#9761;","elianto","#3366ff99","-1"," ","0","0","[1262.1999999955297]","1","0","2","","","","","","","",""
"pit-trial","38","440984","0.0-2.0-11.0-1.0","battery-v0.2","","""event"",""trial"",""time""
""fullscreenenter"",""1"",""3766""
","
","
","""event"",""trial"",""time""
""fullscreenenter"",""1"",""3766""
","
","","","481.30000000447035","","","24","7699","3934","&#9761;","elianto","#3366ff99","-1"," ","0","0","[1333.2000000029802]","1","0","2","","","","","","","",""
"pit-trial","39","444343","0.0-2.0-11.0-2.0","battery-v0.2","","""event"",""trial"",""time""
""fullscreenenter"",""1"",""3766""
","
","
","""event"",""trial"",""time""
""fullscreenenter"",""1"",""3766""
","
","","","484.5","","","24","7699","3934","&#9761;","elianto","#3366ff99","-1"," ","0","0","[1339.1000000014901]","1","0","2","","","","","","","",""
"pit-trial","40","447613","0.0-2.0-11.0-3.0","battery-v0.2","","""event"",""trial"",""time""
""fullscreenenter"",""1"",""3766""
","
","
","""event"",""trial"",""time""
""fullscreenenter"",""1"",""3766""
","
","","","387.40000000596046","","","24","7699","3934","&#9761;","elianto","#3366ff99","-1"," ","0","+10","[1246]","1","0","2","","","","","","","",""
"pit-trial","41","450952","0.0-2.0-11.0-4.0","battery-v0.2","","""event"",""trial"",""time""
""fullscreenenter"",""1"",""3766""
","
","
","""event"",""trial"",""time""
""fullscreenenter"",""1"",""3766""
","
","","","469.6000000014901","","","24","7699","3934","&#9761;","elianto","#3366ff99","-1"," ","0","0","[1322.7000000029802]","1","0","2","","","","","","","",""
"pit-trial","42","454333","0.0-2.0-11.1-0.1","battery-v0.2","","""event"",""trial"",""time""
""fullscreenenter"",""1"",""3766""
","
","
","""event"",""trial"",""time""
""fullscreenenter"",""1"",""3766""
","
","","","513.2000000029802","","","24","7699","3934","&#9761;","elianto","#3366ff99","-1"," ","0","0","[1369.1000000014901]","1","0","2","","","","","","","",""
"pit-trial","43","457513","0.0-2.0-11.1-1.1","battery-v0.2","","""event"",""trial"",""time""
""fullscreenenter"",""1"",""3766""
","
","
","""event"",""trial"",""time""
""fullscreenenter"",""1"",""3766""
","
","","","305","","","24","7699","3934","&#9761;","elianto","#3366ff99","-1"," ","0","0","[1166.1000000014901]","1","0","2","","","","","","","",""
"pit-trial","44","460823","0.0-2.0-11.1-2.1","battery-v0.2","","""event"",""trial"",""time""
""fullscreenenter"",""1"",""3766""
","
","
","""event"",""trial"",""time""
""fullscreenenter"",""1"",""3766""
","
","","","422.3999999985099","","","24","7699","3934","&#9761;","elianto","#3366ff99","-1"," ","0","0","[1284.2000000029802]","1","0","2","","","","","","","",""
"pit-trial","45","464159","0.0-2.0-11.1-3.1","battery-v0.2","","""event"",""trial"",""time""
""fullscreenenter"",""1"",""3766""
","
","
","""event"",""trial"",""time""
""fullscreenenter"",""1"",""3766""
","
","","","471.90000000596046","","","24","7699","3934","&#9761;","elianto","#3366ff99","-1"," ","0","+10","[1325]","1","0","2","","","","","","","",""
"pit-trial","46","467450","0.0-2.0-11.1-4.1","battery-v0.2","","""event"",""trial"",""time""
""fullscreenenter"",""1"",""3766""
","
","
","""event"",""trial"",""time""
""fullscreenenter"",""1"",""3766""
","
","","","427.6000000014901","","","24","7699","3934","&#9761;","elianto","#3366ff99","-1"," ","0","0","[1282]","1","0","2","","","","","","","",""
"pit-trial","47","470773","0.0-2.0-11.2-0.2","battery-v0.2","","""event"",""trial"",""time""
""fullscreenenter"",""1"",""3766""
","
","
","""event"",""trial"",""time""
""fullscreenenter"",""1"",""3766""
","
","","","457.6000000014901","","","24","7699","3934","&#9761;","elianto","#3366ff99","-1"," ","0","0","[1310.5]","1","0","2","","","","","","","",""
"pit-trial","48","474144","0.0-2.0-11.2-1.2","battery-v0.2","","""event"",""trial"",""time""
""fullscreenenter"",""1"",""3766""
","
","
","""event"",""trial"",""time""
""fullscreenenter"",""1"",""3766""
","
","","","505.30000000447035","","","24","7699","3934","&#9761;","elianto","#3366ff99","-1"," ","0","0","[1363]","1","0","2","","","","","","","",""
"pit-trial","49","477474","0.0-2.0-11.2-2.2","battery-v0.2","","""event"",""trial"",""time""
""fullscreenenter"",""1"",""3766""
","
","
","""event"",""trial"",""time""
""fullscreenenter"",""1"",""3766""
","
","","","468.6000000014901","","","24","7699","3934","&#9761;","elianto","#3366ff99","-1"," ","0","0","[1319.3000000044703]","1","0","2","","","","","","","",""
"pit-trial","50","480822","0.0-2.0-11.2-3.2","battery-v0.2","","""event"",""trial"",""time""
""fullscreenenter"",""1"",""3766""
","
","
","""event"",""trial"",""time""
""fullscreenenter"",""1"",""3766""
","
","","","486.79999999701977","","","24","7699","3934","&#9761;","elianto","#3366ff99","-1"," ","0","+10","[1337]","1","0","2","","","","","","","",""
"pit-trial","51","484314","0.0-2.0-11.2-4.2","battery-v0.2","","""event"",""trial"",""time""
""fullscreenenter"",""1"",""3766""
","
","
","""event"",""trial"",""time""
""fullscreenenter"",""1"",""3766""
","
","","","631.7000000029802","","","24","7699","3934","&#9761;","elianto","#3366ff99","-1"," ","0","0","[1482.3999999985099]","1","0","2","","","","","","","",""
"pit-trial","52","487689","0.0-2.0-11.3-0.3","battery-v0.2","","""event"",""trial"",""time""
""fullscreenenter"",""1"",""3766""
","
","
","""event"",""trial"",""time""
""fullscreenenter"",""1"",""3766""
","
","","","514.1000000014901","","","24","7699","3934","&#9761;","elianto","#3366ff99","-1"," ","0","0","[1367.7000000029802]","1","0","2","","","","","","","",""
"pit-trial","53","491309","0.0-2.0-11.3-1.3","battery-v0.2","","""event"",""trial"",""time""
""fullscreenenter"",""1"",""3766""
","
","
","""event"",""trial"",""time""
""fullscreenenter"",""1"",""3766""
","
","","","754.8999999985099","","","24","7699","3934","&#9761;","elianto","#3366ff99","-1"," ","0","0","[1606.8999999985099]","1","0","2","","","","","","","",""
"pit-trial","54","494833","0.0-2.0-11.3-2.3","battery-v0.2","","""event"",""trial"",""time""
""fullscreenenter"",""1"",""3766""
","
","
","""event"",""trial"",""time""
""fullscreenenter"",""1"",""3766""
","
","","","659.5999999940395","","","24","7699","3934","&#9761;","elianto","#3366ff99","-1"," ","0","0","[1514.3999999985099]","1","0","2","","","","","","","",""
"pit-trial","55","498543","0.0-2.0-11.3-3.3","battery-v0.2","","""event"",""trial"",""time""
""fullscreenenter"",""1"",""3766""
","
","
","""event"",""trial"",""time""
""fullscreenenter"",""1"",""3766""
","
","","","841.1000000014901","","","24","7699","3934","&#9761;","elianto","#3366ff99","-1"," ","0","+10","[1693.8999999985099]","1","0","2","","","","","","","",""
"pit-trial","56","502036","0.0-2.0-11.3-4.3","battery-v0.2","","""event"",""trial"",""time""
""fullscreenenter"",""1"",""3766""
","
","
","""event"",""trial"",""time""
""fullscreenenter"",""1"",""3766""
","
","","","630.6999999955297","","","24","7699","3934","&#9761;","elianto","#3366ff99","-1"," ","0","0","[1483.5]","1","0","2","","","","","","","",""
"call-function","57","502041","0.0-2.0-12.0","battery-v0.2","","""event"",""trial"",""time""
""fullscreenenter"",""1"",""3766""
","
","
","""event"",""trial"",""time""
""fullscreenenter"",""1"",""3766""
","
","","","","","","","","","","","","","","","","","","","","","","","","","","",""
"pit-instructions","58","547523","0.0-2.0-13.0","battery-v0.2","","""event"",""trial"",""time""
""fullscreenenter"",""1"",""3766""
","
","
","""event"",""trial"",""time""
""fullscreenenter"",""1"",""3766""
","
","","[{""page_index"":0,""viewing_time"":6205.69999999553},{""page_index"":1,""viewing_time"":12071.20000000298},{""page_index"":2,""viewing_time"":4781.29999999702},{""page_index"":3,""viewing_time"":11756.20000000298},{""page_index"":4,""viewing_time"":10665.5}]","45480.39999999851","","","","","","","","","","","","","","","","","","","","","","","",""
"pit-trial","59","552407","0.0-2.0-14.0-0.0","battery-v0.2","","""event"",""trial"",""time""
""fullscreenenter"",""1"",""3766""
","
","
","""event"",""trial"",""time""
""fullscreenenter"",""1"",""3766""
","
","","","-1","","","24","7699","3934","&#9826;","elianto","#f73b6a7A","-1","-1","1","0","[]","0","0","3","","","","","","","",""
"pit-trial","60","557276","0.0-2.0-14.0-1.0","battery-v0.2","","""event"",""trial"",""time""
""fullscreenenter"",""1"",""3766""
","
","
","""event"",""trial"",""time""
""fullscreenenter"",""1"",""3766""
","
","","","-1","","","24","7699","3934","&#9826;","elianto","#f73b6a7A","-1","-1","1","0","[]","0","0","3","","","","","","","",""
"pit-trial","61","562167","0.0-2.0-14.0-2.0","battery-v0.2","","""event"",""trial"",""time""
""fullscreenenter"",""1"",""3766""
","
","
","""event"",""trial"",""time""
""fullscreenenter"",""1"",""3766""
","
","","","-1","","","24","7699","3934","&#9826;","elianto","#f73b6a7A","-1","-1","1","0","[]","0","0","3","","","","","","","",""
"pit-trial","62","567044","0.0-2.0-14.0-3.0","battery-v0.2","","""event"",""trial"",""time""
""fullscreenenter"",""1"",""3766""
","
","
","""event"",""trial"",""time""
""fullscreenenter"",""1"",""3766""
","
","","","-1","","","24","7699","3934","&#9826;","elianto","#f73b6a7A","-1","-1","1","-10","[]","0","0","3","","","","","","","",""
"pit-trial","63","571904","0.0-2.0-14.0-4.0","battery-v0.2","","""event"",""trial"",""time""
""fullscreenenter"",""1"",""3766""
","
","
","""event"",""trial"",""time""
""fullscreenenter"",""1"",""3766""
","
","","","-1","","","24","7699","3934","&#9826;","elianto","#f73b6a7A","-1","-1","1","0","[]","0","0","3","","","","","","","",""
"pit-trial","64","576777","0.0-2.0-14.1-0.1","battery-v0.2","","""event"",""trial"",""time""
""fullscreenenter"",""1"",""3766""
","
","
","""event"",""trial"",""time""
""fullscreenenter"",""1"",""3766""
","
","","","-1","","","24","7699","3934","&#9826;","elianto","#f73b6a7A","-1","-1","1","0","[]","0","0","3","","","","","","","",""
"pit-trial","65","581647","0.0-2.0-14.1-1.1","battery-v0.2","","""event"",""trial"",""time""
""fullscreenenter"",""1"",""3766""
","
","
","""event"",""trial"",""time""
""fullscreenenter"",""1"",""3766""
","
","","","-1","","","24","7699","3934","&#9826;","elianto","#f73b6a7A","-1","-1","1","0","[]","0","0","3","","","","","","","",""
"pit-trial","66","586519","0.0-2.0-14.1-2.1","battery-v0.2","","""event"",""trial"",""time""
""fullscreenenter"",""1"",""3766""
","
","
","""event"",""trial"",""time""
""fullscreenenter"",""1"",""3766""
","
","","","-1","","","24","7699","3934","&#9826;","elianto","#f73b6a7A","-1","-1","1","0","[]","0","0","3","","","","","","","",""
"pit-trial","67","591386","0.0-2.0-14.1-3.1","battery-v0.2","","""event"",""trial"",""time""
""fullscreenenter"",""1"",""3766""
","
","
","""event"",""trial"",""time""
""fullscreenenter"",""1"",""3766""
","
","","","-1","","","24","7699","3934","&#9826;","elianto","#f73b6a7A","-1","-1","1","-10","[]","0","0","3","","","","","","","",""
"pit-trial","68","596247","0.0-2.0-14.1-4.1","battery-v0.2","","""event"",""trial"",""time""
""fullscreenenter"",""1"",""3766""
","
","
","""event"",""trial"",""time""
""fullscreenenter"",""1"",""3766""
","
","","","-1","","","24","7699","3934","&#9826;","elianto","#f73b6a7A","-1","-1","1","0","[]","0","0","3","","","","","","","",""
"pit-trial","69","601116","0.0-2.0-14.2-0.2","battery-v0.2","","""event"",""trial"",""time""
""fullscreenenter"",""1"",""3766""
","
","
","""event"",""trial"",""time""
""fullscreenenter"",""1"",""3766""
","
","","","-1","","","24","7699","3934","&#9826;","elianto","#f73b6a7A","-1","-1","1","0","[]","0","0","3","","","","","","","",""
"pit-trial","70","605974","0.0-2.0-14.2-1.2","battery-v0.2","","""event"",""trial"",""time""
""fullscreenenter"",""1"",""3766""
","
","
","""event"",""trial"",""time""
""fullscreenenter"",""1"",""3766""
","
","","","-1","","","24","7699","3934","&#9826;","elianto","#f73b6a7A","-1","-1","1","0","[]","0","0","3","","","","","","","",""
"pit-trial","71","610840","0.0-2.0-14.2-2.2","battery-v0.2","","""event"",""trial"",""time""
""fullscreenenter"",""1"",""3766""
","
","
","""event"",""trial"",""time""
""fullscreenenter"",""1"",""3766""
","
","","","-1","","","24","7699","3934","&#9826;","elianto","#f73b6a7A","-1","-1","1","0","[]","0","0","3","","","","","","","",""
"pit-trial","72","615709","0.0-2.0-14.2-3.2","battery-v0.2","","""event"",""trial"",""time""
""fullscreenenter"",""1"",""3766""
","
","
","""event"",""trial"",""time""
""fullscreenenter"",""1"",""3766""
","
","","","-1","","","24","7699","3934","&#9826;","elianto","#f73b6a7A","-1","-1","1","-10","[]","0","0","3","","","","","","","",""
"pit-trial","73","620578","0.0-2.0-14.2-4.2","battery-v0.2","","""event"",""trial"",""time""
""fullscreenenter"",""1"",""3766""
","
","
","""event"",""trial"",""time""
""fullscreenenter"",""1"",""3766""
","
","","","-1","","","24","7699","3934","&#9826;","elianto","#f73b6a7A","-1","-1","1","0","[]","0","0","3","","","","","","","",""
"pit-trial","74","625450","0.0-2.0-14.3-0.3","battery-v0.2","","""event"",""trial"",""time""
""fullscreenenter"",""1"",""3766""
","
","
","""event"",""trial"",""time""
""fullscreenenter"",""1"",""3766""
","
","","","-1","","","24","7699","3934","&#9826;","elianto","#f73b6a7A","-1","-1","1","0","[]","0","0","3","","","","","","","",""
"pit-trial","75","630320","0.0-2.0-14.3-1.3","battery-v0.2","","""event"",""trial"",""time""
""fullscreenenter"",""1"",""3766""
","
","
","""event"",""trial"",""time""
""fullscreenenter"",""1"",""3766""
","
","","","-1","","","24","7699","3934","&#9826;","elianto","#f73b6a7A","-1","-1","1","0","[]","0","0","3","","","","","","","",""
"pit-trial","76","635183","0.0-2.0-14.3-2.3","battery-v0.2","","""event"",""trial"",""time""
""fullscreenenter"",""1"",""3766""
","
","
","""event"",""trial"",""time""
""fullscreenenter"",""1"",""3766""
","
","","","-1","","","24","7699","3934","&#9826;","elianto","#f73b6a7A","-1","-1","1","0","[]","0","0","3","","","","","","","",""
"pit-trial","77","640049","0.0-2.0-14.3-3.3","battery-v0.2","","""event"",""trial"",""time""
""fullscreenenter"",""1"",""3766""
","
","
","""event"",""trial"",""time""
""fullscreenenter"",""1"",""3766""
","
","","","-1","","","24","7699","3934","&#9826;","elianto","#f73b6a7A","-1","-1","1","-10","[]","0","0","3","","","","","","","",""
"pit-trial","78","644914","0.0-2.0-14.3-4.3","battery-v0.2","","""event"",""trial"",""time""
""fullscreenenter"",""1"",""3766""
","
","
","""event"",""trial"",""time""
""fullscreenenter"",""1"",""3766""
","
","","","-1","","","24","7699","3934","&#9826;","elianto","#f73b6a7A","-1","-1","1","0","[]","0","0","3","","","","","","","",""
"call-function","79","644920","0.0-2.0-15.0","battery-v0.2","","""event"",""trial"",""time""
""fullscreenenter"",""1"",""3766""
","
","
","""event"",""trial"",""time""
""fullscreenenter"",""1"",""3766""
","
","","","","","","","","","","","","","","","","","","","","","","","","","","",""
"pit-instructions","80","673760","0.0-2.0-16.0","battery-v0.2","","""event"",""trial"",""time""
""fullscreenenter"",""1"",""3766""
","
","
","""event"",""trial"",""time""
""fullscreenenter"",""1"",""3766""
","
","","[{""page_index"":0,""viewing_time"":8014.60000000149},{""page_index"":1,""viewing_time"":8584.29999999702},{""page_index"":2,""viewing_time"":6130.9000000059605},{""page_index"":3,""viewing_time"":6108.79999999702}]","28839","","","","","","","","","","","","","","","","","","","","","","","",""
"pit-trial","81","678631","0.0-2.0-17.0-0.0","battery-v0.2","","""event"",""trial"",""time""
""fullscreenenter"",""1"",""3766""
","
","
","""event"",""trial"",""time""
""fullscreenenter"",""1"",""3766""
","
","","","-1","","","24","7699","3934","&#9789;","elianto","#f73b6a7A"," ","-1","0","-10","[]","0","0","4","","","","","","","",""
"pit-trial","82","681960","0.0-2.0-17.0-1.0","battery-v0.2","","""event"",""trial"",""time""
""fullscreenenter"",""1"",""3766""
","
","
","""event"",""trial"",""time""
""fullscreenenter"",""1"",""3766""
","
","","","453.79999999701977","","","24","7699","3934","&#9789;","elianto","#f73b6a7A"," "," ","1","0","[1304.3999999985099]","1","0","4","","","","","","","",""
"pit-trial","83","685281","0.0-2.0-17.0-2.0","battery-v0.2","","""event"",""trial"",""time""
""fullscreenenter"",""1"",""3766""
","
","
","""event"",""trial"",""time""
""fullscreenenter"",""1"",""3766""
","
","","","457.5","","","24","7699","3934","&#9789;","elianto","#f73b6a7A"," "," ","1","0","[1308]","1","0","4","","","","","","","",""
"pit-trial","84","688730","0.0-2.0-17.0-3.0","battery-v0.2","","""event"",""trial"",""time""
""fullscreenenter"",""1"",""3766""
","
","
","""event"",""trial"",""time""
""fullscreenenter"",""1"",""3766""
","
","","","575.0999999940395","","","24","7699","3934","&#9789;","elianto","#f73b6a7A"," "," ","1","-10","[1431]","1","0","4","","","","","","","",""
"pit-trial","85","692000","0.0-2.0-17.0-4.0","battery-v0.2","","""event"",""trial"",""time""
""fullscreenenter"",""1"",""3766""
","
","
","""event"",""trial"",""time""
""fullscreenenter"",""1"",""3766""
","
","","","402.70000000298023","","","24","7699","3934","&#9789;","elianto","#f73b6a7A"," "," ","1","0","[1256.7000000029802]","1","0","4","","","","","","","",""
"pit-trial","86","695190","0.0-2.0-17.1-0.1","battery-v0.2","","""event"",""trial"",""time""
""fullscreenenter"",""1"",""3766""
","
","
","""event"",""trial"",""time""
""fullscreenenter"",""1"",""3766""
","
","","","325.59999999403954","","","24","7699","3934","&#9789;","elianto","#f73b6a7A"," "," ","1","0","[1175.7000000029802]","1","0","4","","","","","","","",""
"pit-trial","87","698560","0.0-2.0-17.1-1.1","battery-v0.2","","""event"",""trial"",""time""
""fullscreenenter"",""1"",""3766""
","
","
","""event"",""trial"",""time""
""fullscreenenter"",""1"",""3766""
","
","","","488.5","","","24","7699","3934","&#9789;","elianto","#f73b6a7A"," "," ","1","0","[1343.6000000014901]","1","0","4","","","","","","","",""
"pit-trial","88","701990","0.0-2.0-17.1-2.1","battery-v0.2","","""event"",""trial"",""time""
""fullscreenenter"",""1"",""3766""
","
","
","""event"",""trial"",""time""
""fullscreenenter"",""1"",""3766""
","
","","","561.0999999940395","","","24","7699","3934","&#9789;","elianto","#f73b6a7A"," "," ","1","0","[1417]","1","0","4","","","","","","","",""
"pit-trial","89","705335","0.0-2.0-17.1-3.1","battery-v0.2","","""event"",""trial"",""time""
""fullscreenenter"",""1"",""3766""
","
","
","""event"",""trial"",""time""
""fullscreenenter"",""1"",""3766""
","
","","","488.70000000298023","","","24","7699","3934","&#9789;","elianto","#f73b6a7A"," "," ","1","-10","[1339.3999999985099]","1","0","4","","","","","","","",""
"pit-trial","90","708619","0.0-2.0-17.1-4.1","battery-v0.2","","""event"",""trial"",""time""
""fullscreenenter"",""1"",""3766""
","
","
","""event"",""trial"",""time""
""fullscreenenter"",""1"",""3766""
","
","","","423.40000000596046","","","24","7699","3934","&#9789;","elianto","#f73b6a7A"," "," ","1","0","[1274.8000000044703]","1","0","4","","","","","","","",""
"pit-trial","91","711830","0.0-2.0-17.2-0.2","battery-v0.2","","""event"",""trial"",""time""
""fullscreenenter"",""1"",""3766""
","
","
","""event"",""trial"",""time""
""fullscreenenter"",""1"",""3766""
","
","","","349.3999999985099","","","24","7699","3934","&#9789;","elianto","#f73b6a7A"," "," ","1","0","[1202.1000000014901]","1","0","4","","","","","","","",""
"pit-trial","92","716711","0.0-2.0-17.2-1.2","battery-v0.2","","""event"",""trial"",""time""
""fullscreenenter"",""1"",""3766""
","
","
","""event"",""trial"",""time""
""fullscreenenter"",""1"",""3766""
","
","","","-1","","","24","7699","3934","&#9789;","elianto","#f73b6a7A"," ","-1","0","-10","[]","0","0","4","","","","","","","",""
"pit-trial","93","721576","0.0-2.0-17.2-2.2","battery-v0.2","","""event"",""trial"",""time""
""fullscreenenter"",""1"",""3766""
","
","
","""event"",""trial"",""time""
""fullscreenenter"",""1"",""3766""
","
","","","-1","","","24","7699","3934","&#9789;","elianto","#f73b6a7A"," ","-1","0","-10","[]","0","0","4","","","","","","","",""
"pit-trial","94","724905","0.0-2.0-17.2-3.2","battery-v0.2","","""event"",""trial"",""time""
""fullscreenenter"",""1"",""3766""
","
","
","""event"",""trial"",""time""
""fullscreenenter"",""1"",""3766""
","
","","","466.6000000014901","","","24","7699","3934","&#9789;","elianto","#f73b6a7A"," "," ","1","-10","[1318.2000000029802]","1","0","4","","","","","","","",""
"pit-trial","95","728247","0.0-2.0-17.2-4.2","battery-v0.2","","""event"",""trial"",""time""
""fullscreenenter"",""1"",""3766""
","
","
","""event"",""trial"",""time""
""fullscreenenter"",""1"",""3766""
","
","","","476.1000000014901","","","24","7699","3934","&#9789;","elianto","#f73b6a7A"," "," ","1","0","[1329]","1","0","4","","","","","","","",""
"pit-trial","96","732474","0.0-2.0-17.3-0.3","battery-v0.2","","""event"",""trial"",""time""
""fullscreenenter"",""1"",""3766""
","
","
","""event"",""trial"",""time""
""fullscreenenter"",""1"",""3766""
","
","","","1365.6000000014901","","","24","7699","3934","&#9789;","elianto","#f73b6a7A"," "," ","1","0","[2219.10000000149]","1","0","4","","","","","","","",""
"pit-trial","97","735988","0.0-2.0-17.3-1.3","battery-v0.2","","""event"",""trial"",""time""
""fullscreenenter"",""1"",""3766""
","
","
","""event"",""trial"",""time""
""fullscreenenter"",""1"",""3766""
","
","","","640","","","24","7699","3934","&#9789;","elianto","#f73b6a7A"," "," ","1","0","[1497.3000000044703]","1","0","4","","","","","","","",""
"pit-trial","98","740002","0.0-2.0-17.3-2.3","battery-v0.2","","""event"",""trial"",""time""
""fullscreenenter"",""1"",""3766""
","
","
","""event"",""trial"",""time""
""fullscreenenter"",""1"",""3766""
","
","","","1149.9000000059605","","","24","7699","3934","&#9789;","elianto","#f73b6a7A"," "," ","1","0","[2006.4000000059605]","1","0","4","","","","","","","",""
"pit-trial","99","743628","0.0-2.0-17.3-3.3","battery-v0.2","","""event"",""trial"",""time""
""fullscreenenter"",""1"",""3766""
","
","
","""event"",""trial"",""time""
""fullscreenenter"",""1"",""3766""
","
","","","759.4000000059605","","","24","7699","3934","&#9789;","elianto","#f73b6a7A"," "," ","1","-10","[1616.1000000014901]","1","0","4","","","","","","","",""
"pit-trial","100","747002","0.0-2.0-17.3-4.3","battery-v0.2","","""event"",""trial"",""time""
""fullscreenenter"",""1"",""3766""
","
","
","""event"",""trial"",""time""
""fullscreenenter"",""1"",""3766""
","
","","","513","","","24","7699","3934","&#9789;","elianto","#f73b6a7A"," "," ","1","0","[1363.6999999955297]","1","0","4","","","","","","","",""
"call-function","101","747007","0.0-2.0-18.0","battery-v0.2","","""event"",""trial"",""time""
""fullscreenenter"",""1"",""3766""
","
","
","""event"",""trial"",""time""
""fullscreenenter"",""1"",""3766""
","
","","","","","","","","","","","","","","","","","","","","","","","","","","",""
"pit-instructions","102","880623","0.0-2.0-19.0","battery-v0.2","","""event"",""trial"",""time""
""fullscreenenter"",""1"",""3766""
","
","
","""event"",""trial"",""time""
""fullscreenenter"",""1"",""3766""
","
","","[{""page_index"":0,""viewing_time"":7480.79999999702},{""page_index"":1,""viewing_time"":7536.9000000059605},{""page_index"":2,""viewing_time"":68985.29999999702},{""page_index"":3,""viewing_time"":10530.29999999702},{""page_index"":4,""viewing_time"":10158.70000000298},{""page_index"":5,""viewing_time"":8605.79999999702},{""page_index"":6,""viewing_time"":9079.30000000447},{""page_index"":7,""viewing_time"":6547.5},{""page_index"":8,""viewing_time"":4691}]","133616","","","","","","","","","","","","","","","","","","","","","","","",""
"pit-comprehension","103","886249","0.0-2.0-20.0-0.0","battery-v0.2","","""event"",""trial"",""time""
""fullscreenenter"",""1"",""3766""
","
","
","""event"",""trial"",""time""
""fullscreenenter"",""1"",""3766""
","
","","","5620.89999999851","[""SPACE""]","0","24","7699","3934","","","","","","","","","","","","","","","","","","",""
"pit-instructions","104","891053","0.0-2.0-20.0-1.0","battery-v0.2","","""event"",""trial"",""time""
""fullscreenenter"",""1"",""3766""
","
","
","""event"",""trial"",""time""
""fullscreenenter"",""1"",""3766""
","
","","[{""page_index"":0,""viewing_time"":4631.89999999851}]","4632.39999999851","","","","","","","","","","","","","","","","","","","","","","","",""
"pit-comprehension","105","899874","0.0-2.0-21.0-0.0","battery-v0.2","","""event"",""trial"",""time""
""fullscreenenter"",""1"",""3766""
","
","
","""event"",""trial"",""time""
""fullscreenenter"",""1"",""3766""
","
","","","8814.39999999851","[""10""]","0","24","7699","3934","","","","","","","","","","","","","","","","","","",""
"pit-instructions","106","924016","0.0-2.0-21.0-1.0","battery-v0.2","","""event"",""trial"",""time""
""fullscreenenter"",""1"",""3766""
","
","
","""event"",""trial"",""time""
""fullscreenenter"",""1"",""3766""
","
","","[{""page_index"":0,""viewing_time"":24044.5}]","24044.80000000447","","","","","","","","","","","","","","","","","","","","","","","",""
"pit-comprehension","107","932139","0.0-2.0-22.0-0.0","battery-v0.2","","""event"",""trial"",""time""
""fullscreenenter"",""1"",""3766""
","
","
","""event"",""trial"",""time""
""fullscreenenter"",""1"",""3766""
","
","","","8117.60000000149","[""10""]","1","24","7699","3934","","","","","","","","","","","","","","","","","","",""
"pit-instructions","108","936649","0.0-2.0-22.0-1.0","battery-v0.2","","""event"",""trial"",""time""
""fullscreenenter"",""1"",""3766""
","
","
","""event"",""trial"",""time""
""fullscreenenter"",""1"",""3766""
","
","","[{""page_index"":0,""viewing_time"":4424.5}]","4424.89999999851","","","","","","","","","","","","","","","","","","","","","","","",""
"pit-instructions","109","937752","0.0-2.0-22.0-2.0-0.0","battery-v0.2","","""event"",""trial"",""time""
""fullscreenenter"",""1"",""3766""
","
","
","""event"",""trial"",""time""
""fullscreenenter"",""1"",""3766""
","
","","[{""page_index"":0,""viewing_time"":1099.2999999970198}]","1099.7999999970198","","","","","","","","","","","","","","","","","","","","","","","",""
"pit-comprehension","110","945279","0.0-2.0-22.1-0.1","battery-v0.2","","""event"",""trial"",""time""
""fullscreenenter"",""1"",""3766""
","
","
","""event"",""trial"",""time""
""fullscreenenter"",""1"",""3766""
","
","","","7522.20000000298","[""-10""]","1","24","7699","3934","","","","","","","","","","","","","","","","","","",""
"pit-instructions","111","953337","0.0-2.0-22.1-1.1","battery-v0.2","","""event"",""trial"",""time""
""fullscreenenter"",""1"",""3766""
","
","
","""event"",""trial"",""time""
""fullscreenenter"",""1"",""3766""
","
","","[{""page_index"":0,""viewing_time"":7982.0999999940395}]","7982.5999999940395","","","","","","","","","","","","","","","","","","","","","","","",""
"pit-instructions","112","956769","0.0-2.0-22.1-2.1-0.1","battery-v0.2","","""event"",""trial"",""time""
""fullscreenenter"",""1"",""3766""
","
","
","""event"",""trial"",""time""
""fullscreenenter"",""1"",""3766""
","
","","[{""page_index"":0,""viewing_time"":3427.7999999970198}]","3428.10000000149","","","","","","","","","","","","","","","","","","","","","","","",""
"pit-comprehension","113","964937","0.0-2.0-22.2-0.2","battery-v0.2","","""event"",""trial"",""time""
""fullscreenenter"",""1"",""3766""
","
","
","""event"",""trial"",""time""
""fullscreenenter"",""1"",""3766""
","
","","","8163.9000000059605","[""10""]","1","24","7699","3934","","","","","","","","","","","","","","","","","","",""
"pit-instructions","114","972496","0.0-2.0-22.2-1.2","battery-v0.2","","""event"",""trial"",""time""
""fullscreenenter"",""1"",""3766""
","
","
","""event"",""trial"",""time""
""fullscreenenter"",""1"",""3766""
","
","","[{""page_index"":0,""viewing_time"":7464.60000000149}]","7464.89999999851","","","","","","","","","","","","","","","","","","","","","","","",""
"pit-instructions","115","974746","0.0-2.0-22.2-2.2-0.2","battery-v0.2","","""event"",""trial"",""time""
""fullscreenenter"",""1"",""3766""
","
","
","""event"",""trial"",""time""
""fullscreenenter"",""1"",""3766""
","
","","[{""page_index"":0,""viewing_time"":2246.39999999851}]","2246.7999999970198","","","","","","","","","","","","","","","","","","","","","","","",""
"pit-comprehension","116","981935","0.0-2.0-22.3-0.3","battery-v0.2","","""event"",""trial"",""time""
""fullscreenenter"",""1"",""3766""
","
","
","""event"",""trial"",""time""
""fullscreenenter"",""1"",""3766""
","
","","","7185.10000000149","[""0""]","0","24","7699","3934","","","","","","","","","","","","","","","","","","",""
"pit-instructions","117","986896","0.0-2.0-22.3-1.3","battery-v0.2","","""event"",""trial"",""time""
""fullscreenenter"",""1"",""3766""
","
","
","""event"",""trial"",""time""
""fullscreenenter"",""1"",""3766""
","
","","[{""page_index"":0,""viewing_time"":4877.10000000149}]","4877.39999999851","","","","","","","","","","","","","","","","","","","","","","","",""
"pit-comprehension","118","998260","0.0-2.0-23.0-0.0","battery-v0.2","","""event"",""trial"",""time""
""fullscreenenter"",""1"",""3766""
","
","
","""event"",""trial"",""time""
""fullscreenenter"",""1"",""3766""
","
","","","11358.80000000447","[""True""]","0","24","7699","3934","","","","","","","","","","","","","","","","","","",""
"pit-instructions","119","1006089","0.0-2.0-23.0-1.0","battery-v0.2","","""event"",""trial"",""time""
""fullscreenenter"",""1"",""3766""
","
","
","""event"",""trial"",""time""
""fullscreenenter"",""1"",""3766""
","
","","[{""page_index"":0,""viewing_time"":7722.5}]","7722.70000000298","","","","","","","","","","","","","","","","","","","","","","","",""
"pit-comprehension","120","1014207","0.0-2.0-24.0-0.0","battery-v0.2","","""event"",""trial"",""time""
""fullscreenenter"",""1"",""3766""
","
","
","""event"",""trial"",""time""
""fullscreenenter"",""1"",""3766""
","
","","","8106.70000000298","[""True""]","0","24","7699","3934","","","","","","","","","","","","","","","","","","",""
"pit-instructions","121","1019269","0.0-2.0-24.0-1.0","battery-v0.2","","""event"",""trial"",""time""
""fullscreenenter"",""1"",""3766""
","
","
","""event"",""trial"",""time""
""fullscreenenter"",""1"",""3766""
","
","","[{""page_index"":0,""viewing_time"":4976.79999999702}]","4977.10000000149","","","","","","","","","","","","","","","","","","","","","","","",""
"pit-comprehension","122","1026380","0.0-2.0-25.0-0.0","battery-v0.2","","""event"",""trial"",""time""
""fullscreenenter"",""1"",""3766""
","
","
","""event"",""trial"",""time""
""fullscreenenter"",""1"",""3766""
","
","","","7106","[""True""]","0","24","7699","3934","","","","","","","","","","","","","","","","","","",""
"pit-instructions","123","1028674","0.0-2.0-25.0-1.0","battery-v0.2","","""event"",""trial"",""time""
""fullscreenenter"",""1"",""3766""
","
","
","""event"",""trial"",""time""
""fullscreenenter"",""1"",""3766""
","
","","[{""page_index"":0,""viewing_time"":2205.5}]","2206","","","","","","","","","","","","","","","","","","","","","","","",""
"pit-comprehension","124","1036573","0.0-2.0-26.0-0.0","battery-v0.2","","""event"",""trial"",""time""
""fullscreenenter"",""1"",""3766""
","
","
","""event"",""trial"",""time""
""fullscreenenter"",""1"",""3766""
","
","","","7894.19999999553","[""True""]","1","24","7699","3934","","","","","","","","","","","","","","","","","","",""
"pit-instructions","125","1043716","0.0-2.0-26.0-1.0","battery-v0.2","","""event"",""trial"",""time""
""fullscreenenter"",""1"",""3766""
","
","
","""event"",""trial"",""time""
""fullscreenenter"",""1"",""3766""
","
","","[{""page_index"":0,""viewing_time"":7055.79999999702}]","7056.19999999553","","","","","","","","","","","","","","","","","","","","","","","",""
"pit-instructions","126","1045021","0.0-2.0-26.0-2.0-0.0","battery-v0.2","","""event"",""trial"",""time""
""fullscreenenter"",""1"",""3766""
","
","
","""event"",""trial"",""time""
""fullscreenenter"",""1"",""3766""
","
","","[{""page_index"":0,""viewing_time"":1301.2000000029802}]","1301.6000000014901","","","","","","","","","","","","","","","","","","","","","","","",""
"pit-comprehension","127","1050175","0.0-2.0-26.1-0.1","battery-v0.2","","""event"",""trial"",""time""
""fullscreenenter"",""1"",""3766""
","
","
","""event"",""trial"",""time""
""fullscreenenter"",""1"",""3766""
","
","","","5150.79999999702","[""False""]","0","24","7699","3934","","","","","","","","","","","","","","","","","","",""
"pit-instructions","128","1053649","0.0-2.0-26.1-1.1","battery-v0.2","","""event"",""trial"",""time""
""fullscreenenter"",""1"",""3766""
","
","
","""event"",""trial"",""time""
""fullscreenenter"",""1"",""3766""
","
","","[{""page_index"":0,""viewing_time"":3369.39999999851}]","3369.7999999970198","","","","","","","","","","","","","","","","","","","","","","","",""
"pit-instructions","129","1072762","0.0-3.0","battery-v0.2","","""event"",""trial"",""time""
""fullscreenenter"",""1"",""3766""
","
","
","""event"",""trial"",""time""
""fullscreenenter"",""1"",""3766""
","
","","[{""page_index"":0,""viewing_time"":5689.10000000149},{""page_index"":1,""viewing_time"":5084.89999999851},{""page_index"":2,""viewing_time"":8335.70000000298}]","19110.20000000298","","","","","","","","","","","","","","","","","","","","","","","",""
"pit-trial","130","1076496","0.0-4.0","battery-v0.2","","""event"",""trial"",""time""
""fullscreenenter"",""1"",""3766""
","
","
","""event"",""trial"",""time""
""fullscreenenter"",""1"",""3766""
","
","","","871.7999999970198","","","24","7699","3934","&#9728;","elianto","#f73b6a7A","-1"," ","0","0","[1726.1000000014901]","1","1","","","7699","1","0","4","lose","no-go","1"
"pit-trial","131","1080445","0.0-5.0","battery-v0.2","","""event"",""trial"",""time""
""fullscreenenter"",""1"",""3766""
","
","
","""event"",""trial"",""time""
""fullscreenenter"",""1"",""3766""
","
","","","1075.6000000014901","","","24","7699","3934","&#9752;","elianto","#f73b6a7A"," "," ","1","0","[1927.1000000014901]","1","1","","","7699","2","3","3","lose","go","0"
"pit-trial","132","1084214","0.0-6.0","battery-v0.2","","""event"",""trial"",""time""
""fullscreenenter"",""1"",""3766""
","
","
","""event"",""trial"",""time""
""fullscreenenter"",""1"",""3766""
","
","","","893.7000000029802","","","24","7699","3934","&#9730;","elianto","#3366ff99"," "," ","1","+10","[1747.6999999955297]","1","1","","","7699","3","1","1","win","go","0"
"pit-trial","133","1087724","0.0-7.0","battery-v0.2","","""event"",""trial"",""time""
""fullscreenenter"",""1"",""3766""
","
","
","""event"",""trial"",""time""
""fullscreenenter"",""1"",""3766""
","
","","","629","","","24","7699","3934","&#9733;","elianto","#3366ff99","-1"," ","0","0","[1484.3999999985099]","1","1","","","7699","4","2","2","win","no-go","0"
"pit-trial","134","1091244","0.0-8.0","battery-v0.2","","""event"",""trial"",""time""
""fullscreenenter"",""1"",""3766""
","
","
","""event"",""trial"",""time""
""fullscreenenter"",""1"",""3766""
","
","","","643.5","","","24","7699","3934","&#9733;","elianto","#3366ff99","-1"," ","0","0","[1495.1000000014901]","1","1","","","7699","5","2","2","win","no-go","0"
"pit-trial","135","1094774","0.0-9.0","battery-v0.2","","""event"",""trial"",""time""
""fullscreenenter"",""1"",""3766""
","
","
","""event"",""trial"",""time""
""fullscreenenter"",""1"",""3766""
","
","","","664.8999999985099","","","24","7699","3934","&#9752;","elianto","#f73b6a7A"," "," ","1","-10","[1522.6000000014901]","1","1","","","7699","6","3","3","lose","go","1"
"pit-trial","136","1098455","0.0-10.0","battery-v0.2","","""event"",""trial"",""time""
""fullscreenenter"",""1"",""3766""
","
","
","""event"",""trial"",""time""
""fullscreenenter"",""1"",""3766""
","
","","","809","","","24","7699","3934","&#9728;","elianto","#f73b6a7A","-1"," ","0","-10","[1666.7000000029802]","1","1","","","7699","7","0","4","lose","no-go","0"
"pit-trial","137","1102074","0.0-11.0","battery-v0.2","","""event"",""trial"",""time""
""fullscreenenter"",""1"",""3766""
","
","
","""event"",""trial"",""time""
""fullscreenenter"",""1"",""3766""
","
","","","751","","","24","7699","3934","&#9730;","elianto","#3366ff99"," "," ","1","+10","[1609.6000000014901]","1","1","","","7699","8","1","1","win","go","0"
"pit-trial","138","1105556","0.0-12.0","battery-v0.2","","""event"",""trial"",""time""
""fullscreenenter"",""1"",""3766""
","
","
","""event"",""trial"",""time""
""fullscreenenter"",""1"",""3766""
","
","","","620.1000000014901","","","24","7699","3934","&#9730;","elianto","#3366ff99"," "," ","1","0","[1472.2999999970198]","1","1","","","7699","9","1","1","win","go","1"
"pit-trial","139","1109146","0.0-13.0","battery-v0.2","","""event"",""trial"",""time""
""fullscreenenter"",""1"",""3766""
","
","
","""event"",""trial"",""time""
""fullscreenenter"",""1"",""3766""
","
","","","726.2000000029802","","","24","7699","3934","&#9733;","elianto","#3366ff99","-1"," ","0","0","[1578.2000000029802]","1","1","","","7699","10","2","2","win","no-go","0"
"pit-trial","140","1114005","0.0-14.0","battery-v0.2","","""event"",""trial"",""time""
""fullscreenenter"",""1"",""3766""
","
","
","""event"",""trial"",""time""
""fullscreenenter"",""1"",""3766""
","
","","","-1","","","24","7699","3934","&#9728;","elianto","#f73b6a7A","-1","-1","1","0","[]","0","1","","","7699","11","0","4","lose","no-go","0"
"pit-trial","141","1118870","0.0-15.0","battery-v0.2","","""event"",""trial"",""time""
""fullscreenenter"",""1"",""3766""
","
","
","""event"",""trial"",""time""
""fullscreenenter"",""1"",""3766""
","
","","","-1","","","24","7699","3934","&#9752;","elianto","#f73b6a7A"," ","-1","0","0","[]","0","1","","","7699","12","3","3","lose","go","1"
"pit-trial","142","1122446","0.0-16.0","battery-v0.2","","""event"",""trial"",""time""
""fullscreenenter"",""1"",""3766""
","
","
","""event"",""trial"",""time""
""fullscreenenter"",""1"",""3766""
","
","","","713.8000000044703","","","24","7699","3934","&#9730;","elianto","#3366ff99"," "," ","1","+10","[1564.7000000029802]","1","1","","","7699","13","1","1","win","go","0"
"pit-trial","143","1126310","0.0-17.0","battery-v0.2","","""event"",""trial"",""time""
""fullscreenenter"",""1"",""3766""
","
","
","""event"",""trial"",""time""
""fullscreenenter"",""1"",""3766""
","
","","","992.5","","","24","7699","3934","&#9733;","elianto","#3366ff99","-1"," ","0","0","[1844.2000000029802]","1","1","","","7699","14","2","2","win","no-go","0"
"pit-trial","144","1131172","0.0-18.0","battery-v0.2","","""event"",""trial"",""time""
""fullscreenenter"",""1"",""3766""
","
","
","""event"",""trial"",""time""
""fullscreenenter"",""1"",""3766""
","
","","","-1","","","24","7699","3934","&#9728;","elianto","#f73b6a7A","-1","-1","1","0","[]","0","1","","","7699","15","0","4","lose","no-go","0"
"pit-trial","145","1136038","0.0-19.0","battery-v0.2","","""event"",""trial"",""time""
""fullscreenenter"",""1"",""3766""
","
","
","""event"",""trial"",""time""
""fullscreenenter"",""1"",""3766""
","
","","","-1","","","24","7699","3934","&#9752;","elianto","#f73b6a7A"," ","-1","0","-10","[]","0","1","","","7699","16","3","3","lose","go","0"
"pit-trial","146","1139507","0.0-20.0","battery-v0.2","","""event"",""trial"",""time""
""fullscreenenter"",""1"",""3766""
","
","
","""event"",""trial"",""time""
""fullscreenenter"",""1"",""3766""
","
","","","601.0999999940395","","","24","7699","3934","&#9733;","elianto","#3366ff99","-1"," ","0","+10","[1454.3999999985099]","1","1","","","7699","17","2","2","win","no-go","1"
"pit-trial","147","1142898","0.0-21.0","battery-v0.2","","""event"",""trial"",""time""
""fullscreenenter"",""1"",""3766""
","
","
","""event"",""trial"",""time""
""fullscreenenter"",""1"",""3766""
","
","","","526.2000000029802","","","24","7699","3934","&#9730;","elianto","#3366ff99"," "," ","1","+10","[1380.8000000044703]","1","1","","","7699","18","1","1","win","go","0"
"pit-trial","148","1147762","0.0-22.0","battery-v0.2","","""event"",""trial"",""time""
""fullscreenenter"",""1"",""3766""
","
","
","""event"",""trial"",""time""
""fullscreenenter"",""1"",""3766""
","
","","","-1","","","24","7699","3934","&#9728;","elianto","#f73b6a7A","-1","-1","1","0","[3979]","1","1","","","7699","19","0","4","lose","no-go","0"
"pit-trial","149","1152631","0.0-23.0","battery-v0.2","","""event"",""trial"",""time""
""fullscreenenter"",""1"",""3766""
","
","
","""event"",""trial"",""time""
""fullscreenenter"",""1"",""3766""
","
","","","-1","","","24","7699","3934","&#9752;","elianto","#f73b6a7A"," ","-1","0","0","[]","0","1","","","7699","20","3","3","lose","go","1"
"pit-instructions","150","1177984","0.0-24.0","battery-v0.2","","""event"",""trial"",""time""
""fullscreenenter"",""1"",""3766""
","
","
","""event"",""trial"",""time""
""fullscreenenter"",""1"",""3766""
","
","","[{""page_index"":0,""viewing_time"":18046.89999999851},{""page_index"":1,""viewing_time"":7301.29999999702}]","25348.60000000149","","","","","","","","","","","","","","","","","","","","","","","",""
"pit-trial","151","1182847","0.0-25.0","battery-v0.2","","""event"",""trial"",""time""
""fullscreenenter"",""1"",""3766""
","
","
","""event"",""trial"",""time""
""fullscreenenter"",""1"",""3766""
","
","","","-1","","","24","7699","3934","a","elianto","#f73b6a7A"," ","-1","0","-10","[]","0","2","","","7699","21","2","3","lose","go","0"
"pit-trial","152","1186477","0.0-26.0","battery-v0.2","","""event"",""trial"",""time""
""fullscreenenter"",""1"",""3766""
","
","
","""event"",""trial"",""time""
""fullscreenenter"",""1"",""3766""
","
","","","771.6000000014901","","","24","7699","3934","l","elianto","#3366ff99","-1"," ","0","0","[1623.1000000014901]","1","2","","","7699","22","1","2","win","no-go","0"
"pit-trial","153","1191357","0.0-27.0","battery-v0.2","","""event"",""trial"",""time""
""fullscreenenter"",""1"",""3766""
","
","
","""event"",""trial"",""time""
""fullscreenenter"",""1"",""3766""
","
","","","-1","","","24","7699","3934","g","elianto","#f73b6a7A","-1","-1","1","0","[]","0","2","","","7699","23","3","4","lose","no-go","0"
"pit-trial","154","1196247","0.0-28.0","battery-v0.2","","""event"",""trial"",""time""
""fullscreenenter"",""1"",""3766""
","
","
","""event"",""trial"",""time""
""fullscreenenter"",""1"",""3766""
","
","","","-1","","","24","7699","3934","u","elianto","#f73b6a7A"," ","-1","0","-10","[]","0","2","","","7699","24","0","3","lose","go","0"
"pit-trial","155","1200157","0.0-29.0","battery-v0.2","","""event"",""trial"",""time""
""fullscreenenter"",""1"",""3766""
","
","
","""event"",""trial"",""time""
""fullscreenenter"",""1"",""3766""
","
","","","1047.1000000014901","","","24","7699","3934","u","elianto","#f73b6a7A"," "," ","1","0","[1899.6999999955297]","1","2","","","7699","25","0","3","lose","go","0"
"pit-trial","156","1203968","0.0-30.0","battery-v0.2","","""event"",""trial"",""time""
""fullscreenenter"",""1"",""3766""
","
","
","""event"",""trial"",""time""
""fullscreenenter"",""1"",""3766""
","
","","","944","","","24","7699","3934","l","elianto","#3366ff99","-1"," ","0","+10","[1798.6000000014901]","1","2","","","7699","26","1","2","win","no-go","1"
"pit-trial","157","1208442","0.0-31.0","battery-v0.2","","""event"",""trial"",""time""
""fullscreenenter"",""1"",""3766""
","
","
","""event"",""trial"",""time""
""fullscreenenter"",""1"",""3766""
","
","","","1608.6999999955297","","","24","7699","3934","g","elianto","#f73b6a7A","-1"," ","0","0","[2466]","1","2","","","7699","27","3","4","lose","no-go","1"
"pit-trial","158","1212376","0.0-32.0","battery-v0.2","","""event"",""trial"",""time""
""fullscreenenter"",""1"",""3766""
","
","
","""event"",""trial"",""time""
""fullscreenenter"",""1"",""3766""
","
","","","1072","","","24","7699","3934","a","elianto","#f73b6a7A"," "," ","1","0","[1924.0999999940395]","1","2","","","7699","28","2","3","lose","go","0"
"pit-trial","159","1216036","0.0-33.0","battery-v0.2","","""event"",""trial"",""time""
""fullscreenenter"",""1"",""3766""
","
","
","""event"",""trial"",""time""
""fullscreenenter"",""1"",""3766""
","
","","","794.5999999940395","","","24","7699","3934","l","elianto","#3366ff99","-1"," ","0","+10","[1648.8000000044703]","1","2","","","7699","29","1","2","win","no-go","1"
"pit-trial","160","1220226","0.0-34.0","battery-v0.2","","""event"",""trial"",""time""
""fullscreenenter"",""1"",""3766""
","
","
","""event"",""trial"",""time""
""fullscreenenter"",""1"",""3766""
","
","","","1328","","","24","7699","3934","a","elianto","#f73b6a7A"," "," ","1","0","[2178.5]","1","2","","","7699","30","2","3","lose","go","0"
"pit-trial","161","1224204","0.0-35.0","battery-v0.2","","""event"",""trial"",""time""
""fullscreenenter"",""1"",""3766""
","
","
","""event"",""trial"",""time""
""fullscreenenter"",""1"",""3766""
","
","","","1112.7999999970198","","","24","7699","3934","u","elianto","#f73b6a7A"," "," ","1","0","[1966.6000000014901]","1","2","","","7699","31","0","3","lose","go","0"
"pit-trial","162","1228246","0.0-36.0","battery-v0.2","","""event"",""trial"",""time""
""fullscreenenter"",""1"",""3766""
","
","
","""event"",""trial"",""time""
""fullscreenenter"",""1"",""3766""
","
","","","1174.6000000014901","","","24","7699","3934","g","elianto","#f73b6a7A","-1"," ","0","-10","[2029.5]","1","2","","","7699","32","3","4","lose","no-go","0"
"pit-trial","163","1231789","0.0-37.0","battery-v0.2","","""event"",""trial"",""time""
""fullscreenenter"",""1"",""3766""
","
","
","""event"",""trial"",""time""
""fullscreenenter"",""1"",""3766""
","
","","","682","","","24","7699","3934","u","elianto","#f73b6a7A"," "," ","1","0","[1532.1000000014901]","1","2","","","7699","33","0","3","lose","go","0"
"pit-trial","164","1236655","0.0-38.0","battery-v0.2","","""event"",""trial"",""time""
""fullscreenenter"",""1"",""3766""
","
","
","""event"",""trial"",""time""
""fullscreenenter"",""1"",""3766""
","
","","","-1","","","24","7699","3934","g","elianto","#f73b6a7A","-1","-1","1","0","[]","0","2","","","7699","34","3","4","lose","no-go","0"
"pit-trial","165","1240473","0.0-39.0","battery-v0.2","","""event"",""trial"",""time""
""fullscreenenter"",""1"",""3766""
","
","
","""event"",""trial"",""time""
""fullscreenenter"",""1"",""3766""
","
","","","951.7999999970198","","","24","7699","3934","a","elianto","#f73b6a7A"," "," ","1","0","[1807.2000000029802]","1","2","","","7699","35","2","3","lose","go","0"
"pit-trial","166","1244163","0.0-40.0","battery-v0.2","","""event"",""trial"",""time""
""fullscreenenter"",""1"",""3766""
","
","
","""event"",""trial"",""time""
""fullscreenenter"",""1"",""3766""
","
","","","824.2000000029802","","","24","7699","3934","l","elianto","#3366ff99","-1"," ","0","0","[1677.8999999985099]","1","2","","","7699","36","1","2","win","no-go","0"
"pit-trial","167","1247588","0.0-41.0","battery-v0.2","","""event"",""trial"",""time""
""fullscreenenter"",""1"",""3766""
","
","
","""event"",""trial"",""time""
""fullscreenenter"",""1"",""3766""
","
","","","564.6999999955297","","","24","7699","3934","l","elianto","#3366ff99","-1"," ","0","0","[1415.8999999985099]","1","2","","","7699","37","1","2","win","no-go","0"
"pit-trial","168","1251511","0.0-42.0","battery-v0.2","","""event"",""trial"",""time""
""fullscreenenter"",""1"",""3766""
","
","
","""event"",""trial"",""time""
""fullscreenenter"",""1"",""3766""
","
","","","1059.3999999985099","","","24","7699","3934","a","elianto","#f73b6a7A"," "," ","1","0","[1911.7999999970198]","1","2","","","7699","38","2","3","lose","go","0"
"pit-trial","169","1255057","0.0-43.0","battery-v0.2","","""event"",""trial"",""time""
""fullscreenenter"",""1"",""3766""
","
","
","""event"",""trial"",""time""
""fullscreenenter"",""1"",""3766""
","
","","","688.4000000059605","","","24","7699","3934","u","elianto","#f73b6a7A"," "," ","1","-10","[1539.5]","1","2","","","7699","39","0","3","lose","go","1"
"pit-trial","170","1258910","0.0-44.0","battery-v0.2","","""event"",""trial"",""time""
""fullscreenenter"",""1"",""3766""
","
","
","""event"",""trial"",""time""
""fullscreenenter"",""1"",""3766""
","
","","","994.8000000044703","","","24","7699","3934","g","elianto","#f73b6a7A","-1"," ","0","-10","[1845.6000000014901]","1","2","","","7699","40","3","4","lose","no-go","0"
"pit-trial","171","1262524","0.0-45.0","battery-v0.2","","""event"",""trial"",""time""
""fullscreenenter"",""1"",""3766""
","
","
","""event"",""trial"",""time""
""fullscreenenter"",""1"",""3766""
","
","","","751.6000000014901","","","24","7699","3934","a","elianto","#f73b6a7A"," "," ","1","0","[1606.2000000029802]","1","2","","","7699","41","2","3","lose","go","0"
"pit-trial","172","1266161","0.0-46.0","battery-v0.2","","""event"",""trial"",""time""
""fullscreenenter"",""1"",""3766""
","
","
","""event"",""trial"",""time""
""fullscreenenter"",""1"",""3766""
","
","","","774","","","24","7699","3934","l","elianto","#3366ff99","-1"," ","0","+10","[1627.7000000029802]","1","2","","","7699","42","1","2","win","no-go","1"
"pit-trial","173","1270107","0.0-47.0","battery-v0.2","","""event"",""trial"",""time""
""fullscreenenter"",""1"",""3766""
","
","
","""event"",""trial"",""time""
""fullscreenenter"",""1"",""3766""
","
","","","1081.7999999970198","","","24","7699","3934","u","elianto","#f73b6a7A"," "," ","1","-10","[1933.6000000014901]","1","2","","","7699","43","0","3","lose","go","1"
"pit-trial","174","1274024","0.0-48.0","battery-v0.2","","""event"",""trial"",""time""
""fullscreenenter"",""1"",""3766""
","
","
","""event"",""trial"",""time""
""fullscreenenter"",""1"",""3766""
","
","","","1054.2000000029802","","","24","7699","3934","g","elianto","#f73b6a7A","-1"," ","0","-10","[1907.2000000029802]","1","2","","","7699","44","3","4","lose","no-go","0"
"pit-trial","175","1278886","0.0-49.0","battery-v0.2","","""event"",""trial"",""time""
""fullscreenenter"",""1"",""3766""
","
","
","""event"",""trial"",""time""
""fullscreenenter"",""1"",""3766""
","
","","","-1","","","24","7699","3934","g","elianto","#f73b6a7A","-1","-1","1","0","[]","0","2","","","7699","45","3","4","lose","no-go","0"
"pit-trial","176","1282434","0.0-50.0","battery-v0.2","","""event"",""trial"",""time""
""fullscreenenter"",""1"",""3766""
","
","
","""event"",""trial"",""time""
""fullscreenenter"",""1"",""3766""
","
","","","689.2000000029802","","","24","7699","3934","l","elianto","#3366ff99","-1"," ","0","+10","[1540.1000000014901]","1","2","","","7699","46","1","2","win","no-go","1"
"pit-trial","177","1287299","0.0-51.0","battery-v0.2","","""event"",""trial"",""time""
""fullscreenenter"",""1"",""3766""
","
","
","""event"",""trial"",""time""
""fullscreenenter"",""1"",""3766""
","
","","","-1","","","24","7699","3934","u","elianto","#f73b6a7A"," ","-1","0","-10","[2924.2999999970198]","1","2","","","7699","47","0","3","lose","go","0"
"pit-trial","178","1291727","0.0-52.0","battery-v0.2","","""event"",""trial"",""time""
""fullscreenenter"",""1"",""3766""
","
","
","""event"",""trial"",""time""
""fullscreenenter"",""1"",""3766""
","
","","","1568.7000000029802","","","24","7699","3934","a","elianto","#f73b6a7A"," "," ","1","0","[2419]","1","2","","","7699","48","2","3","lose","go","0"
"pit-trial","179","1296591","0.0-53.0","battery-v0.2","","""event"",""trial"",""time""
""fullscreenenter"",""1"",""3766""
","
","
","""event"",""trial"",""time""
""fullscreenenter"",""1"",""3766""
","
","","","-1","","","24","7699","3934","g","elianto","#f73b6a7A","-1","-1","1","-10","[]","0","2","","","7699","49","3","4","lose","no-go","1"
"pit-trial","180","1301082","0.0-54.0","battery-v0.2","","""event"",""trial"",""time""
""fullscreenenter"",""1"",""3766""
","
","
","""event"",""trial"",""time""
""fullscreenenter"",""1"",""3766""
","
","","","1624.1000000014901","","","24","7699","3934","a","elianto","#f73b6a7A"," "," ","1","0","[2482.39999999851]","1","2","","","7699","50","2","3","lose","go","0"
"pit-trial","181","1305942","0.0-55.0","battery-v0.2","","""event"",""trial"",""time""
""fullscreenenter"",""1"",""3766""
","
","
","""event"",""trial"",""time""
""fullscreenenter"",""1"",""3766""
","
","","","-1","","","24","7699","3934","u","elianto","#f73b6a7A"," ","-1","0","0","[]","0","2","","","7699","51","0","3","lose","go","1"
"pit-trial","182","1309496","0.0-56.0","battery-v0.2","","""event"",""trial"",""time""
""fullscreenenter"",""1"",""3766""
","
","
","""event"",""trial"",""time""
""fullscreenenter"",""1"",""3766""
","
","","","692.8000000044703","","","24","7699","3934","l","elianto","#3366ff99","-1"," ","0","0","[1544.1000000014901]","1","2","","","7699","52","1","2","win","no-go","0"
"pit-trial","183","1312961","0.0-57.0","battery-v0.2","","""event"",""trial"",""time""
""fullscreenenter"",""1"",""3766""
","
","
","""event"",""trial"",""time""
""fullscreenenter"",""1"",""3766""
","
","","","602.3999999985099","","","24","7699","3934","l","elianto","#3366ff99","-1"," ","0","0","[1452.6000000014901]","1","2","","","7699","53","1","2","win","no-go","0"
"pit-trial","184","1317264","0.0-58.0","battery-v0.2","","""event"",""trial"",""time""
""fullscreenenter"",""1"",""3766""
","
","
","""event"",""trial"",""time""
""fullscreenenter"",""1"",""3766""
","
","","","1432.2999999970198","","","24","7699","3934","a","elianto","#f73b6a7A"," "," ","1","0","[2283.60000000149]","1","2","","","7699","54","2","3","lose","go","0"
"pit-trial","185","1321649","0.0-59.0","battery-v0.2","","""event"",""trial"",""time""
""fullscreenenter"",""1"",""3766""
","
","
","""event"",""trial"",""time""
""fullscreenenter"",""1"",""3766""
","
","","","1525.5","","","24","7699","3934","u","elianto","#f73b6a7A"," "," ","1","0","[2379]","1","2","","","7699","55","0","3","lose","go","0"
"pit-trial","186","1326510","0.0-60.0","battery-v0.2","","""event"",""trial"",""time""
""fullscreenenter"",""1"",""3766""
","
","
","""event"",""trial"",""time""
""fullscreenenter"",""1"",""3766""
","
","","","-1","","","24","7699","3934","g","elianto","#f73b6a7A","-1","-1","1","0","[4807.10000000149]","1","2","","","7699","56","3","4","lose","no-go","0"
"pit-trial","187","1331195","0.0-61.0","battery-v0.2","","""event"",""trial"",""time""
""fullscreenenter"",""1"",""3766""
","
","
","""event"",""trial"",""time""
""fullscreenenter"",""1"",""3766""
","
","","","1819.8000000044703","","","24","7699","3934","u","elianto","#f73b6a7A"," "," ","1","0","[2673.2000000029802]","1","2","","","7699","57","0","3","lose","go","0"
"pit-trial","188","1336060","0.0-62.0","battery-v0.2","","""event"",""trial"",""time""
""fullscreenenter"",""1"",""3766""
","
","
","""event"",""trial"",""time""
""fullscreenenter"",""1"",""3766""
","
","","","-1","","","24","7699","3934","g","elianto","#f73b6a7A","-1","-1","1","0","[]","0","2","","","7699","58","3","4","lose","no-go","0"
"pit-trial","189","1339575","0.0-63.0","battery-v0.2","","""event"",""trial"",""time""
""fullscreenenter"",""1"",""3766""
","
","
","""event"",""trial"",""time""
""fullscreenenter"",""1"",""3766""
","
","","","654.5","","","24","7699","3934","a","elianto","#f73b6a7A"," "," ","1","0","[1504.7000000029802]","1","2","","","7699","59","2","3","lose","go","0"
"pit-trial","190","1343276","0.0-64.0","battery-v0.2","","""event"",""trial"",""time""
""fullscreenenter"",""1"",""3766""
","
","
","""event"",""trial"",""time""
""fullscreenenter"",""1"",""3766""
","
","","","825.7999999970198","","","24","7699","3934","p","elianto","#3366ff99"," "," ","1","+10","[1681.9000000059605]","1","2","","","7699","60","4","1","win","go","0"
"pit-trial","191","1346794","0.0-65.0","battery-v0.2","","""event"",""trial"",""time""
""fullscreenenter"",""1"",""3766""
","
","
","""event"",""trial"",""time""
""fullscreenenter"",""1"",""3766""
","
","","","654","","","24","7699","3934","p","elianto","#3366ff99"," "," ","1","+10","[1506.8999999985099]","1","2","","","7699","61","4","1","win","go","0"
"pit-trial","192","1350556","0.0-66.0","battery-v0.2","","""event"",""trial"",""time""
""fullscreenenter"",""1"",""3766""
","
","
","""event"",""trial"",""time""
""fullscreenenter"",""1"",""3766""
","
","","","895.1999999955297","","","24","7699","3934","l","elianto","#3366ff99","-1"," ","0","0","[1747.6999999955297]","1","2","","","7699","62","1","2","win","no-go","0"
"pit-trial","193","1354683","0.0-67.0","battery-v0.2","","""event"",""trial"",""time""
""fullscreenenter"",""1"",""3766""
","
","
","""event"",""trial"",""time""
""fullscreenenter"",""1"",""3766""
","
","","","1259.6000000014901","","","24","7699","3934","a","elianto","#f73b6a7A"," "," ","1","0","[2113.60000000149]","1","2","","","7699","63","2","3","lose","go","0"
"pit-trial","194","1358329","0.0-68.0","battery-v0.2","","""event"",""trial"",""time""
""fullscreenenter"",""1"",""3766""
","
","
","""event"",""trial"",""time""
""fullscreenenter"",""1"",""3766""
","
","","","779.5","","","24","7699","3934","g","elianto","#f73b6a7A","-1"," ","0","-10","[1632.5]","1","2","","","7699","64","3","4","lose","no-go","0"
"pit-trial","195","1363189","0.0-69.0","battery-v0.2","","""event"",""trial"",""time""
""fullscreenenter"",""1"",""3766""
","
","
","""event"",""trial"",""time""
""fullscreenenter"",""1"",""3766""
","
","","","-1","","","24","7699","3934","g","elianto","#f73b6a7A","-1","-1","1","0","[]","0","2","","","7699","65","3","4","lose","no-go","0"
"pit-trial","196","1366902","0.0-70.0","battery-v0.2","","""event"",""trial"",""time""
""fullscreenenter"",""1"",""3766""
","
","
","""event"",""trial"",""time""
""fullscreenenter"",""1"",""3766""
","
","","","843.0999999940395","","","24","7699","3934","p","elianto","#3366ff99"," "," ","1","+10","[1699.5]","1","2","","","7699","66","4","1","win","go","0"
"pit-trial","197","1370430","0.0-71.0","battery-v0.2","","""event"",""trial"",""time""
""fullscreenenter"",""1"",""3766""
","
","
","""event"",""trial"",""time""
""fullscreenenter"",""1"",""3766""
","
","","","657.8000000044703","","","24","7699","3934","s","elianto","#3366ff99","-1"," ","0","0","[1515.1000000014901]","1","2","","","7699","67","5","2","win","no-go","0"
"pit-trial","198","1374651","0.0-72.0","battery-v0.2","","""event"",""trial"",""time""
""fullscreenenter"",""1"",""3766""
","
","
","""event"",""trial"",""time""
""fullscreenenter"",""1"",""3766""
","
","","","1363.1999999955297","","","24","7699","3934","l","elianto","#3366ff99","-1"," ","0","0","[691.6000000014901,2213.7999999970198]","2","2","","","7699","68","1","2","win","no-go","0"
"pit-trial","199","1378195","0.0-73.0","battery-v0.2","","""event"",""trial"",""time""
""fullscreenenter"",""1"",""3766""
","
","
","""event"",""trial"",""time""
""fullscreenenter"",""1"",""3766""
","
","","","682.1000000014901","","","24","7699","3934","l","elianto","#3366ff99","-1"," ","0","0","[1532.7000000029802]","1","2","","","7699","69","1","2","win","no-go","0"
"pit-trial","200","1381758","0.0-74.0","battery-v0.2","","""event"",""trial"",""time""
""fullscreenenter"",""1"",""3766""
","
","
","""event"",""trial"",""time""
""fullscreenenter"",""1"",""3766""
","
","","","700.5","","","24","7699","3934","s","elianto","#3366ff99","-1"," ","0","0","[1556.1000000014901]","1","2","","","7699","70","5","2","win","no-go","0"
"pit-trial","201","1385463","0.0-75.0","battery-v0.2","","""event"",""trial"",""time""
""fullscreenenter"",""1"",""3766""
","
","
","""event"",""trial"",""time""
""fullscreenenter"",""1"",""3766""
","
","","","837.5999999940395","","","24","7699","3934","p","elianto","#3366ff99"," "," ","1","+10","[1693]","1","2","","","7699","71","4","1","win","go","0"
"pit-trial","202","1389476","0.0-76.0","battery-v0.2","","""event"",""trial"",""time""
""fullscreenenter"",""1"",""3766""
","
","
","""event"",""trial"",""time""
""fullscreenenter"",""1"",""3766""
","
","","","1153","","","24","7699","3934","a","elianto","#f73b6a7A"," "," ","1","0","[2006.7999999970198]","1","2","","","7699","72","2","3","lose","go","0"
"pit-trial","203","1393063","0.0-77.0","battery-v0.2","","""event"",""trial"",""time""
""fullscreenenter"",""1"",""3766""
","
","
","""event"",""trial"",""time""
""fullscreenenter"",""1"",""3766""
","
","","","728.6000000014901","","","24","7699","3934","s","elianto","#3366ff99","-1"," ","0","0","[1580.7999999970198]","1","2","","","7699","73","5","2","win","no-go","0"
"pit-trial","204","1396581","0.0-78.0","battery-v0.2","","""event"",""trial"",""time""
""fullscreenenter"",""1"",""3766""
","
","
","""event"",""trial"",""time""
""fullscreenenter"",""1"",""3766""
","
","","","652.8000000044703","","","24","7699","3934","l","elianto","#3366ff99","-1"," ","0","0","[1510]","1","2","","","7699","74","1","2","win","no-go","0"
"pit-trial","205","1401441","0.0-79.0","battery-v0.2","","""event"",""trial"",""time""
""fullscreenenter"",""1"",""3766""
","
","
","""event"",""trial"",""time""
""fullscreenenter"",""1"",""3766""
","
","","","-1","","","24","7699","3934","g","elianto","#f73b6a7A","-1","-1","1","0","[]","0","2","","","7699","75","3","4","lose","no-go","0"
"pit-trial","206","1404876","0.0-80.0","battery-v0.2","","""event"",""trial"",""time""
""fullscreenenter"",""1"",""3766""
","
","
","""event"",""trial"",""time""
""fullscreenenter"",""1"",""3766""
","
","","","569.2999999970198","","","24","7699","3934","p","elianto","#3366ff99"," "," ","1","+10","[1424]","1","2","","","7699","76","4","1","win","go","0"
"pit-trial","207","1408307","0.0-81.0","battery-v0.2","","""event"",""trial"",""time""
""fullscreenenter"",""1"",""3766""
","
","
","""event"",""trial"",""time""
""fullscreenenter"",""1"",""3766""
","
","","","568.6000000014901","","","24","7699","3934","s","elianto","#3366ff99","-1"," ","0","0","[1419.8999999985099]","1","2","","","7699","77","5","2","win","no-go","0"
"pit-trial","208","1413169","0.0-82.0","battery-v0.2","","""event"",""trial"",""time""
""fullscreenenter"",""1"",""3766""
","
","
","""event"",""trial"",""time""
""fullscreenenter"",""1"",""3766""
","
","","","-1","","","24","7699","3934","g","elianto","#f73b6a7A","-1","-1","1","0","[]","0","2","","","7699","78","3","4","lose","no-go","0"
"pit-trial","209","1416724","0.0-83.0","battery-v0.2","","""event"",""trial"",""time""
""fullscreenenter"",""1"",""3766""
","
","
","""event"",""trial"",""time""
""fullscreenenter"",""1"",""3766""
","
","","","691.1999999955297","","","24","7699","3934","p","elianto","#3366ff99"," "," ","1","+10","[1543.5999999940395]","1","2","","","7699","79","4","1","win","go","0"
"pit-trial","210","1420125","0.0-84.0","battery-v0.2","","""event"",""trial"",""time""
""fullscreenenter"",""1"",""3766""
","
","
","""event"",""trial"",""time""
""fullscreenenter"",""1"",""3766""
","
","","","536.8999999985099","","","24","7699","3934","p","elianto","#3366ff99"," "," ","1","+10","[1389.2999999970198]","1","2","","","7699","80","4","1","win","go","0"
"pit-trial","211","1424993","0.0-85.0","battery-v0.2","","""event"",""trial"",""time""
""fullscreenenter"",""1"",""3766""
","
","
","""event"",""trial"",""time""
""fullscreenenter"",""1"",""3766""
","
","","","-1","","","24","7699","3934","e","elianto","#f73b6a7A","-1","-1","1","0","[]","0","2","","","7699","81","7","4","lose","no-go","0"
"pit-trial","212","1428453","0.0-86.0","battery-v0.2","","""event"",""trial"",""time""
""fullscreenenter"",""1"",""3766""
","
","
","""event"",""trial"",""time""
""fullscreenenter"",""1"",""3766""
","
","","","598.6000000014901","","","24","7699","3934","p","elianto","#3366ff99"," "," ","1","+10","[1449.2000000029802]","1","2","","","7699","82","4","1","win","go","0"
"pit-trial","213","1431887","0.0-87.0","battery-v0.2","","""event"",""trial"",""time""
""fullscreenenter"",""1"",""3766""
","
","
","""event"",""trial"",""time""
""fullscreenenter"",""1"",""3766""
","
","","","563.3000000044703","","","24","7699","3934","g","elianto","#f73b6a7A","-1"," ","0","-10","[1417.7999999970198]","1","2","","","7699","83","3","4","lose","no-go","0"
"pit-trial","214","1435413","0.0-88.0","battery-v0.2","","""event"",""trial"",""time""
""fullscreenenter"",""1"",""3766""
","
","
","""event"",""trial"",""time""
""fullscreenenter"",""1"",""3766""
","
","","","661.7000000029802","","","24","7699","3934","s","elianto","#3366ff99","-1"," ","0","0","[1514.2000000029802]","1","2","","","7699","84","5","2","win","no-go","0"
"pit-trial","215","1439227","0.0-89.0","battery-v0.2","","""event"",""trial"",""time""
""fullscreenenter"",""1"",""3766""
","
","
","""event"",""trial"",""time""
""fullscreenenter"",""1"",""3766""
","
","","","949.2000000029802","","","24","7699","3934","s","elianto","#3366ff99","-1"," ","0","0","[1805.7999999970198]","1","2","","","7699","85","5","2","win","no-go","0"
"pit-trial","216","1444089","0.0-90.0","battery-v0.2","","""event"",""trial"",""time""
""fullscreenenter"",""1"",""3766""
","
","
","""event"",""trial"",""time""
""fullscreenenter"",""1"",""3766""
","
","","","-1","","","24","7699","3934","w","elianto","#f73b6a7A"," ","-1","0","-10","[]","0","2","","","7699","86","6","3","lose","go","0"
"pit-trial","217","1448952","0.0-91.0","battery-v0.2","","""event"",""trial"",""time""
""fullscreenenter"",""1"",""3766""
","
","
","""event"",""trial"",""time""
""fullscreenenter"",""1"",""3766""
","
","","","-1","","","24","7699","3934","e","elianto","#f73b6a7A","-1","-1","1","-10","[]","0","2","","","7699","87","7","4","lose","no-go","1"
"pit-trial","218","1452526","0.0-92.0","battery-v0.2","","""event"",""trial"",""time""
""fullscreenenter"",""1"",""3766""
","
","
","""event"",""trial"",""time""
""fullscreenenter"",""1"",""3766""
","
","","","712","","","24","7699","3934","p","elianto","#3366ff99"," "," ","1","0","[1568.2999999970198]","1","2","","","7699","88","4","1","win","go","1"
"pit-trial","219","1455945","0.0-93.0","battery-v0.2","","""event"",""trial"",""time""
""fullscreenenter"",""1"",""3766""
","
","
","""event"",""trial"",""time""
""fullscreenenter"",""1"",""3766""
","
","","","560.5","","","24","7699","3934","s","elianto","#3366ff99","-1"," ","0","0","[1411.3000000044703]","1","2","","","7699","89","5","2","win","no-go","0"
"pit-trial","220","1459756","0.0-94.0","battery-v0.2","","""event"",""trial"",""time""
""fullscreenenter"",""1"",""3766""
","
","
","""event"",""trial"",""time""
""fullscreenenter"",""1"",""3766""
","
","","","940.1000000014901","","","24","7699","3934","w","elianto","#f73b6a7A"," "," ","1","0","[1797.1000000014901]","1","2","","","7699","90","6","3","lose","go","0"
"pit-trial","221","1463260","0.0-95.0","battery-v0.2","","""event"",""trial"",""time""
""fullscreenenter"",""1"",""3766""
","
","
","""event"",""trial"",""time""
""fullscreenenter"",""1"",""3766""
","
","","","646","","","24","7699","3934","e","elianto","#f73b6a7A","-1"," ","0","-10","[1498.2000000029802]","1","2","","","7699","91","7","4","lose","no-go","0"
"pit-trial","222","1466661","0.0-96.0","battery-v0.2","","""event"",""trial"",""time""
""fullscreenenter"",""1"",""3766""
","
","
","""event"",""trial"",""time""
""fullscreenenter"",""1"",""3766""
","
","","","536","","","24","7699","3934","p","elianto","#3366ff99"," "," ","1","0","[1389.3999999985099]","1","2","","","7699","92","4","1","win","go","1"
"pit-trial","223","1470142","0.0-97.0","battery-v0.2","","""event"",""trial"",""time""
""fullscreenenter"",""1"",""3766""
","
","
","""event"",""trial"",""time""
""fullscreenenter"",""1"",""3766""
","
","","","618.8999999985099","","","24","7699","3934","d","elianto","#3366ff99"," "," ","1","0","[1470.5]","1","2","","","7699","93","8","1","win","go","1"
"pit-trial","224","1473732","0.0-98.0","battery-v0.2","","""event"",""trial"",""time""
""fullscreenenter"",""1"",""3766""
","
","
","""event"",""trial"",""time""
""fullscreenenter"",""1"",""3766""
","
","","","723.9000000059605","","","24","7699","3934","s","elianto","#3366ff99","-1"," ","0","0","[1577.5]","1","2","","","7699","94","5","2","win","no-go","0"
"pit-trial","225","1477862","0.0-99.0","battery-v0.2","","""event"",""trial"",""time""
""fullscreenenter"",""1"",""3766""
","
","
","""event"",""trial"",""time""
""fullscreenenter"",""1"",""3766""
","
","","","1265.3000000044703","","","24","7699","3934","e","elianto","#f73b6a7A","-1"," ","0","-10","[2120.39999999851]","1","2","","","7699","95","7","4","lose","no-go","0"
"pit-trial","226","1481401","0.0-100.0","battery-v0.2","","""event"",""trial"",""time""
""fullscreenenter"",""1"",""3766""
","
","
","""event"",""trial"",""time""
""fullscreenenter"",""1"",""3766""
","
","","","669.5","","","24","7699","3934","w","elianto","#f73b6a7A"," "," ","1","0","[1525.8999999985099]","1","2","","","7699","96","6","3","lose","go","0"
"pit-trial","227","1485056","0.0-101.0","battery-v0.2","","""event"",""trial"",""time""
""fullscreenenter"",""1"",""3766""
","
","
","""event"",""trial"",""time""
""fullscreenenter"",""1"",""3766""
","
","","","791.6999999955297","","","24","7699","3934","s","elianto","#3366ff99","-1"," ","0","0","[1642.5]","1","2","","","7699","97","5","2","win","no-go","0"
"pit-trial","228","1488531","0.0-102.0","battery-v0.2","","""event"",""trial"",""time""
""fullscreenenter"",""1"",""3766""
","
","
","""event"",""trial"",""time""
""fullscreenenter"",""1"",""3766""
","
","","","613.1000000014901","","","24","7699","3934","d","elianto","#3366ff99"," "," ","1","+10","[1467.7000000029802]","1","2","","","7699","98","8","1","win","go","0"
"pit-trial","229","1492077","0.0-103.0","battery-v0.2","","""event"",""trial"",""time""
""fullscreenenter"",""1"",""3766""
","
","
","""event"",""trial"",""time""
""fullscreenenter"",""1"",""3766""
","
","","","679.5","","","24","7699","3934","w","elianto","#f73b6a7A"," "," ","1","0","[1532.3999999985099]","1","2","","","7699","99","6","3","lose","go","0"
"pit-trial","230","1496950","0.0-104.0","battery-v0.2","","""event"",""trial"",""time""
""fullscreenenter"",""1"",""3766""
","
","
","""event"",""trial"",""time""
""fullscreenenter"",""1"",""3766""
","
","","","-1","","","24","7699","3934","e","elianto","#f73b6a7A","-1","-1","1","0","[]","0","2","","","7699","100","7","4","lose","no-go","0"
"pit-trial","231","1500638","0.0-105.0","battery-v0.2","","""event"",""trial"",""time""
""fullscreenenter"",""1"",""3766""
","
","
","""event"",""trial"",""time""
""fullscreenenter"",""1"",""3766""
","
","","","828.2000000029802","","","24","7699","3934","d","elianto","#3366ff99"," "," ","1","+10","[1679.8000000044703]","1","2","","","7699","101","8","1","win","go","0"
"pit-trial","232","1504186","0.0-106.0","battery-v0.2","","""event"",""trial"",""time""
""fullscreenenter"",""1"",""3766""
","
","
","""event"",""trial"",""time""
""fullscreenenter"",""1"",""3766""
","
","","","684.5999999940395","","","24","7699","3934","s","elianto","#3366ff99","-1"," ","0","+10","[1534.7000000029802]","1","2","","","7699","102","5","2","win","no-go","1"
"pit-trial","233","1509058","0.0-107.0","battery-v0.2","","""event"",""trial"",""time""
""fullscreenenter"",""1"",""3766""
","
","
","""event"",""trial"",""time""
""fullscreenenter"",""1"",""3766""
","
","","","-1","","","24","7699","3934","e","elianto","#f73b6a7A","-1","-1","1","-10","[]","0","2","","","7699","103","7","4","lose","no-go","1"
"pit-trial","234","1512880","0.0-108.0","battery-v0.2","","""event"",""trial"",""time""
""fullscreenenter"",""1"",""3766""
","
","
","""event"",""trial"",""time""
""fullscreenenter"",""1"",""3766""
","
","","","960","","","24","7699","3934","j","elianto","#3366ff99"," "," ","1","0","[1810.3999999985099]","1","2","","","7699","104","9","1","win","go","1"
"pit-trial","235","1516444","0.0-109.0","battery-v0.2","","""event"",""trial"",""time""
""fullscreenenter"",""1"",""3766""
","
","
","""event"",""trial"",""time""
""fullscreenenter"",""1"",""3766""
","
","","","698.6000000014901","","","24","7699","3934","j","elianto","#3366ff99"," "," ","1","+10","[1556.8999999985099]","1","2","","","7699","105","9","1","win","go","0"
"pit-trial","236","1520429","0.0-110.0","battery-v0.2","","""event"",""trial"",""time""
""fullscreenenter"",""1"",""3766""
","
","
","""event"",""trial"",""time""
""fullscreenenter"",""1"",""3766""
","
","","","1114.1000000014901","","","24","7699","3934","w","elianto","#f73b6a7A"," "," ","1","0","[1972.2999999970198]","1","2","","","7699","106","6","3","lose","go","0"
"pit-trial","237","1524279","0.0-111.0","battery-v0.2","","""event"",""trial"",""time""
""fullscreenenter"",""1"",""3766""
","
","
","""event"",""trial"",""time""
""fullscreenenter"",""1"",""3766""
","
","","","987.4000000059605","","","24","7699","3934","d","elianto","#3366ff99"," "," ","1","+10","[1841.1000000014901]","1","2","","","7699","107","8","1","win","go","0"
"pit-trial","238","1527966","0.0-112.0","battery-v0.2","","""event"",""trial"",""time""
""fullscreenenter"",""1"",""3766""
","
","
","""event"",""trial"",""time""
""fullscreenenter"",""1"",""3766""
","
","","","823.8999999985099","","","24","7699","3934","p","elianto","#3366ff99"," "," ","1","+10","[1674.4000000059605]","1","2","","","7699","108","4","1","win","go","0"
"pit-trial","239","1531876","0.0-113.0","battery-v0.2","","""event"",""trial"",""time""
""fullscreenenter"",""1"",""3766""
","
","
","""event"",""trial"",""time""
""fullscreenenter"",""1"",""3766""
","
","","","1041.1000000014901","","","24","7699","3934","d","elianto","#3366ff99"," "," ","1","+10","[1898.1999999955297]","1","2","","","7699","109","8","1","win","go","0"
"pit-trial","240","1535766","0.0-114.0","battery-v0.2","","""event"",""trial"",""time""
""fullscreenenter"",""1"",""3766""
","
","
","""event"",""trial"",""time""
""fullscreenenter"",""1"",""3766""
","
","","","1029.7999999970198","","","24","7699","3934","j","elianto","#3366ff99"," "," ","1","+10","[1881.3999999985099]","1","2","","","7699","110","9","1","win","go","0"
"pit-trial","241","1539514","0.0-115.0","battery-v0.2","","""event"",""trial"",""time""
""fullscreenenter"",""1"",""3766""
","
","
","""event"",""trial"",""time""
""fullscreenenter"",""1"",""3766""
","
","","","880.1000000014901","","","24","7699","3934","s","elianto","#3366ff99","-1"," ","0","0","[1734.1000000014901]","1","2","","","7699","111","5","2","win","no-go","0"
"pit-trial","242","1543938","0.0-116.0","battery-v0.2","","""event"",""trial"",""time""
""fullscreenenter"",""1"",""3766""
","
","
","""event"",""trial"",""time""
""fullscreenenter"",""1"",""3766""
","
","","","1557.2999999970198","","","24","7699","3934","w","elianto","#f73b6a7A"," "," ","1","0","[2409.9000000059605]","1","2","","","7699","112","6","3","lose","go","0"
"pit-trial","243","1548018","0.0-117.0","battery-v0.2","","""event"",""trial"",""time""
""fullscreenenter"",""1"",""3766""
","
","
","""event"",""trial"",""time""
""fullscreenenter"",""1"",""3766""
","
","","","1214.5","","","24","7699","3934","w","elianto","#f73b6a7A"," "," ","1","-10","[2072.89999999851]","1","2","","","7699","113","6","3","lose","go","1"
"pit-trial","244","1551609","0.0-118.0","battery-v0.2","","""event"",""trial"",""time""
""fullscreenenter"",""1"",""3766""
","
","
","""event"",""trial"",""time""
""fullscreenenter"",""1"",""3766""
","
","","","721.9000000059605","","","24","7699","3934","s","elianto","#3366ff99","-1"," ","0","0","[1580.1000000014901]","1","2","","","7699","114","5","2","win","no-go","0"
"pit-trial","245","1555563","0.0-119.0","battery-v0.2","","""event"",""trial"",""time""
""fullscreenenter"",""1"",""3766""
","
","
","""event"",""trial"",""time""
""fullscreenenter"",""1"",""3766""
","
","","","1087.6999999955297","","","24","7699","3934","j","elianto","#3366ff99"," "," ","1","0","[1939.5]","1","2","","","7699","115","9","1","win","go","1"
"pit-trial","246","1559426","0.0-120.0","battery-v0.2","","""event"",""trial"",""time""
""fullscreenenter"",""1"",""3766""
","
","
","""event"",""trial"",""time""
""fullscreenenter"",""1"",""3766""
","
","","","993.4000000059605","","","24","7699","3934","d","elianto","#3366ff99"," "," ","1","+10","[1850.8000000044703]","1","2","","","7699","116","8","1","win","go","0"
"pit-trial","247","1562808","0.0-121.0","battery-v0.2","","""event"",""trial"",""time""
""fullscreenenter"",""1"",""3766""
","
","
","""event"",""trial"",""time""
""fullscreenenter"",""1"",""3766""
","
","","","514.2999999970198","","","24","7699","3934","w","elianto","#f73b6a7A"," "," ","1","0","[1369.6000000014901]","1","2","","","7699","117","6","3","lose","go","0"
"pit-trial","248","1566417","0.0-122.0","battery-v0.2","","""event"",""trial"",""time""
""fullscreenenter"",""1"",""3766""
","
","
","""event"",""trial"",""time""
""fullscreenenter"",""1"",""3766""
","
","","","742.8999999985099","","","24","7699","3934","d","elianto","#3366ff99"," "," ","1","+10","[1597.1000000014901]","1","2","","","7699","118","8","1","win","go","0"
"pit-trial","249","1569927","0.0-123.0","battery-v0.2","","""event"",""trial"",""time""
""fullscreenenter"",""1"",""3766""
","
","
","""event"",""trial"",""time""
""fullscreenenter"",""1"",""3766""
","
","","","650.7000000029802","","","24","7699","3934","j","elianto","#3366ff99"," "," ","1","0","[1501.2000000029802]","1","2","","","7699","119","9","1","win","go","1"
"pit-trial","250","1573414","0.0-124.0","battery-v0.2","","""event"",""trial"",""time""
""fullscreenenter"",""1"",""3766""
","
","
","""event"",""trial"",""time""
""fullscreenenter"",""1"",""3766""
","
","","","619.1999999955297","","","24","7699","3934","s","elianto","#3366ff99","-1"," ","0","0","[1472.8999999985099]","1","2","","","7699","120","5","2","win","no-go","0"
"pit-trial","251","1577577","0.0-125.0","battery-v0.2","","""event"",""trial"",""time""
""fullscreenenter"",""1"",""3766""
","
","
","""event"",""trial"",""time""
""fullscreenenter"",""1"",""3766""
","
","","","1295.3999999985099","","","24","7699","3934","e","elianto","#f73b6a7A","-1"," ","0","-10","[2151.39999999851]","1","2","","","7699","121","7","4","lose","no-go","0"
"pit-trial","252","1581653","0.0-126.0","battery-v0.2","","""event"",""trial"",""time""
""fullscreenenter"",""1"",""3766""
","
","
","""event"",""trial"",""time""
""fullscreenenter"",""1"",""3766""
","
","","","1206.6000000014901","","","24","7699","3934","w","elianto","#f73b6a7A"," "," ","1","0","[2063.10000000149]","1","2","","","7699","122","6","3","lose","go","0"
"pit-trial","253","1586516","0.0-127.0","battery-v0.2","","""event"",""trial"",""time""
""fullscreenenter"",""1"",""3766""
","
","
","""event"",""trial"",""time""
""fullscreenenter"",""1"",""3766""
","
","","","-1","","","24","7699","3934","d","elianto","#3366ff99"," ","-1","0","0","[2886.5]","1","2","","","7699","123","8","1","win","go","0"
"pit-trial","254","1591387","0.0-128.0","battery-v0.2","","""event"",""trial"",""time""
""fullscreenenter"",""1"",""3766""
","
","
","""event"",""trial"",""time""
""fullscreenenter"",""1"",""3766""
","
","","","-1","","","24","7699","3934","j","elianto","#3366ff99"," ","-1","0","0","[]","0","2","","","7699","124","9","1","win","go","0"
"pit-trial","255","1595064","0.0-129.0","battery-v0.2","","""event"",""trial"",""time""
""fullscreenenter"",""1"",""3766""
","
","
","""event"",""trial"",""time""
""fullscreenenter"",""1"",""3766""
","
","","","818","","","24","7699","3934","w","elianto","#f73b6a7A"," "," ","1","-10","[1670.2999999970198]","1","2","","","7699","125","6","3","lose","go","1"
"pit-trial","256","1599938","0.0-130.0","battery-v0.2","","""event"",""trial"",""time""
""fullscreenenter"",""1"",""3766""
","
","
","""event"",""trial"",""time""
""fullscreenenter"",""1"",""3766""
","
","","","-1","","","24","7699","3934","e","elianto","#f73b6a7A","-1","-1","1","0","[]","0","2","","","7699","126","7","4","lose","no-go","0"
"pit-trial","257","1603985","0.0-131.0","battery-v0.2","","""event"",""trial"",""time""
""fullscreenenter"",""1"",""3766""
","
","
","""event"",""trial"",""time""
""fullscreenenter"",""1"",""3766""
","
","","","1184.5","","","24","7699","3934","j","elianto","#3366ff99"," "," ","1","+10","[2035.8999999985099]","1","2","","","7699","127","9","1","win","go","0"
"pit-trial","258","1607616","0.0-132.0","battery-v0.2","","""event"",""trial"",""time""
""fullscreenenter"",""1"",""3766""
","
","
","""event"",""trial"",""time""
""fullscreenenter"",""1"",""3766""
","
","","","762.8999999985099","","","24","7699","3934","d","elianto","#3366ff99"," "," ","1","+10","[1614.1000000014901]","1","2","","","7699","128","8","1","win","go","0"
"pit-trial","259","1612120","0.0-133.0","battery-v0.2","","""event"",""trial"",""time""
""fullscreenenter"",""1"",""3766""
","
","
","""event"",""trial"",""time""
""fullscreenenter"",""1"",""3766""
","
","","","1646.3000000044703","","","24","7699","3934","w","elianto","#f73b6a7A"," "," ","1","0","[2496.89999999851]","1","2","","","7699","129","6","3","lose","go","0"
"pit-trial","260","1616987","0.0-134.0","battery-v0.2","","""event"",""trial"",""time""
""fullscreenenter"",""1"",""3766""
","
","
","""event"",""trial"",""time""
""fullscreenenter"",""1"",""3766""
","
","","","-1","","","24","7699","3934","e","elianto","#f73b6a7A","-1","-1","1","0","[]","0","2","","","7699","130","7","4","lose","no-go","0"
"pit-trial","261","1621111","0.0-135.0","battery-v0.2","","""event"",""trial"",""time""
""fullscreenenter"",""1"",""3766""
","
","
","""event"",""trial"",""time""
""fullscreenenter"",""1"",""3766""
","
","","","1266.6000000014901","","","24","7699","3934","j","elianto","#3366ff99"," "," ","1","+10","[2117.60000000149]","1","2","","","7699","131","9","1","win","go","0"
"pit-trial","262","1625988","0.0-136.0","battery-v0.2","","""event"",""trial"",""time""
""fullscreenenter"",""1"",""3766""
","
","
","""event"",""trial"",""time""
""fullscreenenter"",""1"",""3766""
","
","","","-1","","","24","7699","3934","d","elianto","#3366ff99"," ","-1","0","+10","[2954.89999999851]","1","2","","","7699","132","8","1","win","go","1"
"pit-trial","263","1629473","0.0-137.0","battery-v0.2","","""event"",""trial"",""time""
""fullscreenenter"",""1"",""3766""
","
","
","""event"",""trial"",""time""
""fullscreenenter"",""1"",""3766""
","
","","","613.2999999970198","","","24","7699","3934","j","elianto","#3366ff99"," "," ","1","+10","[1465.9000000059605]","1","2","","","7699","133","9","1","win","go","0"
"pit-trial","264","1634120","0.0-138.0","battery-v0.2","","""event"",""trial"",""time""
""fullscreenenter"",""1"",""3766""
","
","
","""event"",""trial"",""time""
""fullscreenenter"",""1"",""3766""
","
","","","1782.7999999970198","","","24","7699","3934","w","elianto","#f73b6a7A"," "," ","1","0","[2636.7000000029802]","1","2","","","7699","134","6","3","lose","go","0"
