"trial_type","trial_index","time_elapsed","internal_node_id","task_version","subject_id","interactions","blur_events","focus_events","fullscreenenter_events","fullscreenexit_events","success","view_history","rt","responses","num_errors","age","subject","participantId","rune","rune_set","hex","correct","choice","accuracy","outcome","keys","total_keys","block","practice","value","sub","trial","stimulus","robot","valence","action","sham"
"pavlovia","0","8","0.0-0.0","battery-v0.2","","""event"",""trial"",""time""
""fullscreenenter"",""1"",""2646""
","
","
","""event"",""trial"",""time""
""fullscreenenter"",""1"",""2646""
","
","","","","","","","","","","","","","","","","","","","","","","","","","","",""
"fullscreen","1","3638","0.0-1.0","battery-v0.2","","""event"",""trial"",""time""
""fullscreenenter"",""1"",""2646""
","
","
","""event"",""trial"",""time""
""fullscreenenter"",""1"",""2646""
","
","true","","","","","","","","","","","","","","","","","","","","","","","","","",""
"pit-instructions","2","9307","0.0-2.0-0.0","battery-v0.2","","""event"",""trial"",""time""
""fullscreenenter"",""1"",""2646""
","
","
","""event"",""trial"",""time""
""fullscreenenter"",""1"",""2646""
","
","","[{""page_index"":0,""viewing_time"":5661.599999904633}]","5662.5","","","","","","","","","","","","","","","","","","","","","","","",""
"pit-comprehension","3","13015","0.0-2.0-1.0-0.0","battery-v0.2","","""event"",""trial"",""time""
""fullscreenenter"",""1"",""2646""
","
","
","""event"",""trial"",""time""
""fullscreenenter"",""1"",""2646""
","
","","","3701.0999999046326","[""shark""]","0","11","3540","384","","","","","","","","","","","","","","","","","","",""
"pit-instructions","4","15113","0.0-2.0-1.0-1.0","battery-v0.2","","""event"",""trial"",""time""
""fullscreenenter"",""1"",""2646""
","
","
","""event"",""trial"",""time""
""fullscreenenter"",""1"",""2646""
","
","","[{""page_index"":0,""viewing_time"":2086.5999999046326}]","2087.0999999046326","","","","","","","","","","","","","","","","","","","","","","","",""
"pit-comprehension","5","18491","0.0-2.0-2.0-0.0","battery-v0.2","","""event"",""trial"",""time""
""fullscreenenter"",""1"",""2646""
","
","
","""event"",""trial"",""time""
""fullscreenenter"",""1"",""2646""
","
","","","3371.800000190735","[""tiger""]","0","11","3540","384","","","","","","","","","","","","","","","","","","",""
"pit-instructions","6","20228","0.0-2.0-2.0-1.0","battery-v0.2","","""event"",""trial"",""time""
""fullscreenenter"",""1"",""2646""
","
","
","""event"",""trial"",""time""
""fullscreenenter"",""1"",""2646""
","
","","[{""page_index"":0,""viewing_time"":1732.0999999046326}]","1732.5","","","","","","","","","","","","","","","","","","","","","","","",""
"pit-instructions","7","125612","0.0-2.0-3.0","battery-v0.2","","""event"",""trial"",""time""
""fullscreenenter"",""1"",""2646""
","
","
","""event"",""trial"",""time""
""fullscreenenter"",""1"",""2646""
","
","","[{""page_index"":0,""viewing_time"":8642.400000095367},{""page_index"":1,""viewing_time"":6177.900000095367},{""page_index"":2,""viewing_time"":6772.39999961853},{""page_index"":3,""viewing_time"":7377.800000190735},{""page_index"":4,""viewing_time"":9308.800000190735},{""page_index"":5,""viewing_time"":6801.599999904633},{""page_index"":6,""viewing_time"":7451.199999809265},{""page_index"":7,""viewing_time"":6940.200000286102},{""page_index"":8,""viewing_time"":6166.199999809265},{""page_index"":9,""viewing_time"":12490.900000095367},{""page_index"":10,""viewing_time"":7111.299999713898},{""page_index"":11,""viewing_time"":8069.700000286102},{""page_index"":12,""viewing_time"":7225},{""page_index"":13,""viewing_time"":4845.599999904633}]","105381.80000019073","","","","","","","","","","","","","","","","","","","","","","","",""
"pit-trial","8","129019","0.0-2.0-4.0-0.0","battery-v0.2","","""event"",""trial"",""time""
""fullscreenenter"",""1"",""2646""
","
","
","""event"",""trial"",""time""
""fullscreenenter"",""1"",""2646""
","
","","","531.7999997138977","","","11","3540","384","&#9784;","elianto","#FFFFF080"," "," ","1","&#10004","[1385.1999998092651]","1","0","0","","","","","","","",""
"pit-trial","9","132430","0.0-2.0-4.1-0.1","battery-v0.2","","""event"",""trial"",""time""
""fullscreenenter"",""1"",""2646""
","
","
","""event"",""trial"",""time""
""fullscreenenter"",""1"",""2646""
","
","","","537.9000000953674","","","11","3540","384","&#9784;","elianto","#FFFFF080"," "," ","1","&#10004","[1393.9000000953674]","1","0","0","","","","","","","",""
"pit-trial","10","135990","0.0-2.0-4.2-0.2","battery-v0.2","","""event"",""trial"",""time""
""fullscreenenter"",""1"",""2646""
","
","
","""event"",""trial"",""time""
""fullscreenenter"",""1"",""2646""
","
","","","675.0999999046326","","","11","3540","384","&#9784;","elianto","#FFFFF080"," "," ","1","&#10004","[1537.7000002861023]","1","0","0","","","","","","","",""
"pit-trial","11","139462","0.0-2.0-4.3-0.3","battery-v0.2","","""event"",""trial"",""time""
""fullscreenenter"",""1"",""2646""
","
","
","""event"",""trial"",""time""
""fullscreenenter"",""1"",""2646""
","
","","","590.5","","","11","3540","384","&#9784;","elianto","#FFFFF080"," "," ","1","&#10004","[1449.0999999046326]","1","0","0","","","","","","","",""
"pit-trial","12","142952","0.0-2.0-4.4-0.4","battery-v0.2","","""event"",""trial"",""time""
""fullscreenenter"",""1"",""2646""
","
","
","""event"",""trial"",""time""
""fullscreenenter"",""1"",""2646""
","
","","","618.1999998092651","","","11","3540","384","&#9784;","elianto","#FFFFF080"," "," ","1","&#10004","[1471]","1","0","0","","","","","","","",""
"pit-instructions","13","169410","0.0-2.0-5.0","battery-v0.2","","""event"",""trial"",""time""
""fullscreenenter"",""1"",""2646""
","
","
","""event"",""trial"",""time""
""fullscreenenter"",""1"",""2646""
","
","","[{""page_index"":0,""viewing_time"":6053.5},{""page_index"":1,""viewing_time"":9929.599999904633},{""page_index"":2,""viewing_time"":4849.900000095367},{""page_index"":3,""viewing_time"":5619.099999904633}]","26452.800000190735","","","","","","","","","","","","","","","","","","","","","","","",""
"pit-trial","14","174283","0.0-2.0-6.0-0.0","battery-v0.2","","""event"",""trial"",""time""
""fullscreenenter"",""1"",""2646""
","
","
","""event"",""trial"",""time""
""fullscreenenter"",""1"",""2646""
","
","","","-1","","","11","3540","384","&#9854;","elianto","#FFFFF080","-1","-1","1","&#10004","[]","0","0","1","","","","","","","",""
"pit-trial","15","179169","0.0-2.0-6.1-0.1","battery-v0.2","","""event"",""trial"",""time""
""fullscreenenter"",""1"",""2646""
","
","
","""event"",""trial"",""time""
""fullscreenenter"",""1"",""2646""
","
","","","-1","","","11","3540","384","&#9854;","elianto","#FFFFF080","-1","-1","1","&#10004","[]","0","0","1","","","","","","","",""
"pit-trial","16","184052","0.0-2.0-6.2-0.2","battery-v0.2","","""event"",""trial"",""time""
""fullscreenenter"",""1"",""2646""
","
","
","""event"",""trial"",""time""
""fullscreenenter"",""1"",""2646""
","
","","","-1","","","11","3540","384","&#9854;","elianto","#FFFFF080","-1","-1","1","&#10004","[]","0","0","1","","","","","","","",""
"pit-trial","17","188939","0.0-2.0-6.3-0.3","battery-v0.2","","""event"",""trial"",""time""
""fullscreenenter"",""1"",""2646""
","
","
","""event"",""trial"",""time""
""fullscreenenter"",""1"",""2646""
","
","","","-1","","","11","3540","384","&#9854;","elianto","#FFFFF080","-1","-1","1","&#10004","[]","0","0","1","","","","","","","",""
"pit-trial","18","193821","0.0-2.0-6.4-0.4","battery-v0.2","","""event"",""trial"",""time""
""fullscreenenter"",""1"",""2646""
","
","
","""event"",""trial"",""time""
""fullscreenenter"",""1"",""2646""
","
","","","-1","","","11","3540","384","&#9854;","elianto","#FFFFF080","-1","-1","1","&#10004","[]","0","0","1","","","","","","","",""
"pit-instructions","19","323811","0.0-2.0-7.0","battery-v0.2","","""event"",""trial"",""time""
""fullscreenenter"",""1"",""2646""
","
","
","""event"",""trial"",""time""
""fullscreenenter"",""1"",""2646""
","
","","[{""page_index"":0,""viewing_time"":9363.400000095367},{""page_index"":1,""viewing_time"":8688.400000095367},{""page_index"":2,""viewing_time"":8872.299999713898},{""page_index"":3,""viewing_time"":8057.800000190735},{""page_index"":4,""viewing_time"":7108.800000190735},{""page_index"":5,""viewing_time"":5794.89999961853},{""page_index"":6,""viewing_time"":4452.60000038147},{""page_index"":7,""viewing_time"":8044.099999904633},{""page_index"":8,""viewing_time"":7599.400000095367},{""page_index"":9,""viewing_time"":6582.89999961853},{""page_index"":10,""viewing_time"":6561.10000038147},{""page_index"":11,""viewing_time"":4629.199999809265},{""page_index"":12,""viewing_time"":6649.900000095367},{""page_index"":13,""viewing_time"":6779.5},{""page_index"":14,""viewing_time"":8352.199999809265},{""page_index"":15,""viewing_time"":6517.700000286102},{""page_index"":16,""viewing_time"":8479.5},{""page_index"":17,""viewing_time"":7450.39999961853}]","129985.2000002861","","","","","","","","","","","","","","","","","","","","","","","",""
"pit-trial","20","327219","0.0-2.0-8.0-0.0","battery-v0.2","","""event"",""trial"",""time""
""fullscreenenter"",""1"",""2646""
","
","
","""event"",""trial"",""time""
""fullscreenenter"",""1"",""2646""
","
","","","538.4000000953674","","","11","3540","384","&#9776;","elianto","#3366ff99"," "," ","1","+10","[1392.5]","1","0","1","","","","","","","",""
"pit-trial","21","330608","0.0-2.0-8.0-1.0","battery-v0.2","","""event"",""trial"",""time""
""fullscreenenter"",""1"",""2646""
","
","
","""event"",""trial"",""time""
""fullscreenenter"",""1"",""2646""
","
","","","513.7999997138977","","","11","3540","384","&#9776;","elianto","#3366ff99"," "," ","1","+10","[1367.4000000953674]","1","0","1","","","","","","","",""
"pit-trial","22","334101","0.0-2.0-8.0-2.0","battery-v0.2","","""event"",""trial"",""time""
""fullscreenenter"",""1"",""2646""
","
","
","""event"",""trial"",""time""
""fullscreenenter"",""1"",""2646""
","
","","","631.1999998092651","","","11","3540","384","&#9776;","elianto","#3366ff99"," "," ","1","+10","[1481.5999999046326]","1","0","1","","","","","","","",""
"pit-trial","23","337239","0.0-2.0-8.0-3.0","battery-v0.2","","""event"",""trial"",""time""
""fullscreenenter"",""1"",""2646""
","
","
","""event"",""trial"",""time""
""fullscreenenter"",""1"",""2646""
","
","","","268.5","","","11","3540","384","&#9776;","elianto","#3366ff99"," "," ","1","0","[1123.6999998092651]","1","0","1","","","","","","","",""
"pit-trial","24","340669","0.0-2.0-8.0-4.0","battery-v0.2","","""event"",""trial"",""time""
""fullscreenenter"",""1"",""2646""
","
","
","""event"",""trial"",""time""
""fullscreenenter"",""1"",""2646""
","
","","","560.5999999046326","","","11","3540","384","&#9776;","elianto","#3366ff99"," "," ","1","+10","[1412.3000001907349]","1","0","1","","","","","","","",""
"pit-trial","25","344041","0.0-2.0-8.1-0.1","battery-v0.2","","""event"",""trial"",""time""
""fullscreenenter"",""1"",""2646""
","
","
","""event"",""trial"",""time""
""fullscreenenter"",""1"",""2646""
","
","","","496.90000009536743","","","11","3540","384","&#9776;","elianto","#3366ff99"," "," ","1","+10","[1349]","1","0","1","","","","","","","",""
"pit-trial","26","347055","0.0-2.0-8.1-1.1","battery-v0.2","","""event"",""trial"",""time""
""fullscreenenter"",""1"",""2646""
","
","
","""event"",""trial"",""time""
""fullscreenenter"",""1"",""2646""
","
","","","143.90000009536743","","","11","3540","384","&#9776;","elianto","#3366ff99"," "," ","1","+10","[994.2000002861023]","1","0","1","","","","","","","",""
"pit-trial","27","350056","0.0-2.0-8.1-2.1","battery-v0.2","","""event"",""trial"",""time""
""fullscreenenter"",""1"",""2646""
","
","
","""event"",""trial"",""time""
""fullscreenenter"",""1"",""2646""
","
","","","141.2999997138977","","","11","3540","384","&#9776;","elianto","#3366ff99"," "," ","1","+10","[991.5999999046326]","1","0","1","","","","","","","",""
"pit-trial","28","353126","0.0-2.0-8.1-3.1","battery-v0.2","","""event"",""trial"",""time""
""fullscreenenter"",""1"",""2646""
","
","
","""event"",""trial"",""time""
""fullscreenenter"",""1"",""2646""
","
","","","203.69999980926514","","","11","3540","384","&#9776;","elianto","#3366ff99"," "," ","1","0","[1054]","1","0","1","","","","","","","",""
"pit-trial","29","356467","0.0-2.0-8.1-4.1","battery-v0.2","","""event"",""trial"",""time""
""fullscreenenter"",""1"",""2646""
","
","
","""event"",""trial"",""time""
""fullscreenenter"",""1"",""2646""
","
","","","475.59999990463257","","","11","3540","384","&#9776;","elianto","#3366ff99"," "," ","1","+10","[1326.1999998092651]","1","0","1","","","","","","","",""
"pit-trial","30","359505","0.0-2.0-8.2-0.2","battery-v0.2","","""event"",""trial"",""time""
""fullscreenenter"",""1"",""2646""
","
","
","""event"",""trial"",""time""
""fullscreenenter"",""1"",""2646""
","
","","","181.2000002861023","","","11","3540","384","&#9776;","elianto","#3366ff99"," "," ","1","+10","[1033.2999997138977]","1","0","1","","","","","","","",""
"pit-trial","31","362546","0.0-2.0-8.2-1.2","battery-v0.2","","""event"",""trial"",""time""
""fullscreenenter"",""1"",""2646""
","
","
","""event"",""trial"",""time""
""fullscreenenter"",""1"",""2646""
","
","","","170","","","11","3540","384","&#9776;","elianto","#3366ff99"," "," ","1","+10","[1023.7000002861023]","1","0","1","","","","","","","",""
"pit-trial","32","366246","0.0-2.0-8.2-2.2","battery-v0.2","","""event"",""trial"",""time""
""fullscreenenter"",""1"",""2646""
","
","
","""event"",""trial"",""time""
""fullscreenenter"",""1"",""2646""
","
","","","830.2999997138977","","","11","3540","384","&#9776;","elianto","#3366ff99"," "," ","1","+10","[1689.0999999046326]","1","0","1","","","","","","","",""
"pit-trial","33","369998","0.0-2.0-8.2-3.2","battery-v0.2","","""event"",""trial"",""time""
""fullscreenenter"",""1"",""2646""
","
","
","""event"",""trial"",""time""
""fullscreenenter"",""1"",""2646""
","
","","","871","","","11","3540","384","&#9776;","elianto","#3366ff99"," "," ","1","0","[1733.8000001907349]","1","0","1","","","","","","","",""
"pit-trial","34","373931","0.0-2.0-8.2-4.2","battery-v0.2","","""event"",""trial"",""time""
""fullscreenenter"",""1"",""2646""
","
","
","""event"",""trial"",""time""
""fullscreenenter"",""1"",""2646""
","
","","","1059.2000002861023","","","11","3540","384","&#9776;","elianto","#3366ff99"," "," ","1","+10","[1915.9000000953674]","1","0","1","","","","","","","",""
"call-function","35","373934","0.0-2.0-9.0","battery-v0.2","","""event"",""trial"",""time""
""fullscreenenter"",""1"",""2646""
","
","
","""event"",""trial"",""time""
""fullscreenenter"",""1"",""2646""
","
","","","","","","","","","","","","","","","","","","","","","","","","","","",""
"pit-instructions","36","416315","0.0-2.0-10.0","battery-v0.2","","""event"",""trial"",""time""
""fullscreenenter"",""1"",""2646""
","
","
","""event"",""trial"",""time""
""fullscreenenter"",""1"",""2646""
","
","","[{""page_index"":0,""viewing_time"":7183.599999904633},{""page_index"":1,""viewing_time"":8372.800000190735},{""page_index"":2,""viewing_time"":9227.599999904633},{""page_index"":3,""viewing_time"":10550.099999904633},{""page_index"":4,""viewing_time"":7045}]","42380","","","","","","","","","","","","","","","","","","","","","","","",""
"pit-trial","37","419729","0.0-2.0-11.0-0.0","battery-v0.2","","""event"",""trial"",""time""
""fullscreenenter"",""1"",""2646""
","
","
","""event"",""trial"",""time""
""fullscreenenter"",""1"",""2646""
","
","","","546","","","11","3540","384","&#9761;","elianto","#3366ff99","-1"," ","0","0","[1400.5]","1","0","2","","","","","","","",""
"pit-trial","38","424617","0.0-2.0-11.0-1.0","battery-v0.2","","""event"",""trial"",""time""
""fullscreenenter"",""1"",""2646""
","
","
","""event"",""trial"",""time""
""fullscreenenter"",""1"",""2646""
","
","","","-1","","","11","3540","384","&#9761;","elianto","#3366ff99","-1","-1","1","+10","[]","0","0","2","","","","","","","",""
"pit-trial","39","429489","0.0-2.0-11.0-2.0","battery-v0.2","","""event"",""trial"",""time""
""fullscreenenter"",""1"",""2646""
","
","
","""event"",""trial"",""time""
""fullscreenenter"",""1"",""2646""
","
","","","-1","","","11","3540","384","&#9761;","elianto","#3366ff99","-1","-1","1","+10","[]","0","0","2","","","","","","","",""
"pit-trial","40","434367","0.0-2.0-11.0-3.0","battery-v0.2","","""event"",""trial"",""time""
""fullscreenenter"",""1"",""2646""
","
","
","""event"",""trial"",""time""
""fullscreenenter"",""1"",""2646""
","
","","","-1","","","11","3540","384","&#9761;","elianto","#3366ff99","-1","-1","1","0","[]","0","0","2","","","","","","","",""
"pit-trial","41","439244","0.0-2.0-11.0-4.0","battery-v0.2","","""event"",""trial"",""time""
""fullscreenenter"",""1"",""2646""
","
","
","""event"",""trial"",""time""
""fullscreenenter"",""1"",""2646""
","
","","","-1","","","11","3540","384","&#9761;","elianto","#3366ff99","-1","-1","1","+10","[]","0","0","2","","","","","","","",""
"pit-trial","42","444139","0.0-2.0-11.1-0.1","battery-v0.2","","""event"",""trial"",""time""
""fullscreenenter"",""1"",""2646""
","
","
","""event"",""trial"",""time""
""fullscreenenter"",""1"",""2646""
","
","","","-1","","","11","3540","384","&#9761;","elianto","#3366ff99","-1","-1","1","+10","[]","0","0","2","","","","","","","",""
"pit-trial","43","449020","0.0-2.0-11.1-1.1","battery-v0.2","","""event"",""trial"",""time""
""fullscreenenter"",""1"",""2646""
","
","
","""event"",""trial"",""time""
""fullscreenenter"",""1"",""2646""
","
","","","-1","","","11","3540","384","&#9761;","elianto","#3366ff99","-1","-1","1","+10","[]","0","0","2","","","","","","","",""
"pit-trial","44","453884","0.0-2.0-11.1-2.1","battery-v0.2","","""event"",""trial"",""time""
""fullscreenenter"",""1"",""2646""
","
","
","""event"",""trial"",""time""
""fullscreenenter"",""1"",""2646""
","
","","","-1","","","11","3540","384","&#9761;","elianto","#3366ff99","-1","-1","1","+10","[]","0","0","2","","","","","","","",""
"pit-trial","45","458748","0.0-2.0-11.1-3.1","battery-v0.2","","""event"",""trial"",""time""
""fullscreenenter"",""1"",""2646""
","
","
","""event"",""trial"",""time""
""fullscreenenter"",""1"",""2646""
","
","","","-1","","","11","3540","384","&#9761;","elianto","#3366ff99","-1","-1","1","0","[]","0","0","2","","","","","","","",""
"pit-trial","46","463615","0.0-2.0-11.1-4.1","battery-v0.2","","""event"",""trial"",""time""
""fullscreenenter"",""1"",""2646""
","
","
","""event"",""trial"",""time""
""fullscreenenter"",""1"",""2646""
","
","","","-1","","","11","3540","384","&#9761;","elianto","#3366ff99","-1","-1","1","+10","[]","0","0","2","","","","","","","",""
"pit-trial","47","468487","0.0-2.0-11.2-0.2","battery-v0.2","","""event"",""trial"",""time""
""fullscreenenter"",""1"",""2646""
","
","
","""event"",""trial"",""time""
""fullscreenenter"",""1"",""2646""
","
","","","-1","","","11","3540","384","&#9761;","elianto","#3366ff99","-1","-1","1","+10","[]","0","0","2","","","","","","","",""
"pit-trial","48","473356","0.0-2.0-11.2-1.2","battery-v0.2","","""event"",""trial"",""time""
""fullscreenenter"",""1"",""2646""
","
","
","""event"",""trial"",""time""
""fullscreenenter"",""1"",""2646""
","
","","","-1","","","11","3540","384","&#9761;","elianto","#3366ff99","-1","-1","1","+10","[]","0","0","2","","","","","","","",""
"pit-trial","49","478226","0.0-2.0-11.2-2.2","battery-v0.2","","""event"",""trial"",""time""
""fullscreenenter"",""1"",""2646""
","
","
","""event"",""trial"",""time""
""fullscreenenter"",""1"",""2646""
","
","","","-1","","","11","3540","384","&#9761;","elianto","#3366ff99","-1","-1","1","+10","[]","0","0","2","","","","","","","",""
"pit-trial","50","483103","0.0-2.0-11.2-3.2","battery-v0.2","","""event"",""trial"",""time""
""fullscreenenter"",""1"",""2646""
","
","
","""event"",""trial"",""time""
""fullscreenenter"",""1"",""2646""
","
","","","-1","","","11","3540","384","&#9761;","elianto","#3366ff99","-1","-1","1","0","[]","0","0","2","","","","","","","",""
"pit-trial","51","487977","0.0-2.0-11.2-4.2","battery-v0.2","","""event"",""trial"",""time""
""fullscreenenter"",""1"",""2646""
","
","
","""event"",""trial"",""time""
""fullscreenenter"",""1"",""2646""
","
","","","-1","","","11","3540","384","&#9761;","elianto","#3366ff99","-1","-1","1","+10","[]","0","0","2","","","","","","","",""
"pit-trial","52","492852","0.0-2.0-11.3-0.3","battery-v0.2","","""event"",""trial"",""time""
""fullscreenenter"",""1"",""2646""
","
","
","""event"",""trial"",""time""
""fullscreenenter"",""1"",""2646""
","
","","","-1","","","11","3540","384","&#9761;","elianto","#3366ff99","-1","-1","1","+10","[]","0","0","2","","","","","","","",""
"pit-trial","53","497723","0.0-2.0-11.3-1.3","battery-v0.2","","""event"",""trial"",""time""
""fullscreenenter"",""1"",""2646""
","
","
","""event"",""trial"",""time""
""fullscreenenter"",""1"",""2646""
","
","","","-1","","","11","3540","384","&#9761;","elianto","#3366ff99","-1","-1","1","+10","[]","0","0","2","","","","","","","",""
"pit-trial","54","502599","0.0-2.0-11.3-2.3","battery-v0.2","","""event"",""trial"",""time""
""fullscreenenter"",""1"",""2646""
","
","
","""event"",""trial"",""time""
""fullscreenenter"",""1"",""2646""
","
","","","-1","","","11","3540","384","&#9761;","elianto","#3366ff99","-1","-1","1","+10","[]","0","0","2","","","","","","","",""
"pit-trial","55","507467","0.0-2.0-11.3-3.3","battery-v0.2","","""event"",""trial"",""time""
""fullscreenenter"",""1"",""2646""
","
","
","""event"",""trial"",""time""
""fullscreenenter"",""1"",""2646""
","
","","","-1","","","11","3540","384","&#9761;","elianto","#3366ff99","-1","-1","1","0","[]","0","0","2","","","","","","","",""
"pit-trial","56","512333","0.0-2.0-11.3-4.3","battery-v0.2","","""event"",""trial"",""time""
""fullscreenenter"",""1"",""2646""
","
","
","""event"",""trial"",""time""
""fullscreenenter"",""1"",""2646""
","
","","","-1","","","11","3540","384","&#9761;","elianto","#3366ff99","-1","-1","1","+10","[]","0","0","2","","","","","","","",""
"call-function","57","512336","0.0-2.0-12.0","battery-v0.2","","""event"",""trial"",""time""
""fullscreenenter"",""1"",""2646""
","
","
","""event"",""trial"",""time""
""fullscreenenter"",""1"",""2646""
","
","","","","","","","","","","","","","","","","","","","","","","","","","","",""
"pit-instructions","58","556384","0.0-2.0-13.0","battery-v0.2","","""event"",""trial"",""time""
""fullscreenenter"",""1"",""2646""
","
","
","""event"",""trial"",""time""
""fullscreenenter"",""1"",""2646""
","
","","[{""page_index"":0,""viewing_time"":7025.5},{""page_index"":1,""viewing_time"":13353.800000190735},{""page_index"":2,""viewing_time"":4418.199999809265},{""page_index"":3,""viewing_time"":13054.800000190735},{""page_index"":4,""viewing_time"":6192.89999961853}]","44046.09999990463","","","","","","","","","","","","","","","","","","","","","","","",""
"pit-trial","59","559732","0.0-2.0-14.0-0.0","battery-v0.2","","""event"",""trial"",""time""
""fullscreenenter"",""1"",""2646""
","
","
","""event"",""trial"",""time""
""fullscreenenter"",""1"",""2646""
","
","","","470.80000019073486","","","11","3540","384","&#9826;","elianto","#f73b6a7A","-1"," ","0","-10","[1322.4000000953674]","1","0","3","","","","","","","",""
"pit-trial","60","564623","0.0-2.0-14.0-1.0","battery-v0.2","","""event"",""trial"",""time""
""fullscreenenter"",""1"",""2646""
","
","
","""event"",""trial"",""time""
""fullscreenenter"",""1"",""2646""
","
","","","-1","","","11","3540","384","&#9826;","elianto","#f73b6a7A","-1","-1","1","0","[]","0","0","3","","","","","","","",""
"pit-trial","61","569505","0.0-2.0-14.0-2.0","battery-v0.2","","""event"",""trial"",""time""
""fullscreenenter"",""1"",""2646""
","
","
","""event"",""trial"",""time""
""fullscreenenter"",""1"",""2646""
","
","","","-1","","","11","3540","384","&#9826;","elianto","#f73b6a7A","-1","-1","1","0","[]","0","0","3","","","","","","","",""
"pit-trial","62","574402","0.0-2.0-14.0-3.0","battery-v0.2","","""event"",""trial"",""time""
""fullscreenenter"",""1"",""2646""
","
","
","""event"",""trial"",""time""
""fullscreenenter"",""1"",""2646""
","
","","","-1","","","11","3540","384","&#9826;","elianto","#f73b6a7A","-1","-1","1","-10","[]","0","0","3","","","","","","","",""
"pit-trial","63","579290","0.0-2.0-14.0-4.0","battery-v0.2","","""event"",""trial"",""time""
""fullscreenenter"",""1"",""2646""
","
","
","""event"",""trial"",""time""
""fullscreenenter"",""1"",""2646""
","
","","","-1","","","11","3540","384","&#9826;","elianto","#f73b6a7A","-1","-1","1","0","[]","0","0","3","","","","","","","",""
"pit-trial","64","584168","0.0-2.0-14.1-0.1","battery-v0.2","","""event"",""trial"",""time""
""fullscreenenter"",""1"",""2646""
","
","
","""event"",""trial"",""time""
""fullscreenenter"",""1"",""2646""
","
","","","-1","","","11","3540","384","&#9826;","elianto","#f73b6a7A","-1","-1","1","0","[]","0","0","3","","","","","","","",""
"pit-trial","65","589039","0.0-2.0-14.1-1.1","battery-v0.2","","""event"",""trial"",""time""
""fullscreenenter"",""1"",""2646""
","
","
","""event"",""trial"",""time""
""fullscreenenter"",""1"",""2646""
","
","","","-1","","","11","3540","384","&#9826;","elianto","#f73b6a7A","-1","-1","1","0","[]","0","0","3","","","","","","","",""
"pit-trial","66","593910","0.0-2.0-14.1-2.1","battery-v0.2","","""event"",""trial"",""time""
""fullscreenenter"",""1"",""2646""
","
","
","""event"",""trial"",""time""
""fullscreenenter"",""1"",""2646""
","
","","","-1","","","11","3540","384","&#9826;","elianto","#f73b6a7A","-1","-1","1","0","[]","0","0","3","","","","","","","",""
"pit-trial","67","598776","0.0-2.0-14.1-3.1","battery-v0.2","","""event"",""trial"",""time""
""fullscreenenter"",""1"",""2646""
","
","
","""event"",""trial"",""time""
""fullscreenenter"",""1"",""2646""
","
","","","-1","","","11","3540","384","&#9826;","elianto","#f73b6a7A","-1","-1","1","-10","[]","0","0","3","","","","","","","",""
"pit-trial","68","603652","0.0-2.0-14.1-4.1","battery-v0.2","","""event"",""trial"",""time""
""fullscreenenter"",""1"",""2646""
","
","
","""event"",""trial"",""time""
""fullscreenenter"",""1"",""2646""
","
","","","-1","","","11","3540","384","&#9826;","elianto","#f73b6a7A","-1","-1","1","0","[]","0","0","3","","","","","","","",""
"pit-trial","69","608531","0.0-2.0-14.2-0.2","battery-v0.2","","""event"",""trial"",""time""
""fullscreenenter"",""1"",""2646""
","
","
","""event"",""trial"",""time""
""fullscreenenter"",""1"",""2646""
","
","","","-1","","","11","3540","384","&#9826;","elianto","#f73b6a7A","-1","-1","1","0","[]","0","0","3","","","","","","","",""
"pit-trial","70","613398","0.0-2.0-14.2-1.2","battery-v0.2","","""event"",""trial"",""time""
""fullscreenenter"",""1"",""2646""
","
","
","""event"",""trial"",""time""
""fullscreenenter"",""1"",""2646""
","
","","","-1","","","11","3540","384","&#9826;","elianto","#f73b6a7A","-1","-1","1","0","[]","0","0","3","","","","","","","",""
"pit-trial","71","618269","0.0-2.0-14.2-2.2","battery-v0.2","","""event"",""trial"",""time""
""fullscreenenter"",""1"",""2646""
","
","
","""event"",""trial"",""time""
""fullscreenenter"",""1"",""2646""
","
","","","-1","","","11","3540","384","&#9826;","elianto","#f73b6a7A","-1","-1","1","0","[]","0","0","3","","","","","","","",""
"pit-trial","72","623150","0.0-2.0-14.2-3.2","battery-v0.2","","""event"",""trial"",""time""
""fullscreenenter"",""1"",""2646""
","
","
","""event"",""trial"",""time""
""fullscreenenter"",""1"",""2646""
","
","","","-1","","","11","3540","384","&#9826;","elianto","#f73b6a7A","-1","-1","1","-10","[]","0","0","3","","","","","","","",""
"pit-trial","73","628023","0.0-2.0-14.2-4.2","battery-v0.2","","""event"",""trial"",""time""
""fullscreenenter"",""1"",""2646""
","
","
","""event"",""trial"",""time""
""fullscreenenter"",""1"",""2646""
","
","","","-1","","","11","3540","384","&#9826;","elianto","#f73b6a7A","-1","-1","1","0","[]","0","0","3","","","","","","","",""
"pit-trial","74","632893","0.0-2.0-14.3-0.3","battery-v0.2","","""event"",""trial"",""time""
""fullscreenenter"",""1"",""2646""
","
","
","""event"",""trial"",""time""
""fullscreenenter"",""1"",""2646""
","
","","","-1","","","11","3540","384","&#9826;","elianto","#f73b6a7A","-1","-1","1","0","[]","0","0","3","","","","","","","",""
"pit-trial","75","637764","0.0-2.0-14.3-1.3","battery-v0.2","","""event"",""trial"",""time""
""fullscreenenter"",""1"",""2646""
","
","
","""event"",""trial"",""time""
""fullscreenenter"",""1"",""2646""
","
","","","-1","","","11","3540","384","&#9826;","elianto","#f73b6a7A","-1","-1","1","0","[]","0","0","3","","","","","","","",""
"pit-trial","76","642635","0.0-2.0-14.3-2.3","battery-v0.2","","""event"",""trial"",""time""
""fullscreenenter"",""1"",""2646""
","
","
","""event"",""trial"",""time""
""fullscreenenter"",""1"",""2646""
","
","","","-1","","","11","3540","384","&#9826;","elianto","#f73b6a7A","-1","-1","1","0","[]","0","0","3","","","","","","","",""
"pit-trial","77","647506","0.0-2.0-14.3-3.3","battery-v0.2","","""event"",""trial"",""time""
""fullscreenenter"",""1"",""2646""
","
","
","""event"",""trial"",""time""
""fullscreenenter"",""1"",""2646""
","
","","","-1","","","11","3540","384","&#9826;","elianto","#f73b6a7A","-1","-1","1","-10","[]","0","0","3","","","","","","","",""
"pit-trial","78","652368","0.0-2.0-14.3-4.3","battery-v0.2","","""event"",""trial"",""time""
""fullscreenenter"",""1"",""2646""
","
","
","""event"",""trial"",""time""
""fullscreenenter"",""1"",""2646""
","
","","","-1","","","11","3540","384","&#9826;","elianto","#f73b6a7A","-1","-1","1","0","[]","0","0","3","","","","","","","",""
"call-function","79","652369","0.0-2.0-15.0","battery-v0.2","","""event"",""trial"",""time""
""fullscreenenter"",""1"",""2646""
","
","
","""event"",""trial"",""time""
""fullscreenenter"",""1"",""2646""
","
","","","","","","","","","","","","","","","","","","","","","","","","","","",""
"pit-instructions","80","697478","0.0-2.0-16.0","battery-v0.2","","""event"",""trial"",""time""
""fullscreenenter"",""1"",""2646""
","
","
","""event"",""trial"",""time""
""fullscreenenter"",""1"",""2646""
","
","","[{""page_index"":0,""viewing_time"":11252.5},{""page_index"":1,""viewing_time"":16074.200000286102},{""page_index"":2,""viewing_time"":12100.400000095367},{""page_index"":3,""viewing_time"":5677}]","45104.40000009537","","","","","","","","","","","","","","","","","","","","","","","",""
"pit-trial","81","700946","0.0-2.0-17.0-0.0","battery-v0.2","","""event"",""trial"",""time""
""fullscreenenter"",""1"",""2646""
","
","
","""event"",""trial"",""time""
""fullscreenenter"",""1"",""2646""
","
","","","607.1999998092651","","","11","3540","384","&#9789;","elianto","#f73b6a7A"," "," ","1","0","[1457.5]","1","0","4","","","","","","","",""
"pit-trial","82","703967","0.0-2.0-17.0-1.0","battery-v0.2","","""event"",""trial"",""time""
""fullscreenenter"",""1"",""2646""
","
","
","""event"",""trial"",""time""
""fullscreenenter"",""1"",""2646""
","
","","","144.60000038146973","","","11","3540","384","&#9789;","elianto","#f73b6a7A"," "," ","1","0","[1003.1000003814697]","1","0","4","","","","","","","",""
"pit-trial","83","707153","0.0-2.0-17.0-2.0","battery-v0.2","","""event"",""trial"",""time""
""fullscreenenter"",""1"",""2646""
","
","
","""event"",""trial"",""time""
""fullscreenenter"",""1"",""2646""
","
","","","318.5","","","11","3540","384","&#9789;","elianto","#f73b6a7A"," "," ","1","0","[1176.9000000953674]","1","0","4","","","","","","","",""
"pit-trial","84","710177","0.0-2.0-17.0-3.0","battery-v0.2","","""event"",""trial"",""time""
""fullscreenenter"",""1"",""2646""
","
","
","""event"",""trial"",""time""
""fullscreenenter"",""1"",""2646""
","
","","","155.5","","","11","3540","384","&#9789;","elianto","#f73b6a7A"," "," ","1","-10","[1011.5999999046326]","1","0","4","","","","","","","",""
"pit-trial","85","713497","0.0-2.0-17.0-4.0","battery-v0.2","","""event"",""trial"",""time""
""fullscreenenter"",""1"",""2646""
","
","
","""event"",""trial"",""time""
""fullscreenenter"",""1"",""2646""
","
","","","449.2000002861023","","","11","3540","384","&#9789;","elianto","#f73b6a7A"," "," ","1","0","[1300.8000001907349]","1","0","4","","","","","","","",""
"pit-trial","86","716520","0.0-2.0-17.1-0.1","battery-v0.2","","""event"",""trial"",""time""
""fullscreenenter"",""1"",""2646""
","
","
","""event"",""trial"",""time""
""fullscreenenter"",""1"",""2646""
","
","","","143.90000009536743","","","11","3540","384","&#9789;","elianto","#f73b6a7A"," "," ","1","0","[1000]","1","0","4","","","","","","","",""
"pit-trial","87","719452","0.0-2.0-17.1-1.1","battery-v0.2","","""event"",""trial"",""time""
""fullscreenenter"",""1"",""2646""
","
","
","""event"",""trial"",""time""
""fullscreenenter"",""1"",""2646""
","
","","","60.39999961853027","","","11","3540","384","&#9789;","elianto","#f73b6a7A"," "," ","1","0","[915.5]","1","0","4","","","","","","","",""
"pit-trial","88","722449","0.0-2.0-17.1-2.1","battery-v0.2","","""event"",""trial"",""time""
""fullscreenenter"",""1"",""2646""
","
","
","""event"",""trial"",""time""
""fullscreenenter"",""1"",""2646""
","
","","","111.19999980926514","","","11","3540","384","&#9789;","elianto","#f73b6a7A"," "," ","1","0","[968.2999997138977]","1","0","4","","","","","","","",""
"pit-trial","89","725437","0.0-2.0-17.1-3.1","battery-v0.2","","""event"",""trial"",""time""
""fullscreenenter"",""1"",""2646""
","
","
","""event"",""trial"",""time""
""fullscreenenter"",""1"",""2646""
","
","","","111.7000002861023","","","11","3540","384","&#9789;","elianto","#f73b6a7A"," "," ","1","-10","[972.0999999046326]","1","0","4","","","","","","","",""
"pit-trial","90","728537","0.0-2.0-17.1-4.1","battery-v0.2","","""event"",""trial"",""time""
""fullscreenenter"",""1"",""2646""
","
","
","""event"",""trial"",""time""
""fullscreenenter"",""1"",""2646""
","
","","","235.09999990463257","","","11","3540","384","&#9789;","elianto","#f73b6a7A"," "," ","1","0","[1089.3000001907349]","1","0","4","","","","","","","",""
"pit-trial","91","731630","0.0-2.0-17.2-0.2","battery-v0.2","","""event"",""trial"",""time""
""fullscreenenter"",""1"",""2646""
","
","
","""event"",""trial"",""time""
""fullscreenenter"",""1"",""2646""
","
","","","229.09999990463257","","","11","3540","384","&#9789;","elianto","#f73b6a7A"," "," ","1","0","[1082.5]","1","0","4","","","","","","","",""
"pit-trial","92","735366","0.0-2.0-17.2-1.2","battery-v0.2","","""event"",""trial"",""time""
""fullscreenenter"",""1"",""2646""
","
","
","""event"",""trial"",""time""
""fullscreenenter"",""1"",""2646""
","
","","","879.6000003814697","","","11","3540","384","&#9789;","elianto","#f73b6a7A"," "," ","1","0","[1730.3000001907349]","1","0","4","","","","","","","",""
"pit-trial","93","738732","0.0-2.0-17.2-2.2","battery-v0.2","","""event"",""trial"",""time""
""fullscreenenter"",""1"",""2646""
","
","
","""event"",""trial"",""time""
""fullscreenenter"",""1"",""2646""
","
","","","506.80000019073486","","","11","3540","384","&#9789;","elianto","#f73b6a7A"," "," ","1","0","[1357.8999996185303]","1","0","4","","","","","","","",""
"pit-trial","94","742076","0.0-2.0-17.2-3.2","battery-v0.2","","""event"",""trial"",""time""
""fullscreenenter"",""1"",""2646""
","
","
","""event"",""trial"",""time""
""fullscreenenter"",""1"",""2646""
","
","","","478.2000002861023","","","11","3540","384","&#9789;","elianto","#f73b6a7A"," "," ","1","-10","[1336.9000000953674]","1","0","4","","","","","","","",""
"pit-trial","95","745210","0.0-2.0-17.2-4.2","battery-v0.2","","""event"",""trial"",""time""
""fullscreenenter"",""1"",""2646""
","
","
","""event"",""trial"",""time""
""fullscreenenter"",""1"",""2646""
","
","","","266.59999990463257","","","11","3540","384","&#9789;","elianto","#f73b6a7A"," "," ","1","0","[1117.8999996185303]","1","0","4","","","","","","","",""
"pit-trial","96","748193","0.0-2.0-17.3-0.3","battery-v0.2","","""event"",""trial"",""time""
""fullscreenenter"",""1"",""2646""
","
","
","""event"",""trial"",""time""
""fullscreenenter"",""1"",""2646""
","
","","","111.90000009536743","","","11","3540","384","&#9789;","elianto","#f73b6a7A"," "," ","1","0","[970.5999999046326]","1","0","4","","","","","","","",""
"pit-trial","97","751112","0.0-2.0-17.3-1.3","battery-v0.2","","""event"",""trial"",""time""
""fullscreenenter"",""1"",""2646""
","
","
","""event"",""trial"",""time""
""fullscreenenter"",""1"",""2646""
","
","","","58.799999713897705","","","11","3540","384","&#9789;","elianto","#f73b6a7A"," "," ","1","0","[909.8999996185303]","1","0","4","","","","","","","",""
"pit-trial","98","754013","0.0-2.0-17.3-2.3","battery-v0.2","","""event"",""trial"",""time""
""fullscreenenter"",""1"",""2646""
","
","
","""event"",""trial"",""time""
""fullscreenenter"",""1"",""2646""
","
","","","31.5","","","11","3540","384","&#9789;","elianto","#f73b6a7A"," "," ","1","0","[893]","1","0","4","","","","","","","",""
"pit-trial","99","757012","0.0-2.0-17.3-3.3","battery-v0.2","","""event"",""trial"",""time""
""fullscreenenter"",""1"",""2646""
","
","
","""event"",""trial"",""time""
""fullscreenenter"",""1"",""2646""
","
","","","122.09999990463257","","","11","3540","384","&#9789;","elianto","#f73b6a7A"," "," ","1","-10","[981.6999998092651]","1","0","4","","","","","","","",""
"pit-trial","100","760128","0.0-2.0-17.3-4.3","battery-v0.2","","""event"",""trial"",""time""
""fullscreenenter"",""1"",""2646""
","
","
","""event"",""trial"",""time""
""fullscreenenter"",""1"",""2646""
","
","","","241.5","","","11","3540","384","&#9789;","elianto","#f73b6a7A"," "," ","1","0","[1102.0999999046326]","1","0","4","","","","","","","",""
"call-function","101","760130","0.0-2.0-18.0","battery-v0.2","","""event"",""trial"",""time""
""fullscreenenter"",""1"",""2646""
","
","
","""event"",""trial"",""time""
""fullscreenenter"",""1"",""2646""
","
","","","","","","","","","","","","","","","","","","","","","","","","","","",""
"pit-instructions","102","848000","0.0-2.0-19.0","battery-v0.2","","""event"",""trial"",""time""
""fullscreenenter"",""1"",""2646""
","
","
","""event"",""trial"",""time""
""fullscreenenter"",""1"",""2646""
","
","","[{""page_index"":0,""viewing_time"":8778.299999713898},{""page_index"":1,""viewing_time"":10275},{""page_index"":2,""viewing_time"":20686.10000038147},{""page_index"":3,""viewing_time"":7291.099999904633},{""page_index"":4,""viewing_time"":9645.599999904633},{""page_index"":5,""viewing_time"":9866.099999904633},{""page_index"":6,""viewing_time"":9684.200000286102},{""page_index"":7,""viewing_time"":7424.599999904633},{""page_index"":8,""viewing_time"":4219.5}]","87871.40000009537","","","","","","","","","","","","","","","","","","","","","","","",""
"pit-comprehension","103","853113","0.0-2.0-20.0-0.0","battery-v0.2","","""event"",""trial"",""time""
""fullscreenenter"",""1"",""2646""
","
","
","""event"",""trial"",""time""
""fullscreenenter"",""1"",""2646""
","
","","","5102.89999961853","[""SPACE""]","0","11","3540","384","","","","","","","","","","","","","","","","","","",""
"pit-instructions","104","856082","0.0-2.0-20.0-1.0","battery-v0.2","","""event"",""trial"",""time""
""fullscreenenter"",""1"",""2646""
","
","
","""event"",""trial"",""time""
""fullscreenenter"",""1"",""2646""
","
","","[{""page_index"":0,""viewing_time"":2930.7999997138977}]","2931.4000000953674","","","","","","","","","","","","","","","","","","","","","","","",""
"pit-comprehension","105","861992","0.0-2.0-21.0-0.0","battery-v0.2","","""event"",""trial"",""time""
""fullscreenenter"",""1"",""2646""
","
","
","""event"",""trial"",""time""
""fullscreenenter"",""1"",""2646""
","
","","","5900.300000190735","[""10""]","0","11","3540","384","","","","","","","","","","","","","","","","","","",""
"pit-instructions","106","863881","0.0-2.0-21.0-1.0","battery-v0.2","","""event"",""trial"",""time""
""fullscreenenter"",""1"",""2646""
","
","
","""event"",""trial"",""time""
""fullscreenenter"",""1"",""2646""
","
","","[{""page_index"":0,""viewing_time"":1842.9000000953674}]","1843.7999997138977","","","","","","","","","","","","","","","","","","","","","","","",""
"pit-comprehension","107","870773","0.0-2.0-22.0-0.0","battery-v0.2","","""event"",""trial"",""time""
""fullscreenenter"",""1"",""2646""
","
","
","""event"",""trial"",""time""
""fullscreenenter"",""1"",""2646""
","
","","","6887","[""-10""]","1","11","3540","384","","","","","","","","","","","","","","","","","","",""
"pit-instructions","108","875841","0.0-2.0-22.0-1.0","battery-v0.2","","""event"",""trial"",""time""
""fullscreenenter"",""1"",""2646""
","
","
","""event"",""trial"",""time""
""fullscreenenter"",""1"",""2646""
","
","","[{""page_index"":0,""viewing_time"":5024.799999713898}]","5025.5","","","","","","","","","","","","","","","","","","","","","","","",""
"pit-instructions","109","877232","0.0-2.0-22.0-2.0-0.0","battery-v0.2","","""event"",""trial"",""time""
""fullscreenenter"",""1"",""2646""
","
","
","""event"",""trial"",""time""
""fullscreenenter"",""1"",""2646""
","
","","[{""page_index"":0,""viewing_time"":1388}]","1388.5","","","","","","","","","","","","","","","","","","","","","","","",""
"pit-comprehension","110","883972","0.0-2.0-22.1-0.1","battery-v0.2","","""event"",""trial"",""time""
""fullscreenenter"",""1"",""2646""
","
","
","""event"",""trial"",""time""
""fullscreenenter"",""1"",""2646""
","
","","","6735.900000095367","[""0""]","0","11","3540","384","","","","","","","","","","","","","","","","","","",""
"pit-instructions","111","886981","0.0-2.0-22.1-1.1","battery-v0.2","","""event"",""trial"",""time""
""fullscreenenter"",""1"",""2646""
","
","
","""event"",""trial"",""time""
""fullscreenenter"",""1"",""2646""
","
","","[{""page_index"":0,""viewing_time"":2974.7000002861023}]","2975.5","","","","","","","","","","","","","","","","","","","","","","","",""
"pit-comprehension","112","896081","0.0-2.0-23.0-0.0","battery-v0.2","","""event"",""trial"",""time""
""fullscreenenter"",""1"",""2646""
","
","
","""event"",""trial"",""time""
""fullscreenenter"",""1"",""2646""
","
","","","9095.699999809265","[""True""]","0","11","3540","384","","","","","","","","","","","","","","","","","","",""
"pit-instructions","113","898140","0.0-2.0-23.0-1.0","battery-v0.2","","""event"",""trial"",""time""
""fullscreenenter"",""1"",""2646""
","
","
","""event"",""trial"",""time""
""fullscreenenter"",""1"",""2646""
","
","","[{""page_index"":0,""viewing_time"":2021.1999998092651}]","2021.5999999046326","","","","","","","","","","","","","","","","","","","","","","","",""
"pit-comprehension","114","907472","0.0-2.0-24.0-0.0","battery-v0.2","","""event"",""trial"",""time""
""fullscreenenter"",""1"",""2646""
","
","
","""event"",""trial"",""time""
""fullscreenenter"",""1"",""2646""
","
","","","9327.599999904633","[""True""]","0","11","3540","384","","","","","","","","","","","","","","","","","","",""
"pit-instructions","115","911271","0.0-2.0-24.0-1.0","battery-v0.2","","""event"",""trial"",""time""
""fullscreenenter"",""1"",""2646""
","
","
","""event"",""trial"",""time""
""fullscreenenter"",""1"",""2646""
","
","","[{""page_index"":0,""viewing_time"":3756.4000000953674}]","3757","","","","","","","","","","","","","","","","","","","","","","","",""
"pit-comprehension","116","918432","0.0-2.0-25.0-0.0","battery-v0.2","","""event"",""trial"",""time""
""fullscreenenter"",""1"",""2646""
","
","
","""event"",""trial"",""time""
""fullscreenenter"",""1"",""2646""
","
","","","7155.900000095367","[""True""]","0","11","3540","384","","","","","","","","","","","","","","","","","","",""
"pit-instructions","117","920451","0.0-2.0-25.0-1.0","battery-v0.2","","""event"",""trial"",""time""
""fullscreenenter"",""1"",""2646""
","
","
","""event"",""trial"",""time""
""fullscreenenter"",""1"",""2646""
","
","","[{""page_index"":0,""viewing_time"":1981.6000003814697}]","1982.2000002861023","","","","","","","","","","","","","","","","","","","","","","","",""
"pit-comprehension","118","927102","0.0-2.0-26.0-0.0","battery-v0.2","","""event"",""trial"",""time""
""fullscreenenter"",""1"",""2646""
","
","
","""event"",""trial"",""time""
""fullscreenenter"",""1"",""2646""
","
","","","6644.900000095367","[""False""]","0","11","3540","384","","","","","","","","","","","","","","","","","","",""
"pit-instructions","119","929711","0.0-2.0-26.0-1.0","battery-v0.2","","""event"",""trial"",""time""
""fullscreenenter"",""1"",""2646""
","
","
","""event"",""trial"",""time""
""fullscreenenter"",""1"",""2646""
","
","","[{""page_index"":0,""viewing_time"":2571.4000000953674}]","2571.9000000953674","","","","","","","","","","","","","","","","","","","","","","","",""
"pit-instructions","120","956421","0.0-3.0","battery-v0.2","","""event"",""trial"",""time""
""fullscreenenter"",""1"",""2646""
","
","
","""event"",""trial"",""time""
""fullscreenenter"",""1"",""2646""
","
","","[{""page_index"":0,""viewing_time"":9228},{""page_index"":1,""viewing_time"":10127.799999713898},{""page_index"":2,""viewing_time"":7351.099999904633}]","26707.5","","","","","","","","","","","","","","","","","","","","","","","",""
"pit-trial","121","960798","0.0-4.0","battery-v0.2","","""event"",""trial"",""time""
""fullscreenenter"",""1"",""2646""
","
","
","""event"",""trial"",""time""
""fullscreenenter"",""1"",""2646""
","
","","","1495.3000001907349","","","11","3540","384","&#9728;","elianto","#f73b6a7A","-1"," ","0","-10","[2353]","1","1","","","3540","1","0","4","lose","no-go","0"
"pit-trial","122","964269","0.0-5.0","battery-v0.2","","""event"",""trial"",""time""
""fullscreenenter"",""1"",""2646""
","
","
","""event"",""trial"",""time""
""fullscreenenter"",""1"",""2646""
","
","","","609.5","","","11","3540","384","&#9752;","elianto","#f73b6a7A"," "," ","1","-10","[1461.5]","1","1","","","3540","2","3","3","lose","go","1"
"pit-trial","123","967887","0.0-6.0","battery-v0.2","","""event"",""trial"",""time""
""fullscreenenter"",""1"",""2646""
","
","
","""event"",""trial"",""time""
""fullscreenenter"",""1"",""2646""
","
","","","748.8999996185303","","","11","3540","384","&#9733;","elianto","#3366ff99","-1"," ","0","0","[1599.4000000953674]","1","1","","","3540","3","2","2","win","no-go","0"
"pit-trial","124","971520","0.0-7.0","battery-v0.2","","""event"",""trial"",""time""
""fullscreenenter"",""1"",""2646""
","
","
","""event"",""trial"",""time""
""fullscreenenter"",""1"",""2646""
","
","","","767.9000000953674","","","11","3540","384","&#9730;","elianto","#3366ff99"," "," ","1","+10","[1618.5]","1","1","","","3540","4","1","1","win","go","0"
"pit-trial","125","975103","0.0-8.0","battery-v0.2","","""event"",""trial"",""time""
""fullscreenenter"",""1"",""2646""
","
","
","""event"",""trial"",""time""
""fullscreenenter"",""1"",""2646""
","
","","","704.5","","","11","3540","384","&#9730;","elianto","#3366ff99"," "," ","1","+10","[1562.9000000953674]","1","1","","","3540","5","1","1","win","go","0"
"pit-trial","126","979973","0.0-9.0","battery-v0.2","","""event"",""trial"",""time""
""fullscreenenter"",""1"",""2646""
","
","
","""event"",""trial"",""time""
""fullscreenenter"",""1"",""2646""
","
","","","-1","","","11","3540","384","&#9733;","elianto","#3366ff99","-1","-1","1","+10","[]","0","1","","","3540","6","2","2","win","no-go","0"
"pit-trial","127","984850","0.0-10.0","battery-v0.2","","""event"",""trial"",""time""
""fullscreenenter"",""1"",""2646""
","
","
","""event"",""trial"",""time""
""fullscreenenter"",""1"",""2646""
","
","","","-1","","","11","3540","384","&#9728;","elianto","#f73b6a7A","-1","-1","1","0","[]","0","1","","","3540","7","0","4","lose","no-go","0"
"pit-trial","128","989729","0.0-11.0","battery-v0.2","","""event"",""trial"",""time""
""fullscreenenter"",""1"",""2646""
","
","
","""event"",""trial"",""time""
""fullscreenenter"",""1"",""2646""
","
","","","-1","","","11","3540","384","&#9752;","elianto","#f73b6a7A"," ","-1","0","-10","[]","0","1","","","3540","8","3","3","lose","go","0"
"pit-trial","129","994595","0.0-12.0","battery-v0.2","","""event"",""trial"",""time""
""fullscreenenter"",""1"",""2646""
","
","
","""event"",""trial"",""time""
""fullscreenenter"",""1"",""2646""
","
","","","-1","","","11","3540","384","&#9752;","elianto","#f73b6a7A"," ","-1","0","-10","[]","0","1","","","3540","9","3","3","lose","go","0"
"pit-trial","130","999461","0.0-13.0","battery-v0.2","","""event"",""trial"",""time""
""fullscreenenter"",""1"",""2646""
","
","
","""event"",""trial"",""time""
""fullscreenenter"",""1"",""2646""
","
","","","-1","","","11","3540","384","&#9728;","elianto","#f73b6a7A","-1","-1","1","0","[]","0","1","","","3540","10","0","4","lose","no-go","0"
"pit-trial","131","1003168","0.0-14.0","battery-v0.2","","""event"",""trial"",""time""
""fullscreenenter"",""1"",""2646""
","
","
","""event"",""trial"",""time""
""fullscreenenter"",""1"",""2646""
","
","","","842.5","","","11","3540","384","&#9730;","elianto","#3366ff99"," "," ","1","+10","[1694]","1","1","","","3540","11","1","1","win","go","0"
"pit-trial","132","1006692","0.0-15.0","battery-v0.2","","""event"",""trial"",""time""
""fullscreenenter"",""1"",""2646""
","
","
","""event"",""trial"",""time""
""fullscreenenter"",""1"",""2646""
","
","","","650.5","","","11","3540","384","&#9733;","elianto","#3366ff99","-1"," ","0","0","[1510.5999999046326]","1","1","","","3540","12","2","2","win","no-go","0"
"pit-trial","133","1010286","0.0-16.0","battery-v0.2","","""event"",""trial"",""time""
""fullscreenenter"",""1"",""2646""
","
","
","""event"",""trial"",""time""
""fullscreenenter"",""1"",""2646""
","
","","","731.5","","","11","3540","384","&#9733;","elianto","#3366ff99","-1"," ","0","0","[1583.4000000953674]","1","1","","","3540","13","2","2","win","no-go","0"
"pit-trial","134","1014326","0.0-17.0","battery-v0.2","","""event"",""trial"",""time""
""fullscreenenter"",""1"",""2646""
","
","
","""event"",""trial"",""time""
""fullscreenenter"",""1"",""2646""
","
","","","1166.5","","","11","3540","384","&#9730;","elianto","#3366ff99"," "," ","1","+10","[2025.4000000953674]","1","1","","","3540","14","1","1","win","go","0"
"pit-trial","135","1018213","0.0-18.0","battery-v0.2","","""event"",""trial"",""time""
""fullscreenenter"",""1"",""2646""
","
","
","""event"",""trial"",""time""
""fullscreenenter"",""1"",""2646""
","
","","","1014.7000002861023","","","11","3540","384","&#9728;","elianto","#f73b6a7A","-1"," ","0","-10","[1866.5]","1","1","","","3540","15","0","4","lose","no-go","0"
"pit-trial","136","1022344","0.0-19.0","battery-v0.2","","""event"",""trial"",""time""
""fullscreenenter"",""1"",""2646""
","
","
","""event"",""trial"",""time""
""fullscreenenter"",""1"",""2646""
","
","","","1267","","","11","3540","384","&#9752;","elianto","#f73b6a7A"," "," ","1","0","[2118.3999996185303]","1","1","","","3540","16","3","3","lose","go","0"
"pit-trial","137","1026197","0.0-20.0","battery-v0.2","","""event"",""trial"",""time""
""fullscreenenter"",""1"",""2646""
","
","
","""event"",""trial"",""time""
""fullscreenenter"",""1"",""2646""
","
","","","994","","","11","3540","384","&#9752;","elianto","#f73b6a7A"," "," ","1","0","[1844.9000000953674]","1","1","","","3540","17","3","3","lose","go","0"
"pit-trial","138","1029818","0.0-21.0","battery-v0.2","","""event"",""trial"",""time""
""fullscreenenter"",""1"",""2646""
","
","
","""event"",""trial"",""time""
""fullscreenenter"",""1"",""2646""
","
","","","750","","","11","3540","384","&#9730;","elianto","#3366ff99"," "," ","1","+10","[1609.5999999046326]","1","1","","","3540","18","1","1","win","go","0"
"pit-trial","139","1033548","0.0-22.0","battery-v0.2","","""event"",""trial"",""time""
""fullscreenenter"",""1"",""2646""
","
","
","""event"",""trial"",""time""
""fullscreenenter"",""1"",""2646""
","
","","","863.5999999046326","","","11","3540","384","&#9733;","elianto","#3366ff99","-1"," ","0","+10","[1716.3000001907349]","1","1","","","3540","19","2","2","win","no-go","1"
"pit-trial","140","1038419","0.0-23.0","battery-v0.2","","""event"",""trial"",""time""
""fullscreenenter"",""1"",""2646""
","
","
","""event"",""trial"",""time""
""fullscreenenter"",""1"",""2646""
","
","","","-1","","","11","3540","384","&#9728;","elianto","#f73b6a7A","-1","-1","1","0","[]","0","1","","","3540","20","0","4","lose","no-go","0"
"pit-instructions","141","1062339","0.0-24.0","battery-v0.2","","""event"",""trial"",""time""
""fullscreenenter"",""1"",""2646""
","
","
","""event"",""trial"",""time""
""fullscreenenter"",""1"",""2646""
","
","","[{""page_index"":0,""viewing_time"":8705.400000095367},{""page_index"":1,""viewing_time"":15211.599999904633}]","23917.5","","","","","","","","","","","","","","","","","","","","","","","",""
"pit-trial","142","1065893","0.0-25.0","battery-v0.2","","""event"",""trial"",""time""
""fullscreenenter"",""1"",""2646""
","
","
","""event"",""trial"",""time""
""fullscreenenter"",""1"",""2646""
","
","","","670.3000001907349","","","11","3540","384","l","elianto","#3366ff99","-1"," ","0","0","[1523.1000003814697]","1","2","","","3540","21","1","2","win","no-go","0"
"pit-trial","143","1070782","0.0-26.0","battery-v0.2","","""event"",""trial"",""time""
""fullscreenenter"",""1"",""2646""
","
","
","""event"",""trial"",""time""
""fullscreenenter"",""1"",""2646""
","
","","","-1","","","11","3540","384","u","elianto","#f73b6a7A"," ","-1","0","0","[]","0","2","","","3540","22","0","3","lose","go","1"
"pit-trial","144","1075088","0.0-27.0","battery-v0.2","","""event"",""trial"",""time""
""fullscreenenter"",""1"",""2646""
","
","
","""event"",""trial"",""time""
""fullscreenenter"",""1"",""2646""
","
","","","1430.8000001907349","","","11","3540","384","g","elianto","#f73b6a7A","-1"," ","0","0","[2292.9000000953674]","1","2","","","3540","23","3","4","lose","no-go","1"
"pit-trial","145","1079956","0.0-28.0","battery-v0.2","","""event"",""trial"",""time""
""fullscreenenter"",""1"",""2646""
","
","
","""event"",""trial"",""time""
""fullscreenenter"",""1"",""2646""
","
","","","-1","","","11","3540","384","a","elianto","#f73b6a7A"," ","-1","0","-10","[]","0","2","","","3540","24","2","3","lose","go","0"
"pit-trial","146","1083540","0.0-29.0","battery-v0.2","","""event"",""trial"",""time""
""fullscreenenter"",""1"",""2646""
","
","
","""event"",""trial"",""time""
""fullscreenenter"",""1"",""2646""
","
","","","715.6000003814697","","","11","3540","384","a","elianto","#f73b6a7A"," "," ","1","-10","[1567.5999999046326]","1","2","","","3540","25","2","3","lose","go","1"
"pit-trial","147","1087337","0.0-30.0","battery-v0.2","","""event"",""trial"",""time""
""fullscreenenter"",""1"",""2646""
","
","
","""event"",""trial"",""time""
""fullscreenenter"",""1"",""2646""
","
","","","927.6999998092651","","","11","3540","384","l","elianto","#3366ff99","-1"," ","0","0","[1780.6999998092651]","1","2","","","3540","26","1","2","win","no-go","0"
"pit-trial","148","1092213","0.0-31.0","battery-v0.2","","""event"",""trial"",""time""
""fullscreenenter"",""1"",""2646""
","
","
","""event"",""trial"",""time""
""fullscreenenter"",""1"",""2646""
","
","","","-1","","","11","3540","384","u","elianto","#f73b6a7A"," ","-1","0","-10","[]","0","2","","","3540","27","0","3","lose","go","0"
"pit-trial","149","1095943","0.0-32.0","battery-v0.2","","""event"",""trial"",""time""
""fullscreenenter"",""1"",""2646""
","
","
","""event"",""trial"",""time""
""fullscreenenter"",""1"",""2646""
","
","","","867","","","11","3540","384","g","elianto","#f73b6a7A","-1"," ","0","0","[1718.4000000953674]","1","2","","","3540","28","3","4","lose","no-go","1"
"pit-trial","150","1099495","0.0-33.0","battery-v0.2","","""event"",""trial"",""time""
""fullscreenenter"",""1"",""2646""
","
","
","""event"",""trial"",""time""
""fullscreenenter"",""1"",""2646""
","
","","","689.3000001907349","","","11","3540","384","g","elianto","#f73b6a7A","-1"," ","0","-10","[1539.6000003814697]","1","2","","","3540","29","3","4","lose","no-go","0"
"pit-trial","151","1102970","0.0-34.0","battery-v0.2","","""event"",""trial"",""time""
""fullscreenenter"",""1"",""2646""
","
","
","""event"",""trial"",""time""
""fullscreenenter"",""1"",""2646""
","
","","","612.7999997138977","","","11","3540","384","u","elianto","#f73b6a7A"," "," ","1","0","[1463.7999997138977]","1","2","","","3540","30","0","3","lose","go","0"
"pit-trial","152","1107839","0.0-35.0","battery-v0.2","","""event"",""trial"",""time""
""fullscreenenter"",""1"",""2646""
","
","
","""event"",""trial"",""time""
""fullscreenenter"",""1"",""2646""
","
","","","-1","","","11","3540","384","a","elianto","#f73b6a7A"," ","-1","0","-10","[]","0","2","","","3540","31","2","3","lose","go","0"
"pit-trial","153","1111480","0.0-36.0","battery-v0.2","","""event"",""trial"",""time""
""fullscreenenter"",""1"",""2646""
","
","
","""event"",""trial"",""time""
""fullscreenenter"",""1"",""2646""
","
","","","770.0999999046326","","","11","3540","384","l","elianto","#3366ff99","-1"," ","0","0","[1621.5999999046326]","1","2","","","3540","32","1","2","win","no-go","0"
"pit-trial","154","1116346","0.0-37.0","battery-v0.2","","""event"",""trial"",""time""
""fullscreenenter"",""1"",""2646""
","
","
","""event"",""trial"",""time""
""fullscreenenter"",""1"",""2646""
","
","","","-1","","","11","3540","384","g","elianto","#f73b6a7A","-1","-1","1","0","[]","0","2","","","3540","33","3","4","lose","no-go","0"
"pit-trial","155","1120212","0.0-38.0","battery-v0.2","","""event"",""trial"",""time""
""fullscreenenter"",""1"",""2646""
","
","
","""event"",""trial"",""time""
""fullscreenenter"",""1"",""2646""
","
","","","995","","","11","3540","384","a","elianto","#f73b6a7A"," "," ","1","-10","[1850]","1","2","","","3540","34","2","3","lose","go","1"
"pit-trial","156","1124358","0.0-39.0","battery-v0.2","","""event"",""trial"",""time""
""fullscreenenter"",""1"",""2646""
","
","
","""event"",""trial"",""time""
""fullscreenenter"",""1"",""2646""
","
","","","1272.0999999046326","","","11","3540","384","l","elianto","#3366ff99","-1"," ","0","0","[2133.7999997138977]","1","2","","","3540","35","1","2","win","no-go","0"
"pit-trial","157","1129226","0.0-40.0","battery-v0.2","","""event"",""trial"",""time""
""fullscreenenter"",""1"",""2646""
","
","
","""event"",""trial"",""time""
""fullscreenenter"",""1"",""2646""
","
","","","-1","","","11","3540","384","u","elianto","#f73b6a7A"," ","-1","0","0","[]","0","2","","","3540","36","0","3","lose","go","1"
"pit-trial","158","1133312","0.0-41.0","battery-v0.2","","""event"",""trial"",""time""
""fullscreenenter"",""1"",""2646""
","
","
","""event"",""trial"",""time""
""fullscreenenter"",""1"",""2646""
","
","","","1215.4000000953674","","","11","3540","384","g","elianto","#f73b6a7A","-1"," ","0","-10","[2066.9000000953674,2855.2000002861023,3077.4000000953674,3247.2000002861023,3408.4000000953674,3558.4000000953674,3719.4000000953674]","7","2","","","3540","37","3","4","lose","no-go","0"
"pit-trial","159","1138185","0.0-42.0","battery-v0.2","","""event"",""trial"",""time""
""fullscreenenter"",""1"",""2646""
","
","
","""event"",""trial"",""time""
""fullscreenenter"",""1"",""2646""
","
","","","-1","","","11","3540","384","a","elianto","#f73b6a7A"," ","-1","0","-10","[]","0","2","","","3540","38","2","3","lose","go","0"
"pit-trial","160","1141851","0.0-43.0","battery-v0.2","","""event"",""trial"",""time""
""fullscreenenter"",""1"",""2646""
","
","
","""event"",""trial"",""time""
""fullscreenenter"",""1"",""2646""
","
","","","799.9000000953674","","","11","3540","384","u","elianto","#f73b6a7A"," "," ","1","0","[1655.2000002861023]","1","2","","","3540","39","0","3","lose","go","0"
"pit-trial","161","1146717","0.0-44.0","battery-v0.2","","""event"",""trial"",""time""
""fullscreenenter"",""1"",""2646""
","
","
","""event"",""trial"",""time""
""fullscreenenter"",""1"",""2646""
","
","","","-1","","","11","3540","384","l","elianto","#3366ff99","-1","-1","1","+10","[]","0","2","","","3540","40","1","2","win","no-go","0"
"pit-trial","162","1151593","0.0-45.0","battery-v0.2","","""event"",""trial"",""time""
""fullscreenenter"",""1"",""2646""
","
","
","""event"",""trial"",""time""
""fullscreenenter"",""1"",""2646""
","
","","","-1","","","11","3540","384","u","elianto","#f73b6a7A"," ","-1","0","0","[]","0","2","","","3540","41","0","3","lose","go","1"
"pit-trial","163","1156463","0.0-46.0","battery-v0.2","","""event"",""trial"",""time""
""fullscreenenter"",""1"",""2646""
","
","
","""event"",""trial"",""time""
""fullscreenenter"",""1"",""2646""
","
","","","-1","","","11","3540","384","l","elianto","#3366ff99","-1","-1","1","+10","[]","0","2","","","3540","42","1","2","win","no-go","0"
"pit-trial","164","1161341","0.0-47.0","battery-v0.2","","""event"",""trial"",""time""
""fullscreenenter"",""1"",""2646""
","
","
","""event"",""trial"",""time""
""fullscreenenter"",""1"",""2646""
","
","","","-1","","","11","3540","384","a","elianto","#f73b6a7A"," ","-1","0","-10","[]","0","2","","","3540","43","2","3","lose","go","0"
"pit-trial","165","1165533","0.0-48.0","battery-v0.2","","""event"",""trial"",""time""
""fullscreenenter"",""1"",""2646""
","
","
","""event"",""trial"",""time""
""fullscreenenter"",""1"",""2646""
","
","","","1329.5999999046326","","","11","3540","384","g","elianto","#f73b6a7A","-1"," ","0","-10","[2182.9000000953674,3226.7000002861023,3701.2000002861023]","3","2","","","3540","44","3","4","lose","no-go","0"
"pit-trial","166","1170414","0.0-49.0","battery-v0.2","","""event"",""trial"",""time""
""fullscreenenter"",""1"",""2646""
","
","
","""event"",""trial"",""time""
""fullscreenenter"",""1"",""2646""
","
","","","-1","","","11","3540","384","u","elianto","#f73b6a7A"," ","-1","0","-10","[4200]","1","2","","","3540","45","0","3","lose","go","0"
"pit-trial","167","1175296","0.0-50.0","battery-v0.2","","""event"",""trial"",""time""
""fullscreenenter"",""1"",""2646""
","
","
","""event"",""trial"",""time""
""fullscreenenter"",""1"",""2646""
","
","","","-1","","","11","3540","384","a","elianto","#f73b6a7A"," ","-1","0","-10","[]","0","2","","","3540","46","2","3","lose","go","0"
"pit-trial","168","1180166","0.0-51.0","battery-v0.2","","""event"",""trial"",""time""
""fullscreenenter"",""1"",""2646""
","
","
","""event"",""trial"",""time""
""fullscreenenter"",""1"",""2646""
","
","","","-1","","","11","3540","384","l","elianto","#3366ff99","-1","-1","1","+10","[]","0","2","","","3540","47","1","2","win","no-go","0"
"pit-trial","169","1185040","0.0-52.0","battery-v0.2","","""event"",""trial"",""time""
""fullscreenenter"",""1"",""2646""
","
","
","""event"",""trial"",""time""
""fullscreenenter"",""1"",""2646""
","
","","","-1","","","11","3540","384","g","elianto","#f73b6a7A","-1","-1","1","-10","[3635.8999996185303,4798.199999809265]","2","2","","","3540","48","3","4","lose","no-go","1"
"pit-trial","170","1189916","0.0-53.0","battery-v0.2","","""event"",""trial"",""time""
""fullscreenenter"",""1"",""2646""
","
","
","""event"",""trial"",""time""
""fullscreenenter"",""1"",""2646""
","
","","","-1","","","11","3540","384","l","elianto","#3366ff99","-1","-1","1","+10","[]","0","2","","","3540","49","1","2","win","no-go","0"
"pit-trial","171","1194287","0.0-54.0","battery-v0.2","","""event"",""trial"",""time""
""fullscreenenter"",""1"",""2646""
","
","
","""event"",""trial"",""time""
""fullscreenenter"",""1"",""2646""
","
","","","1497.4000000953674","","","11","3540","384","a","elianto","#f73b6a7A"," "," ","1","0","[2354.7000002861023]","1","2","","","3540","50","2","3","lose","go","0"
"pit-trial","172","1198036","0.0-55.0","battery-v0.2","","""event"",""trial"",""time""
""fullscreenenter"",""1"",""2646""
","
","
","""event"",""trial"",""time""
""fullscreenenter"",""1"",""2646""
","
","","","887.4000000953674","","","11","3540","384","u","elianto","#f73b6a7A"," "," ","1","-10","[1739.7999997138977]","1","2","","","3540","51","0","3","lose","go","1"
"pit-trial","173","1201932","0.0-56.0","battery-v0.2","","""event"",""trial"",""time""
""fullscreenenter"",""1"",""2646""
","
","
","""event"",""trial"",""time""
""fullscreenenter"",""1"",""2646""
","
","","","1033","","","11","3540","384","g","elianto","#f73b6a7A","-1"," ","0","0","[1886.5]","1","2","","","3540","52","3","4","lose","no-go","1"
"pit-trial","174","1206320","0.0-57.0","battery-v0.2","","""event"",""trial"",""time""
""fullscreenenter"",""1"",""2646""
","
","
","""event"",""trial"",""time""
""fullscreenenter"",""1"",""2646""
","
","","","1512.5999999046326","","","11","3540","384","a","elianto","#f73b6a7A"," "," ","1","0","[2370]","1","2","","","3540","53","2","3","lose","go","0"
"pit-trial","175","1209959","0.0-58.0","battery-v0.2","","""event"",""trial"",""time""
""fullscreenenter"",""1"",""2646""
","
","
","""event"",""trial"",""time""
""fullscreenenter"",""1"",""2646""
","
","","","771.9000000953674","","","11","3540","384","g","elianto","#f73b6a7A","-1"," ","0","0","[1623.9000000953674]","1","2","","","3540","54","3","4","lose","no-go","1"
"pit-trial","176","1213596","0.0-59.0","battery-v0.2","","""event"",""trial"",""time""
""fullscreenenter"",""1"",""2646""
","
","
","""event"",""trial"",""time""
""fullscreenenter"",""1"",""2646""
","
","","","774.5","","","11","3540","384","u","elianto","#f73b6a7A"," "," ","1","0","[1625.4000000953674]","1","2","","","3540","55","0","3","lose","go","0"
"pit-trial","177","1218470","0.0-60.0","battery-v0.2","","""event"",""trial"",""time""
""fullscreenenter"",""1"",""2646""
","
","
","""event"",""trial"",""time""
""fullscreenenter"",""1"",""2646""
","
","","","-1","","","11","3540","384","l","elianto","#3366ff99","-1","-1","1","+10","[]","0","2","","","3540","56","1","2","win","no-go","0"
"pit-trial","178","1223342","0.0-61.0","battery-v0.2","","""event"",""trial"",""time""
""fullscreenenter"",""1"",""2646""
","
","
","""event"",""trial"",""time""
""fullscreenenter"",""1"",""2646""
","
","","","-1","","","11","3540","384","g","elianto","#f73b6a7A","-1","-1","1","0","[]","0","2","","","3540","57","3","4","lose","no-go","0"
"pit-trial","179","1227171","0.0-62.0","battery-v0.2","","""event"",""trial"",""time""
""fullscreenenter"",""1"",""2646""
","
","
","""event"",""trial"",""time""
""fullscreenenter"",""1"",""2646""
","
","","","960.5999999046326","","","11","3540","384","a","elianto","#f73b6a7A"," "," ","1","-10","[1817.5999999046326]","1","2","","","3540","58","2","3","lose","go","1"
"pit-trial","180","1231431","0.0-63.0","battery-v0.2","","""event"",""trial"",""time""
""fullscreenenter"",""1"",""2646""
","
","
","""event"",""trial"",""time""
""fullscreenenter"",""1"",""2646""
","
","","","1391.4000000953674","","","11","3540","384","p","elianto","#3366ff99"," "," ","1","0","[2243.5]","1","2","","","3540","59","4","1","win","go","1"
"pit-trial","181","1235885","0.0-64.0","battery-v0.2","","""event"",""trial"",""time""
""fullscreenenter"",""1"",""2646""
","
","
","""event"",""trial"",""time""
""fullscreenenter"",""1"",""2646""
","
","","","1588.1999998092651","","","11","3540","384","u","elianto","#f73b6a7A"," "," ","1","0","[2443.4000000953674]","1","2","","","3540","60","0","3","lose","go","0"
"pit-trial","182","1240756","0.0-65.0","battery-v0.2","","""event"",""trial"",""time""
""fullscreenenter"",""1"",""2646""
","
","
","""event"",""trial"",""time""
""fullscreenenter"",""1"",""2646""
","
","","","-1","","","11","3540","384","l","elianto","#3366ff99","-1","-1","1","0","[]","0","2","","","3540","61","1","2","win","no-go","1"
"pit-trial","183","1245630","0.0-66.0","battery-v0.2","","""event"",""trial"",""time""
""fullscreenenter"",""1"",""2646""
","
","
","""event"",""trial"",""time""
""fullscreenenter"",""1"",""2646""
","
","","","-1","","","11","3540","384","p","elianto","#3366ff99"," ","-1","0","0","[]","0","2","","","3540","62","4","1","win","go","0"
"pit-trial","184","1250510","0.0-67.0","battery-v0.2","","""event"",""trial"",""time""
""fullscreenenter"",""1"",""2646""
","
","
","""event"",""trial"",""time""
""fullscreenenter"",""1"",""2646""
","
","","","-1","","","11","3540","384","g","elianto","#f73b6a7A","-1","-1","1","0","[]","0","2","","","3540","63","3","4","lose","no-go","0"
"pit-trial","185","1254291","0.0-68.0","battery-v0.2","","""event"",""trial"",""time""
""fullscreenenter"",""1"",""2646""
","
","
","""event"",""trial"",""time""
""fullscreenenter"",""1"",""2646""
","
","","","911.6999998092651","","","11","3540","384","a","elianto","#f73b6a7A"," "," ","1","0","[1771]","1","2","","","3540","64","2","3","lose","go","0"
"pit-trial","186","1259161","0.0-69.0","battery-v0.2","","""event"",""trial"",""time""
""fullscreenenter"",""1"",""2646""
","
","
","""event"",""trial"",""time""
""fullscreenenter"",""1"",""2646""
","
","","","-1","","","11","3540","384","l","elianto","#3366ff99","-1","-1","1","+10","[]","0","2","","","3540","65","1","2","win","no-go","0"
"pit-trial","187","1263460","0.0-70.0","battery-v0.2","","""event"",""trial"",""time""
""fullscreenenter"",""1"",""2646""
","
","
","""event"",""trial"",""time""
""fullscreenenter"",""1"",""2646""
","
","","","1430.8000001907349","","","11","3540","384","s","elianto","#3366ff99","-1"," ","0","0","[2287.300000190735]","1","2","","","3540","66","5","2","win","no-go","0"
"pit-trial","188","1268337","0.0-71.0","battery-v0.2","","""event"",""trial"",""time""
""fullscreenenter"",""1"",""2646""
","
","
","""event"",""trial"",""time""
""fullscreenenter"",""1"",""2646""
","
","","","-1","","","11","3540","384","g","elianto","#f73b6a7A","-1","-1","1","0","[]","0","2","","","3540","67","3","4","lose","no-go","0"
"pit-trial","189","1273200","0.0-72.0","battery-v0.2","","""event"",""trial"",""time""
""fullscreenenter"",""1"",""2646""
","
","
","""event"",""trial"",""time""
""fullscreenenter"",""1"",""2646""
","
","","","-1","","","11","3540","384","p","elianto","#3366ff99"," ","-1","0","0","[]","0","2","","","3540","68","4","1","win","go","0"
"pit-trial","190","1277356","0.0-73.0","battery-v0.2","","""event"",""trial"",""time""
""fullscreenenter"",""1"",""2646""
","
","
","""event"",""trial"",""time""
""fullscreenenter"",""1"",""2646""
","
","","","1295.5","","","11","3540","384","s","elianto","#3366ff99","-1"," ","0","0","[2147.300000190735]","1","2","","","3540","69","5","2","win","no-go","0"
"pit-trial","191","1281482","0.0-74.0","battery-v0.2","","""event"",""trial"",""time""
""fullscreenenter"",""1"",""2646""
","
","
","""event"",""trial"",""time""
""fullscreenenter"",""1"",""2646""
","
","","","1258.3000001907349","","","11","3540","384","a","elianto","#f73b6a7A"," "," ","1","0","[2109.5]","1","2","","","3540","70","2","3","lose","go","0"
"pit-trial","192","1286374","0.0-75.0","battery-v0.2","","""event"",""trial"",""time""
""fullscreenenter"",""1"",""2646""
","
","
","""event"",""trial"",""time""
""fullscreenenter"",""1"",""2646""
","
","","","-1","","","11","3540","384","p","elianto","#3366ff99"," ","-1","0","0","[]","0","2","","","3540","71","4","1","win","go","0"
"pit-trial","193","1291243","0.0-76.0","battery-v0.2","","""event"",""trial"",""time""
""fullscreenenter"",""1"",""2646""
","
","
","""event"",""trial"",""time""
""fullscreenenter"",""1"",""2646""
","
","","","-1","","","11","3540","384","l","elianto","#3366ff99","-1","-1","1","+10","[]","0","2","","","3540","72","1","2","win","no-go","0"
"pit-trial","194","1295435","0.0-77.0","battery-v0.2","","""event"",""trial"",""time""
""fullscreenenter"",""1"",""2646""
","
","
","""event"",""trial"",""time""
""fullscreenenter"",""1"",""2646""
","
","","","1320.1000003814697","","","11","3540","384","s","elianto","#3366ff99","-1"," ","0","0","[2176,3370.5,3594,3867.3999996185303]","4","2","","","3540","73","5","2","win","no-go","0"
"pit-trial","195","1300299","0.0-78.0","battery-v0.2","","""event"",""trial"",""time""
""fullscreenenter"",""1"",""2646""
","
","
","""event"",""trial"",""time""
""fullscreenenter"",""1"",""2646""
","
","","","-1","","","11","3540","384","p","elianto","#3366ff99"," ","-1","0","0","[]","0","2","","","3540","74","4","1","win","go","0"
"pit-trial","196","1305162","0.0-79.0","battery-v0.2","","""event"",""trial"",""time""
""fullscreenenter"",""1"",""2646""
","
","
","""event"",""trial"",""time""
""fullscreenenter"",""1"",""2646""
","
","","","-1","","","11","3540","384","g","elianto","#f73b6a7A","-1","-1","1","0","[]","0","2","","","3540","75","3","4","lose","no-go","0"
"pit-trial","197","1310036","0.0-80.0","battery-v0.2","","""event"",""trial"",""time""
""fullscreenenter"",""1"",""2646""
","
","
","""event"",""trial"",""time""
""fullscreenenter"",""1"",""2646""
","
","","","-1","","","11","3540","384","l","elianto","#3366ff99","-1","-1","1","+10","[]","0","2","","","3540","76","1","2","win","no-go","0"
"pit-trial","198","1314031","0.0-81.0","battery-v0.2","","""event"",""trial"",""time""
""fullscreenenter"",""1"",""2646""
","
","
","""event"",""trial"",""time""
""fullscreenenter"",""1"",""2646""
","
","","","1126.5","","","11","3540","384","p","elianto","#3366ff99"," "," ","1","+10","[1979.5]","1","2","","","3540","77","4","1","win","go","0"
"pit-trial","199","1318380","0.0-82.0","battery-v0.2","","""event"",""trial"",""time""
""fullscreenenter"",""1"",""2646""
","
","
","""event"",""trial"",""time""
""fullscreenenter"",""1"",""2646""
","
","","","1485.2000002861023","","","11","3540","384","s","elianto","#3366ff99","-1"," ","0","0","[2341.5]","1","2","","","3540","78","5","2","win","no-go","0"
"pit-trial","200","1323242","0.0-83.0","battery-v0.2","","""event"",""trial"",""time""
""fullscreenenter"",""1"",""2646""
","
","
","""event"",""trial"",""time""
""fullscreenenter"",""1"",""2646""
","
","","","-1","","","11","3540","384","g","elianto","#f73b6a7A","-1","-1","1","0","[]","0","2","","","3540","79","3","4","lose","no-go","0"
"pit-trial","201","1327257","0.0-84.0","battery-v0.2","","""event"",""trial"",""time""
""fullscreenenter"",""1"",""2646""
","
","
","""event"",""trial"",""time""
""fullscreenenter"",""1"",""2646""
","
","","","1149.4000000953674","","","11","3540","384","p","elianto","#3366ff99"," "," ","1","0","[2004.3000001907349]","1","2","","","3540","80","4","1","win","go","1"
"pit-trial","202","1332129","0.0-85.0","battery-v0.2","","""event"",""trial"",""time""
""fullscreenenter"",""1"",""2646""
","
","
","""event"",""trial"",""time""
""fullscreenenter"",""1"",""2646""
","
","","","-1","","","11","3540","384","e","elianto","#f73b6a7A","-1","-1","1","0","[]","0","2","","","3540","81","7","4","lose","no-go","0"
"pit-trial","203","1336446","0.0-86.0","battery-v0.2","","""event"",""trial"",""time""
""fullscreenenter"",""1"",""2646""
","
","
","""event"",""trial"",""time""
""fullscreenenter"",""1"",""2646""
","
","","","1445.6999998092651","","","11","3540","384","s","elianto","#3366ff99","-1"," ","0","0","[2301.9000000953674,4093]","2","2","","","3540","82","5","2","win","no-go","0"
"pit-trial","204","1341319","0.0-87.0","battery-v0.2","","""event"",""trial"",""time""
""fullscreenenter"",""1"",""2646""
","
","
","""event"",""trial"",""time""
""fullscreenenter"",""1"",""2646""
","
","","","-1","","","11","3540","384","g","elianto","#f73b6a7A","-1","-1","1","0","[]","0","2","","","3540","83","3","4","lose","no-go","0"
"pit-trial","205","1344960","0.0-88.0","battery-v0.2","","""event"",""trial"",""time""
""fullscreenenter"",""1"",""2646""
","
","
","""event"",""trial"",""time""
""fullscreenenter"",""1"",""2646""
","
","","","778.1999998092651","","","11","3540","384","p","elianto","#3366ff99"," "," ","1","+10","[1633.0999999046326]","1","2","","","3540","84","4","1","win","go","0"
"pit-trial","206","1349825","0.0-89.0","battery-v0.2","","""event"",""trial"",""time""
""fullscreenenter"",""1"",""2646""
","
","
","""event"",""trial"",""time""
""fullscreenenter"",""1"",""2646""
","
","","","-1","","","11","3540","384","e","elianto","#f73b6a7A","-1","-1","1","0","[]","0","2","","","3540","85","7","4","lose","no-go","0"
"pit-trial","207","1354690","0.0-90.0","battery-v0.2","","""event"",""trial"",""time""
""fullscreenenter"",""1"",""2646""
","
","
","""event"",""trial"",""time""
""fullscreenenter"",""1"",""2646""
","
","","","-1","","","11","3540","384","s","elianto","#3366ff99","-1","-1","1","+10","[]","0","2","","","3540","86","5","2","win","no-go","0"
"pit-trial","208","1359558","0.0-91.0","battery-v0.2","","""event"",""trial"",""time""
""fullscreenenter"",""1"",""2646""
","
","
","""event"",""trial"",""time""
""fullscreenenter"",""1"",""2646""
","
","","","-1","","","11","3540","384","w","elianto","#f73b6a7A"," ","-1","0","0","[]","0","2","","","3540","87","6","3","lose","go","1"
"pit-trial","209","1363393","0.0-92.0","battery-v0.2","","""event"",""trial"",""time""
""fullscreenenter"",""1"",""2646""
","
","
","""event"",""trial"",""time""
""fullscreenenter"",""1"",""2646""
","
","","","969.0999999046326","","","11","3540","384","p","elianto","#3366ff99"," "," ","1","+10","[1825.8999996185303]","1","2","","","3540","88","4","1","win","go","0"
"pit-trial","210","1368272","0.0-93.0","battery-v0.2","","""event"",""trial"",""time""
""fullscreenenter"",""1"",""2646""
","
","
","""event"",""trial"",""time""
""fullscreenenter"",""1"",""2646""
","
","","","-1","","","11","3540","384","s","elianto","#3366ff99","-1","-1","1","0","[]","0","2","","","3540","89","5","2","win","no-go","1"
"pit-trial","211","1371961","0.0-94.0","battery-v0.2","","""event"",""trial"",""time""
""fullscreenenter"",""1"",""2646""
","
","
","""event"",""trial"",""time""
""fullscreenenter"",""1"",""2646""
","
","","","812.5","","","11","3540","384","p","elianto","#3366ff99"," "," ","1","0","[1671.0999999046326,3347.9000000953674]","2","2","","","3540","90","4","1","win","go","1"
"pit-trial","212","1376831","0.0-95.0","battery-v0.2","","""event"",""trial"",""time""
""fullscreenenter"",""1"",""2646""
","
","
","""event"",""trial"",""time""
""fullscreenenter"",""1"",""2646""
","
","","","-1","","","11","3540","384","w","elianto","#f73b6a7A"," ","-1","0","-10","[]","0","2","","","3540","91","6","3","lose","go","0"
"pit-trial","213","1381703","0.0-96.0","battery-v0.2","","""event"",""trial"",""time""
""fullscreenenter"",""1"",""2646""
","
","
","""event"",""trial"",""time""
""fullscreenenter"",""1"",""2646""
","
","","","-1","","","11","3540","384","e","elianto","#f73b6a7A","-1","-1","1","0","[]","0","2","","","3540","92","7","4","lose","no-go","0"
"pit-trial","214","1386576","0.0-97.0","battery-v0.2","","""event"",""trial"",""time""
""fullscreenenter"",""1"",""2646""
","
","
","""event"",""trial"",""time""
""fullscreenenter"",""1"",""2646""
","
","","","-1","","","11","3540","384","e","elianto","#f73b6a7A","-1","-1","1","0","[]","0","2","","","3540","93","7","4","lose","no-go","0"
"pit-trial","215","1391158","0.0-98.0","battery-v0.2","","""event"",""trial"",""time""
""fullscreenenter"",""1"",""2646""
","
","
","""event"",""trial"",""time""
""fullscreenenter"",""1"",""2646""
","
","","","1712.4000000953674","","","11","3540","384","d","elianto","#3366ff99"," "," ","1","+10","[2565.0999999046326]","1","2","","","3540","94","8","1","win","go","0"
"pit-trial","216","1396033","0.0-99.0","battery-v0.2","","""event"",""trial"",""time""
""fullscreenenter"",""1"",""2646""
","
","
","""event"",""trial"",""time""
""fullscreenenter"",""1"",""2646""
","
","","","-1","","","11","3540","384","s","elianto","#3366ff99","-1","-1","1","+10","[]","0","2","","","3540","95","5","2","win","no-go","0"
"pit-trial","217","1400900","0.0-100.0","battery-v0.2","","""event"",""trial"",""time""
""fullscreenenter"",""1"",""2646""
","
","
","""event"",""trial"",""time""
""fullscreenenter"",""1"",""2646""
","
","","","-1","","","11","3540","384","w","elianto","#f73b6a7A"," ","-1","0","-10","[]","0","2","","","3540","96","6","3","lose","go","0"
"pit-trial","218","1405771","0.0-101.0","battery-v0.2","","""event"",""trial"",""time""
""fullscreenenter"",""1"",""2646""
","
","
","""event"",""trial"",""time""
""fullscreenenter"",""1"",""2646""
","
","","","-1","","","11","3540","384","e","elianto","#f73b6a7A","-1","-1","1","0","[]","0","2","","","3540","97","7","4","lose","no-go","0"
"pit-trial","219","1410652","0.0-102.0","battery-v0.2","","""event"",""trial"",""time""
""fullscreenenter"",""1"",""2646""
","
","
","""event"",""trial"",""time""
""fullscreenenter"",""1"",""2646""
","
","","","-1","","","11","3540","384","w","elianto","#f73b6a7A"," ","-1","0","-10","[3510.4000000953674]","1","2","","","3540","98","6","3","lose","go","0"
"pit-trial","220","1415041","0.0-103.0","battery-v0.2","","""event"",""trial"",""time""
""fullscreenenter"",""1"",""2646""
","
","
","""event"",""trial"",""time""
""fullscreenenter"",""1"",""2646""
","
","","","1516.5","","","11","3540","384","d","elianto","#3366ff99"," "," ","1","+10","[2376.4000000953674]","1","2","","","3540","99","8","1","win","go","0"
"pit-trial","221","1419908","0.0-104.0","battery-v0.2","","""event"",""trial"",""time""
""fullscreenenter"",""1"",""2646""
","
","
","""event"",""trial"",""time""
""fullscreenenter"",""1"",""2646""
","
","","","-1","","","11","3540","384","s","elianto","#3366ff99","-1","-1","1","+10","[]","0","2","","","3540","100","5","2","win","no-go","0"
"pit-trial","222","1424783","0.0-105.0","battery-v0.2","","""event"",""trial"",""time""
""fullscreenenter"",""1"",""2646""
","
","
","""event"",""trial"",""time""
""fullscreenenter"",""1"",""2646""
","
","","","-1","","","11","3540","384","j","elianto","#3366ff99"," ","-1","0","0","[]","0","2","","","3540","101","9","1","win","go","0"
"pit-trial","223","1429648","0.0-106.0","battery-v0.2","","""event"",""trial"",""time""
""fullscreenenter"",""1"",""2646""
","
","
","""event"",""trial"",""time""
""fullscreenenter"",""1"",""2646""
","
","","","-1","","","11","3540","384","e","elianto","#f73b6a7A","-1","-1","1","0","[]","0","2","","","3540","102","7","4","lose","no-go","0"
"pit-trial","224","1434527","0.0-107.0","battery-v0.2","","""event"",""trial"",""time""
""fullscreenenter"",""1"",""2646""
","
","
","""event"",""trial"",""time""
""fullscreenenter"",""1"",""2646""
","
","","","-1","","","11","3540","384","s","elianto","#3366ff99","-1","-1","1","+10","[]","0","2","","","3540","103","5","2","win","no-go","0"
"pit-trial","225","1438705","0.0-108.0","battery-v0.2","","""event"",""trial"",""time""
""fullscreenenter"",""1"",""2646""
","
","
","""event"",""trial"",""time""
""fullscreenenter"",""1"",""2646""
","
","","","1307.3999996185303","","","11","3540","384","d","elianto","#3366ff99"," "," ","1","0","[2158.8999996185303]","1","2","","","3540","104","8","1","win","go","1"
"pit-trial","226","1443570","0.0-109.0","battery-v0.2","","""event"",""trial"",""time""
""fullscreenenter"",""1"",""2646""
","
","
","""event"",""trial"",""time""
""fullscreenenter"",""1"",""2646""
","
","","","-1","","","11","3540","384","d","elianto","#3366ff99"," ","-1","0","0","[]","0","2","","","3540","105","8","1","win","go","0"
"pit-trial","227","1448441","0.0-110.0","battery-v0.2","","""event"",""trial"",""time""
""fullscreenenter"",""1"",""2646""
","
","
","""event"",""trial"",""time""
""fullscreenenter"",""1"",""2646""
","
","","","-1","","","11","3540","384","w","elianto","#f73b6a7A"," ","-1","0","-10","[4522.699999809265]","1","2","","","3540","106","6","3","lose","go","0"
"pit-trial","228","1452493","0.0-111.0","battery-v0.2","","""event"",""trial"",""time""
""fullscreenenter"",""1"",""2646""
","
","
","""event"",""trial"",""time""
""fullscreenenter"",""1"",""2646""
","
","","","1184.5","","","11","3540","384","p","elianto","#3366ff99"," "," ","1","+10","[2038.0999999046326]","1","2","","","3540","107","4","1","win","go","0"
"pit-trial","229","1457376","0.0-112.0","battery-v0.2","","""event"",""trial"",""time""
""fullscreenenter"",""1"",""2646""
","
","
","""event"",""trial"",""time""
""fullscreenenter"",""1"",""2646""
","
","","","-1","","","11","3540","384","j","elianto","#3366ff99"," ","-1","0","0","[4303.799999713898]","1","2","","","3540","108","9","1","win","go","0"
"pit-trial","230","1462245","0.0-113.0","battery-v0.2","","""event"",""trial"",""time""
""fullscreenenter"",""1"",""2646""
","
","
","""event"",""trial"",""time""
""fullscreenenter"",""1"",""2646""
","
","","","-1","","","11","3540","384","d","elianto","#3366ff99"," ","-1","0","0","[3563,3874.800000190735,4339.400000095367]","3","2","","","3540","109","8","1","win","go","0"
"pit-trial","231","1466215","0.0-114.0","battery-v0.2","","""event"",""trial"",""time""
""fullscreenenter"",""1"",""2646""
","
","
","""event"",""trial"",""time""
""fullscreenenter"",""1"",""2646""
","
","","","1101","","","11","3540","384","w","elianto","#f73b6a7A"," "," ","1","-10","[1953.5999999046326,3333.5999999046326,3694]","3","2","","","3540","110","6","3","lose","go","1"
"pit-trial","232","1470557","0.0-115.0","battery-v0.2","","""event"",""trial"",""time""
""fullscreenenter"",""1"",""2646""
","
","
","""event"",""trial"",""time""
""fullscreenenter"",""1"",""2646""
","
","","","1464.5","","","11","3540","384","j","elianto","#3366ff99"," "," ","1","+10","[49.200000286102295,384,810.8000001907349,2326.4000000953674]","4","2","","","3540","111","9","1","win","go","0"
"pit-trial","233","1475437","0.0-116.0","battery-v0.2","","""event"",""trial"",""time""
""fullscreenenter"",""1"",""2646""
","
","
","""event"",""trial"",""time""
""fullscreenenter"",""1"",""2646""
","
","","","-1","","","11","3540","384","s","elianto","#3366ff99","-1","-1","1","+10","[]","0","2","","","3540","112","5","2","win","no-go","0"
"pit-trial","234","1480305","0.0-117.0","battery-v0.2","","""event"",""trial"",""time""
""fullscreenenter"",""1"",""2646""
","
","
","""event"",""trial"",""time""
""fullscreenenter"",""1"",""2646""
","
","","","-1","","","11","3540","384","s","elianto","#3366ff99","-1","-1","1","0","[]","0","2","","","3540","113","5","2","win","no-go","1"
"pit-trial","235","1485171","0.0-118.0","battery-v0.2","","""event"",""trial"",""time""
""fullscreenenter"",""1"",""2646""
","
","
","""event"",""trial"",""time""
""fullscreenenter"",""1"",""2646""
","
","","","-1","","","11","3540","384","w","elianto","#f73b6a7A"," ","-1","0","-10","[]","0","2","","","3540","114","6","3","lose","go","0"
"pit-trial","236","1490041","0.0-119.0","battery-v0.2","","""event"",""trial"",""time""
""fullscreenenter"",""1"",""2646""
","
","
","""event"",""trial"",""time""
""fullscreenenter"",""1"",""2646""
","
","","","-1","","","11","3540","384","j","elianto","#3366ff99"," ","-1","0","0","[]","0","2","","","3540","115","9","1","win","go","0"
"pit-trial","237","1494905","0.0-120.0","battery-v0.2","","""event"",""trial"",""time""
""fullscreenenter"",""1"",""2646""
","
","
","""event"",""trial"",""time""
""fullscreenenter"",""1"",""2646""
","
","","","-1","","","11","3540","384","d","elianto","#3366ff99"," ","-1","0","+10","[]","0","2","","","3540","116","8","1","win","go","1"
"pit-trial","238","1499775","0.0-121.0","battery-v0.2","","""event"",""trial"",""time""
""fullscreenenter"",""1"",""2646""
","
","
","""event"",""trial"",""time""
""fullscreenenter"",""1"",""2646""
","
","","","-1","","","11","3540","384","s","elianto","#3366ff99","-1","-1","1","+10","[]","0","2","","","3540","117","5","2","win","no-go","0"
"pit-trial","239","1503758","0.0-122.0","battery-v0.2","","""event"",""trial"",""time""
""fullscreenenter"",""1"",""2646""
","
","
","""event"",""trial"",""time""
""fullscreenenter"",""1"",""2646""
","
","","","1113.8999996185303","","","11","3540","384","d","elianto","#3366ff99"," "," ","1","0","[1964.5]","1","2","","","3540","118","8","1","win","go","1"
"pit-trial","240","1508634","0.0-123.0","battery-v0.2","","""event"",""trial"",""time""
""fullscreenenter"",""1"",""2646""
","
","
","""event"",""trial"",""time""
""fullscreenenter"",""1"",""2646""
","
","","","-1","","","11","3540","384","j","elianto","#3366ff99"," ","-1","0","0","[]","0","2","","","3540","119","9","1","win","go","0"
"pit-trial","241","1512777","0.0-124.0","battery-v0.2","","""event"",""trial"",""time""
""fullscreenenter"",""1"",""2646""
","
","
","""event"",""trial"",""time""
""fullscreenenter"",""1"",""2646""
","
","","","1263.9000000953674","","","11","3540","384","w","elianto","#f73b6a7A"," "," ","1","-10","[2117.4000000953674]","1","2","","","3540","120","6","3","lose","go","1"
"pit-trial","242","1516832","0.0-125.0","battery-v0.2","","""event"",""trial"",""time""
""fullscreenenter"",""1"",""2646""
","
","
","""event"",""trial"",""time""
""fullscreenenter"",""1"",""2646""
","
","","","1195.1999998092651","","","11","3540","384","d","elianto","#3366ff99"," "," ","1","+10","[2046.5]","1","2","","","3540","121","8","1","win","go","0"
"pit-trial","243","1521699","0.0-126.0","battery-v0.2","","""event"",""trial"",""time""
""fullscreenenter"",""1"",""2646""
","
","
","""event"",""trial"",""time""
""fullscreenenter"",""1"",""2646""
","
","","","-1","","","11","3540","384","e","elianto","#f73b6a7A","-1","-1","1","-10","[]","0","2","","","3540","122","7","4","lose","no-go","1"
"pit-trial","244","1526571","0.0-127.0","battery-v0.2","","""event"",""trial"",""time""
""fullscreenenter"",""1"",""2646""
","
","
","""event"",""trial"",""time""
""fullscreenenter"",""1"",""2646""
","
","","","-1","","","11","3540","384","w","elianto","#f73b6a7A"," ","-1","0","-10","[]","0","2","","","3540","123","6","3","lose","go","0"
"pit-trial","245","1531443","0.0-128.0","battery-v0.2","","""event"",""trial"",""time""
""fullscreenenter"",""1"",""2646""
","
","
","""event"",""trial"",""time""
""fullscreenenter"",""1"",""2646""
","
","","","-1","","","11","3540","384","j","elianto","#3366ff99"," ","-1","0","0","[3323.5,3888.0999999046326,4084.199999809265,4267]","4","2","","","3540","124","9","1","win","go","0"
"pit-trial","246","1535011","0.0-129.0","battery-v0.2","","""event"",""trial"",""time""
""fullscreenenter"",""1"",""2646""
","
","
","""event"",""trial"",""time""
""fullscreenenter"",""1"",""2646""
","
","","","708.7000002861023","","","11","3540","384","j","elianto","#3366ff99"," "," ","1","+10","[1562]","1","2","","","3540","125","9","1","win","go","0"
"pit-trial","247","1538902","0.0-130.0","battery-v0.2","","""event"",""trial"",""time""
""fullscreenenter"",""1"",""2646""
","
","
","""event"",""trial"",""time""
""fullscreenenter"",""1"",""2646""
","
","","","1031.3000001907349","","","11","3540","384","d","elianto","#3366ff99"," "," ","1","+10","[1883.6000003814697]","1","2","","","3540","126","8","1","win","go","0"
"pit-trial","248","1543785","0.0-131.0","battery-v0.2","","""event"",""trial"",""time""
""fullscreenenter"",""1"",""2646""
","
","
","""event"",""trial"",""time""
""fullscreenenter"",""1"",""2646""
","
","","","-1","","","11","3540","384","e","elianto","#f73b6a7A","-1","-1","1","0","[]","0","2","","","3540","127","7","4","lose","no-go","0"
"pit-trial","249","1548656","0.0-132.0","battery-v0.2","","""event"",""trial"",""time""
""fullscreenenter"",""1"",""2646""
","
","
","""event"",""trial"",""time""
""fullscreenenter"",""1"",""2646""
","
","","","-1","","","11","3540","384","w","elianto","#f73b6a7A"," ","-1","0","-10","[]","0","2","","","3540","128","6","3","lose","go","0"
"pit-trial","250","1553528","0.0-133.0","battery-v0.2","","""event"",""trial"",""time""
""fullscreenenter"",""1"",""2646""
","
","
","""event"",""trial"",""time""
""fullscreenenter"",""1"",""2646""
","
","","","-1","","","11","3540","384","e","elianto","#f73b6a7A","-1","-1","1","0","[]","0","2","","","3540","129","7","4","lose","no-go","0"
"pit-trial","251","1557667","0.0-134.0","battery-v0.2","","""event"",""trial"",""time""
""fullscreenenter"",""1"",""2646""
","
","
","""event"",""trial"",""time""
""fullscreenenter"",""1"",""2646""
","
","","","1267.9000000953674","","","11","3540","384","j","elianto","#3366ff99"," "," ","1","+10","[2119]","1","2","","","3540","130","9","1","win","go","0"
"pit-trial","252","1561877","0.0-135.0","battery-v0.2","","""event"",""trial"",""time""
""fullscreenenter"",""1"",""2646""
","
","
","""event"",""trial"",""time""
""fullscreenenter"",""1"",""2646""
","
","","","1337.3000001907349","","","11","3540","384","d","elianto","#3366ff99"," "," ","1","+10","[2197.800000190735]","1","2","","","3540","131","8","1","win","go","0"
"pit-trial","253","1565452","0.0-136.0","battery-v0.2","","""event"",""trial"",""time""
""fullscreenenter"",""1"",""2646""
","
","
","""event"",""trial"",""time""
""fullscreenenter"",""1"",""2646""
","
","","","711.4000000953674","","","11","3540","384","w","elianto","#f73b6a7A"," "," ","1","0","[1564.2000002861023]","1","2","","","3540","132","6","3","lose","go","0"
"pit-trial","254","1569171","0.0-137.0","battery-v0.2","","""event"",""trial"",""time""
""fullscreenenter"",""1"",""2646""
","
","
","""event"",""trial"",""time""
""fullscreenenter"",""1"",""2646""
","
","","","856.5999999046326","","","11","3540","384","d","elianto","#3366ff99"," "," ","1","+10","[1711.2999997138977]","1","2","","","3540","133","8","1","win","go","0"
"pit-trial","255","1574040","0.0-138.0","battery-v0.2","","""event"",""trial"",""time""
""fullscreenenter"",""1"",""2646""
","
","
","""event"",""trial"",""time""
""fullscreenenter"",""1"",""2646""
","
","","","-1","","","11","3540","384","e","elianto","#f73b6a7A","-1","-1","1","-10","[]","0","2","","","3540","134","7","4","lose","no-go","1"
"pit-trial","256","1577666","0.0-139.0","battery-v0.2","","""event"",""trial"",""time""
""fullscreenenter"",""1"",""2646""
","
","
","""event"",""trial"",""time""
""fullscreenenter"",""1"",""2646""
","
","","","765.4000000953674","","","11","3540","384","j","elianto","#3366ff99"," "," ","1","0","[1616.3000001907349]","1","2","","","3540","135","9","1","win","go","1"
"pit-trial","257","1581427","0.0-140.0","battery-v0.2","","""event"",""trial"",""time""
""fullscreenenter"",""1"",""2646""
","
","
","""event"",""trial"",""time""
""fullscreenenter"",""1"",""2646""
","
","","","882.7000002861023","","","11","3540","384","w","elianto","#f73b6a7A"," "," ","1","0","[1741.9000000953674]","1","2","","","3540","136","6","3","lose","go","0"
"pit-trial","258","1585114","0.0-141.0","battery-v0.2","","""event"",""trial"",""time""
""fullscreenenter"",""1"",""2646""
","
","
","""event"",""trial"",""time""
""fullscreenenter"",""1"",""2646""
","
","","","826","","","11","3540","384","j","elianto","#3366ff99"," "," ","1","+10","[1677.1000003814697]","1","2","","","3540","137","9","1","win","go","0"
"pit-trial","259","1588781","0.0-142.0","battery-v0.2","","""event"",""trial"",""time""
""fullscreenenter"",""1"",""2646""
","
","
","""event"",""trial"",""time""
""fullscreenenter"",""1"",""2646""
","
","","","800.3000001907349","","","11","3540","384","w","elianto","#f73b6a7A"," "," ","1","0","[1655]","1","2","","","3540","138","6","3","lose","go","0"
"pit-trial","260","1593649","0.0-143.0","battery-v0.2","","""event"",""trial"",""time""
""fullscreenenter"",""1"",""2646""
","
","
","""event"",""trial"",""time""
""fullscreenenter"",""1"",""2646""
","
","","","-1","","","11","3540","384","e","elianto","#f73b6a7A","-1","-1","1","0","[]","0","2","","","3540","139","7","4","lose","no-go","0"
"pit-trial","261","1597424","0.0-144.0","battery-v0.2","","""event"",""trial"",""time""
""fullscreenenter"",""1"",""2646""
","
","
","""event"",""trial"",""time""
""fullscreenenter"",""1"",""2646""
","
","","","909.8000001907349","","","11","3540","384","d","elianto","#3366ff99"," "," ","1","+10","[1765.4000000953674]","1","2","","","3540","140","8","1","win","go","0"
"pit-instructions","262","1620328","0.0-145.0","battery-v0.2","","""event"",""trial"",""time""
""fullscreenenter"",""1"",""2646""
","
","
","""event"",""trial"",""time""
""fullscreenenter"",""1"",""2646""
","
","","[{""page_index"":0,""viewing_time"":14604.700000286102},{""page_index"":1,""viewing_time"":8295.299999713898}]","22900.5","","","","","","","","","","","","","","","","","","","","","","","",""
"pit-trial","263","1625216","0.0-146.0","battery-v0.2","","""event"",""trial"",""time""
""fullscreenenter"",""1"",""2646""
","
","
","""event"",""trial"",""time""
""fullscreenenter"",""1"",""2646""
","
","","","-1","","","11","3540","384","y","elianto","#f73b6a7A","-1","-1","1","-10","[]","0","3","","","3540","141","2","4","lose","no-go","1"
"pit-trial","264","1628967","0.0-147.0","battery-v0.2","","""event"",""trial"",""time""
""fullscreenenter"",""1"",""2646""
","
","
","""event"",""trial"",""time""
""fullscreenenter"",""1"",""2646""
","
","","","879.5","","","11","3540","384","r","elianto","#3366ff99"," "," ","1","+10","[1730.4000000953674]","1","3","","","3540","142","1","1","win","go","0"
"pit-trial","265","1633858","0.0-148.0","battery-v0.2","","""event"",""trial"",""time""
""fullscreenenter"",""1"",""2646""
","
","
","""event"",""trial"",""time""
""fullscreenenter"",""1"",""2646""
","
","","","-1","","","11","3540","384","m","elianto","#f73b6a7A","-1","-1","1","-10","[]","0","3","","","3540","143","0","4","lose","no-go","1"
"pit-trial","266","1637638","0.0-149.0","battery-v0.2","","""event"",""trial"",""time""
""fullscreenenter"",""1"",""2646""
","
","
","""event"",""trial"",""time""
""fullscreenenter"",""1"",""2646""
","
","","","918.7999997138977","","","11","3540","384","h","elianto","#f73b6a7A"," "," ","1","0","[1773.5]","1","3","","","3540","144","3","3","lose","go","0"
"pit-trial","267","1641742","0.0-150.0","battery-v0.2","","""event"",""trial"",""time""
""fullscreenenter"",""1"",""2646""
","
","
","""event"",""trial"",""time""
""fullscreenenter"",""1"",""2646""
","
","","","1232.7999997138977","","","11","3540","384","m","elianto","#f73b6a7A","-1"," ","0","-10","[2087.7999997138977]","1","3","","","3540","145","0","4","lose","no-go","0"
"pit-trial","268","1646629","0.0-151.0","battery-v0.2","","""event"",""trial"",""time""
""fullscreenenter"",""1"",""2646""
","
","
","""event"",""trial"",""time""
""fullscreenenter"",""1"",""2646""
","
","","","-1","","","11","3540","384","h","elianto","#f73b6a7A"," ","-1","0","0","[2875.800000190735]","1","3","","","3540","146","3","3","lose","go","1"
