"trial_type","trial_index","time_elapsed","internal_node_id","task_version","subject_id","interactions","blur_events","focus_events","fullscreenenter_events","fullscreenexit_events","success","view_history","rt","responses","num_errors","age","subject","participantId","rune","rune_set","hex","correct","choice","accuracy","outcome","keys","total_keys","block","practice","value","sub","trial","stimulus","robot","valence","action","sham"
"pavlovia","0","15","0.0-0.0","battery-v0.2","","""event"",""trial"",""time""
""fullscreenenter"",""1"",""4180""
","
","
","""event"",""trial"",""time""
""fullscreenenter"",""1"",""4180""
","
","","","","","","","","","","","","","","","","","","","","","","","","","","",""
"fullscreen","1","5150","0.0-1.0","battery-v0.2","","""event"",""trial"",""time""
""fullscreenenter"",""1"",""4180""
","
","
","""event"",""trial"",""time""
""fullscreenenter"",""1"",""4180""
","
","true","","","","","","","","","","","","","","","","","","","","","","","","","",""
"pit-instructions","2","27728","0.0-2.0-0.0","battery-v0.2","","""event"",""trial"",""time""
""fullscreenenter"",""1"",""4180""
","
","
","""event"",""trial"",""time""
""fullscreenenter"",""1"",""4180""
","
","","[{""page_index"":0,""viewing_time"":22570.39999985695}]","22570.799999952316","","","","","","","","","","","","","","","","","","","","","","","",""
"pit-comprehension","3","32130","0.0-2.0-1.0-0.0","battery-v0.2","","""event"",""trial"",""time""
""fullscreenenter"",""1"",""4180""
","
","
","""event"",""trial"",""time""
""fullscreenenter"",""1"",""4180""
","
","","","4397.700000047684","[""shark""]","0","12","13752","2400","","","","","","","","","","","","","","","","","","",""
"pit-instructions","4","35158","0.0-2.0-1.0-1.0","battery-v0.2","","""event"",""trial"",""time""
""fullscreenenter"",""1"",""4180""
","
","
","""event"",""trial"",""time""
""fullscreenenter"",""1"",""4180""
","
","","[{""page_index"":0,""viewing_time"":3017}]","3017.2999999523163","","","","","","","","","","","","","","","","","","","","","","","",""
"pit-comprehension","5","38368","0.0-2.0-2.0-0.0","battery-v0.2","","""event"",""trial"",""time""
""fullscreenenter"",""1"",""4180""
","
","
","""event"",""trial"",""time""
""fullscreenenter"",""1"",""4180""
","
","","","3206.4000000953674","[""tiger""]","0","12","13752","2400","","","","","","","","","","","","","","","","","","",""
"pit-instructions","6","41575","0.0-2.0-2.0-1.0","battery-v0.2","","""event"",""trial"",""time""
""fullscreenenter"",""1"",""4180""
","
","
","""event"",""trial"",""time""
""fullscreenenter"",""1"",""4180""
","
","","[{""page_index"":0,""viewing_time"":3202.7999999523163}]","3203","","","","","","","","","","","","","","","","","","","","","","","",""
"pit-instructions","7","137209","0.0-2.0-3.0","battery-v0.2","","""event"",""trial"",""time""
""fullscreenenter"",""1"",""4180""
","
","
","""event"",""trial"",""time""
""fullscreenenter"",""1"",""4180""
","
","","[{""page_index"":0,""viewing_time"":7981.700000047684},{""page_index"":1,""viewing_time"":6253.400000095367},{""page_index"":2,""viewing_time"":6542},{""page_index"":3,""viewing_time"":6335},{""page_index"":4,""viewing_time"":6128},{""page_index"":5,""viewing_time"":5581.099999904633},{""page_index"":6,""viewing_time"":6815.600000143051},{""page_index"":7,""viewing_time"":6807.5},{""page_index"":8,""viewing_time"":7103.099999904633},{""page_index"":9,""viewing_time"":7975.5},{""page_index"":10,""viewing_time"":8559.099999904633},{""page_index"":11,""viewing_time"":6940.100000143051},{""page_index"":12,""viewing_time"":7051.099999904633},{""page_index"":13,""viewing_time"":5557.900000095367}]","95631.40000009537","","","","","","","","","","","","","","","","","","","","","","","",""
"pit-trial","8","140708","0.0-2.0-4.0-0.0","battery-v0.2","","""event"",""trial"",""time""
""fullscreenenter"",""1"",""4180""
","
","
","""event"",""trial"",""time""
""fullscreenenter"",""1"",""4180""
","
","","","640.0999999046326","","","12","13752","2400","&#9784;","elianto","#FFFFF080"," "," ","1","&#10004","[1490.3999998569489]","1","0","0","","","","","","","",""
"pit-trial","9","144149","0.0-2.0-4.1-0.1","battery-v0.2","","""event"",""trial"",""time""
""fullscreenenter"",""1"",""4180""
","
","
","""event"",""trial"",""time""
""fullscreenenter"",""1"",""4180""
","
","","","582.5","","","12","13752","2400","&#9784;","elianto","#FFFFF080"," "," ","1","&#10004","[1433.2999999523163]","1","0","0","","","","","","","",""
"pit-trial","10","147618","0.0-2.0-4.2-0.2","battery-v0.2","","""event"",""trial"",""time""
""fullscreenenter"",""1"",""4180""
","
","
","""event"",""trial"",""time""
""fullscreenenter"",""1"",""4180""
","
","","","609.7000000476837","","","12","13752","2400","&#9784;","elianto","#FFFFF080"," "," ","1","&#10004","[1465.8999998569489]","1","0","0","","","","","","","",""
"pit-trial","11","151038","0.0-2.0-4.3-0.3","battery-v0.2","","""event"",""trial"",""time""
""fullscreenenter"",""1"",""4180""
","
","
","""event"",""trial"",""time""
""fullscreenenter"",""1"",""4180""
","
","","","551.6000001430511","","","12","13752","2400","&#9784;","elianto","#FFFFF080"," "," ","1","&#10004","[1404.5999999046326]","1","0","0","","","","","","","",""
"pit-trial","12","154428","0.0-2.0-4.4-0.4","battery-v0.2","","""event"",""trial"",""time""
""fullscreenenter"",""1"",""4180""
","
","
","""event"",""trial"",""time""
""fullscreenenter"",""1"",""4180""
","
","","","520.2999999523163","","","12","13752","2400","&#9784;","elianto","#FFFFF080"," "," ","1","&#10004","[1375.7999999523163]","1","0","0","","","","","","","",""
"pit-instructions","13","176507","0.0-2.0-5.0","battery-v0.2","","""event"",""trial"",""time""
""fullscreenenter"",""1"",""4180""
","
","
","""event"",""trial"",""time""
""fullscreenenter"",""1"",""4180""
","
","","[{""page_index"":0,""viewing_time"":5109.099999904633},{""page_index"":1,""viewing_time"":5283.599999904633},{""page_index"":2,""viewing_time"":5409.900000095367},{""page_index"":3,""viewing_time"":6273.900000095367}]","22076.699999809265","","","","","","","","","","","","","","","","","","","","","","","",""
"pit-trial","14","181378","0.0-2.0-6.0-0.0","battery-v0.2","","""event"",""trial"",""time""
""fullscreenenter"",""1"",""4180""
","
","
","""event"",""trial"",""time""
""fullscreenenter"",""1"",""4180""
","
","","","-1","","","12","13752","2400","&#9854;","elianto","#FFFFF080","-1","-1","1","&#10004","[]","0","0","1","","","","","","","",""
"pit-trial","15","186247","0.0-2.0-6.1-0.1","battery-v0.2","","""event"",""trial"",""time""
""fullscreenenter"",""1"",""4180""
","
","
","""event"",""trial"",""time""
""fullscreenenter"",""1"",""4180""
","
","","","-1","","","12","13752","2400","&#9854;","elianto","#FFFFF080","-1","-1","1","&#10004","[]","0","0","1","","","","","","","",""
"pit-trial","16","191137","0.0-2.0-6.2-0.2","battery-v0.2","","""event"",""trial"",""time""
""fullscreenenter"",""1"",""4180""
","
","
","""event"",""trial"",""time""
""fullscreenenter"",""1"",""4180""
","
","","","-1","","","12","13752","2400","&#9854;","elianto","#FFFFF080","-1","-1","1","&#10004","[]","0","0","1","","","","","","","",""
"pit-trial","17","196007","0.0-2.0-6.3-0.3","battery-v0.2","","""event"",""trial"",""time""
""fullscreenenter"",""1"",""4180""
","
","
","""event"",""trial"",""time""
""fullscreenenter"",""1"",""4180""
","
","","","-1","","","12","13752","2400","&#9854;","elianto","#FFFFF080","-1","-1","1","&#10004","[]","0","0","1","","","","","","","",""
"pit-trial","18","200888","0.0-2.0-6.4-0.4","battery-v0.2","","""event"",""trial"",""time""
""fullscreenenter"",""1"",""4180""
","
","
","""event"",""trial"",""time""
""fullscreenenter"",""1"",""4180""
","
","","","-1","","","12","13752","2400","&#9854;","elianto","#FFFFF080","-1","-1","1","&#10004","[]","0","0","1","","","","","","","",""
"pit-instructions","19","317062","0.0-2.0-7.0","battery-v0.2","","""event"",""trial"",""time""
""fullscreenenter"",""1"",""4180""
","
","
","""event"",""trial"",""time""
""fullscreenenter"",""1"",""4180""
","
","","[{""page_index"":0,""viewing_time"":5866.599999904633},{""page_index"":1,""viewing_time"":7234.100000143051},{""page_index"":2,""viewing_time"":6280.899999856949},{""page_index"":3,""viewing_time"":6664.900000095367},{""page_index"":4,""viewing_time"":6450},{""page_index"":5,""viewing_time"":5645},{""page_index"":6,""viewing_time"":4721.599999904633},{""page_index"":7,""viewing_time"":7661.400000095367},{""page_index"":8,""viewing_time"":6797.200000047684},{""page_index"":9,""viewing_time"":5991.599999904633},{""page_index"":10,""viewing_time"":6656.299999952316},{""page_index"":11,""viewing_time"":4572.799999952316},{""page_index"":12,""viewing_time"":7099.5},{""page_index"":13,""viewing_time"":7372.900000095367},{""page_index"":14,""viewing_time"":7203.400000095367},{""page_index"":15,""viewing_time"":6419.399999856949},{""page_index"":16,""viewing_time"":6581.799999952316},{""page_index"":17,""viewing_time"":6952.100000143051}]","116171.79999995232","","","","","","","","","","","","","","","","","","","","","","","",""
"pit-trial","20","320542","0.0-2.0-8.0-0.0","battery-v0.2","","""event"",""trial"",""time""
""fullscreenenter"",""1"",""4180""
","
","
","""event"",""trial"",""time""
""fullscreenenter"",""1"",""4180""
","
","","","614.5999999046326","","","12","13752","2400","&#9776;","elianto","#3366ff99"," "," ","1","+10","[1460.9000000953674]","1","0","1","","","","","","","",""
"pit-trial","21","323877","0.0-2.0-8.0-1.0","battery-v0.2","","""event"",""trial"",""time""
""fullscreenenter"",""1"",""4180""
","
","
","""event"",""trial"",""time""
""fullscreenenter"",""1"",""4180""
","
","","","466.2000000476837","","","12","13752","2400","&#9776;","elianto","#3366ff99"," "," ","1","+10","[1322.2000000476837]","1","0","1","","","","","","","",""
"pit-trial","22","327227","0.0-2.0-8.0-2.0","battery-v0.2","","""event"",""trial"",""time""
""fullscreenenter"",""1"",""4180""
","
","
","""event"",""trial"",""time""
""fullscreenenter"",""1"",""4180""
","
","","","473.10000014305115","","","12","13752","2400","&#9776;","elianto","#3366ff99"," "," ","1","+10","[1327.4000000953674]","1","0","1","","","","","","","",""
"pit-trial","23","330677","0.0-2.0-8.0-3.0","battery-v0.2","","""event"",""trial"",""time""
""fullscreenenter"",""1"",""4180""
","
","
","""event"",""trial"",""time""
""fullscreenenter"",""1"",""4180""
","
","","","579.8999998569489","","","12","13752","2400","&#9776;","elianto","#3366ff99"," "," ","1","0","[1433.2999999523163]","1","0","1","","","","","","","",""
"pit-trial","24","334027","0.0-2.0-8.0-4.0","battery-v0.2","","""event"",""trial"",""time""
""fullscreenenter"",""1"",""4180""
","
","
","""event"",""trial"",""time""
""fullscreenenter"",""1"",""4180""
","
","","","480.2999999523163","","","12","13752","2400","&#9776;","elianto","#3366ff99"," "," ","1","+10","[1333.4000000953674]","1","0","1","","","","","","","",""
"pit-trial","25","337354","0.0-2.0-8.1-0.1","battery-v0.2","","""event"",""trial"",""time""
""fullscreenenter"",""1"",""4180""
","
","
","""event"",""trial"",""time""
""fullscreenenter"",""1"",""4180""
","
","","","456.89999985694885","","","12","13752","2400","&#9776;","elianto","#3366ff99"," "," ","1","+10","[1308.7999999523163]","1","0","1","","","","","","","",""
"pit-trial","26","340697","0.0-2.0-8.1-1.1","battery-v0.2","","""event"",""trial"",""time""
""fullscreenenter"",""1"",""4180""
","
","
","""event"",""trial"",""time""
""fullscreenenter"",""1"",""4180""
","
","","","476.7999999523163","","","12","13752","2400","&#9776;","elianto","#3366ff99"," "," ","1","+10","[1328.2999999523163]","1","0","1","","","","","","","",""
"pit-trial","27","343987","0.0-2.0-8.1-2.1","battery-v0.2","","""event"",""trial"",""time""
""fullscreenenter"",""1"",""4180""
","
","
","""event"",""trial"",""time""
""fullscreenenter"",""1"",""4180""
","
","","","421.39999985694885","","","12","13752","2400","&#9776;","elianto","#3366ff99"," "," ","1","+10","[1275.0999999046326]","1","0","1","","","","","","","",""
"pit-trial","28","347312","0.0-2.0-8.1-3.1","battery-v0.2","","""event"",""trial"",""time""
""fullscreenenter"",""1"",""4180""
","
","
","""event"",""trial"",""time""
""fullscreenenter"",""1"",""4180""
","
","","","463.89999985694885","","","12","13752","2400","&#9776;","elianto","#3366ff99"," "," ","1","0","[1322.7000000476837]","1","0","1","","","","","","","",""
"pit-trial","29","350653","0.0-2.0-8.1-4.1","battery-v0.2","","""event"",""trial"",""time""
""fullscreenenter"",""1"",""4180""
","
","
","""event"",""trial"",""time""
""fullscreenenter"",""1"",""4180""
","
","","","485.90000009536743","","","12","13752","2400","&#9776;","elianto","#3366ff99"," "," ","1","+10","[1336.9000000953674]","1","0","1","","","","","","","",""
"pit-trial","30","353849","0.0-2.0-8.2-0.2","battery-v0.2","","""event"",""trial"",""time""
""fullscreenenter"",""1"",""4180""
","
","
","""event"",""trial"",""time""
""fullscreenenter"",""1"",""4180""
","
","","","340.59999990463257","","","12","13752","2400","&#9776;","elianto","#3366ff99"," "," ","1","+10","[1191.3000001907349]","1","0","1","","","","","","","",""
"pit-trial","31","357097","0.0-2.0-8.2-1.2","battery-v0.2","","""event"",""trial"",""time""
""fullscreenenter"",""1"",""4180""
","
","
","""event"",""trial"",""time""
""fullscreenenter"",""1"",""4180""
","
","","","394.2999999523163","","","12","13752","2400","&#9776;","elianto","#3366ff99"," "," ","1","+10","[1246.2999999523163]","1","0","1","","","","","","","",""
"pit-trial","32","360707","0.0-2.0-8.2-2.2","battery-v0.2","","""event"",""trial"",""time""
""fullscreenenter"",""1"",""4180""
","
","
","""event"",""trial"",""time""
""fullscreenenter"",""1"",""4180""
","
","","","756.1000001430511","","","12","13752","2400","&#9776;","elianto","#3366ff99"," "," ","1","+10","[1607]","1","0","1","","","","","","","",""
"pit-trial","33","363995","0.0-2.0-8.2-3.2","battery-v0.2","","""event"",""trial"",""time""
""fullscreenenter"",""1"",""4180""
","
","
","""event"",""trial"",""time""
""fullscreenenter"",""1"",""4180""
","
","","","432.80000019073486","","","12","13752","2400","&#9776;","elianto","#3366ff99"," "," ","1","0","[1283.6000001430511]","1","0","1","","","","","","","",""
"pit-trial","34","367392","0.0-2.0-8.2-4.2","battery-v0.2","","""event"",""trial"",""time""
""fullscreenenter"",""1"",""4180""
","
","
","""event"",""trial"",""time""
""fullscreenenter"",""1"",""4180""
","
","","","542.7000000476837","","","12","13752","2400","&#9776;","elianto","#3366ff99"," "," ","1","+10","[1393]","1","0","1","","","","","","","",""
"call-function","35","367396","0.0-2.0-9.0","battery-v0.2","","""event"",""trial"",""time""
""fullscreenenter"",""1"",""4180""
","
","
","""event"",""trial"",""time""
""fullscreenenter"",""1"",""4180""
","
","","","","","","","","","","","","","","","","","","","","","","","","","","",""
"pit-instructions","36","407829","0.0-2.0-10.0","battery-v0.2","","""event"",""trial"",""time""
""fullscreenenter"",""1"",""4180""
","
","
","""event"",""trial"",""time""
""fullscreenenter"",""1"",""4180""
","
","","[{""page_index"":0,""viewing_time"":6455.799999952316},{""page_index"":1,""viewing_time"":8287.299999952316},{""page_index"":2,""viewing_time"":9163},{""page_index"":3,""viewing_time"":8983.900000095367},{""page_index"":4,""viewing_time"":7542.299999952316}]","40432.700000047684","","","","","","","","","","","","","","","","","","","","","","","",""
"pit-trial","37","411097","0.0-2.0-11.0-0.0","battery-v0.2","","""event"",""trial"",""time""
""fullscreenenter"",""1"",""4180""
","
","
","""event"",""trial"",""time""
""fullscreenenter"",""1"",""4180""
","
","","","404","","","12","13752","2400","&#9761;","elianto","#3366ff99","-1"," ","0","0","[1254.5]","1","0","2","","","","","","","",""
"pit-trial","38","414348","0.0-2.0-11.0-1.0","battery-v0.2","","""event"",""trial"",""time""
""fullscreenenter"",""1"",""4180""
","
","
","""event"",""trial"",""time""
""fullscreenenter"",""1"",""4180""
","
","","","380.2000000476837","","","12","13752","2400","&#9761;","elianto","#3366ff99","-1"," ","0","0","[1234.7000000476837]","1","0","2","","","","","","","",""
"pit-trial","39","419224","0.0-2.0-11.0-2.0","battery-v0.2","","""event"",""trial"",""time""
""fullscreenenter"",""1"",""4180""
","
","
","""event"",""trial"",""time""
""fullscreenenter"",""1"",""4180""
","
","","","-1","","","12","13752","2400","&#9761;","elianto","#3366ff99","-1","-1","1","+10","[]","0","0","2","","","","","","","",""
"pit-trial","40","424097","0.0-2.0-11.0-3.0","battery-v0.2","","""event"",""trial"",""time""
""fullscreenenter"",""1"",""4180""
","
","
","""event"",""trial"",""time""
""fullscreenenter"",""1"",""4180""
","
","","","-1","","","12","13752","2400","&#9761;","elianto","#3366ff99","-1","-1","1","0","[]","0","0","2","","","","","","","",""
"pit-trial","41","428978","0.0-2.0-11.0-4.0","battery-v0.2","","""event"",""trial"",""time""
""fullscreenenter"",""1"",""4180""
","
","
","""event"",""trial"",""time""
""fullscreenenter"",""1"",""4180""
","
","","","-1","","","12","13752","2400","&#9761;","elianto","#3366ff99","-1","-1","1","+10","[]","0","0","2","","","","","","","",""
"pit-trial","42","433848","0.0-2.0-11.1-0.1","battery-v0.2","","""event"",""trial"",""time""
""fullscreenenter"",""1"",""4180""
","
","
","""event"",""trial"",""time""
""fullscreenenter"",""1"",""4180""
","
","","","-1","","","12","13752","2400","&#9761;","elianto","#3366ff99","-1","-1","1","+10","[]","0","0","2","","","","","","","",""
"pit-trial","43","438707","0.0-2.0-11.1-1.1","battery-v0.2","","""event"",""trial"",""time""
""fullscreenenter"",""1"",""4180""
","
","
","""event"",""trial"",""time""
""fullscreenenter"",""1"",""4180""
","
","","","-1","","","12","13752","2400","&#9761;","elianto","#3366ff99","-1","-1","1","+10","[]","0","0","2","","","","","","","",""
"pit-trial","44","443561","0.0-2.0-11.1-2.1","battery-v0.2","","""event"",""trial"",""time""
""fullscreenenter"",""1"",""4180""
","
","
","""event"",""trial"",""time""
""fullscreenenter"",""1"",""4180""
","
","","","-1","","","12","13752","2400","&#9761;","elianto","#3366ff99","-1","-1","1","+10","[]","0","0","2","","","","","","","",""
"pit-trial","45","448415","0.0-2.0-11.1-3.1","battery-v0.2","","""event"",""trial"",""time""
""fullscreenenter"",""1"",""4180""
","
","
","""event"",""trial"",""time""
""fullscreenenter"",""1"",""4180""
","
","","","-1","","","12","13752","2400","&#9761;","elianto","#3366ff99","-1","-1","1","0","[]","0","0","2","","","","","","","",""
"pit-trial","46","453269","0.0-2.0-11.1-4.1","battery-v0.2","","""event"",""trial"",""time""
""fullscreenenter"",""1"",""4180""
","
","
","""event"",""trial"",""time""
""fullscreenenter"",""1"",""4180""
","
","","","-1","","","12","13752","2400","&#9761;","elianto","#3366ff99","-1","-1","1","+10","[]","0","0","2","","","","","","","",""
"pit-trial","47","458124","0.0-2.0-11.2-0.2","battery-v0.2","","""event"",""trial"",""time""
""fullscreenenter"",""1"",""4180""
","
","
","""event"",""trial"",""time""
""fullscreenenter"",""1"",""4180""
","
","","","-1","","","12","13752","2400","&#9761;","elianto","#3366ff99","-1","-1","1","+10","[]","0","0","2","","","","","","","",""
"pit-trial","48","462978","0.0-2.0-11.2-1.2","battery-v0.2","","""event"",""trial"",""time""
""fullscreenenter"",""1"",""4180""
","
","
","""event"",""trial"",""time""
""fullscreenenter"",""1"",""4180""
","
","","","-1","","","12","13752","2400","&#9761;","elianto","#3366ff99","-1","-1","1","+10","[]","0","0","2","","","","","","","",""
"pit-trial","49","467832","0.0-2.0-11.2-2.2","battery-v0.2","","""event"",""trial"",""time""
""fullscreenenter"",""1"",""4180""
","
","
","""event"",""trial"",""time""
""fullscreenenter"",""1"",""4180""
","
","","","-1","","","12","13752","2400","&#9761;","elianto","#3366ff99","-1","-1","1","+10","[]","0","0","2","","","","","","","",""
"pit-trial","50","472687","0.0-2.0-11.2-3.2","battery-v0.2","","""event"",""trial"",""time""
""fullscreenenter"",""1"",""4180""
","
","
","""event"",""trial"",""time""
""fullscreenenter"",""1"",""4180""
","
","","","-1","","","12","13752","2400","&#9761;","elianto","#3366ff99","-1","-1","1","0","[]","0","0","2","","","","","","","",""
"pit-trial","51","477540","0.0-2.0-11.2-4.2","battery-v0.2","","""event"",""trial"",""time""
""fullscreenenter"",""1"",""4180""
","
","
","""event"",""trial"",""time""
""fullscreenenter"",""1"",""4180""
","
","","","-1","","","12","13752","2400","&#9761;","elianto","#3366ff99","-1","-1","1","+10","[]","0","0","2","","","","","","","",""
"pit-trial","52","482395","0.0-2.0-11.3-0.3","battery-v0.2","","""event"",""trial"",""time""
""fullscreenenter"",""1"",""4180""
","
","
","""event"",""trial"",""time""
""fullscreenenter"",""1"",""4180""
","
","","","-1","","","12","13752","2400","&#9761;","elianto","#3366ff99","-1","-1","1","+10","[]","0","0","2","","","","","","","",""
"pit-trial","53","487249","0.0-2.0-11.3-1.3","battery-v0.2","","""event"",""trial"",""time""
""fullscreenenter"",""1"",""4180""
","
","
","""event"",""trial"",""time""
""fullscreenenter"",""1"",""4180""
","
","","","-1","","","12","13752","2400","&#9761;","elianto","#3366ff99","-1","-1","1","+10","[]","0","0","2","","","","","","","",""
"pit-trial","54","492103","0.0-2.0-11.3-2.3","battery-v0.2","","""event"",""trial"",""time""
""fullscreenenter"",""1"",""4180""
","
","
","""event"",""trial"",""time""
""fullscreenenter"",""1"",""4180""
","
","","","-1","","","12","13752","2400","&#9761;","elianto","#3366ff99","-1","-1","1","+10","[]","0","0","2","","","","","","","",""
"pit-trial","55","496956","0.0-2.0-11.3-3.3","battery-v0.2","","""event"",""trial"",""time""
""fullscreenenter"",""1"",""4180""
","
","
","""event"",""trial"",""time""
""fullscreenenter"",""1"",""4180""
","
","","","-1","","","12","13752","2400","&#9761;","elianto","#3366ff99","-1","-1","1","0","[]","0","0","2","","","","","","","",""
"pit-trial","56","501811","0.0-2.0-11.3-4.3","battery-v0.2","","""event"",""trial"",""time""
""fullscreenenter"",""1"",""4180""
","
","
","""event"",""trial"",""time""
""fullscreenenter"",""1"",""4180""
","
","","","-1","","","12","13752","2400","&#9761;","elianto","#3366ff99","-1","-1","1","+10","[]","0","0","2","","","","","","","",""
"call-function","57","501813","0.0-2.0-12.0","battery-v0.2","","""event"",""trial"",""time""
""fullscreenenter"",""1"",""4180""
","
","
","""event"",""trial"",""time""
""fullscreenenter"",""1"",""4180""
","
","","","","","","","","","","","","","","","","","","","","","","","","","","",""
"pit-instructions","58","534169","0.0-2.0-13.0","battery-v0.2","","""event"",""trial"",""time""
""fullscreenenter"",""1"",""4180""
","
","
","""event"",""trial"",""time""
""fullscreenenter"",""1"",""4180""
","
","","[{""page_index"":0,""viewing_time"":5871.5},{""page_index"":1,""viewing_time"":7010.400000095367},{""page_index"":2,""viewing_time"":4508.899999856949},{""page_index"":3,""viewing_time"":10036.400000095367},{""page_index"":4,""viewing_time"":4928.400000095367}]","32355.900000095367","","","","","","","","","","","","","","","","","","","","","","","",""
"pit-trial","59","537533","0.0-2.0-14.0-0.0","battery-v0.2","","""event"",""trial"",""time""
""fullscreenenter"",""1"",""4180""
","
","
","""event"",""trial"",""time""
""fullscreenenter"",""1"",""4180""
","
","","","502","","","12","13752","2400","&#9826;","elianto","#f73b6a7A","-1"," ","0","-10","[1353.2000000476837]","1","0","3","","","","","","","",""
"pit-trial","60","542413","0.0-2.0-14.0-1.0","battery-v0.2","","""event"",""trial"",""time""
""fullscreenenter"",""1"",""4180""
","
","
","""event"",""trial"",""time""
""fullscreenenter"",""1"",""4180""
","
","","","-1","","","12","13752","2400","&#9826;","elianto","#f73b6a7A","-1","-1","1","0","[]","0","0","3","","","","","","","",""
"pit-trial","61","547283","0.0-2.0-14.0-2.0","battery-v0.2","","""event"",""trial"",""time""
""fullscreenenter"",""1"",""4180""
","
","
","""event"",""trial"",""time""
""fullscreenenter"",""1"",""4180""
","
","","","-1","","","12","13752","2400","&#9826;","elianto","#f73b6a7A","-1","-1","1","0","[]","0","0","3","","","","","","","",""
"pit-trial","62","552163","0.0-2.0-14.0-3.0","battery-v0.2","","""event"",""trial"",""time""
""fullscreenenter"",""1"",""4180""
","
","
","""event"",""trial"",""time""
""fullscreenenter"",""1"",""4180""
","
","","","-1","","","12","13752","2400","&#9826;","elianto","#f73b6a7A","-1","-1","1","-10","[]","0","0","3","","","","","","","",""
"pit-trial","63","557033","0.0-2.0-14.0-4.0","battery-v0.2","","""event"",""trial"",""time""
""fullscreenenter"",""1"",""4180""
","
","
","""event"",""trial"",""time""
""fullscreenenter"",""1"",""4180""
","
","","","-1","","","12","13752","2400","&#9826;","elianto","#f73b6a7A","-1","-1","1","0","[]","0","0","3","","","","","","","",""
"pit-trial","64","561903","0.0-2.0-14.1-0.1","battery-v0.2","","""event"",""trial"",""time""
""fullscreenenter"",""1"",""4180""
","
","
","""event"",""trial"",""time""
""fullscreenenter"",""1"",""4180""
","
","","","-1","","","12","13752","2400","&#9826;","elianto","#f73b6a7A","-1","-1","1","0","[]","0","0","3","","","","","","","",""
"pit-trial","65","566757","0.0-2.0-14.1-1.1","battery-v0.2","","""event"",""trial"",""time""
""fullscreenenter"",""1"",""4180""
","
","
","""event"",""trial"",""time""
""fullscreenenter"",""1"",""4180""
","
","","","-1","","","12","13752","2400","&#9826;","elianto","#f73b6a7A","-1","-1","1","0","[]","0","0","3","","","","","","","",""
"pit-trial","66","571611","0.0-2.0-14.1-2.1","battery-v0.2","","""event"",""trial"",""time""
""fullscreenenter"",""1"",""4180""
","
","
","""event"",""trial"",""time""
""fullscreenenter"",""1"",""4180""
","
","","","-1","","","12","13752","2400","&#9826;","elianto","#f73b6a7A","-1","-1","1","0","[]","0","0","3","","","","","","","",""
"pit-trial","67","576464","0.0-2.0-14.1-3.1","battery-v0.2","","""event"",""trial"",""time""
""fullscreenenter"",""1"",""4180""
","
","
","""event"",""trial"",""time""
""fullscreenenter"",""1"",""4180""
","
","","","-1","","","12","13752","2400","&#9826;","elianto","#f73b6a7A","-1","-1","1","-10","[]","0","0","3","","","","","","","",""
"pit-trial","68","581317","0.0-2.0-14.1-4.1","battery-v0.2","","""event"",""trial"",""time""
""fullscreenenter"",""1"",""4180""
","
","
","""event"",""trial"",""time""
""fullscreenenter"",""1"",""4180""
","
","","","-1","","","12","13752","2400","&#9826;","elianto","#f73b6a7A","-1","-1","1","0","[]","0","0","3","","","","","","","",""
"pit-trial","69","586171","0.0-2.0-14.2-0.2","battery-v0.2","","""event"",""trial"",""time""
""fullscreenenter"",""1"",""4180""
","
","
","""event"",""trial"",""time""
""fullscreenenter"",""1"",""4180""
","
","","","-1","","","12","13752","2400","&#9826;","elianto","#f73b6a7A","-1","-1","1","0","[]","0","0","3","","","","","","","",""
"pit-trial","70","591027","0.0-2.0-14.2-1.2","battery-v0.2","","""event"",""trial"",""time""
""fullscreenenter"",""1"",""4180""
","
","
","""event"",""trial"",""time""
""fullscreenenter"",""1"",""4180""
","
","","","-1","","","12","13752","2400","&#9826;","elianto","#f73b6a7A","-1","-1","1","0","[]","0","0","3","","","","","","","",""
"pit-trial","71","595897","0.0-2.0-14.2-2.2","battery-v0.2","","""event"",""trial"",""time""
""fullscreenenter"",""1"",""4180""
","
","
","""event"",""trial"",""time""
""fullscreenenter"",""1"",""4180""
","
","","","-1","","","12","13752","2400","&#9826;","elianto","#f73b6a7A","-1","-1","1","0","[]","0","0","3","","","","","","","",""
"pit-trial","72","600751","0.0-2.0-14.2-3.2","battery-v0.2","","""event"",""trial"",""time""
""fullscreenenter"",""1"",""4180""
","
","
","""event"",""trial"",""time""
""fullscreenenter"",""1"",""4180""
","
","","","-1","","","12","13752","2400","&#9826;","elianto","#f73b6a7A","-1","-1","1","-10","[]","0","0","3","","","","","","","",""
"pit-trial","73","605605","0.0-2.0-14.2-4.2","battery-v0.2","","""event"",""trial"",""time""
""fullscreenenter"",""1"",""4180""
","
","
","""event"",""trial"",""time""
""fullscreenenter"",""1"",""4180""
","
","","","-1","","","12","13752","2400","&#9826;","elianto","#f73b6a7A","-1","-1","1","0","[]","0","0","3","","","","","","","",""
"pit-trial","74","610460","0.0-2.0-14.3-0.3","battery-v0.2","","""event"",""trial"",""time""
""fullscreenenter"",""1"",""4180""
","
","
","""event"",""trial"",""time""
""fullscreenenter"",""1"",""4180""
","
","","","-1","","","12","13752","2400","&#9826;","elianto","#f73b6a7A","-1","-1","1","0","[]","0","0","3","","","","","","","",""
"pit-trial","75","615316","0.0-2.0-14.3-1.3","battery-v0.2","","""event"",""trial"",""time""
""fullscreenenter"",""1"",""4180""
","
","
","""event"",""trial"",""time""
""fullscreenenter"",""1"",""4180""
","
","","","-1","","","12","13752","2400","&#9826;","elianto","#f73b6a7A","-1","-1","1","0","[]","0","0","3","","","","","","","",""
"pit-trial","76","620170","0.0-2.0-14.3-2.3","battery-v0.2","","""event"",""trial"",""time""
""fullscreenenter"",""1"",""4180""
","
","
","""event"",""trial"",""time""
""fullscreenenter"",""1"",""4180""
","
","","","-1","","","12","13752","2400","&#9826;","elianto","#f73b6a7A","-1","-1","1","0","[]","0","0","3","","","","","","","",""
"pit-trial","77","625025","0.0-2.0-14.3-3.3","battery-v0.2","","""event"",""trial"",""time""
""fullscreenenter"",""1"",""4180""
","
","
","""event"",""trial"",""time""
""fullscreenenter"",""1"",""4180""
","
","","","-1","","","12","13752","2400","&#9826;","elianto","#f73b6a7A","-1","-1","1","-10","[]","0","0","3","","","","","","","",""
"pit-trial","78","629880","0.0-2.0-14.3-4.3","battery-v0.2","","""event"",""trial"",""time""
""fullscreenenter"",""1"",""4180""
","
","
","""event"",""trial"",""time""
""fullscreenenter"",""1"",""4180""
","
","","","-1","","","12","13752","2400","&#9826;","elianto","#f73b6a7A","-1","-1","1","0","[]","0","0","3","","","","","","","",""
"call-function","79","629883","0.0-2.0-15.0","battery-v0.2","","""event"",""trial"",""time""
""fullscreenenter"",""1"",""4180""
","
","
","""event"",""trial"",""time""
""fullscreenenter"",""1"",""4180""
","
","","","","","","","","","","","","","","","","","","","","","","","","","","",""
"pit-instructions","80","657836","0.0-2.0-16.0","battery-v0.2","","""event"",""trial"",""time""
""fullscreenenter"",""1"",""4180""
","
","
","""event"",""trial"",""time""
""fullscreenenter"",""1"",""4180""
","
","","[{""page_index"":0,""viewing_time"":8166.299999952316},{""page_index"":1,""viewing_time"":8869.5},{""page_index"":2,""viewing_time"":6023.599999904633},{""page_index"":3,""viewing_time"":4892.300000190735}]","27952","","","","","","","","","","","","","","","","","","","","","","","",""
"pit-trial","81","661164","0.0-2.0-17.0-0.0","battery-v0.2","","""event"",""trial"",""time""
""fullscreenenter"",""1"",""4180""
","
","
","""event"",""trial"",""time""
""fullscreenenter"",""1"",""4180""
","
","","","467.59999990463257","","","12","13752","2400","&#9789;","elianto","#f73b6a7A"," "," ","1","0","[1318.6000001430511]","1","0","4","","","","","","","",""
"pit-trial","82","664434","0.0-2.0-17.0-1.0","battery-v0.2","","""event"",""trial"",""time""
""fullscreenenter"",""1"",""4180""
","
","
","""event"",""trial"",""time""
""fullscreenenter"",""1"",""4180""
","
","","","401.2000000476837","","","12","13752","2400","&#9789;","elianto","#f73b6a7A"," "," ","1","0","[1255.8999998569489]","1","0","4","","","","","","","",""
"pit-trial","83","667784","0.0-2.0-17.0-2.0","battery-v0.2","","""event"",""trial"",""time""
""fullscreenenter"",""1"",""4180""
","
","
","""event"",""trial"",""time""
""fullscreenenter"",""1"",""4180""
","
","","","493.2999999523163","","","12","13752","2400","&#9789;","elianto","#f73b6a7A"," "," ","1","0","[1344.1000001430511]","1","0","4","","","","","","","",""
"pit-trial","84","671154","0.0-2.0-17.0-3.0","battery-v0.2","","""event"",""trial"",""time""
""fullscreenenter"",""1"",""4180""
","
","
","""event"",""trial"",""time""
""fullscreenenter"",""1"",""4180""
","
","","","506.7999999523163","","","12","13752","2400","&#9789;","elianto","#f73b6a7A"," "," ","1","-10","[1357.5]","1","0","4","","","","","","","",""
"pit-trial","85","674364","0.0-2.0-17.0-4.0","battery-v0.2","","""event"",""trial"",""time""
""fullscreenenter"",""1"",""4180""
","
","
","""event"",""trial"",""time""
""fullscreenenter"",""1"",""4180""
","
","","","355.5","","","12","13752","2400","&#9789;","elianto","#f73b6a7A"," "," ","1","0","[1205.5999999046326]","1","0","4","","","","","","","",""
"pit-trial","86","677694","0.0-2.0-17.1-0.1","battery-v0.2","","""event"",""trial"",""time""
""fullscreenenter"",""1"",""4180""
","
","
","""event"",""trial"",""time""
""fullscreenenter"",""1"",""4180""
","
","","","467.5","","","12","13752","2400","&#9789;","elianto","#f73b6a7A"," "," ","1","0","[1318.6999998092651]","1","0","4","","","","","","","",""
"pit-trial","87","680964","0.0-2.0-17.1-1.1","battery-v0.2","","""event"",""trial"",""time""
""fullscreenenter"",""1"",""4180""
","
","
","""event"",""trial"",""time""
""fullscreenenter"",""1"",""4180""
","
","","","395.7000000476837","","","12","13752","2400","&#9789;","elianto","#f73b6a7A"," "," ","1","0","[1251.7999999523163]","1","0","4","","","","","","","",""
"pit-trial","88","685064","0.0-2.0-17.1-2.1","battery-v0.2","","""event"",""trial"",""time""
""fullscreenenter"",""1"",""4180""
","
","
","""event"",""trial"",""time""
""fullscreenenter"",""1"",""4180""
","
","","","1239.1999998092651","","","12","13752","2400","&#9789;","elianto","#f73b6a7A"," "," ","1","0","[2092.0999999046326]","1","0","4","","","","","","","",""
"pit-trial","89","688422","0.0-2.0-17.1-3.1","battery-v0.2","","""event"",""trial"",""time""
""fullscreenenter"",""1"",""4180""
","
","
","""event"",""trial"",""time""
""fullscreenenter"",""1"",""4180""
","
","","","503.60000014305115","","","12","13752","2400","&#9789;","elianto","#f73b6a7A"," "," ","1","-10","[1355.4000000953674]","1","0","4","","","","","","","",""
"pit-trial","90","691689","0.0-2.0-17.1-4.1","battery-v0.2","","""event"",""trial"",""time""
""fullscreenenter"",""1"",""4180""
","
","
","""event"",""trial"",""time""
""fullscreenenter"",""1"",""4180""
","
","","","413.09999990463257","","","12","13752","2400","&#9789;","elianto","#f73b6a7A"," "," ","1","0","[1263.1000001430511]","1","0","4","","","","","","","",""
"pit-trial","91","695063","0.0-2.0-17.2-0.2","battery-v0.2","","""event"",""trial"",""time""
""fullscreenenter"",""1"",""4180""
","
","
","""event"",""trial"",""time""
""fullscreenenter"",""1"",""4180""
","
","","","518.0999999046326","","","12","13752","2400","&#9789;","elianto","#f73b6a7A"," "," ","1","0","[1368.4000000953674]","1","0","4","","","","","","","",""
"pit-trial","92","698336","0.0-2.0-17.2-1.2","battery-v0.2","","""event"",""trial"",""time""
""fullscreenenter"",""1"",""4180""
","
","
","""event"",""trial"",""time""
""fullscreenenter"",""1"",""4180""
","
","","","418.7999999523163","","","12","13752","2400","&#9789;","elianto","#f73b6a7A"," "," ","1","0","[1269.7000000476837,3042]","2","0","4","","","","","","","",""
"pit-trial","93","701802","0.0-2.0-17.2-2.2","battery-v0.2","","""event"",""trial"",""time""
""fullscreenenter"",""1"",""4180""
","
","
","""event"",""trial"",""time""
""fullscreenenter"",""1"",""4180""
","
","","","612.5","","","12","13752","2400","&#9789;","elianto","#f73b6a7A"," "," ","1","0","[1463.6000001430511]","1","0","4","","","","","","","",""
"pit-trial","94","705051","0.0-2.0-17.2-3.2","battery-v0.2","","""event"",""trial"",""time""
""fullscreenenter"",""1"",""4180""
","
","
","""event"",""trial"",""time""
""fullscreenenter"",""1"",""4180""
","
","","","394.5","","","12","13752","2400","&#9789;","elianto","#f73b6a7A"," "," ","1","-10","[1245.7999999523163]","1","0","4","","","","","","","",""
"pit-trial","95","708058","0.0-2.0-17.2-4.2","battery-v0.2","","""event"",""trial"",""time""
""fullscreenenter"",""1"",""4180""
","
","
","""event"",""trial"",""time""
""fullscreenenter"",""1"",""4180""
","
","","","152.09999990463257","","","12","13752","2400","&#9789;","elianto","#f73b6a7A"," "," ","1","0","[1003.3999998569489]","1","0","4","","","","","","","",""
"pit-trial","96","711259","0.0-2.0-17.3-0.3","battery-v0.2","","""event"",""trial"",""time""
""fullscreenenter"",""1"",""4180""
","
","
","""event"",""trial"",""time""
""fullscreenenter"",""1"",""4180""
","
","","","346","","","12","13752","2400","&#9789;","elianto","#f73b6a7A"," "," ","1","0","[1196.2999999523163]","1","0","4","","","","","","","",""
"pit-trial","97","714498","0.0-2.0-17.3-1.3","battery-v0.2","","""event"",""trial"",""time""
""fullscreenenter"",""1"",""4180""
","
","
","""event"",""trial"",""time""
""fullscreenenter"",""1"",""4180""
","
","","","385","","","12","13752","2400","&#9789;","elianto","#f73b6a7A"," "," ","1","0","[1235.1000001430511]","1","0","4","","","","","","","",""
"pit-trial","98","717964","0.0-2.0-17.3-2.3","battery-v0.2","","""event"",""trial"",""time""
""fullscreenenter"",""1"",""4180""
","
","
","""event"",""trial"",""time""
""fullscreenenter"",""1"",""4180""
","
","","","612.0999999046326","","","12","13752","2400","&#9789;","elianto","#f73b6a7A"," "," ","1","0","[1462.5]","1","0","4","","","","","","","",""
"pit-trial","99","721026","0.0-2.0-17.3-3.3","battery-v0.2","","""event"",""trial"",""time""
""fullscreenenter"",""1"",""4180""
","
","
","""event"",""trial"",""time""
""fullscreenenter"",""1"",""4180""
","
","","","208.19999980926514","","","12","13752","2400","&#9789;","elianto","#f73b6a7A"," "," ","1","-10","[1058.1999998092651]","1","0","4","","","","","","","",""
"pit-trial","100","723972","0.0-2.0-17.3-4.3","battery-v0.2","","""event"",""trial"",""time""
""fullscreenenter"",""1"",""4180""
","
","
","""event"",""trial"",""time""
""fullscreenenter"",""1"",""4180""
","
","","","93","","","12","13752","2400","&#9789;","elianto","#f73b6a7A"," "," ","1","0","[943.2000000476837,1423.5]","2","0","4","","","","","","","",""
"call-function","101","723974","0.0-2.0-18.0","battery-v0.2","","""event"",""trial"",""time""
""fullscreenenter"",""1"",""4180""
","
","
","""event"",""trial"",""time""
""fullscreenenter"",""1"",""4180""
","
","","","","","","","","","","","","","","","","","","","","","","","","","","",""
"pit-instructions","102","798386","0.0-2.0-19.0","battery-v0.2","","""event"",""trial"",""time""
""fullscreenenter"",""1"",""4180""
","
","
","""event"",""trial"",""time""
""fullscreenenter"",""1"",""4180""
","
","","[{""page_index"":0,""viewing_time"":7116},{""page_index"":1,""viewing_time"":6380},{""page_index"":2,""viewing_time"":14058.300000190735},{""page_index"":3,""viewing_time"":8949.899999856949},{""page_index"":4,""viewing_time"":8668.799999952316},{""page_index"":5,""viewing_time"":9245.400000095367},{""page_index"":6,""viewing_time"":8513.599999904633},{""page_index"":7,""viewing_time"":6518.800000190735},{""page_index"":8,""viewing_time"":4959.299999952316}]","74410.5","","","","","","","","","","","","","","","","","","","","","","","",""
"pit-comprehension","103","803280","0.0-2.0-20.0-0.0","battery-v0.2","","""event"",""trial"",""time""
""fullscreenenter"",""1"",""4180""
","
","
","""event"",""trial"",""time""
""fullscreenenter"",""1"",""4180""
","
","","","4890.300000190735","[""SPACE""]","0","12","13752","2400","","","","","","","","","","","","","","","","","","",""
"pit-instructions","104","806856","0.0-2.0-20.0-1.0","battery-v0.2","","""event"",""trial"",""time""
""fullscreenenter"",""1"",""4180""
","
","
","""event"",""trial"",""time""
""fullscreenenter"",""1"",""4180""
","
","","[{""page_index"":0,""viewing_time"":3539.5}]","3539.9000000953674","","","","","","","","","","","","","","","","","","","","","","","",""
"pit-comprehension","105","813198","0.0-2.0-21.0-0.0","battery-v0.2","","""event"",""trial"",""time""
""fullscreenenter"",""1"",""4180""
","
","
","""event"",""trial"",""time""
""fullscreenenter"",""1"",""4180""
","
","","","6338.599999904633","[""10""]","0","12","13752","2400","","","","","","","","","","","","","","","","","","",""
"pit-instructions","106","815976","0.0-2.0-21.0-1.0","battery-v0.2","","""event"",""trial"",""time""
""fullscreenenter"",""1"",""4180""
","
","
","""event"",""trial"",""time""
""fullscreenenter"",""1"",""4180""
","
","","[{""page_index"":0,""viewing_time"":2739.5999999046326}]","2739.899999856949","","","","","","","","","","","","","","","","","","","","","","","",""
"pit-comprehension","107","827088","0.0-2.0-22.0-0.0","battery-v0.2","","""event"",""trial"",""time""
""fullscreenenter"",""1"",""4180""
","
","
","""event"",""trial"",""time""
""fullscreenenter"",""1"",""4180""
","
","","","11108.100000143051","[""0""]","0","12","13752","2400","","","","","","","","","","","","","","","","","","",""
"pit-instructions","108","829068","0.0-2.0-22.0-1.0","battery-v0.2","","""event"",""trial"",""time""
""fullscreenenter"",""1"",""4180""
","
","
","""event"",""trial"",""time""
""fullscreenenter"",""1"",""4180""
","
","","[{""page_index"":0,""viewing_time"":1945.0999999046326}]","1945.3999998569489","","","","","","","","","","","","","","","","","","","","","","","",""
"pit-comprehension","109","840150","0.0-2.0-23.0-0.0","battery-v0.2","","""event"",""trial"",""time""
""fullscreenenter"",""1"",""4180""
","
","
","""event"",""trial"",""time""
""fullscreenenter"",""1"",""4180""
","
","","","11078.600000143051","[""False""]","1","12","13752","2400","","","","","","","","","","","","","","","","","","",""
"pit-instructions","110","844806","0.0-2.0-23.0-1.0","battery-v0.2","","""event"",""trial"",""time""
""fullscreenenter"",""1"",""4180""
","
","
","""event"",""trial"",""time""
""fullscreenenter"",""1"",""4180""
","
","","[{""page_index"":0,""viewing_time"":4618.400000095367}]","4618.700000047684","","","","","","","","","","","","","","","","","","","","","","","",""
"pit-instructions","111","845590","0.0-2.0-23.0-2.0-0.0","battery-v0.2","","""event"",""trial"",""time""
""fullscreenenter"",""1"",""4180""
","
","
","""event"",""trial"",""time""
""fullscreenenter"",""1"",""4180""
","
","","[{""page_index"":0,""viewing_time"":781.5999999046326}]","781.7999999523163","","","","","","","","","","","","","","","","","","","","","","","",""
"pit-comprehension","112","854223","0.0-2.0-23.1-0.1","battery-v0.2","","""event"",""trial"",""time""
""fullscreenenter"",""1"",""4180""
","
","
","""event"",""trial"",""time""
""fullscreenenter"",""1"",""4180""
","
","","","8631.200000047684","[""True""]","0","12","13752","2400","","","","","","","","","","","","","","","","","","",""
"pit-instructions","113","857675","0.0-2.0-23.1-1.1","battery-v0.2","","""event"",""trial"",""time""
""fullscreenenter"",""1"",""4180""
","
","
","""event"",""trial"",""time""
""fullscreenenter"",""1"",""4180""
","
","","[{""page_index"":0,""viewing_time"":3414.5}]","3415","","","","","","","","","","","","","","","","","","","","","","","",""
"pit-comprehension","114","865548","0.0-2.0-24.0-0.0","battery-v0.2","","""event"",""trial"",""time""
""fullscreenenter"",""1"",""4180""
","
","
","""event"",""trial"",""time""
""fullscreenenter"",""1"",""4180""
","
","","","7869.199999809265","[""True""]","0","12","13752","2400","","","","","","","","","","","","","","","","","","",""
"pit-instructions","115","869599","0.0-2.0-24.0-1.0","battery-v0.2","","""event"",""trial"",""time""
""fullscreenenter"",""1"",""4180""
","
","
","""event"",""trial"",""time""
""fullscreenenter"",""1"",""4180""
","
","","[{""page_index"":0,""viewing_time"":4010.100000143051}]","4010.4000000953674","","","","","","","","","","","","","","","","","","","","","","","",""
"pit-comprehension","116","876274","0.0-2.0-25.0-0.0","battery-v0.2","","""event"",""trial"",""time""
""fullscreenenter"",""1"",""4180""
","
","
","""event"",""trial"",""time""
""fullscreenenter"",""1"",""4180""
","
","","","6671.799999952316","[""True""]","0","12","13752","2400","","","","","","","","","","","","","","","","","","",""
"pit-instructions","117","879621","0.0-2.0-25.0-1.0","battery-v0.2","","""event"",""trial"",""time""
""fullscreenenter"",""1"",""4180""
","
","
","""event"",""trial"",""time""
""fullscreenenter"",""1"",""4180""
","
","","[{""page_index"":0,""viewing_time"":3309.7000000476837}]","3310","","","","","","","","","","","","","","","","","","","","","","","",""
"pit-comprehension","118","885299","0.0-2.0-26.0-0.0","battery-v0.2","","""event"",""trial"",""time""
""fullscreenenter"",""1"",""4180""
","
","
","""event"",""trial"",""time""
""fullscreenenter"",""1"",""4180""
","
","","","5674.300000190735","[""False""]","0","12","13752","2400","","","","","","","","","","","","","","","","","","",""
"pit-instructions","119","888373","0.0-2.0-26.0-1.0","battery-v0.2","","""event"",""trial"",""time""
""fullscreenenter"",""1"",""4180""
","
","
","""event"",""trial"",""time""
""fullscreenenter"",""1"",""4180""
","
","","[{""page_index"":0,""viewing_time"":3030.2000000476837}]","3030.5","","","","","","","","","","","","","","","","","","","","","","","",""
"pit-instructions","120","905152","0.0-3.0","battery-v0.2","","""event"",""trial"",""time""
""fullscreenenter"",""1"",""4180""
","
","
","""event"",""trial"",""time""
""fullscreenenter"",""1"",""4180""
","
","","[{""page_index"":0,""viewing_time"":3723.4000000953674},{""page_index"":1,""viewing_time"":5314.299999952316},{""page_index"":2,""viewing_time"":7739}]","16776.900000095367","","","","","","","","","","","","","","","","","","","","","","","",""
"pit-trial","121","908670","0.0-4.0","battery-v0.2","","""event"",""trial"",""time""
""fullscreenenter"",""1"",""4180""
","
","
","""event"",""trial"",""time""
""fullscreenenter"",""1"",""4180""
","
","","","645.7000000476837","","","12","13752","2400","&#9752;","elianto","#f73b6a7A"," "," ","1","0","[1499.4000000953674]","1","1","","","13752","1","3","3","lose","go","0"
"pit-trial","122","912109","0.0-5.0","battery-v0.2","","""event"",""trial"",""time""
""fullscreenenter"",""1"",""4180""
","
","
","""event"",""trial"",""time""
""fullscreenenter"",""1"",""4180""
","
","","","568.5999999046326","","","12","13752","2400","&#9728;","elianto","#f73b6a7A","-1"," ","0","-10","[1421.2000000476837]","1","1","","","13752","2","0","4","lose","no-go","0"
"pit-trial","123","915699","0.0-6.0","battery-v0.2","","""event"",""trial"",""time""
""fullscreenenter"",""1"",""4180""
","
","
","""event"",""trial"",""time""
""fullscreenenter"",""1"",""4180""
","
","","","713.2999999523163","","","12","13752","2400","&#9733;","elianto","#3366ff99","-1"," ","0","0","[1572.8999998569489]","1","1","","","13752","3","2","2","win","no-go","0"
"pit-trial","124","919400","0.0-7.0","battery-v0.2","","""event"",""trial"",""time""
""fullscreenenter"",""1"",""4180""
","
","
","""event"",""trial"",""time""
""fullscreenenter"",""1"",""4180""
","
","","","841.9000000953674","","","12","13752","2400","&#9730;","elianto","#3366ff99"," "," ","1","+10","[1693.5]","1","1","","","13752","4","1","1","win","go","0"
"pit-trial","125","923070","0.0-8.0","battery-v0.2","","""event"",""trial"",""time""
""fullscreenenter"",""1"",""4180""
","
","
","""event"",""trial"",""time""
""fullscreenenter"",""1"",""4180""
","
","","","808.7999999523163","","","12","13752","2400","&#9733;","elianto","#3366ff99","-1"," ","0","+10","[1660.5]","1","1","","","13752","5","2","2","win","no-go","1"
"pit-trial","126","926919","0.0-9.0","battery-v0.2","","""event"",""trial"",""time""
""fullscreenenter"",""1"",""4180""
","
","
","""event"",""trial"",""time""
""fullscreenenter"",""1"",""4180""
","
","","","984.2999999523163","","","12","13752","2400","&#9730;","elianto","#3366ff99"," "," ","1","+10","[1836.5]","1","1","","","13752","6","1","1","win","go","0"
"pit-trial","127","931798","0.0-10.0","battery-v0.2","","""event"",""trial"",""time""
""fullscreenenter"",""1"",""4180""
","
","
","""event"",""trial"",""time""
""fullscreenenter"",""1"",""4180""
","
","","","-1","","","12","13752","2400","&#9752;","elianto","#f73b6a7A"," ","-1","0","0","[]","0","1","","","13752","7","3","3","lose","go","1"
"pit-trial","128","935373","0.0-11.0","battery-v0.2","","""event"",""trial"",""time""
""fullscreenenter"",""1"",""4180""
","
","
","""event"",""trial"",""time""
""fullscreenenter"",""1"",""4180""
","
","","","716.8999998569489","","","12","13752","2400","&#9728;","elianto","#f73b6a7A","-1"," ","0","0","[1570.6000001430511]","1","1","","","13752","8","0","4","lose","no-go","1"
"pit-trial","129","940227","0.0-12.0","battery-v0.2","","""event"",""trial"",""time""
""fullscreenenter"",""1"",""4180""
","
","
","""event"",""trial"",""time""
""fullscreenenter"",""1"",""4180""
","
","","","-1","","","12","13752","2400","&#9752;","elianto","#f73b6a7A"," ","-1","0","-10","[]","0","1","","","13752","9","3","3","lose","go","0"
"pit-trial","130","943945","0.0-13.0","battery-v0.2","","""event"",""trial"",""time""
""fullscreenenter"",""1"",""4180""
","
","
","""event"",""trial"",""time""
""fullscreenenter"",""1"",""4180""
","
","","","863.4000000953674","","","12","13752","2400","&#9728;","elianto","#f73b6a7A","-1"," ","0","-10","[1714.4000000953674]","1","1","","","13752","10","0","4","lose","no-go","0"
"pit-trial","131","947752","0.0-14.0","battery-v0.2","","""event"",""trial"",""time""
""fullscreenenter"",""1"",""4180""
","
","
","""event"",""trial"",""time""
""fullscreenenter"",""1"",""4180""
","
","","","952.9000000953674","","","12","13752","2400","&#9733;","elianto","#3366ff99","-1"," ","0","+10","[1803.1999998092651]","1","1","","","13752","11","2","2","win","no-go","1"
"pit-trial","132","951866","0.0-15.0","battery-v0.2","","""event"",""trial"",""time""
""fullscreenenter"",""1"",""4180""
","
","
","""event"",""trial"",""time""
""fullscreenenter"",""1"",""4180""
","
","","","1259.9000000953674","","","12","13752","2400","&#9730;","elianto","#3366ff99"," "," ","1","+10","[2110.7000000476837]","1","1","","","13752","12","1","1","win","go","0"
"pit-trial","133","955851","0.0-16.0","battery-v0.2","","""event"",""trial"",""time""
""fullscreenenter"",""1"",""4180""
","
","
","""event"",""trial"",""time""
""fullscreenenter"",""1"",""4180""
","
","","","1130.0999999046326","","","12","13752","2400","&#9730;","elianto","#3366ff99"," "," ","1","0","[1980.7000000476837]","1","1","","","13752","13","1","1","win","go","1"
"pit-trial","134","959824","0.0-17.0","battery-v0.2","","""event"",""trial"",""time""
""fullscreenenter"",""1"",""4180""
","
","
","""event"",""trial"",""time""
""fullscreenenter"",""1"",""4180""
","
","","","1118.2999999523163","","","12","13752","2400","&#9733;","elianto","#3366ff99","-1"," ","0","0","[1968.9000000953674]","1","1","","","13752","14","2","2","win","no-go","0"
"pit-trial","135","963750","0.0-18.0","battery-v0.2","","""event"",""trial"",""time""
""fullscreenenter"",""1"",""4180""
","
","
","""event"",""trial"",""time""
""fullscreenenter"",""1"",""4180""
","
","","","1072.8999998569489","","","12","13752","2400","&#9752;","elianto","#f73b6a7A"," "," ","1","0","[1923]","1","1","","","13752","15","3","3","lose","go","0"
"pit-trial","136","967690","0.0-19.0","battery-v0.2","","""event"",""trial"",""time""
""fullscreenenter"",""1"",""4180""
","
","
","""event"",""trial"",""time""
""fullscreenenter"",""1"",""4180""
","
","","","1084.7999999523163","","","12","13752","2400","&#9728;","elianto","#f73b6a7A","-1"," ","0","-10","[1935.7999999523163]","1","1","","","13752","16","0","4","lose","no-go","0"
"pit-trial","137","972328","0.0-20.0","battery-v0.2","","""event"",""trial"",""time""
""fullscreenenter"",""1"",""4180""
","
","
","""event"",""trial"",""time""
""fullscreenenter"",""1"",""4180""
","
","","","1783.9000000953674","","","12","13752","2400","&#9733;","elianto","#3366ff99","-1"," ","0","0","[2634.5]","1","1","","","13752","17","2","2","win","no-go","0"
"pit-trial","138","977183","0.0-21.0","battery-v0.2","","""event"",""trial"",""time""
""fullscreenenter"",""1"",""4180""
","
","
","""event"",""trial"",""time""
""fullscreenenter"",""1"",""4180""
","
","","","-1","","","12","13752","2400","&#9752;","elianto","#f73b6a7A"," ","-1","0","-10","[]","0","1","","","13752","18","3","3","lose","go","0"
"pit-trial","139","981118","0.0-22.0","battery-v0.2","","""event"",""trial"",""time""
""fullscreenenter"",""1"",""4180""
","
","
","""event"",""trial"",""time""
""fullscreenenter"",""1"",""4180""
","
","","","1081.2999999523163","","","12","13752","2400","&#9730;","elianto","#3366ff99"," "," ","1","+10","[1931.5]","1","1","","","13752","19","1","1","win","go","0"
"pit-trial","140","985026","0.0-23.0","battery-v0.2","","""event"",""trial"",""time""
""fullscreenenter"",""1"",""4180""
","
","
","""event"",""trial"",""time""
""fullscreenenter"",""1"",""4180""
","
","","","1046.7000000476837","","","12","13752","2400","&#9728;","elianto","#f73b6a7A","-1"," ","0","-10","[1904.2999999523163]","1","1","","","13752","20","0","4","lose","no-go","0"
"pit-instructions","141","1014525","0.0-24.0","battery-v0.2","","""event"",""trial"",""time""
""fullscreenenter"",""1"",""4180""
","
","
","""event"",""trial"",""time""
""fullscreenenter"",""1"",""4180""
","
","","[{""page_index"":0,""viewing_time"":6692.799999952316},{""page_index"":1,""viewing_time"":22809.400000095367}]","29502.599999904633","","","","","","","","","","","","","","","","","","","","","","","",""
"pit-trial","142","1018046","0.0-25.0","battery-v0.2","","""event"",""trial"",""time""
""fullscreenenter"",""1"",""4180""
","
","
","""event"",""trial"",""time""
""fullscreenenter"",""1"",""4180""
","
","","","653.5","","","12","13752","2400","l","elianto","#3366ff99"," "," ","1","0","[1509.4000000953674]","1","2","","","13752","21","1","1","win","go","1"
"pit-trial","143","1021797","0.0-26.0","battery-v0.2","","""event"",""trial"",""time""
""fullscreenenter"",""1"",""4180""
","
","
","""event"",""trial"",""time""
""fullscreenenter"",""1"",""4180""
","
","","","877.7999999523163","","","12","13752","2400","u","elianto","#f73b6a7A","-1"," ","0","-10","[1730.7999999523163]","1","2","","","13752","22","0","4","lose","no-go","0"
"pit-trial","144","1026676","0.0-27.0","battery-v0.2","","""event"",""trial"",""time""
""fullscreenenter"",""1"",""4180""
","
","
","""event"",""trial"",""time""
""fullscreenenter"",""1"",""4180""
","
","","","-1","","","12","13752","2400","g","elianto","#f73b6a7A"," ","-1","0","-10","[]","0","2","","","13752","23","3","3","lose","go","0"
"pit-trial","145","1030584","0.0-28.0","battery-v0.2","","""event"",""trial"",""time""
""fullscreenenter"",""1"",""4180""
","
","
","""event"",""trial"",""time""
""fullscreenenter"",""1"",""4180""
","
","","","1050.7999999523163","","","12","13752","2400","a","elianto","#f73b6a7A","-1"," ","0","0","[1903.9000000953674]","1","2","","","13752","24","2","4","lose","no-go","1"
"pit-trial","146","1035438","0.0-29.0","battery-v0.2","","""event"",""trial"",""time""
""fullscreenenter"",""1"",""4180""
","
","
","""event"",""trial"",""time""
""fullscreenenter"",""1"",""4180""
","
","","","-1","","","12","13752","2400","g","elianto","#f73b6a7A"," ","-1","0","-10","[]","0","2","","","13752","25","3","3","lose","go","0"
"pit-trial","147","1039266","0.0-30.0","battery-v0.2","","""event"",""trial"",""time""
""fullscreenenter"",""1"",""4180""
","
","
","""event"",""trial"",""time""
""fullscreenenter"",""1"",""4180""
","
","","","974.5","","","12","13752","2400","u","elianto","#f73b6a7A","-1"," ","0","-10","[1825]","1","2","","","13752","26","0","4","lose","no-go","0"
"pit-trial","148","1043014","0.0-31.0","battery-v0.2","","""event"",""trial"",""time""
""fullscreenenter"",""1"",""4180""
","
","
","""event"",""trial"",""time""
""fullscreenenter"",""1"",""4180""
","
","","","894.3999998569489","","","12","13752","2400","l","elianto","#3366ff99"," "," ","1","+10","[1744.9000000953674]","1","2","","","13752","27","1","1","win","go","0"
"pit-trial","149","1047242","0.0-32.0","battery-v0.2","","""event"",""trial"",""time""
""fullscreenenter"",""1"",""4180""
","
","
","""event"",""trial"",""time""
""fullscreenenter"",""1"",""4180""
","
","","","1373.8999998569489","","","12","13752","2400","a","elianto","#f73b6a7A","-1"," ","0","0","[2224.2999999523163]","1","2","","","13752","28","2","4","lose","no-go","1"
"pit-trial","150","1052103","0.0-33.0","battery-v0.2","","""event"",""trial"",""time""
""fullscreenenter"",""1"",""4180""
","
","
","""event"",""trial"",""time""
""fullscreenenter"",""1"",""4180""
","
","","","-1","","","12","13752","2400","g","elianto","#f73b6a7A"," ","-1","0","0","[]","0","2","","","13752","29","3","3","lose","go","1"
"pit-trial","151","1055886","0.0-34.0","battery-v0.2","","""event"",""trial"",""time""
""fullscreenenter"",""1"",""4180""
","
","
","""event"",""trial"",""time""
""fullscreenenter"",""1"",""4180""
","
","","","927.5999999046326","","","12","13752","2400","u","elianto","#f73b6a7A","-1"," ","0","0","[1778.3999998569489]","1","2","","","13752","30","0","4","lose","no-go","1"
"pit-trial","152","1059438","0.0-35.0","battery-v0.2","","""event"",""trial"",""time""
""fullscreenenter"",""1"",""4180""
","
","
","""event"",""trial"",""time""
""fullscreenenter"",""1"",""4180""
","
","","","697.3000001907349","","","12","13752","2400","l","elianto","#3366ff99"," "," ","1","+10","[1548.3000001907349]","1","2","","","13752","31","1","1","win","go","0"
"pit-trial","153","1063258","0.0-36.0","battery-v0.2","","""event"",""trial"",""time""
""fullscreenenter"",""1"",""4180""
","
","
","""event"",""trial"",""time""
""fullscreenenter"",""1"",""4180""
","
","","","953.3999998569489","","","12","13752","2400","a","elianto","#f73b6a7A","-1"," ","0","0","[1805.2000000476837]","1","2","","","13752","32","2","4","lose","no-go","1"
"pit-trial","154","1066782","0.0-37.0","battery-v0.2","","""event"",""trial"",""time""
""fullscreenenter"",""1"",""4180""
","
","
","""event"",""trial"",""time""
""fullscreenenter"",""1"",""4180""
","
","","","670.7999999523163","","","12","13752","2400","l","elianto","#3366ff99"," "," ","1","+10","[1521.0999999046326]","1","2","","","13752","33","1","1","win","go","0"
"pit-trial","155","1071199","0.0-38.0","battery-v0.2","","""event"",""trial"",""time""
""fullscreenenter"",""1"",""4180""
","
","
","""event"",""trial"",""time""
""fullscreenenter"",""1"",""4180""
","
","","","1559.2000000476837","","","12","13752","2400","a","elianto","#f73b6a7A","-1"," ","0","-10","[2412.5999999046326]","1","2","","","13752","34","2","4","lose","no-go","0"
"pit-trial","156","1075744","0.0-39.0","battery-v0.2","","""event"",""trial"",""time""
""fullscreenenter"",""1"",""4180""
","
","
","""event"",""trial"",""time""
""fullscreenenter"",""1"",""4180""
","
","","","1690.5","","","12","13752","2400","u","elianto","#f73b6a7A","-1"," ","0","-10","[2541.5]","1","2","","","13752","35","0","4","lose","no-go","0"
"pit-trial","157","1080599","0.0-40.0","battery-v0.2","","""event"",""trial"",""time""
""fullscreenenter"",""1"",""4180""
","
","
","""event"",""trial"",""time""
""fullscreenenter"",""1"",""4180""
","
","","","-1","","","12","13752","2400","g","elianto","#f73b6a7A"," ","-1","0","0","[]","0","2","","","13752","36","3","3","lose","go","1"
"pit-trial","158","1085453","0.0-41.0","battery-v0.2","","""event"",""trial"",""time""
""fullscreenenter"",""1"",""4180""
","
","
","""event"",""trial"",""time""
""fullscreenenter"",""1"",""4180""
","
","","","-1","","","12","13752","2400","u","elianto","#f73b6a7A","-1","-1","1","0","[]","0","2","","","13752","37","0","4","lose","no-go","0"
"pit-trial","159","1089079","0.0-42.0","battery-v0.2","","""event"",""trial"",""time""
""fullscreenenter"",""1"",""4180""
","
","
","""event"",""trial"",""time""
""fullscreenenter"",""1"",""4180""
","
","","","770.7999999523163","","","12","13752","2400","l","elianto","#3366ff99"," "," ","1","+10","[1621.2999999523163]","1","2","","","13752","38","1","1","win","go","0"
"pit-trial","160","1093015","0.0-43.0","battery-v0.2","","""event"",""trial"",""time""
""fullscreenenter"",""1"",""4180""
","
","
","""event"",""trial"",""time""
""fullscreenenter"",""1"",""4180""
","
","","","1079.6000001430511","","","12","13752","2400","a","elianto","#f73b6a7A","-1"," ","0","-10","[1931.2999999523163]","1","2","","","13752","39","2","4","lose","no-go","0"
"pit-trial","161","1097870","0.0-44.0","battery-v0.2","","""event"",""trial"",""time""
""fullscreenenter"",""1"",""4180""
","
","
","""event"",""trial"",""time""
""fullscreenenter"",""1"",""4180""
","
","","","-1","","","12","13752","2400","g","elianto","#f73b6a7A"," ","-1","0","-10","[]","0","2","","","13752","40","3","3","lose","go","0"
"pit-trial","162","1102723","0.0-45.0","battery-v0.2","","""event"",""trial"",""time""
""fullscreenenter"",""1"",""4180""
","
","
","""event"",""trial"",""time""
""fullscreenenter"",""1"",""4180""
","
","","","-1","","","12","13752","2400","g","elianto","#f73b6a7A"," ","-1","0","0","[]","0","2","","","13752","41","3","3","lose","go","1"
"pit-trial","163","1106190","0.0-46.0","battery-v0.2","","""event"",""trial"",""time""
""fullscreenenter"",""1"",""4180""
","
","
","""event"",""trial"",""time""
""fullscreenenter"",""1"",""4180""
","
","","","613.1000001430511","","","12","13752","2400","l","elianto","#3366ff99"," "," ","1","0","[1463.5]","1","2","","","13752","42","1","1","win","go","1"
"pit-trial","164","1111045","0.0-47.0","battery-v0.2","","""event"",""trial"",""time""
""fullscreenenter"",""1"",""4180""
","
","
","""event"",""trial"",""time""
""fullscreenenter"",""1"",""4180""
","
","","","-1","","","12","13752","2400","u","elianto","#f73b6a7A","-1","-1","1","0","[]","0","2","","","13752","43","0","4","lose","no-go","0"
"pit-trial","165","1115900","0.0-48.0","battery-v0.2","","""event"",""trial"",""time""
""fullscreenenter"",""1"",""4180""
","
","
","""event"",""trial"",""time""
""fullscreenenter"",""1"",""4180""
","
","","","-1","","","12","13752","2400","a","elianto","#f73b6a7A","-1","-1","1","-10","[]","0","2","","","13752","44","2","4","lose","no-go","1"
"pit-trial","166","1119835","0.0-49.0","battery-v0.2","","""event"",""trial"",""time""
""fullscreenenter"",""1"",""4180""
","
","
","""event"",""trial"",""time""
""fullscreenenter"",""1"",""4180""
","
","","","1079.8999998569489","","","12","13752","2400","p","elianto","#3366ff99","-1"," ","0","0","[1931]","1","2","","","13752","45","4","2","win","no-go","0"
"pit-trial","167","1124690","0.0-50.0","battery-v0.2","","""event"",""trial"",""time""
""fullscreenenter"",""1"",""4180""
","
","
","""event"",""trial"",""time""
""fullscreenenter"",""1"",""4180""
","
","","","-1","","","12","13752","2400","g","elianto","#f73b6a7A"," ","-1","0","-10","[]","0","2","","","13752","46","3","3","lose","go","0"
"pit-trial","168","1129544","0.0-51.0","battery-v0.2","","""event"",""trial"",""time""
""fullscreenenter"",""1"",""4180""
","
","
","""event"",""trial"",""time""
""fullscreenenter"",""1"",""4180""
","
","","","-1","","","12","13752","2400","u","elianto","#f73b6a7A","-1","-1","1","0","[]","0","2","","","13752","47","0","4","lose","no-go","0"
"pit-trial","169","1133087","0.0-52.0","battery-v0.2","","""event"",""trial"",""time""
""fullscreenenter"",""1"",""4180""
","
","
","""event"",""trial"",""time""
""fullscreenenter"",""1"",""4180""
","
","","","687.6000001430511","","","12","13752","2400","a","elianto","#f73b6a7A","-1"," ","0","-10","[1537.7000000476837]","1","2","","","13752","48","2","4","lose","no-go","0"
"pit-trial","170","1136645","0.0-53.0","battery-v0.2","","""event"",""trial"",""time""
""fullscreenenter"",""1"",""4180""
","
","
","""event"",""trial"",""time""
""fullscreenenter"",""1"",""4180""
","
","","","703","","","12","13752","2400","l","elianto","#3366ff99"," "," ","1","+10","[1553.7000000476837]","1","2","","","13752","49","1","1","win","go","0"
"pit-trial","171","1140392","0.0-54.0","battery-v0.2","","""event"",""trial"",""time""
""fullscreenenter"",""1"",""4180""
","
","
","""event"",""trial"",""time""
""fullscreenenter"",""1"",""4180""
","
","","","893.2000000476837","","","12","13752","2400","u","elianto","#f73b6a7A","-1"," ","0","0","[1743.9000000953674,2286.7999999523163]","2","2","","","13752","50","0","4","lose","no-go","1"
"pit-trial","172","1145246","0.0-55.0","battery-v0.2","","""event"",""trial"",""time""
""fullscreenenter"",""1"",""4180""
","
","
","""event"",""trial"",""time""
""fullscreenenter"",""1"",""4180""
","
","","","-1","","","12","13752","2400","g","elianto","#f73b6a7A"," ","-1","0","-10","[]","0","2","","","13752","51","3","3","lose","go","0"
"pit-trial","173","1148841","0.0-56.0","battery-v0.2","","""event"",""trial"",""time""
""fullscreenenter"",""1"",""4180""
","
","
","""event"",""trial"",""time""
""fullscreenenter"",""1"",""4180""
","
","","","740.0999999046326","","","12","13752","2400","p","elianto","#3366ff99","-1"," ","0","0","[1591]","1","2","","","13752","52","4","2","win","no-go","0"
"pit-trial","174","1153696","0.0-57.0","battery-v0.2","","""event"",""trial"",""time""
""fullscreenenter"",""1"",""4180""
","
","
","""event"",""trial"",""time""
""fullscreenenter"",""1"",""4180""
","
","","","-1","","","12","13752","2400","u","elianto","#f73b6a7A","-1","-1","1","0","[]","0","2","","","13752","53","0","4","lose","no-go","0"
"pit-trial","175","1157166","0.0-58.0","battery-v0.2","","""event"",""trial"",""time""
""fullscreenenter"",""1"",""4180""
","
","
","""event"",""trial"",""time""
""fullscreenenter"",""1"",""4180""
","
","","","615.2999999523163","","","12","13752","2400","a","elianto","#f73b6a7A","-1"," ","0","-10","[1467]","1","2","","","13752","54","2","4","lose","no-go","0"
"pit-trial","176","1162021","0.0-59.0","battery-v0.2","","""event"",""trial"",""time""
""fullscreenenter"",""1"",""4180""
","
","
","""event"",""trial"",""time""
""fullscreenenter"",""1"",""4180""
","
","","","-1","","","12","13752","2400","p","elianto","#3366ff99","-1","-1","1","+10","[]","0","2","","","13752","55","4","2","win","no-go","0"
"pit-trial","177","1165732","0.0-60.0","battery-v0.2","","""event"",""trial"",""time""
""fullscreenenter"",""1"",""4180""
","
","
","""event"",""trial"",""time""
""fullscreenenter"",""1"",""4180""
","
","","","855.5","","","12","13752","2400","l","elianto","#3366ff99"," "," ","1","0","[1706.2999999523163]","1","2","","","13752","56","1","1","win","go","1"
"pit-trial","178","1170587","0.0-61.0","battery-v0.2","","""event"",""trial"",""time""
""fullscreenenter"",""1"",""4180""
","
","
","""event"",""trial"",""time""
""fullscreenenter"",""1"",""4180""
","
","","","-1","","","12","13752","2400","g","elianto","#f73b6a7A"," ","-1","0","-10","[]","0","2","","","13752","57","3","3","lose","go","0"
"pit-trial","179","1175441","0.0-62.0","battery-v0.2","","""event"",""trial"",""time""
""fullscreenenter"",""1"",""4180""
","
","
","""event"",""trial"",""time""
""fullscreenenter"",""1"",""4180""
","
","","","-1","","","12","13752","2400","u","elianto","#f73b6a7A","-1","-1","1","0","[]","0","2","","","13752","58","0","4","lose","no-go","0"
"pit-trial","180","1180296","0.0-63.0","battery-v0.2","","""event"",""trial"",""time""
""fullscreenenter"",""1"",""4180""
","
","
","""event"",""trial"",""time""
""fullscreenenter"",""1"",""4180""
","
","","","-1","","","12","13752","2400","p","elianto","#3366ff99","-1","-1","1","+10","[]","0","2","","","13752","59","4","2","win","no-go","0"
"pit-trial","181","1183783","0.0-64.0","battery-v0.2","","""event"",""trial"",""time""
""fullscreenenter"",""1"",""4180""
","
","
","""event"",""trial"",""time""
""fullscreenenter"",""1"",""4180""
","
","","","633.2000000476837","","","12","13752","2400","l","elianto","#3366ff99"," "," ","1","0","[1483.2999999523163]","1","2","","","13752","60","1","1","win","go","1"
"pit-trial","182","1188637","0.0-65.0","battery-v0.2","","""event"",""trial"",""time""
""fullscreenenter"",""1"",""4180""
","
","
","""event"",""trial"",""time""
""fullscreenenter"",""1"",""4180""
","
","","","-1","","","12","13752","2400","g","elianto","#f73b6a7A"," ","-1","0","-10","[]","0","2","","","13752","61","3","3","lose","go","0"
"pit-trial","183","1192108","0.0-66.0","battery-v0.2","","""event"",""trial"",""time""
""fullscreenenter"",""1"",""4180""
","
","
","""event"",""trial"",""time""
""fullscreenenter"",""1"",""4180""
","
","","","603.2000000476837","","","12","13752","2400","l","elianto","#3366ff99"," "," ","1","0","[1453.7999999523163]","1","2","","","13752","62","1","1","win","go","1"
"pit-trial","184","1196964","0.0-67.0","battery-v0.2","","""event"",""trial"",""time""
""fullscreenenter"",""1"",""4180""
","
","
","""event"",""trial"",""time""
""fullscreenenter"",""1"",""4180""
","
","","","-1","","","12","13752","2400","p","elianto","#3366ff99","-1","-1","1","+10","[]","0","2","","","13752","63","4","2","win","no-go","0"
"pit-trial","185","1200531","0.0-68.0","battery-v0.2","","""event"",""trial"",""time""
""fullscreenenter"",""1"",""4180""
","
","
","""event"",""trial"",""time""
""fullscreenenter"",""1"",""4180""
","
","","","709.1999998092651","","","12","13752","2400","a","elianto","#f73b6a7A","-1"," ","0","-10","[1562.8999998569489,1943.2000000476837]","2","2","","","13752","64","2","4","lose","no-go","0"
"pit-trial","186","1204133","0.0-69.0","battery-v0.2","","""event"",""trial"",""time""
""fullscreenenter"",""1"",""4180""
","
","
","""event"",""trial"",""time""
""fullscreenenter"",""1"",""4180""
","
","","","745.3000001907349","","","12","13752","2400","l","elianto","#3366ff99"," "," ","1","+10","[1598.5]","1","2","","","13752","65","1","1","win","go","0"
"pit-trial","187","1208988","0.0-70.0","battery-v0.2","","""event"",""trial"",""time""
""fullscreenenter"",""1"",""4180""
","
","
","""event"",""trial"",""time""
""fullscreenenter"",""1"",""4180""
","
","","","-1","","","12","13752","2400","p","elianto","#3366ff99","-1","-1","1","+10","[]","0","2","","","13752","66","4","2","win","no-go","0"
"pit-trial","188","1213841","0.0-71.0","battery-v0.2","","""event"",""trial"",""time""
""fullscreenenter"",""1"",""4180""
","
","
","""event"",""trial"",""time""
""fullscreenenter"",""1"",""4180""
","
","","","-1","","","12","13752","2400","g","elianto","#f73b6a7A"," ","-1","0","-10","[]","0","2","","","13752","67","3","3","lose","go","0"
"pit-trial","189","1218695","0.0-72.0","battery-v0.2","","""event"",""trial"",""time""
""fullscreenenter"",""1"",""4180""
","
","
","""event"",""trial"",""time""
""fullscreenenter"",""1"",""4180""
","
","","","-1","","","12","13752","2400","a","elianto","#f73b6a7A","-1","-1","1","0","[]","0","2","","","13752","68","2","4","lose","no-go","0"
"pit-trial","190","1223549","0.0-73.0","battery-v0.2","","""event"",""trial"",""time""
""fullscreenenter"",""1"",""4180""
","
","
","""event"",""trial"",""time""
""fullscreenenter"",""1"",""4180""
","
","","","-1","","","12","13752","2400","g","elianto","#f73b6a7A"," ","-1","0","-10","[]","0","2","","","13752","69","3","3","lose","go","0"
"pit-trial","191","1227407","0.0-74.0","battery-v0.2","","""event"",""trial"",""time""
""fullscreenenter"",""1"",""4180""
","
","
","""event"",""trial"",""time""
""fullscreenenter"",""1"",""4180""
","
","","","1003.5","","","12","13752","2400","s","elianto","#3366ff99"," "," ","1","+10","[1854.2999999523163]","1","2","","","13752","70","5","1","win","go","0"
"pit-trial","192","1232260","0.0-75.0","battery-v0.2","","""event"",""trial"",""time""
""fullscreenenter"",""1"",""4180""
","
","
","""event"",""trial"",""time""
""fullscreenenter"",""1"",""4180""
","
","","","-1","","","12","13752","2400","p","elianto","#3366ff99","-1","-1","1","+10","[]","0","2","","","13752","71","4","2","win","no-go","0"
"pit-trial","193","1235895","0.0-76.0","battery-v0.2","","""event"",""trial"",""time""
""fullscreenenter"",""1"",""4180""
","
","
","""event"",""trial"",""time""
""fullscreenenter"",""1"",""4180""
","
","","","777","","","12","13752","2400","l","elianto","#3366ff99"," "," ","1","+10","[1629.9000000953674]","1","2","","","13752","72","1","1","win","go","0"
"pit-trial","194","1240749","0.0-77.0","battery-v0.2","","""event"",""trial"",""time""
""fullscreenenter"",""1"",""4180""
","
","
","""event"",""trial"",""time""
""fullscreenenter"",""1"",""4180""
","
","","","-1","","","12","13752","2400","p","elianto","#3366ff99","-1","-1","1","+10","[]","0","2","","","13752","73","4","2","win","no-go","0"
"pit-trial","195","1244274","0.0-78.0","battery-v0.2","","""event"",""trial"",""time""
""fullscreenenter"",""1"",""4180""
","
","
","""event"",""trial"",""time""
""fullscreenenter"",""1"",""4180""
","
","","","671.1000001430511","","","12","13752","2400","l","elianto","#3366ff99"," "," ","1","+10","[1521.8000001907349]","1","2","","","13752","74","1","1","win","go","0"
"pit-trial","196","1248527","0.0-79.0","battery-v0.2","","""event"",""trial"",""time""
""fullscreenenter"",""1"",""4180""
","
","
","""event"",""trial"",""time""
""fullscreenenter"",""1"",""4180""
","
","","","1398","","","12","13752","2400","g","elianto","#f73b6a7A"," "," ","1","-10","[2248.600000143051]","1","2","","","13752","75","3","3","lose","go","1"
"pit-trial","197","1252161","0.0-80.0","battery-v0.2","","""event"",""trial"",""time""
""fullscreenenter"",""1"",""4180""
","
","
","""event"",""trial"",""time""
""fullscreenenter"",""1"",""4180""
","
","","","779.7999999523163","","","12","13752","2400","s","elianto","#3366ff99"," "," ","1","+10","[1630.5]","1","2","","","13752","76","5","1","win","go","0"
"pit-trial","198","1257016","0.0-81.0","battery-v0.2","","""event"",""trial"",""time""
""fullscreenenter"",""1"",""4180""
","
","
","""event"",""trial"",""time""
""fullscreenenter"",""1"",""4180""
","
","","","-1","","","12","13752","2400","w","elianto","#f73b6a7A","-1","-1","1","-10","[]","0","2","","","13752","77","6","4","lose","no-go","1"
"pit-trial","199","1260812","0.0-82.0","battery-v0.2","","""event"",""trial"",""time""
""fullscreenenter"",""1"",""4180""
","
","
","""event"",""trial"",""time""
""fullscreenenter"",""1"",""4180""
","
","","","942.2999999523163","","","12","13752","2400","s","elianto","#3366ff99"," "," ","1","+10","[1792.3999998569489]","1","2","","","13752","78","5","1","win","go","0"
"pit-trial","200","1265667","0.0-83.0","battery-v0.2","","""event"",""trial"",""time""
""fullscreenenter"",""1"",""4180""
","
","
","""event"",""trial"",""time""
""fullscreenenter"",""1"",""4180""
","
","","","-1","","","12","13752","2400","g","elianto","#f73b6a7A"," ","-1","0","0","[]","0","2","","","13752","79","3","3","lose","go","1"
"pit-trial","201","1270522","0.0-84.0","battery-v0.2","","""event"",""trial"",""time""
""fullscreenenter"",""1"",""4180""
","
","
","""event"",""trial"",""time""
""fullscreenenter"",""1"",""4180""
","
","","","-1","","","12","13752","2400","p","elianto","#3366ff99","-1","-1","1","+10","[]","0","2","","","13752","80","4","2","win","no-go","0"
"pit-trial","202","1274299","0.0-85.0","battery-v0.2","","""event"",""trial"",""time""
""fullscreenenter"",""1"",""4180""
","
","
","""event"",""trial"",""time""
""fullscreenenter"",""1"",""4180""
","
","","","920","","","12","13752","2400","w","elianto","#f73b6a7A","-1"," ","0","-10","[1773.8999998569489]","1","2","","","13752","81","6","4","lose","no-go","0"
"pit-trial","203","1278422","0.0-86.0","battery-v0.2","","""event"",""trial"",""time""
""fullscreenenter"",""1"",""4180""
","
","
","""event"",""trial"",""time""
""fullscreenenter"",""1"",""4180""
","
","","","1268.3999998569489","","","12","13752","2400","s","elianto","#3366ff99"," "," ","1","0","[2120.199999809265]","1","2","","","13752","82","5","1","win","go","1"
"pit-trial","204","1283276","0.0-87.0","battery-v0.2","","""event"",""trial"",""time""
""fullscreenenter"",""1"",""4180""
","
","
","""event"",""trial"",""time""
""fullscreenenter"",""1"",""4180""
","
","","","-1","","","12","13752","2400","p","elianto","#3366ff99","-1","-1","1","+10","[]","0","2","","","13752","83","4","2","win","no-go","0"
"pit-trial","205","1287326","0.0-88.0","battery-v0.2","","""event"",""trial"",""time""
""fullscreenenter"",""1"",""4180""
","
","
","""event"",""trial"",""time""
""fullscreenenter"",""1"",""4180""
","
","","","1196.3000001907349","","","12","13752","2400","e","elianto","#f73b6a7A"," "," ","1","0","[2047.0999999046326]","1","2","","","13752","84","7","3","lose","go","0"
"pit-trial","206","1292181","0.0-89.0","battery-v0.2","","""event"",""trial"",""time""
""fullscreenenter"",""1"",""4180""
","
","
","""event"",""trial"",""time""
""fullscreenenter"",""1"",""4180""
","
","","","-1","","","12","13752","2400","p","elianto","#3366ff99","-1","-1","1","+10","[]","0","2","","","13752","85","4","2","win","no-go","0"
"pit-trial","207","1296230","0.0-90.0","battery-v0.2","","""event"",""trial"",""time""
""fullscreenenter"",""1"",""4180""
","
","
","""event"",""trial"",""time""
""fullscreenenter"",""1"",""4180""
","
","","","1196.4000000953674","","","12","13752","2400","w","elianto","#f73b6a7A","-1"," ","0","-10","[2046.3999998569489]","1","2","","","13752","86","6","4","lose","no-go","0"
"pit-trial","208","1299808","0.0-91.0","battery-v0.2","","""event"",""trial"",""time""
""fullscreenenter"",""1"",""4180""
","
","
","""event"",""trial"",""time""
""fullscreenenter"",""1"",""4180""
","
","","","725","","","12","13752","2400","s","elianto","#3366ff99"," "," ","1","+10","[1575.0999999046326]","1","2","","","13752","87","5","1","win","go","0"
"pit-trial","209","1304622","0.0-92.0","battery-v0.2","","""event"",""trial"",""time""
""fullscreenenter"",""1"",""4180""
","
","
","""event"",""trial"",""time""
""fullscreenenter"",""1"",""4180""
","
","","","1960.0999999046326","","","12","13752","2400","e","elianto","#f73b6a7A"," "," ","1","0","[2810.9000000953674]","1","2","","","13752","88","7","3","lose","go","0"
"pit-trial","210","1309478","0.0-93.0","battery-v0.2","","""event"",""trial"",""time""
""fullscreenenter"",""1"",""4180""
","
","
","""event"",""trial"",""time""
""fullscreenenter"",""1"",""4180""
","
","","","-1","","","12","13752","2400","p","elianto","#3366ff99","-1","-1","1","+10","[]","0","2","","","13752","89","4","2","win","no-go","0"
"pit-trial","211","1314332","0.0-94.0","battery-v0.2","","""event"",""trial"",""time""
""fullscreenenter"",""1"",""4180""
","
","
","""event"",""trial"",""time""
""fullscreenenter"",""1"",""4180""
","
","","","-1","","","12","13752","2400","w","elianto","#f73b6a7A","-1","-1","1","0","[]","0","2","","","13752","90","6","4","lose","no-go","0"
"pit-trial","212","1317947","0.0-95.0","battery-v0.2","","""event"",""trial"",""time""
""fullscreenenter"",""1"",""4180""
","
","
","""event"",""trial"",""time""
""fullscreenenter"",""1"",""4180""
","
","","","755.9000000953674","","","12","13752","2400","s","elianto","#3366ff99"," "," ","1","+10","[1609.2000000476837]","1","2","","","13752","91","5","1","win","go","0"
"pit-trial","213","1321777","0.0-96.0","battery-v0.2","","""event"",""trial"",""time""
""fullscreenenter"",""1"",""4180""
","
","
","""event"",""trial"",""time""
""fullscreenenter"",""1"",""4180""
","
","","","975.0999999046326","","","12","13752","2400","e","elianto","#f73b6a7A"," "," ","1","0","[1825.2999999523163]","1","2","","","13752","92","7","3","lose","go","0"
"pit-trial","214","1326632","0.0-97.0","battery-v0.2","","""event"",""trial"",""time""
""fullscreenenter"",""1"",""4180""
","
","
","""event"",""trial"",""time""
""fullscreenenter"",""1"",""4180""
","
","","","-1","","","12","13752","2400","w","elianto","#f73b6a7A","-1","-1","1","-10","[]","0","2","","","13752","93","6","4","lose","no-go","1"
"pit-trial","215","1330159","0.0-98.0","battery-v0.2","","""event"",""trial"",""time""
""fullscreenenter"",""1"",""4180""
","
","
","""event"",""trial"",""time""
""fullscreenenter"",""1"",""4180""
","
","","","670.2000000476837","","","12","13752","2400","s","elianto","#3366ff99"," "," ","1","+10","[1523.6000001430511]","1","2","","","13752","94","5","1","win","go","0"
"pit-trial","216","1334198","0.0-99.0","battery-v0.2","","""event"",""trial"",""time""
""fullscreenenter"",""1"",""4180""
","
","
","""event"",""trial"",""time""
""fullscreenenter"",""1"",""4180""
","
","","","1185.2999999523163","","","12","13752","2400","e","elianto","#f73b6a7A"," "," ","1","0","[2035.9000000953674]","1","2","","","13752","95","7","3","lose","go","0"
"pit-trial","217","1338278","0.0-100.0","battery-v0.2","","""event"",""trial"",""time""
""fullscreenenter"",""1"",""4180""
","
","
","""event"",""trial"",""time""
""fullscreenenter"",""1"",""4180""
","
","","","1225.5","","","12","13752","2400","d","elianto","#3366ff99","-1"," ","0","+10","[2076.5]","1","2","","","13752","96","8","2","win","no-go","1"
"pit-trial","218","1342068","0.0-101.0","battery-v0.2","","""event"",""trial"",""time""
""fullscreenenter"",""1"",""4180""
","
","
","""event"",""trial"",""time""
""fullscreenenter"",""1"",""4180""
","
","","","932.2999999523163","","","12","13752","2400","d","elianto","#3366ff99","-1"," ","0","0","[1786.4000000953674]","1","2","","","13752","97","8","2","win","no-go","0"
"pit-trial","219","1345702","0.0-102.0","battery-v0.2","","""event"",""trial"",""time""
""fullscreenenter"",""1"",""4180""
","
","
","""event"",""trial"",""time""
""fullscreenenter"",""1"",""4180""
","
","","","779.7999999523163","","","12","13752","2400","s","elianto","#3366ff99"," "," ","1","+10","[1630.7000000476837]","1","2","","","13752","98","5","1","win","go","0"
"pit-trial","220","1349379","0.0-103.0","battery-v0.2","","""event"",""trial"",""time""
""fullscreenenter"",""1"",""4180""
","
","
","""event"",""trial"",""time""
""fullscreenenter"",""1"",""4180""
","
","","","821.8000001907349","","","12","13752","2400","e","elianto","#f73b6a7A"," "," ","1","0","[1672.5999999046326]","1","2","","","13752","99","7","3","lose","go","0"
"pit-trial","221","1354233","0.0-104.0","battery-v0.2","","""event"",""trial"",""time""
""fullscreenenter"",""1"",""4180""
","
","
","""event"",""trial"",""time""
""fullscreenenter"",""1"",""4180""
","
","","","-1","","","12","13752","2400","w","elianto","#f73b6a7A","-1","-1","1","0","[]","0","2","","","13752","100","6","4","lose","no-go","0"
"pit-trial","222","1359087","0.0-105.0","battery-v0.2","","""event"",""trial"",""time""
""fullscreenenter"",""1"",""4180""
","
","
","""event"",""trial"",""time""
""fullscreenenter"",""1"",""4180""
","
","","","-1","","","12","13752","2400","w","elianto","#f73b6a7A","-1","-1","1","0","[]","0","2","","","13752","101","6","4","lose","no-go","0"
"pit-trial","223","1362682","0.0-106.0","battery-v0.2","","""event"",""trial"",""time""
""fullscreenenter"",""1"",""4180""
","
","
","""event"",""trial"",""time""
""fullscreenenter"",""1"",""4180""
","
","","","740.5","","","12","13752","2400","d","elianto","#3366ff99","-1"," ","0","0","[1590.5999999046326]","1","2","","","13752","102","8","2","win","no-go","0"
"pit-trial","224","1366602","0.0-107.0","battery-v0.2","","""event"",""trial"",""time""
""fullscreenenter"",""1"",""4180""
","
","
","""event"",""trial"",""time""
""fullscreenenter"",""1"",""4180""
","
","","","1066","","","12","13752","2400","j","elianto","#3366ff99","-1"," ","0","+10","[1916.4000000953674]","1","2","","","13752","103","9","2","win","no-go","1"
"pit-trial","225","1370133","0.0-108.0","battery-v0.2","","""event"",""trial"",""time""
""fullscreenenter"",""1"",""4180""
","
","
","""event"",""trial"",""time""
""fullscreenenter"",""1"",""4180""
","
","","","677.2999999523163","","","12","13752","2400","s","elianto","#3366ff99"," "," ","1","+10","[1527.7999999523163]","1","2","","","13752","104","5","1","win","go","0"
"pit-trial","226","1373785","0.0-109.0","battery-v0.2","","""event"",""trial"",""time""
""fullscreenenter"",""1"",""4180""
","
","
","""event"",""trial"",""time""
""fullscreenenter"",""1"",""4180""
","
","","","798.3999998569489","","","12","13752","2400","s","elianto","#3366ff99"," "," ","1","+10","[1648.4000000953674]","1","2","","","13752","105","5","1","win","go","0"
"pit-trial","227","1378639","0.0-110.0","battery-v0.2","","""event"",""trial"",""time""
""fullscreenenter"",""1"",""4180""
","
","
","""event"",""trial"",""time""
""fullscreenenter"",""1"",""4180""
","
","","","-1","","","12","13752","2400","d","elianto","#3366ff99","-1","-1","1","+10","[]","0","2","","","13752","106","8","2","win","no-go","0"
"pit-trial","228","1383494","0.0-111.0","battery-v0.2","","""event"",""trial"",""time""
""fullscreenenter"",""1"",""4180""
","
","
","""event"",""trial"",""time""
""fullscreenenter"",""1"",""4180""
","
","","","-1","","","12","13752","2400","w","elianto","#f73b6a7A","-1","-1","1","0","[]","0","2","","","13752","107","6","4","lose","no-go","0"
"pit-trial","229","1387453","0.0-112.0","battery-v0.2","","""event"",""trial"",""time""
""fullscreenenter"",""1"",""4180""
","
","
","""event"",""trial"",""time""
""fullscreenenter"",""1"",""4180""
","
","","","1104.7000000476837","","","12","13752","2400","j","elianto","#3366ff99","-1"," ","0","0","[1955.7000000476837]","1","2","","","13752","108","9","2","win","no-go","0"
"pit-trial","230","1391054","0.0-113.0","battery-v0.2","","""event"",""trial"",""time""
""fullscreenenter"",""1"",""4180""
","
","
","""event"",""trial"",""time""
""fullscreenenter"",""1"",""4180""
","
","","","746.6000001430511","","","12","13752","2400","s","elianto","#3366ff99"," "," ","1","0","[1596.7999999523163]","1","2","","","13752","109","5","1","win","go","1"
"pit-trial","231","1395909","0.0-114.0","battery-v0.2","","""event"",""trial"",""time""
""fullscreenenter"",""1"",""4180""
","
","
","""event"",""trial"",""time""
""fullscreenenter"",""1"",""4180""
","
","","","-1","","","12","13752","2400","w","elianto","#f73b6a7A","-1","-1","1","0","[]","0","2","","","13752","110","6","4","lose","no-go","0"
"pit-trial","232","1399706","0.0-115.0","battery-v0.2","","""event"",""trial"",""time""
""fullscreenenter"",""1"",""4180""
","
","
","""event"",""trial"",""time""
""fullscreenenter"",""1"",""4180""
","
","","","941.5","","","12","13752","2400","j","elianto","#3366ff99","-1"," ","0","0","[1791.7999999523163]","1","2","","","13752","111","9","2","win","no-go","0"
"pit-trial","233","1403373","0.0-116.0","battery-v0.2","","""event"",""trial"",""time""
""fullscreenenter"",""1"",""4180""
","
","
","""event"",""trial"",""time""
""fullscreenenter"",""1"",""4180""
","
","","","814.9000000953674","","","12","13752","2400","d","elianto","#3366ff99","-1"," ","0","0","[1665.2999999523163]","1","2","","","13752","112","8","2","win","no-go","0"
"pit-trial","234","1407241","0.0-117.0","battery-v0.2","","""event"",""trial"",""time""
""fullscreenenter"",""1"",""4180""
","
","
","""event"",""trial"",""time""
""fullscreenenter"",""1"",""4180""
","
","","","1012.9000000953674","","","12","13752","2400","s","elianto","#3366ff99"," "," ","1","+10","[1863.7000000476837]","1","2","","","13752","113","5","1","win","go","0"
"pit-trial","235","1411324","0.0-118.0","battery-v0.2","","""event"",""trial"",""time""
""fullscreenenter"",""1"",""4180""
","
","
","""event"",""trial"",""time""
""fullscreenenter"",""1"",""4180""
","
","","","1228.5999999046326","","","12","13752","2400","e","elianto","#f73b6a7A"," "," ","1","-10","[2079.2999999523163]","1","2","","","13752","114","7","3","lose","go","1"
"pit-trial","236","1416179","0.0-119.0","battery-v0.2","","""event"",""trial"",""time""
""fullscreenenter"",""1"",""4180""
","
","
","""event"",""trial"",""time""
""fullscreenenter"",""1"",""4180""
","
","","","-1","","","12","13752","2400","j","elianto","#3366ff99","-1","-1","1","+10","[]","0","2","","","13752","115","9","2","win","no-go","0"
"pit-trial","237","1421035","0.0-120.0","battery-v0.2","","""event"",""trial"",""time""
""fullscreenenter"",""1"",""4180""
","
","
","""event"",""trial"",""time""
""fullscreenenter"",""1"",""4180""
","
","","","-1","","","12","13752","2400","d","elianto","#3366ff99","-1","-1","1","0","[]","0","2","","","13752","116","8","2","win","no-go","1"
"pit-trial","238","1424510","0.0-121.0","battery-v0.2","","""event"",""trial"",""time""
""fullscreenenter"",""1"",""4180""
","
","
","""event"",""trial"",""time""
""fullscreenenter"",""1"",""4180""
","
","","","620.3999998569489","","","12","13752","2400","s","elianto","#3366ff99"," "," ","1","+10","[1470.5]","1","2","","","13752","117","5","1","win","go","0"
"pit-trial","239","1429365","0.0-122.0","battery-v0.2","","""event"",""trial"",""time""
""fullscreenenter"",""1"",""4180""
","
","
","""event"",""trial"",""time""
""fullscreenenter"",""1"",""4180""
","
","","","-1","","","12","13752","2400","w","elianto","#f73b6a7A","-1","-1","1","0","[]","0","2","","","13752","118","6","4","lose","no-go","0"
"pit-trial","240","1434042","0.0-123.0","battery-v0.2","","""event"",""trial"",""time""
""fullscreenenter"",""1"",""4180""
","
","
","""event"",""trial"",""time""
""fullscreenenter"",""1"",""4180""
","
","","","1823.5","","","12","13752","2400","j","elianto","#3366ff99","-1"," ","0","0","[2673.7000000476837]","1","2","","","13752","119","9","2","win","no-go","0"
"pit-trial","241","1438897","0.0-124.0","battery-v0.2","","""event"",""trial"",""time""
""fullscreenenter"",""1"",""4180""
","
","
","""event"",""trial"",""time""
""fullscreenenter"",""1"",""4180""
","
","","","-1","","","12","13752","2400","d","elianto","#3366ff99","-1","-1","1","+10","[]","0","2","","","13752","120","8","2","win","no-go","0"
"pit-trial","242","1443737","0.0-125.0","battery-v0.2","","""event"",""trial"",""time""
""fullscreenenter"",""1"",""4180""
","
","
","""event"",""trial"",""time""
""fullscreenenter"",""1"",""4180""
","
","","","1985","","","12","13752","2400","e","elianto","#f73b6a7A"," "," ","1","0","[2835.5]","1","2","","","13752","121","7","3","lose","go","0"
"pit-trial","243","1447195","0.0-126.0","battery-v0.2","","""event"",""trial"",""time""
""fullscreenenter"",""1"",""4180""
","
","
","""event"",""trial"",""time""
""fullscreenenter"",""1"",""4180""
","
","","","603.2000000476837","","","12","13752","2400","s","elianto","#3366ff99"," "," ","1","+10","[1454.5]","1","2","","","13752","122","5","1","win","go","0"
"pit-trial","244","1451331","0.0-127.0","battery-v0.2","","""event"",""trial"",""time""
""fullscreenenter"",""1"",""4180""
","
","
","""event"",""trial"",""time""
""fullscreenenter"",""1"",""4180""
","
","","","1281.1000001430511","","","12","13752","2400","j","elianto","#3366ff99","-1"," ","0","0","[2131.7000000476837]","1","2","","","13752","123","9","2","win","no-go","0"
"pit-trial","245","1456185","0.0-128.0","battery-v0.2","","""event"",""trial"",""time""
""fullscreenenter"",""1"",""4180""
","
","
","""event"",""trial"",""time""
""fullscreenenter"",""1"",""4180""
","
","","","-1","","","12","13752","2400","d","elianto","#3366ff99","-1","-1","1","+10","[]","0","2","","","13752","124","8","2","win","no-go","0"
"pit-trial","246","1461039","0.0-129.0","battery-v0.2","","""event"",""trial"",""time""
""fullscreenenter"",""1"",""4180""
","
","
","""event"",""trial"",""time""
""fullscreenenter"",""1"",""4180""
","
","","","-1","","","12","13752","2400","d","elianto","#3366ff99","-1","-1","1","+10","[]","0","2","","","13752","125","8","2","win","no-go","0"
"pit-trial","247","1465892","0.0-130.0","battery-v0.2","","""event"",""trial"",""time""
""fullscreenenter"",""1"",""4180""
","
","
","""event"",""trial"",""time""
""fullscreenenter"",""1"",""4180""
","
","","","-1","","","12","13752","2400","j","elianto","#3366ff99","-1","-1","1","0","[]","0","2","","","13752","126","9","2","win","no-go","1"
"pit-trial","248","1470751","0.0-131.0","battery-v0.2","","""event"",""trial"",""time""
""fullscreenenter"",""1"",""4180""
","
","
","""event"",""trial"",""time""
""fullscreenenter"",""1"",""4180""
","
","","","-1","","","12","13752","2400","w","elianto","#f73b6a7A","-1","-1","1","-10","[]","0","2","","","13752","127","6","4","lose","no-go","1"
"pit-trial","249","1474502","0.0-132.0","battery-v0.2","","""event"",""trial"",""time""
""fullscreenenter"",""1"",""4180""
","
","
","""event"",""trial"",""time""
""fullscreenenter"",""1"",""4180""
","
","","","898.0999999046326","","","12","13752","2400","e","elianto","#f73b6a7A"," "," ","1","0","[1748.2000000476837]","1","2","","","13752","128","7","3","lose","go","0"
"pit-trial","250","1479357","0.0-133.0","battery-v0.2","","""event"",""trial"",""time""
""fullscreenenter"",""1"",""4180""
","
","
","""event"",""trial"",""time""
""fullscreenenter"",""1"",""4180""
","
","","","-1","","","12","13752","2400","w","elianto","#f73b6a7A","-1","-1","1","0","[]","0","2","","","13752","129","6","4","lose","no-go","0"
"pit-trial","251","1484212","0.0-134.0","battery-v0.2","","""event"",""trial"",""time""
""fullscreenenter"",""1"",""4180""
","
","
","""event"",""trial"",""time""
""fullscreenenter"",""1"",""4180""
","
","","","-1","","","12","13752","2400","j","elianto","#3366ff99","-1","-1","1","+10","[]","0","2","","","13752","130","9","2","win","no-go","0"
"pit-trial","252","1487987","0.0-135.0","battery-v0.2","","""event"",""trial"",""time""
""fullscreenenter"",""1"",""4180""
","
","
","""event"",""trial"",""time""
""fullscreenenter"",""1"",""4180""
","
","","","920.5999999046326","","","12","13752","2400","e","elianto","#f73b6a7A"," "," ","1","0","[1771.7000000476837]","1","2","","","13752","131","7","3","lose","go","0"
"pit-trial","253","1492842","0.0-136.0","battery-v0.2","","""event"",""trial"",""time""
""fullscreenenter"",""1"",""4180""
","
","
","""event"",""trial"",""time""
""fullscreenenter"",""1"",""4180""
","
","","","-1","","","12","13752","2400","d","elianto","#3366ff99","-1","-1","1","+10","[3462.300000190735]","1","2","","","13752","132","8","2","win","no-go","0"
"pit-trial","254","1497697","0.0-137.0","battery-v0.2","","""event"",""trial"",""time""
""fullscreenenter"",""1"",""4180""
","
","
","""event"",""trial"",""time""
""fullscreenenter"",""1"",""4180""
","
","","","-1","","","12","13752","2400","d","elianto","#3366ff99","-1","-1","1","+10","[]","0","2","","","13752","133","8","2","win","no-go","0"
"pit-trial","255","1501467","0.0-138.0","battery-v0.2","","""event"",""trial"",""time""
""fullscreenenter"",""1"",""4180""
","
","
","""event"",""trial"",""time""
""fullscreenenter"",""1"",""4180""
","
","","","914.8999998569489","","","12","13752","2400","e","elianto","#f73b6a7A"," "," ","1","-10","[1765.4000000953674]","1","2","","","13752","134","7","3","lose","go","1"
"pit-trial","256","1506333","0.0-139.0","battery-v0.2","","""event"",""trial"",""time""
""fullscreenenter"",""1"",""4180""
","
","
","""event"",""trial"",""time""
""fullscreenenter"",""1"",""4180""
","
","","","-1","","","12","13752","2400","j","elianto","#3366ff99","-1","-1","1","+10","[]","0","2","","","13752","135","9","2","win","no-go","0"
"pit-trial","257","1511188","0.0-140.0","battery-v0.2","","""event"",""trial"",""time""
""fullscreenenter"",""1"",""4180""
","
","
","""event"",""trial"",""time""
""fullscreenenter"",""1"",""4180""
","
","","","-1","","","12","13752","2400","w","elianto","#f73b6a7A","-1","-1","1","-10","[]","0","2","","","13752","136","6","4","lose","no-go","1"
"pit-trial","258","1514746","0.0-141.0","battery-v0.2","","""event"",""trial"",""time""
""fullscreenenter"",""1"",""4180""
","
","
","""event"",""trial"",""time""
""fullscreenenter"",""1"",""4180""
","
","","","702.4000000953674","","","12","13752","2400","e","elianto","#f73b6a7A"," "," ","1","0","[1552.7999999523163]","1","2","","","13752","137","7","3","lose","go","0"
"pit-trial","259","1519600","0.0-142.0","battery-v0.2","","""event"",""trial"",""time""
""fullscreenenter"",""1"",""4180""
","
","
","""event"",""trial"",""time""
""fullscreenenter"",""1"",""4180""
","
","","","-1","","","12","13752","2400","w","elianto","#f73b6a7A","-1","-1","1","0","[]","0","2","","","13752","138","6","4","lose","no-go","0"
"pit-trial","260","1524453","0.0-143.0","battery-v0.2","","""event"",""trial"",""time""
""fullscreenenter"",""1"",""4180""
","
","
","""event"",""trial"",""time""
""fullscreenenter"",""1"",""4180""
","
","","","-1","","","12","13752","2400","j","elianto","#3366ff99","-1","-1","1","+10","[]","0","2","","","13752","139","9","2","win","no-go","0"
"pit-trial","261","1529308","0.0-144.0","battery-v0.2","","""event"",""trial"",""time""
""fullscreenenter"",""1"",""4180""
","
","
","""event"",""trial"",""time""
""fullscreenenter"",""1"",""4180""
","
","","","-1","","","12","13752","2400","d","elianto","#3366ff99","-1","-1","1","0","[]","0","2","","","13752","140","8","2","win","no-go","1"
"pit-instructions","262","1568308","0.0-145.0","battery-v0.2","","""event"",""trial"",""time""
""fullscreenenter"",""1"",""4180""
","
","
","""event"",""trial"",""time""
""fullscreenenter"",""1"",""4180""
","
","","[{""page_index"":0,""viewing_time"":29651.700000047684},{""page_index"":1,""viewing_time"":9344.5}]","38996.60000014305","","","","","","","","","","","","","","","","","","","","","","","",""
"pit-trial","263","1571710","0.0-146.0","battery-v0.2","","""event"",""trial"",""time""
""fullscreenenter"",""1"",""4180""
","
","
","""event"",""trial"",""time""
""fullscreenenter"",""1"",""4180""
","
","","","525.7999999523163","","","12","13752","2400","n","elianto","#f73b6a7A"," "," ","1","0","[1381.5]","1","3","","","13752","141","0","3","lose","go","0"
"pit-trial","264","1575500","0.0-147.0","battery-v0.2","","""event"",""trial"",""time""
""fullscreenenter"",""1"",""4180""
","
","
","""event"",""trial"",""time""
""fullscreenenter"",""1"",""4180""
","
","","","924.0999999046326","","","12","13752","2400","b","elianto","#f73b6a7A","-1"," ","0","-10","[1779.5]","1","3","","","13752","142","3","4","lose","no-go","0"
"pit-trial","265","1579161","0.0-148.0","battery-v0.2","","""event"",""trial"",""time""
""fullscreenenter"",""1"",""4180""
","
","
","""event"",""trial"",""time""
""fullscreenenter"",""1"",""4180""
","
","","","800.0999999046326","","","12","13752","2400","f","elianto","#3366ff99","-1"," ","0","0","[1650.9000000953674]","1","3","","","13752","143","1","2","win","no-go","0"
"pit-trial","266","1582831","0.0-149.0","battery-v0.2","","""event"",""trial"",""time""
""fullscreenenter"",""1"",""4180""
","
","
","""event"",""trial"",""time""
