"trial_type","trial_index","time_elapsed","internal_node_id","task_version","subject_id","interactions","blur_events","focus_events","fullscreenenter_events","fullscreenexit_events","success","view_history","rt","responses","num_errors","age","subject","participantId","rune","rune_set","hex","correct","choice","accuracy","outcome","keys","total_keys","block","practice","value","sub","trial","stimulus","robot","valence","action","sham"
"pavlovia","0","8","0.0-0.0","battery-v0.2","","""event"",""trial"",""time""
""fullscreenenter"",""1"",""1660""
","
","
","""event"",""trial"",""time""
""fullscreenenter"",""1"",""1660""
","
","","","","","","","","","","","","","","","","","","","","","","","","","","",""
"fullscreen","1","2651","0.0-1.0","battery-v0.2","","""event"",""trial"",""time""
""fullscreenenter"",""1"",""1660""
","
","
","""event"",""trial"",""time""
""fullscreenenter"",""1"",""1660""
","
","true","","","","","","","","","","","","","","","","","","","","","","","","","",""
"pit-instructions","2","6067","0.0-2.0-0.0","battery-v0.2","","""event"",""trial"",""time""
""fullscreenenter"",""1"",""1660""
","
","
","""event"",""trial"",""time""
""fullscreenenter"",""1"",""1660""
","
","","[{""page_index"":0,""viewing_time"":3412.699999988079}]","3413","","","","","","","","","","","","","","","","","","","","","","","",""
"pit-comprehension","3","8813","0.0-2.0-1.0-0.0","battery-v0.2","","""event"",""trial"",""time""
""fullscreenenter"",""1"",""1660""
","
","
","""event"",""trial"",""time""
""fullscreenenter"",""1"",""1660""
","
","","","2744.100000023842","[""shark""]","0","19","15345","4170","","","","","","","","","","","","","","","","","","",""
"pit-instructions","4","13579","0.0-2.0-1.0-1.0","battery-v0.2","","""event"",""trial"",""time""
""fullscreenenter"",""1"",""1660""
","
","
","""event"",""trial"",""time""
""fullscreenenter"",""1"",""1660""
","
","","[{""page_index"":0,""viewing_time"":4755.199999988079}]","4755.600000023842","","","","","","","","","","","","","","","","","","","","","","","",""
"pit-comprehension","5","18221","0.0-2.0-2.0-0.0","battery-v0.2","","""event"",""trial"",""time""
""fullscreenenter"",""1"",""1660""
","
","
","""event"",""trial"",""time""
""fullscreenenter"",""1"",""1660""
","
","","","4639.800000011921","[""tiger""]","0","19","15345","4170","","","","","","","","","","","","","","","","","","",""
"pit-instructions","6","19199","0.0-2.0-2.0-1.0","battery-v0.2","","""event"",""trial"",""time""
""fullscreenenter"",""1"",""1660""
","
","
","""event"",""trial"",""time""
""fullscreenenter"",""1"",""1660""
","
","","[{""page_index"":0,""viewing_time"":975.1999999880791}]","975.5999999642372","","","","","","","","","","","","","","","","","","","","","","","",""
"pit-instructions","7","111263","0.0-2.0-3.0","battery-v0.2","","""event"",""trial"",""time""
""fullscreenenter"",""1"",""1660""
","
","
","""event"",""trial"",""time""
""fullscreenenter"",""1"",""1660""
","
","","[{""page_index"":0,""viewing_time"":8339.699999988079},{""page_index"":1,""viewing_time"":5808.100000023842},{""page_index"":2,""viewing_time"":6167.799999952316},{""page_index"":3,""viewing_time"":5144.100000023842},{""page_index"":4,""viewing_time"":6060},{""page_index"":5,""viewing_time"":5215.899999976158},{""page_index"":6,""viewing_time"":5744.100000023842},{""page_index"":7,""viewing_time"":6430.100000023842},{""page_index"":8,""viewing_time"":6650},{""page_index"":9,""viewing_time"":8187.799999952316},{""page_index"":10,""viewing_time"":7668},{""page_index"":11,""viewing_time"":7560.100000023842},{""page_index"":12,""viewing_time"":7457.899999976158},{""page_index"":13,""viewing_time"":5628.100000023842}]","92062","","","","","","","","","","","","","","","","","","","","","","","",""
"pit-trial","8","115016","0.0-2.0-4.0-0.0","battery-v0.2","","""event"",""trial"",""time""
""fullscreenenter"",""1"",""1660""
","
","
","""event"",""trial"",""time""
""fullscreenenter"",""1"",""1660""
","
","","","896.8000000119209","","","19","15345","4170","&#9784;","elianto","#FFFFF080"," "," ","1","&#10004","[1748.7000000476837]","1","0","0","","","","","","","",""
"pit-trial","9","118606","0.0-2.0-4.1-0.1","battery-v0.2","","""event"",""trial"",""time""
""fullscreenenter"",""1"",""1660""
","
","
","""event"",""trial"",""time""
""fullscreenenter"",""1"",""1660""
","
","","","718.1999999880791","","","19","15345","4170","&#9784;","elianto","#FFFFF080"," "," ","1","&#10004","[1572.8999999761581]","1","0","0","","","","","","","",""
"pit-trial","10","122136","0.0-2.0-4.2-0.2","battery-v0.2","","""event"",""trial"",""time""
""fullscreenenter"",""1"",""1660""
","
","
","""event"",""trial"",""time""
""fullscreenenter"",""1"",""1660""
","
","","","658.6999999880791","","","19","15345","4170","&#9784;","elianto","#FFFFF080"," "," ","1","&#10004","[1513.199999988079]","1","0","0","","","","","","","",""
"pit-trial","11","125735","0.0-2.0-4.3-0.3","battery-v0.2","","""event"",""trial"",""time""
""fullscreenenter"",""1"",""1660""
","
","
","""event"",""trial"",""time""
""fullscreenenter"",""1"",""1660""
","
","","","729.8999999761581","","","19","15345","4170","&#9784;","elianto","#FFFFF080"," "," ","1","&#10004","[1582.199999988079]","1","0","0","","","","","","","",""
"pit-trial","12","129182","0.0-2.0-4.4-0.4","battery-v0.2","","""event"",""trial"",""time""
""fullscreenenter"",""1"",""1660""
","
","
","""event"",""trial"",""time""
""fullscreenenter"",""1"",""1660""
","
","","","576.7999999523163","","","19","15345","4170","&#9784;","elianto","#FFFFF080"," "," ","1","&#10004","[1430.199999988079]","1","0","0","","","","","","","",""
"pit-instructions","13","149529","0.0-2.0-5.0","battery-v0.2","","""event"",""trial"",""time""
""fullscreenenter"",""1"",""1660""
","
","
","""event"",""trial"",""time""
""fullscreenenter"",""1"",""1660""
","
","","[{""page_index"":0,""viewing_time"":4993.399999976158},{""page_index"":1,""viewing_time"":5920.100000023842},{""page_index"":2,""viewing_time"":4363.799999952316},{""page_index"":3,""viewing_time"":5063.600000023842}]","20341.19999998808","","","","","","","","","","","","","","","","","","","","","","","",""
"pit-trial","14","154399","0.0-2.0-6.0-0.0","battery-v0.2","","""event"",""trial"",""time""
""fullscreenenter"",""1"",""1660""
","
","
","""event"",""trial"",""time""
""fullscreenenter"",""1"",""1660""
","
","","","-1","","","19","15345","4170","&#9854;","elianto","#FFFFF080","-1","-1","1","&#10004","[]","0","0","1","","","","","","","",""
"pit-trial","15","159276","0.0-2.0-6.1-0.1","battery-v0.2","","""event"",""trial"",""time""
""fullscreenenter"",""1"",""1660""
","
","
","""event"",""trial"",""time""
""fullscreenenter"",""1"",""1660""
","
","","","-1","","","19","15345","4170","&#9854;","elianto","#FFFFF080","-1","-1","1","&#10004","[]","0","0","1","","","","","","","",""
"pit-trial","16","164149","0.0-2.0-6.2-0.2","battery-v0.2","","""event"",""trial"",""time""
""fullscreenenter"",""1"",""1660""
","
","
","""event"",""trial"",""time""
""fullscreenenter"",""1"",""1660""
","
","","","-1","","","19","15345","4170","&#9854;","elianto","#FFFFF080","-1","-1","1","&#10004","[]","0","0","1","","","","","","","",""
"pit-trial","17","169031","0.0-2.0-6.3-0.3","battery-v0.2","","""event"",""trial"",""time""
""fullscreenenter"",""1"",""1660""
","
","
","""event"",""trial"",""time""
""fullscreenenter"",""1"",""1660""
","
","","","-1","","","19","15345","4170","&#9854;","elianto","#FFFFF080","-1","-1","1","&#10004","[]","0","0","1","","","","","","","",""
"pit-trial","18","173899","0.0-2.0-6.4-0.4","battery-v0.2","","""event"",""trial"",""time""
""fullscreenenter"",""1"",""1660""
","
","
","""event"",""trial"",""time""
""fullscreenenter"",""1"",""1660""
","
","","","-1","","","19","15345","4170","&#9854;","elianto","#FFFFF080","-1","-1","1","&#10004","[]","0","0","1","","","","","","","",""
"pit-instructions","19","287607","0.0-2.0-7.0","battery-v0.2","","""event"",""trial"",""time""
""fullscreenenter"",""1"",""1660""
","
","
","""event"",""trial"",""time""
""fullscreenenter"",""1"",""1660""
","
","","[{""page_index"":0,""viewing_time"":5268.399999976158},{""page_index"":1,""viewing_time"":6884},{""page_index"":2,""viewing_time"":6243.900000035763},{""page_index"":3,""viewing_time"":5808.099999964237},{""page_index"":4,""viewing_time"":5697.900000035763},{""page_index"":5,""viewing_time"":5120.099999964237},{""page_index"":6,""viewing_time"":4182},{""page_index"":7,""viewing_time"":7237.900000035763},{""page_index"":8,""viewing_time"":6674.099999964237},{""page_index"":9,""viewing_time"":5493.900000035763},{""page_index"":10,""viewing_time"":6874.099999964237},{""page_index"":11,""viewing_time"":4054.100000023842},{""page_index"":12,""viewing_time"":6687.899999976158},{""page_index"":13,""viewing_time"":6840},{""page_index"":14,""viewing_time"":7488.100000023842},{""page_index"":15,""viewing_time"":9791.899999976158},{""page_index"":16,""viewing_time"":6957.900000035763},{""page_index"":17,""viewing_time"":6396}]","113700.69999998808","","","","","","","","","","","","","","","","","","","","","","","",""
"pit-trial","20","291145","0.0-2.0-8.0-0.0","battery-v0.2","","""event"",""trial"",""time""
""fullscreenenter"",""1"",""1660""
","
","
","""event"",""trial"",""time""
""fullscreenenter"",""1"",""1660""
","
","","","679.1000000238419","","","19","15345","4170","&#9776;","elianto","#3366ff99"," "," ","1","+10","[1531.199999988079]","1","0","1","","","","","","","",""
"pit-trial","21","294532","0.0-2.0-8.0-1.0","battery-v0.2","","""event"",""trial"",""time""
""fullscreenenter"",""1"",""1660""
","
","
","""event"",""trial"",""time""
""fullscreenenter"",""1"",""1660""
","
","","","529.9000000357628","","","19","15345","4170","&#9776;","elianto","#3366ff99"," "," ","1","+10","[1383.3999999761581]","1","0","1","","","","","","","",""
"pit-trial","22","297874","0.0-2.0-8.0-2.0","battery-v0.2","","""event"",""trial"",""time""
""fullscreenenter"",""1"",""1660""
","
","
","""event"",""trial"",""time""
""fullscreenenter"",""1"",""1660""
","
","","","479.7999999523163","","","19","15345","4170","&#9776;","elianto","#3366ff99"," "," ","1","+10","[1332]","1","0","1","","","","","","","",""
"pit-trial","23","301217","0.0-2.0-8.0-3.0","battery-v0.2","","""event"",""trial"",""time""
""fullscreenenter"",""1"",""1660""
","
","
","""event"",""trial"",""time""
""fullscreenenter"",""1"",""1660""
","
","","","470.0999999642372","","","19","15345","4170","&#9776;","elianto","#3366ff99"," "," ","1","0","[1323.300000011921]","1","0","1","","","","","","","",""
"pit-trial","24","304294","0.0-2.0-8.0-4.0","battery-v0.2","","""event"",""trial"",""time""
""fullscreenenter"",""1"",""1660""
","
","
","""event"",""trial"",""time""
""fullscreenenter"",""1"",""1660""
","
","","","216.30000001192093","","","19","15345","4170","&#9776;","elianto","#3366ff99"," "," ","1","+10","[1070.800000011921,1687.300000011921]","2","0","1","","","","","","","",""
"pit-trial","25","307285","0.0-2.0-8.1-0.1","battery-v0.2","","""event"",""trial"",""time""
""fullscreenenter"",""1"",""1660""
","
","
","""event"",""trial"",""time""
""fullscreenenter"",""1"",""1660""
","
","","","128.60000002384186","","","19","15345","4170","&#9776;","elianto","#3366ff99"," "," ","1","+10","[982.5]","1","0","1","","","","","","","",""
"pit-trial","26","310235","0.0-2.0-8.1-1.1","battery-v0.2","","""event"",""trial"",""time""
""fullscreenenter"",""1"",""1660""
","
","
","""event"",""trial"",""time""
""fullscreenenter"",""1"",""1660""
","
","","","87","","","19","15345","4170","&#9776;","elianto","#3366ff99"," "," ","1","+10","[939.3999999761581]","1","0","1","","","","","","","",""
"pit-trial","27","313133","0.0-2.0-8.1-2.1","battery-v0.2","","""event"",""trial"",""time""
""fullscreenenter"",""1"",""1660""
","
","
","""event"",""trial"",""time""
""fullscreenenter"",""1"",""1660""
","
","","","36.19999998807907","","","19","15345","4170","&#9776;","elianto","#3366ff99"," "," ","1","+10","[891.1999999880791]","1","0","1","","","","","","","",""
"pit-trial","28","316010","0.0-2.0-8.1-3.1","battery-v0.2","","""event"",""trial"",""time""
""fullscreenenter"",""1"",""1660""
","
","
","""event"",""trial"",""time""
""fullscreenenter"",""1"",""1660""
","
","","","11.600000023841858","","","19","15345","4170","&#9776;","elianto","#3366ff99"," "," ","1","0","[866.3000000119209]","1","0","1","","","","","","","",""
"pit-trial","29","318877","0.0-2.0-8.1-4.1","battery-v0.2","","""event"",""trial"",""time""
""fullscreenenter"",""1"",""1660""
","
","
","""event"",""trial"",""time""
""fullscreenenter"",""1"",""1660""
","
","","","11","","","19","15345","4170","&#9776;","elianto","#3366ff99"," "," ","1","+10","[861.5]","1","0","1","","","","","","","",""
"pit-trial","30","322124","0.0-2.0-8.2-0.2","battery-v0.2","","""event"",""trial"",""time""
""fullscreenenter"",""1"",""1660""
","
","
","""event"",""trial"",""time""
""fullscreenenter"",""1"",""1660""
","
","","","391.5","","","19","15345","4170","&#9776;","elianto","#3366ff99"," "," ","1","+10","[1242.6000000238419]","1","0","1","","","","","","","",""
"pit-trial","31","325245","0.0-2.0-8.2-1.2","battery-v0.2","","""event"",""trial"",""time""
""fullscreenenter"",""1"",""1660""
","
","
","""event"",""trial"",""time""
""fullscreenenter"",""1"",""1660""
","
","","","265.4000000357628","","","19","15345","4170","&#9776;","elianto","#3366ff99"," "," ","1","+10","[1116.3999999761581,2907.199999988079]","2","0","1","","","","","","","",""
"pit-trial","32","328228","0.0-2.0-8.2-2.2","battery-v0.2","","""event"",""trial"",""time""
""fullscreenenter"",""1"",""1660""
","
","
","""event"",""trial"",""time""
""fullscreenenter"",""1"",""1660""
","
","","","128.5","","","19","15345","4170","&#9776;","elianto","#3366ff99"," "," ","1","+10","[978.8999999761581]","1","0","1","","","","","","","",""
"pit-trial","33","331179","0.0-2.0-8.2-3.2","battery-v0.2","","""event"",""trial"",""time""
""fullscreenenter"",""1"",""1660""
","
","
","""event"",""trial"",""time""
""fullscreenenter"",""1"",""1660""
","
","","","94.30000001192093","","","19","15345","4170","&#9776;","elianto","#3366ff99"," "," ","1","0","[946.1000000238419]","1","0","1","","","","","","","",""
"pit-trial","34","334117","0.0-2.0-8.2-4.2","battery-v0.2","","""event"",""trial"",""time""
""fullscreenenter"",""1"",""1660""
","
","
","""event"",""trial"",""time""
""fullscreenenter"",""1"",""1660""
","
","","","84.30000001192093","","","19","15345","4170","&#9776;","elianto","#3366ff99"," "," ","1","+10","[934.1999999880791,2693.800000011921]","2","0","1","","","","","","","",""
"call-function","35","334121","0.0-2.0-9.0","battery-v0.2","","""event"",""trial"",""time""
""fullscreenenter"",""1"",""1660""
","
","
","""event"",""trial"",""time""
""fullscreenenter"",""1"",""1660""
","
","","","","","","","","","","","","","","","","","","","","","","","","","","",""
"pit-instructions","36","374114","0.0-2.0-10.0","battery-v0.2","","""event"",""trial"",""time""
""fullscreenenter"",""1"",""1660""
","
","
","""event"",""trial"",""time""
""fullscreenenter"",""1"",""1660""
","
","","[{""page_index"":0,""viewing_time"":5489.599999964237},{""page_index"":1,""viewing_time"":6450},{""page_index"":2,""viewing_time"":9070},{""page_index"":3,""viewing_time"":9032},{""page_index"":4,""viewing_time"":9949.900000035763}]","39991.69999998808","","","","","","","","","","","","","","","","","","","","","","","",""
"pit-trial","37","378177","0.0-2.0-11.0-0.0","battery-v0.2","","""event"",""trial"",""time""
""fullscreenenter"",""1"",""1660""
","
","
","""event"",""trial"",""time""
""fullscreenenter"",""1"",""1660""
","
","","","1200.3999999761581","","","19","15345","4170","&#9761;","elianto","#3366ff99","-1"," ","0","0","[2061.5]","1","0","2","","","","","","","",""
"pit-trial","38","383055","0.0-2.0-11.0-1.0","battery-v0.2","","""event"",""trial"",""time""
""fullscreenenter"",""1"",""1660""
","
","
","""event"",""trial"",""time""
""fullscreenenter"",""1"",""1660""
","
","","","-1","","","19","15345","4170","&#9761;","elianto","#3366ff99","-1","-1","1","+10","[]","0","0","2","","","","","","","",""
"pit-trial","39","386640","0.0-2.0-11.0-2.0","battery-v0.2","","""event"",""trial"",""time""
""fullscreenenter"",""1"",""1660""
","
","
","""event"",""trial"",""time""
""fullscreenenter"",""1"",""1660""
","
","","","725","","","19","15345","4170","&#9761;","elianto","#3366ff99","-1"," ","0","0","[1576.2000000476837]","1","0","2","","","","","","","",""
"pit-trial","40","390021","0.0-2.0-11.0-3.0","battery-v0.2","","""event"",""trial"",""time""
""fullscreenenter"",""1"",""1660""
","
","
","""event"",""trial"",""time""
""fullscreenenter"",""1"",""1660""
","
","","","515.1999999880791","","","19","15345","4170","&#9761;","elianto","#3366ff99","-1"," ","0","+10","[1366.699999988079]","1","0","2","","","","","","","",""
"pit-trial","41","394891","0.0-2.0-11.0-4.0","battery-v0.2","","""event"",""trial"",""time""
""fullscreenenter"",""1"",""1660""
","
","
","""event"",""trial"",""time""
""fullscreenenter"",""1"",""1660""
","
","","","-1","","","19","15345","4170","&#9761;","elianto","#3366ff99","-1","-1","1","+10","[]","0","0","2","","","","","","","",""
"pit-trial","42","398320","0.0-2.0-11.1-0.1","battery-v0.2","","""event"",""trial"",""time""
""fullscreenenter"",""1"",""1660""
","
","
","""event"",""trial"",""time""
""fullscreenenter"",""1"",""1660""
","
","","","558.8999999761581","","","19","15345","4170","&#9761;","elianto","#3366ff99","-1"," ","0","0","[1410.8999999761581]","1","0","2","","","","","","","",""
"pit-trial","43","401317","0.0-2.0-11.1-1.1","battery-v0.2","","""event"",""trial"",""time""
""fullscreenenter"",""1"",""1660""
","
","
","""event"",""trial"",""time""
""fullscreenenter"",""1"",""1660""
","
","","","140.5","","","19","15345","4170","&#9761;","elianto","#3366ff99","-1"," ","0","0","[993.8000000119209]","1","0","2","","","","","","","",""
"pit-trial","44","406172","0.0-2.0-11.1-2.1","battery-v0.2","","""event"",""trial"",""time""
""fullscreenenter"",""1"",""1660""
","
","
","""event"",""trial"",""time""
""fullscreenenter"",""1"",""1660""
","
","","","-1","","","19","15345","4170","&#9761;","elianto","#3366ff99","-1","-1","1","+10","[]","0","0","2","","","","","","","",""
"pit-trial","45","411026","0.0-2.0-11.1-3.1","battery-v0.2","","""event"",""trial"",""time""
""fullscreenenter"",""1"",""1660""
","
","
","""event"",""trial"",""time""
""fullscreenenter"",""1"",""1660""
","
","","","-1","","","19","15345","4170","&#9761;","elianto","#3366ff99","-1","-1","1","0","[]","0","0","2","","","","","","","",""
"pit-trial","46","415880","0.0-2.0-11.1-4.1","battery-v0.2","","""event"",""trial"",""time""
""fullscreenenter"",""1"",""1660""
","
","
","""event"",""trial"",""time""
""fullscreenenter"",""1"",""1660""
","
","","","-1","","","19","15345","4170","&#9761;","elianto","#3366ff99","-1","-1","1","+10","[]","0","0","2","","","","","","","",""
"pit-trial","47","420737","0.0-2.0-11.2-0.2","battery-v0.2","","""event"",""trial"",""time""
""fullscreenenter"",""1"",""1660""
","
","
","""event"",""trial"",""time""
""fullscreenenter"",""1"",""1660""
","
","","","-1","","","19","15345","4170","&#9761;","elianto","#3366ff99","-1","-1","1","+10","[]","0","0","2","","","","","","","",""
"pit-trial","48","425591","0.0-2.0-11.2-1.2","battery-v0.2","","""event"",""trial"",""time""
""fullscreenenter"",""1"",""1660""
","
","
","""event"",""trial"",""time""
""fullscreenenter"",""1"",""1660""
","
","","","-1","","","19","15345","4170","&#9761;","elianto","#3366ff99","-1","-1","1","+10","[]","0","0","2","","","","","","","",""
"pit-trial","49","430445","0.0-2.0-11.2-2.2","battery-v0.2","","""event"",""trial"",""time""
""fullscreenenter"",""1"",""1660""
","
","
","""event"",""trial"",""time""
""fullscreenenter"",""1"",""1660""
","
","","","-1","","","19","15345","4170","&#9761;","elianto","#3366ff99","-1","-1","1","+10","[]","0","0","2","","","","","","","",""
"pit-trial","50","434156","0.0-2.0-11.2-3.2","battery-v0.2","","""event"",""trial"",""time""
""fullscreenenter"",""1"",""1660""
","
","
","""event"",""trial"",""time""
""fullscreenenter"",""1"",""1660""
","
","","","856","","","19","15345","4170","&#9761;","elianto","#3366ff99","-1"," ","0","+10","[1706.3999999761581]","1","0","2","","","","","","","",""
"pit-trial","51","437469","0.0-2.0-11.2-4.2","battery-v0.2","","""event"",""trial"",""time""
""fullscreenenter"",""1"",""1660""
","
","
","""event"",""trial"",""time""
""fullscreenenter"",""1"",""1660""
","
","","","448.5","","","19","15345","4170","&#9761;","elianto","#3366ff99","-1"," ","0","0","[1299.199999988079]","1","0","2","","","","","","","",""
"pit-trial","52","440450","0.0-2.0-11.3-0.3","battery-v0.2","","""event"",""trial"",""time""
""fullscreenenter"",""1"",""1660""
","
","
","""event"",""trial"",""time""
""fullscreenenter"",""1"",""1660""
","
","","","125.69999998807907","","","19","15345","4170","&#9761;","elianto","#3366ff99","-1"," ","0","0","[976,1672.9000000357628,1913.2000000476837]","3","0","2","","","","","","","",""
"pit-trial","53","444058","0.0-2.0-11.3-1.3","battery-v0.2","","""event"",""trial"",""time""
""fullscreenenter"",""1"",""1660""
","
","
","""event"",""trial"",""time""
""fullscreenenter"",""1"",""1660""
","
","","","738.3000000119209","","","19","15345","4170","&#9761;","elianto","#3366ff99","-1"," ","0","0","[1589.6000000238419]","1","0","2","","","","","","","",""
"pit-trial","54","448364","0.0-2.0-11.3-2.3","battery-v0.2","","""event"",""trial"",""time""
""fullscreenenter"",""1"",""1660""
","
","
","""event"",""trial"",""time""
""fullscreenenter"",""1"",""1660""
","
","","","1447.800000011921","","","19","15345","4170","&#9761;","elianto","#3366ff99","-1"," ","0","0","[2301.699999988079]","1","0","2","","","","","","","",""
"pit-trial","55","453219","0.0-2.0-11.3-3.3","battery-v0.2","","""event"",""trial"",""time""
""fullscreenenter"",""1"",""1660""
","
","
","""event"",""trial"",""time""
""fullscreenenter"",""1"",""1660""
","
","","","-1","","","19","15345","4170","&#9761;","elianto","#3366ff99","-1","-1","1","0","[]","0","0","2","","","","","","","",""
"pit-trial","56","458075","0.0-2.0-11.3-4.3","battery-v0.2","","""event"",""trial"",""time""
""fullscreenenter"",""1"",""1660""
","
","
","""event"",""trial"",""time""
""fullscreenenter"",""1"",""1660""
","
","","","-1","","","19","15345","4170","&#9761;","elianto","#3366ff99","-1","-1","1","+10","[]","0","0","2","","","","","","","",""
"call-function","57","458079","0.0-2.0-12.0","battery-v0.2","","""event"",""trial"",""time""
""fullscreenenter"",""1"",""1660""
","
","
","""event"",""trial"",""time""
""fullscreenenter"",""1"",""1660""
","
","","","","","","","","","","","","","","","","","","","","","","","","","","",""
"pit-instructions","58","488698","0.0-2.0-13.0","battery-v0.2","","""event"",""trial"",""time""
""fullscreenenter"",""1"",""1660""
","
","
","""event"",""trial"",""time""
""fullscreenenter"",""1"",""1660""
","
","","[{""page_index"":0,""viewing_time"":4979.699999988079},{""page_index"":1,""viewing_time"":7092.100000023842},{""page_index"":2,""viewing_time"":3084},{""page_index"":3,""viewing_time"":10212},{""page_index"":4,""viewing_time"":5250}]","30618.100000023842","","","","","","","","","","","","","","","","","","","","","","","",""
"pit-trial","59","492136","0.0-2.0-14.0-0.0","battery-v0.2","","""event"",""trial"",""time""
""fullscreenenter"",""1"",""1660""
","
","
","""event"",""trial"",""time""
""fullscreenenter"",""1"",""1660""
","
","","","571.1000000238419","","","19","15345","4170","&#9826;","elianto","#f73b6a7A","-1"," ","0","-10","[1430.800000011921]","1","0","3","","","","","","","",""
"pit-trial","60","495882","0.0-2.0-14.0-1.0","battery-v0.2","","""event"",""trial"",""time""
""fullscreenenter"",""1"",""1660""
","
","
","""event"",""trial"",""time""
""fullscreenenter"",""1"",""1660""
","
","","","881.3999999761581","","","19","15345","4170","&#9826;","elianto","#f73b6a7A","-1"," ","0","-10","[1735.300000011921]","1","0","3","","","","","","","",""
"pit-trial","61","500756","0.0-2.0-14.0-2.0","battery-v0.2","","""event"",""trial"",""time""
""fullscreenenter"",""1"",""1660""
","
","
","""event"",""trial"",""time""
""fullscreenenter"",""1"",""1660""
","
","","","-1","","","19","15345","4170","&#9826;","elianto","#f73b6a7A","-1","-1","1","0","[]","0","0","3","","","","","","","",""
"pit-trial","62","504340","0.0-2.0-14.0-3.0","battery-v0.2","","""event"",""trial"",""time""
""fullscreenenter"",""1"",""1660""
","
","
","""event"",""trial"",""time""
""fullscreenenter"",""1"",""1660""
","
","","","721.0999999642372","","","19","15345","4170","&#9826;","elianto","#f73b6a7A","-1"," ","0","0","[1571.800000011921]","1","0","3","","","","","","","",""
"pit-trial","63","509216","0.0-2.0-14.0-4.0","battery-v0.2","","""event"",""trial"",""time""
""fullscreenenter"",""1"",""1660""
","
","
","""event"",""trial"",""time""
""fullscreenenter"",""1"",""1660""
","
","","","-1","","","19","15345","4170","&#9826;","elianto","#f73b6a7A","-1","-1","1","0","[]","0","0","3","","","","","","","",""
"pit-trial","64","514085","0.0-2.0-14.1-0.1","battery-v0.2","","""event"",""trial"",""time""
""fullscreenenter"",""1"",""1660""
","
","
","""event"",""trial"",""time""
""fullscreenenter"",""1"",""1660""
","
","","","-1","","","19","15345","4170","&#9826;","elianto","#f73b6a7A","-1","-1","1","0","[]","0","0","3","","","","","","","",""
"pit-trial","65","518949","0.0-2.0-14.1-1.1","battery-v0.2","","""event"",""trial"",""time""
""fullscreenenter"",""1"",""1660""
","
","
","""event"",""trial"",""time""
""fullscreenenter"",""1"",""1660""
","
","","","-1","","","19","15345","4170","&#9826;","elianto","#f73b6a7A","-1","-1","1","0","[]","0","0","3","","","","","","","",""
"pit-trial","66","523805","0.0-2.0-14.1-2.1","battery-v0.2","","""event"",""trial"",""time""
""fullscreenenter"",""1"",""1660""
","
","
","""event"",""trial"",""time""
""fullscreenenter"",""1"",""1660""
","
","","","-1","","","19","15345","4170","&#9826;","elianto","#f73b6a7A","-1","-1","1","0","[]","0","0","3","","","","","","","",""
"pit-trial","67","528661","0.0-2.0-14.1-3.1","battery-v0.2","","""event"",""trial"",""time""
""fullscreenenter"",""1"",""1660""
","
","
","""event"",""trial"",""time""
""fullscreenenter"",""1"",""1660""
","
","","","-1","","","19","15345","4170","&#9826;","elianto","#f73b6a7A","-1","-1","1","-10","[]","0","0","3","","","","","","","",""
"pit-trial","68","533516","0.0-2.0-14.1-4.1","battery-v0.2","","""event"",""trial"",""time""
""fullscreenenter"",""1"",""1660""
","
","
","""event"",""trial"",""time""
""fullscreenenter"",""1"",""1660""
","
","","","-1","","","19","15345","4170","&#9826;","elianto","#f73b6a7A","-1","-1","1","0","[]","0","0","3","","","","","","","",""
"pit-trial","69","537700","0.0-2.0-14.2-0.2","battery-v0.2","","""event"",""trial"",""time""
""fullscreenenter"",""1"",""1660""
","
","
","""event"",""trial"",""time""
""fullscreenenter"",""1"",""1660""
","
","","","1327.8999999761581","","","19","15345","4170","&#9826;","elianto","#f73b6a7A","-1"," ","0","-10","[2178.199999988079]","1","0","3","","","","","","","",""
"pit-trial","70","541644","0.0-2.0-14.2-1.2","battery-v0.2","","""event"",""trial"",""time""
""fullscreenenter"",""1"",""1660""
","
","
","""event"",""trial"",""time""
""fullscreenenter"",""1"",""1660""
","
","","","1087.800000011921","","","19","15345","4170","&#9826;","elianto","#f73b6a7A","-1"," ","0","-10","[1939.1000000238419]","1","0","3","","","","","","","",""
"pit-trial","71","546499","0.0-2.0-14.2-2.2","battery-v0.2","","""event"",""trial"",""time""
""fullscreenenter"",""1"",""1660""
","
","
","""event"",""trial"",""time""
""fullscreenenter"",""1"",""1660""
","
","","","-1","","","19","15345","4170","&#9826;","elianto","#f73b6a7A","-1","-1","1","0","[]","0","0","3","","","","","","","",""
"pit-trial","72","551354","0.0-2.0-14.2-3.2","battery-v0.2","","""event"",""trial"",""time""
""fullscreenenter"",""1"",""1660""
","
","
","""event"",""trial"",""time""
""fullscreenenter"",""1"",""1660""
","
","","","-1","","","19","15345","4170","&#9826;","elianto","#f73b6a7A","-1","-1","1","-10","[]","0","0","3","","","","","","","",""
"pit-trial","73","556209","0.0-2.0-14.2-4.2","battery-v0.2","","""event"",""trial"",""time""
""fullscreenenter"",""1"",""1660""
","
","
","""event"",""trial"",""time""
""fullscreenenter"",""1"",""1660""
","
","","","-1","","","19","15345","4170","&#9826;","elianto","#f73b6a7A","-1","-1","1","0","[]","0","0","3","","","","","","","",""
"pit-trial","74","561064","0.0-2.0-14.3-0.3","battery-v0.2","","""event"",""trial"",""time""
""fullscreenenter"",""1"",""1660""
","
","
","""event"",""trial"",""time""
""fullscreenenter"",""1"",""1660""
","
","","","-1","","","19","15345","4170","&#9826;","elianto","#f73b6a7A","-1","-1","1","0","[]","0","0","3","","","","","","","",""
"pit-trial","75","565921","0.0-2.0-14.3-1.3","battery-v0.2","","""event"",""trial"",""time""
""fullscreenenter"",""1"",""1660""
","
","
","""event"",""trial"",""time""
""fullscreenenter"",""1"",""1660""
","
","","","-1","","","19","15345","4170","&#9826;","elianto","#f73b6a7A","-1","-1","1","0","[]","0","0","3","","","","","","","",""
"pit-trial","76","570776","0.0-2.0-14.3-2.3","battery-v0.2","","""event"",""trial"",""time""
""fullscreenenter"",""1"",""1660""
","
","
","""event"",""trial"",""time""
""fullscreenenter"",""1"",""1660""
","
","","","-1","","","19","15345","4170","&#9826;","elianto","#f73b6a7A","-1","-1","1","0","[]","0","0","3","","","","","","","",""
"pit-trial","77","575631","0.0-2.0-14.3-3.3","battery-v0.2","","""event"",""trial"",""time""
""fullscreenenter"",""1"",""1660""
","
","
","""event"",""trial"",""time""
""fullscreenenter"",""1"",""1660""
","
","","","-1","","","19","15345","4170","&#9826;","elianto","#f73b6a7A","-1","-1","1","-10","[]","0","0","3","","","","","","","",""
"pit-trial","78","580485","0.0-2.0-14.3-4.3","battery-v0.2","","""event"",""trial"",""time""
""fullscreenenter"",""1"",""1660""
","
","
","""event"",""trial"",""time""
""fullscreenenter"",""1"",""1660""
","
","","","-1","","","19","15345","4170","&#9826;","elianto","#f73b6a7A","-1","-1","1","0","[]","0","0","3","","","","","","","",""
"call-function","79","580487","0.0-2.0-15.0","battery-v0.2","","""event"",""trial"",""time""
""fullscreenenter"",""1"",""1660""
","
","
","""event"",""trial"",""time""
""fullscreenenter"",""1"",""1660""
","
","","","","","","","","","","","","","","","","","","","","","","","","","","",""
"pit-instructions","80","604546","0.0-2.0-16.0","battery-v0.2","","""event"",""trial"",""time""
""fullscreenenter"",""1"",""1660""
","
","
","""event"",""trial"",""time""
""fullscreenenter"",""1"",""1660""
","
","","[{""page_index"":0,""viewing_time"":6449.400000035763},{""page_index"":1,""viewing_time"":8629.899999976158},{""page_index"":2,""viewing_time"":4112},{""page_index"":3,""viewing_time"":4866.100000023842}]","24057.700000047684","","","","","","","","","","","","","","","","","","","","","","","",""
"pit-trial","81","608121","0.0-2.0-17.0-0.0","battery-v0.2","","""event"",""trial"",""time""
""fullscreenenter"",""1"",""1660""
","
","
","""event"",""trial"",""time""
""fullscreenenter"",""1"",""1660""
","
","","","716.5","","","19","15345","4170","&#9789;","elianto","#f73b6a7A"," "," ","1","0","[1566.6000000238419,3414.699999988079]","2","0","4","","","","","","","",""
"pit-trial","82","611539","0.0-2.0-17.0-1.0","battery-v0.2","","""event"",""trial"",""time""
""fullscreenenter"",""1"",""1660""
","
","
","""event"",""trial"",""time""
""fullscreenenter"",""1"",""1660""
","
","","","554","","","19","15345","4170","&#9789;","elianto","#f73b6a7A"," "," ","1","0","[1406.699999988079]","1","0","4","","","","","","","",""
"pit-trial","83","614586","0.0-2.0-17.0-2.0","battery-v0.2","","""event"",""trial"",""time""
""fullscreenenter"",""1"",""1660""
","
","
","""event"",""trial"",""time""
""fullscreenenter"",""1"",""1660""
","
","","","183.9000000357628","","","19","15345","4170","&#9789;","elianto","#f73b6a7A"," "," ","1","0","[1035.300000011921]","1","0","4","","","","","","","",""
"pit-trial","84","617465","0.0-2.0-17.0-3.0","battery-v0.2","","""event"",""trial"",""time""
""fullscreenenter"",""1"",""1660""
","
","
","""event"",""trial"",""time""
""fullscreenenter"",""1"",""1660""
","
","","","25","","","19","15345","4170","&#9789;","elianto","#f73b6a7A"," "," ","1","-10","[875.9000000357628]","1","0","4","","","","","","","",""
"pit-trial","85","622339","0.0-2.0-17.0-4.0","battery-v0.2","","""event"",""trial"",""time""
""fullscreenenter"",""1"",""1660""
","
","
","""event"",""trial"",""time""
""fullscreenenter"",""1"",""1660""
","
","","","-1","","","19","15345","4170","&#9789;","elianto","#f73b6a7A"," ","-1","0","-10","[]","0","0","4","","","","","","","",""
"pit-trial","86","627203","0.0-2.0-17.1-0.1","battery-v0.2","","""event"",""trial"",""time""
""fullscreenenter"",""1"",""1660""
","
","
","""event"",""trial"",""time""
""fullscreenenter"",""1"",""1660""
","
","","","-1","","","19","15345","4170","&#9789;","elianto","#f73b6a7A"," ","-1","0","-10","[]","0","0","4","","","","","","","",""
"pit-trial","87","632078","0.0-2.0-17.1-1.1","battery-v0.2","","""event"",""trial"",""time""
""fullscreenenter"",""1"",""1660""
","
","
","""event"",""trial"",""time""
""fullscreenenter"",""1"",""1660""
","
","","","-1","","","19","15345","4170","&#9789;","elianto","#f73b6a7A"," ","-1","0","-10","[]","0","0","4","","","","","","","",""
"pit-trial","88","636932","0.0-2.0-17.1-2.1","battery-v0.2","","""event"",""trial"",""time""
""fullscreenenter"",""1"",""1660""
","
","
","""event"",""trial"",""time""
""fullscreenenter"",""1"",""1660""
","
","","","-1","","","19","15345","4170","&#9789;","elianto","#f73b6a7A"," ","-1","0","-10","[]","0","0","4","","","","","","","",""
"pit-trial","89","641799","0.0-2.0-17.1-3.1","battery-v0.2","","""event"",""trial"",""time""
""fullscreenenter"",""1"",""1660""
","
","
","""event"",""trial"",""time""
""fullscreenenter"",""1"",""1660""
","
","","","-1","","","19","15345","4170","&#9789;","elianto","#f73b6a7A"," ","-1","0","0","[]","0","0","4","","","","","","","",""
"pit-trial","90","646654","0.0-2.0-17.1-4.1","battery-v0.2","","""event"",""trial"",""time""
""fullscreenenter"",""1"",""1660""
","
","
","""event"",""trial"",""time""
""fullscreenenter"",""1"",""1660""
","
","","","-1","","","19","15345","4170","&#9789;","elianto","#f73b6a7A"," ","-1","0","-10","[]","0","0","4","","","","","","","",""
"pit-trial","91","651511","0.0-2.0-17.2-0.2","battery-v0.2","","""event"",""trial"",""time""
""fullscreenenter"",""1"",""1660""
","
","
","""event"",""trial"",""time""
""fullscreenenter"",""1"",""1660""
","
","","","-1","","","19","15345","4170","&#9789;","elianto","#f73b6a7A"," ","-1","0","-10","[]","0","0","4","","","","","","","",""
"pit-trial","92","656376","0.0-2.0-17.2-1.2","battery-v0.2","","""event"",""trial"",""time""
""fullscreenenter"",""1"",""1660""
","
","
","""event"",""trial"",""time""
""fullscreenenter"",""1"",""1660""
","
","","","-1","","","19","15345","4170","&#9789;","elianto","#f73b6a7A"," ","-1","0","-10","[]","0","0","4","","","","","","","",""
"pit-trial","93","661231","0.0-2.0-17.2-2.2","battery-v0.2","","""event"",""trial"",""time""
""fullscreenenter"",""1"",""1660""
","
","
","""event"",""trial"",""time""
""fullscreenenter"",""1"",""1660""
","
","","","-1","","","19","15345","4170","&#9789;","elianto","#f73b6a7A"," ","-1","0","-10","[]","0","0","4","","","","","","","",""
"pit-trial","94","666086","0.0-2.0-17.2-3.2","battery-v0.2","","""event"",""trial"",""time""
""fullscreenenter"",""1"",""1660""
","
","
","""event"",""trial"",""time""
""fullscreenenter"",""1"",""1660""
","
","","","-1","","","19","15345","4170","&#9789;","elianto","#f73b6a7A"," ","-1","0","0","[]","0","0","4","","","","","","","",""
"pit-trial","95","670943","0.0-2.0-17.2-4.2","battery-v0.2","","""event"",""trial"",""time""
""fullscreenenter"",""1"",""1660""
","
","
","""event"",""trial"",""time""
""fullscreenenter"",""1"",""1660""
","
","","","-1","","","19","15345","4170","&#9789;","elianto","#f73b6a7A"," ","-1","0","-10","[]","0","0","4","","","","","","","",""
"pit-trial","96","675799","0.0-2.0-17.3-0.3","battery-v0.2","","""event"",""trial"",""time""
""fullscreenenter"",""1"",""1660""
","
","
","""event"",""trial"",""time""
""fullscreenenter"",""1"",""1660""
","
","","","-1","","","19","15345","4170","&#9789;","elianto","#f73b6a7A"," ","-1","0","-10","[]","0","0","4","","","","","","","",""
"pit-trial","97","680655","0.0-2.0-17.3-1.3","battery-v0.2","","""event"",""trial"",""time""
""fullscreenenter"",""1"",""1660""
","
","
","""event"",""trial"",""time""
""fullscreenenter"",""1"",""1660""
","
","","","-1","","","19","15345","4170","&#9789;","elianto","#f73b6a7A"," ","-1","0","-10","[]","0","0","4","","","","","","","",""
"pit-trial","98","685509","0.0-2.0-17.3-2.3","battery-v0.2","","""event"",""trial"",""time""
""fullscreenenter"",""1"",""1660""
","
","
","""event"",""trial"",""time""
""fullscreenenter"",""1"",""1660""
","
","","","-1","","","19","15345","4170","&#9789;","elianto","#f73b6a7A"," ","-1","0","-10","[]","0","0","4","","","","","","","",""
"pit-trial","99","690364","0.0-2.0-17.3-3.3","battery-v0.2","","""event"",""trial"",""time""
""fullscreenenter"",""1"",""1660""
","
","
","""event"",""trial"",""time""
""fullscreenenter"",""1"",""1660""
","
","","","-1","","","19","15345","4170","&#9789;","elianto","#f73b6a7A"," ","-1","0","0","[]","0","0","4","","","","","","","",""
"pit-trial","100","695219","0.0-2.0-17.3-4.3","battery-v0.2","","""event"",""trial"",""time""
""fullscreenenter"",""1"",""1660""
","
","
","""event"",""trial"",""time""
""fullscreenenter"",""1"",""1660""
","
","","","-1","","","19","15345","4170","&#9789;","elianto","#f73b6a7A"," ","-1","0","-10","[]","0","0","4","","","","","","","",""
"call-function","101","695222","0.0-2.0-18.0","battery-v0.2","","""event"",""trial"",""time""
""fullscreenenter"",""1"",""1660""
","
","
","""event"",""trial"",""time""
""fullscreenenter"",""1"",""1660""
","
","","","","","","","","","","","","","","","","","","","","","","","","","","",""
"pit-instructions","102","788913","0.0-2.0-19.0","battery-v0.2","","""event"",""trial"",""time""
""fullscreenenter"",""1"",""1660""
","
","
","""event"",""trial"",""time""
""fullscreenenter"",""1"",""1660""
","
","","[{""page_index"":0,""viewing_time"":24688.19999998808},{""page_index"":1,""viewing_time"":6062},{""page_index"":2,""viewing_time"":22036},{""page_index"":3,""viewing_time"":11320},{""page_index"":4,""viewing_time"":6520},{""page_index"":5,""viewing_time"":8471.800000011921},{""page_index"":6,""viewing_time"":6674.199999988079},{""page_index"":7,""viewing_time"":4029.900000035763},{""page_index"":8,""viewing_time"":3886}]","93688.5","","","","","","","","","","","","","","","","","","","","","","","",""
"pit-comprehension","103","793047","0.0-2.0-20.0-0.0","battery-v0.2","","""event"",""trial"",""time""
""fullscreenenter"",""1"",""1660""
","
","
","""event"",""trial"",""time""
""fullscreenenter"",""1"",""1660""
","
","","","4131.899999976158","[""SPACE""]","0","19","15345","4170","","","","","","","","","","","","","","","","","","",""
"pit-instructions","104","795146","0.0-2.0-20.0-1.0","battery-v0.2","","""event"",""trial"",""time""
""fullscreenenter"",""1"",""1660""
","
","
","""event"",""trial"",""time""
""fullscreenenter"",""1"",""1660""
","
","","[{""page_index"":0,""viewing_time"":2066.399999976158}]","2066.5","","","","","","","","","","","","","","","","","","","","","","","",""
"pit-comprehension","105","800247","0.0-2.0-21.0-0.0","battery-v0.2","","""event"",""trial"",""time""
""fullscreenenter"",""1"",""1660""
","
","
","""event"",""trial"",""time""
""fullscreenenter"",""1"",""1660""
","
","","","5098.299999952316","[""10""]","0","19","15345","4170","","","","","","","","","","","","","","","","","","",""
"pit-instructions","106","801313","0.0-2.0-21.0-1.0","battery-v0.2","","""event"",""trial"",""time""
""fullscreenenter"",""1"",""1660""
","
","
","""event"",""trial"",""time""
""fullscreenenter"",""1"",""1660""
","
","","[{""page_index"":0,""viewing_time"":1035.4000000357628}]","1035.699999988079","","","","","","","","","","","","","","","","","","","","","","","",""
"pit-comprehension","107","808707","0.0-2.0-22.0-0.0","battery-v0.2","","""event"",""trial"",""time""
""fullscreenenter"",""1"",""1660""
","
","
","""event"",""trial"",""time""
""fullscreenenter"",""1"",""1660""
","
","","","7392.400000035763","[""0""]","0","19","15345","4170","","","","","","","","","","","","","","","","","","",""
"pit-instructions","108","809884","0.0-2.0-22.0-1.0","battery-v0.2","","""event"",""trial"",""time""
""fullscreenenter"",""1"",""1660""
","
","
","""event"",""trial"",""time""
""fullscreenenter"",""1"",""1660""
","
","","[{""page_index"":0,""viewing_time"":1147.7000000476837}]","1147.800000011921","","","","","","","","","","","","","","","","","","","","","","","",""
"pit-comprehension","109","819837","0.0-2.0-23.0-0.0","battery-v0.2","","""event"",""trial"",""time""
""fullscreenenter"",""1"",""1660""
","
","
","""event"",""trial"",""time""
""fullscreenenter"",""1"",""1660""
","
","","","9950.600000023842","[""True""]","0","19","15345","4170","","","","","","","","","","","","","","","","","","",""
"pit-instructions","110","825236","0.0-2.0-23.0-1.0","battery-v0.2","","""event"",""trial"",""time""
""fullscreenenter"",""1"",""1660""
","
","
","""event"",""trial"",""time""
""fullscreenenter"",""1"",""1660""
","
","","[{""page_index"":0,""viewing_time"":5367.600000023842}]","5368","","","","","","","","","","","","","","","","","","","","","","","",""
"pit-comprehension","111","832499","0.0-2.0-24.0-0.0","battery-v0.2","","""event"",""trial"",""time""
""fullscreenenter"",""1"",""1660""
","
","
","""event"",""trial"",""time""
""fullscreenenter"",""1"",""1660""
","
","","","7260","[""True""]","0","19","15345","4170","","","","","","","","","","","","","","","","","","",""
"pit-instructions","112","833632","0.0-2.0-24.0-1.0","battery-v0.2","","""event"",""trial"",""time""
""fullscreenenter"",""1"",""1660""
","
","
","""event"",""trial"",""time""
""fullscreenenter"",""1"",""1660""
","
","","[{""page_index"":0,""viewing_time"":1103.199999988079}]","1103.300000011921","","","","","","","","","","","","","","","","","","","","","","","",""
"pit-comprehension","113","839761","0.0-2.0-25.0-0.0","battery-v0.2","","""event"",""trial"",""time""
""fullscreenenter"",""1"",""1660""
","
","
","""event"",""trial"",""time""
""fullscreenenter"",""1"",""1660""
","
","","","6126.699999988079","[""True""]","0","19","15345","4170","","","","","","","","","","","","","","","","","","",""
"pit-instructions","114","840916","0.0-2.0-25.0-1.0","battery-v0.2","","""event"",""trial"",""time""
""fullscreenenter"",""1"",""1660""
","
","
","""event"",""trial"",""time""
""fullscreenenter"",""1"",""1660""
","
","","[{""page_index"":0,""viewing_time"":1126.800000011921}]","1127.1000000238419","","","","","","","","","","","","","","","","","","","","","","","",""
"pit-comprehension","115","847440","0.0-2.0-26.0-0.0","battery-v0.2","","""event"",""trial"",""time""
""fullscreenenter"",""1"",""1660""
","
","
","""event"",""trial"",""time""
""fullscreenenter"",""1"",""1660""
","
","","","6522.5","[""False""]","0","19","15345","4170","","","","","","","","","","","","","","","","","","",""
"pit-instructions","116","848487","0.0-2.0-26.0-1.0","battery-v0.2","","""event"",""trial"",""time""
""fullscreenenter"",""1"",""1660""
","
","
","""event"",""trial"",""time""
""fullscreenenter"",""1"",""1660""
","
","","[{""page_index"":0,""viewing_time"":1015}]","1015.1999999880791","","","","","","","","","","","","","","","","","","","","","","","",""
"pit-instructions","117","864106","0.0-3.0","battery-v0.2","","""event"",""trial"",""time""
""fullscreenenter"",""1"",""1660""
","
","
","""event"",""trial"",""time""
""fullscreenenter"",""1"",""1660""
","
","","[{""page_index"":0,""viewing_time"":4176.700000047684},{""page_index"":1,""viewing_time"":5064.099999964237},{""page_index"":2,""viewing_time"":6375.900000035763}]","15617","","","","","","","","","","","","","","","","","","","","","","","",""
"pit-trial","118","867407","0.0-4.0","battery-v0.2","","""event"",""trial"",""time""
""fullscreenenter"",""1"",""1660""
","
","
","""event"",""trial"",""time""
""fullscreenenter"",""1"",""1660""
","
","","","439.4000000357628","","","19","15345","4170","&#9733;","elianto","#3366ff99","-1"," ","0","0","[1291.6000000238419]","1","1","","","15345","1","2","2","win","no-go","0"
"pit-trial","119","871005","0.0-5.0","battery-v0.2","","""event"",""trial"",""time""
""fullscreenenter"",""1"",""1660""
","
","
","""event"",""trial"",""time""
""fullscreenenter"",""1"",""1660""
","
","","","739.6000000238419","","","19","15345","4170","&#9752;","elianto","#f73b6a7A"," "," ","1","-10","[1591.8999999761581]","1","1","","","15345","2","3","3","lose","go","1"
"pit-trial","120","874425","0.0-6.0","battery-v0.2","","""event"",""trial"",""time""
""fullscreenenter"",""1"",""1660""
","
","
","""event"",""trial"",""time""
""fullscreenenter"",""1"",""1660""
","
","","","550.6000000238419","","","19","15345","4170","&#9730;","elianto","#3366ff99"," "," ","1","+10","[1402]","1","1","","","15345","3","1","1","win","go","0"
"pit-trial","121","877999","0.0-7.0","battery-v0.2","","""event"",""trial"",""time""
""fullscreenenter"",""1"",""1660""
","
","
","""event"",""trial"",""time""
""fullscreenenter"",""1"",""1660""
","
","","","715.8000000119209","","","19","15345","4170","&#9728;","elianto","#f73b6a7A","-1"," ","0","-10","[1565.699999988079]","1","1","","","15345","4","0","4","lose","no-go","0"
"pit-trial","122","881375","0.0-8.0","battery-v0.2","","""event"",""trial"",""time""
""fullscreenenter"",""1"",""1660""
","
","
","""event"",""trial"",""time""
""fullscreenenter"",""1"",""1660""
","
","","","510.80000001192093","","","19","15345","4170","&#9728;","elianto","#f73b6a7A","-1"," ","0","0","[809.8000000119209,1367.699999988079]","2","1","","","15345","5","0","4","lose","no-go","1"
"pit-trial","123","886250","0.0-9.0","battery-v0.2","","""event"",""trial"",""time""
""fullscreenenter"",""1"",""1660""
","
","
","""event"",""trial"",""time""
""fullscreenenter"",""1"",""1660""
","
","","","-1","","","19","15345","4170","&#9752;","elianto","#f73b6a7A"," ","-1","0","-10","[]","0","1","","","15345","6","3","3","lose","go","0"
"pit-trial","124","889707","0.0-10.0","battery-v0.2","","""event"",""trial"",""time""
""fullscreenenter"",""1"",""1660""
","
","
","""event"",""trial"",""time""
""fullscreenenter"",""1"",""1660""
","
","","","588.9000000357628","","","19","15345","4170","&#9730;","elianto","#3366ff99"," "," ","1","+10","[1444.800000011921]","1","1","","","15345","7","1","1","win","go","0"
"pit-trial","125","893190","0.0-11.0","battery-v0.2","","""event"",""trial"",""time""
""fullscreenenter"",""1"",""1660""
","
","
","""event"",""trial"",""time""
""fullscreenenter"",""1"",""1660""
","
","","","617.6000000238419","","","19","15345","4170","&#9733;","elianto","#3366ff99","-1"," ","0","0","[1468.6000000238419]","1","1","","","15345","8","2","2","win","no-go","0"
"pit-trial","126","897028","0.0-12.0","battery-v0.2","","""event"",""trial"",""time""
""fullscreenenter"",""1"",""1660""
","
","
","""event"",""trial"",""time""
""fullscreenenter"",""1"",""1660""
","
","","","981.6999999880791","","","19","15345","4170","&#9730;","elianto","#3366ff99"," "," ","1","+10","[1834.199999988079]","1","1","","","15345","9","1","1","win","go","0"
"pit-trial","127","900682","0.0-13.0","battery-v0.2","","""event"",""trial"",""time""
""fullscreenenter"",""1"",""1660""
","
","
","""event"",""trial"",""time""
""fullscreenenter"",""1"",""1660""
","
","","","799.8999999761581","","","19","15345","4170","&#9728;","elianto","#f73b6a7A","-1"," ","0","-10","[1650.6000000238419]","1","1","","","15345","10","0","4","lose","no-go","0"
"pit-trial","128","904051","0.0-14.0","battery-v0.2","","""event"",""trial"",""time""
""fullscreenenter"",""1"",""1660""
","
","
","""event"",""trial"",""time""
""fullscreenenter"",""1"",""1660""
","
","","","515.6999999880791","","","19","15345","4170","&#9733;","elianto","#3366ff99","-1"," ","0","0","[1366.0999999642372]","1","1","","","15345","11","2","2","win","no-go","0"
"pit-trial","129","908906","0.0-15.0","battery-v0.2","","""event"",""trial"",""time""
""fullscreenenter"",""1"",""1660""
","
","
","""event"",""trial"",""time""
""fullscreenenter"",""1"",""1660""
","
","","","-1","","","19","15345","4170","&#9752;","elianto","#f73b6a7A"," ","-1","0","-10","[]","0","1","","","15345","12","3","3","lose","go","0"
"pit-trial","130","912315","0.0-16.0","battery-v0.2","","""event"",""trial"",""time""
""fullscreenenter"",""1"",""1660""
","
","
","""event"",""trial"",""time""
""fullscreenenter"",""1"",""1660""
","
","","","549.1000000238419","","","19","15345","4170","&#9733;","elianto","#3366ff99","-1"," ","0","0","[1404.1000000238419]","1","1","","","15345","13","2","2","win","no-go","0"
"pit-trial","131","915884","0.0-17.0","battery-v0.2","","""event"",""trial"",""time""
""fullscreenenter"",""1"",""1660""
","
","
","""event"",""trial"",""time""
""fullscreenenter"",""1"",""1660""
","
","","","713.8999999761581","","","19","15345","4170","&#9730;","elianto","#3366ff99"," "," ","1","+10","[1564.5]","1","1","","","15345","14","1","1","win","go","0"
"pit-trial","132","920739","0.0-18.0","battery-v0.2","","""event"",""trial"",""time""
""fullscreenenter"",""1"",""1660""
","
","
","""event"",""trial"",""time""
""fullscreenenter"",""1"",""1660""
","
","","","-1","","","19","15345","4170","&#9752;","elianto","#f73b6a7A"," ","-1","0","0","[]","0","1","","","15345","15","3","3","lose","go","1"
"pit-trial","133","925123","0.0-19.0","battery-v0.2","","""event"",""trial"",""time""
""fullscreenenter"",""1"",""1660""
","
","
","""event"",""trial"",""time""
""fullscreenenter"",""1"",""1660""
","
","","","1524.1000000238419","","","19","15345","4170","&#9728;","elianto","#f73b6a7A","-1"," ","0","-10","[2378.899999976158]","1","1","","","15345","16","0","4","lose","no-go","0"
"pit-trial","134","928339","0.0-20.0","battery-v0.2","","""event"",""trial"",""time""
""fullscreenenter"",""1"",""1660""
","
","
","""event"",""trial"",""time""
""fullscreenenter"",""1"",""1660""
","
","","","360.39999997615814","","","19","15345","4170","&#9733;","elianto","#3366ff99","-1"," ","0","0","[1211.199999988079]","1","1","","","15345","17","2","2","win","no-go","0"
"pit-trial","135","931899","0.0-21.0","battery-v0.2","","""event"",""trial"",""time""
""fullscreenenter"",""1"",""1660""
","
","
","""event"",""trial"",""time""
""fullscreenenter"",""1"",""1660""
","
","","","700.3999999761581","","","19","15345","4170","&#9730;","elianto","#3366ff99"," "," ","1","+10","[1555]","1","1","","","15345","18","1","1","win","go","0"
"pit-trial","136","936754","0.0-22.0","battery-v0.2","","""event"",""trial"",""time""
""fullscreenenter"",""1"",""1660""
","
","
","""event"",""trial"",""time""
""fullscreenenter"",""1"",""1660""
","
","","","-1","","","19","15345","4170","&#9728;","elianto","#f73b6a7A","-1","-1","1","0","[3155.600000023842,3867.600000023842]","2","1","","","15345","19","0","4","lose","no-go","0"
"pit-trial","137","941609","0.0-23.0","battery-v0.2","","""event"",""trial"",""time""
""fullscreenenter"",""1"",""1660""
","
","
","""event"",""trial"",""time""
""fullscreenenter"",""1"",""1660""
","
","","","-1","","","19","15345","4170","&#9752;","elianto","#f73b6a7A"," ","-1","0","-10","[]","0","1","","","15345","20","3","3","lose","go","0"
"pit-instructions","138","953368","0.0-24.0","battery-v0.2","","""event"",""trial"",""time""
""fullscreenenter"",""1"",""1660""
","
","
","""event"",""trial"",""time""
""fullscreenenter"",""1"",""1660""
","
","","[{""page_index"":0,""viewing_time"":5605.699999988079},{""page_index"":1,""viewing_time"":6149.900000035763}]","11755.800000011921","","","","","","","","","","","","","","","","","","","","","","","",""
"pit-trial","139","958243","0.0-25.0","battery-v0.2","","""event"",""trial"",""time""
""fullscreenenter"",""1"",""1660""
","
","
","""event"",""trial"",""time""
""fullscreenenter"",""1"",""1660""
","
","","","-1","","","19","15345","4170","a","elianto","#f73b6a7A","-1","-1","1","0","[]","0","2","","","15345","21","2","4","lose","no-go","0"
"pit-trial","140","963109","0.0-26.0","battery-v0.2","","""event"",""trial"",""time""
""fullscreenenter"",""1"",""1660""
","
","
","""event"",""trial"",""time""
""fullscreenenter"",""1"",""1660""
","
","","","-1","","","19","15345","4170","u","elianto","#f73b6a7A","-1","-1","1","0","[]","0","2","","","15345","22","0","4","lose","no-go","0"
"pit-trial","141","967973","0.0-27.0","battery-v0.2","","""event"",""trial"",""time""
""fullscreenenter"",""1"",""1660""
","
","
","""event"",""trial"",""time""
""fullscreenenter"",""1"",""1660""
","
","","","-1","","","19","15345","4170","g","elianto","#f73b6a7A"," ","-1","0","-10","[]","0","2","","","15345","23","3","3","lose","go","0"
"pit-trial","142","971539","0.0-28.0","battery-v0.2","","""event"",""trial"",""time""
""fullscreenenter"",""1"",""1660""
","
","
","""event"",""trial"",""time""
""fullscreenenter"",""1"",""1660""
","
","","","702.5","","","19","15345","4170","l","elianto","#3366ff99"," "," ","1","+10","[1553.300000011921]","1","2","","","15345","24","1","1","win","go","0"
"pit-trial","143","976399","0.0-29.0","battery-v0.2","","""event"",""trial"",""time""
""fullscreenenter"",""1"",""1660""
","
","
","""event"",""trial"",""time""
""fullscreenenter"",""1"",""1660""
","
","","","-1","","","19","15345","4170","a","elianto","#f73b6a7A","-1","-1","1","0","[]","0","2","","","15345","25","2","4","lose","no-go","0"
"pit-trial","144","981259","0.0-30.0","battery-v0.2","","""event"",""trial"",""time""
""fullscreenenter"",""1"",""1660""
","
","
","""event"",""trial"",""time""
""fullscreenenter"",""1"",""1660""
","
","","","-1","","","19","15345","4170","g","elianto","#f73b6a7A"," ","-1","0","-10","[]","0","2","","","15345","26","3","3","lose","go","0"
"pit-trial","145","984854","0.0-31.0","battery-v0.2","","""event"",""trial"",""time""
""fullscreenenter"",""1"",""1660""
","
","
","""event"",""trial"",""time""
""fullscreenenter"",""1"",""1660""
","
","","","736.1999999880791","","","19","15345","4170","u","elianto","#f73b6a7A","-1"," ","0","0","[1589]","1","2","","","15345","27","0","4","lose","no-go","1"
"pit-trial","146","988292","0.0-32.0","battery-v0.2","","""event"",""trial"",""time""
""fullscreenenter"",""1"",""1660""
","
","
","""event"",""trial"",""time""
""fullscreenenter"",""1"",""1660""
","
","","","583.6000000238419","","","19","15345","4170","l","elianto","#3366ff99"," "," ","1","+10","[1433.6000000238419]","1","2","","","15345","28","1","1","win","go","0"
"pit-trial","147","993147","0.0-33.0","battery-v0.2","","""event"",""trial"",""time""
""fullscreenenter"",""1"",""1660""
","
","
","""event"",""trial"",""time""
""fullscreenenter"",""1"",""1660""
","
","","","-1","","","19","15345","4170","g","elianto","#f73b6a7A"," ","-1","0","-10","[]","0","2","","","15345","29","3","3","lose","go","0"
"pit-trial","148","998003","0.0-34.0","battery-v0.2","","""event"",""trial"",""time""
""fullscreenenter"",""1"",""1660""
","
","
","""event"",""trial"",""time""
""fullscreenenter"",""1"",""1660""
","
","","","-1","","","19","15345","4170","u","elianto","#f73b6a7A","-1","-1","1","0","[]","0","2","","","15345","30","0","4","lose","no-go","0"
"pit-trial","149","1002858","0.0-35.0","battery-v0.2","","""event"",""trial"",""time""
""fullscreenenter"",""1"",""1660""
","
","
","""event"",""trial"",""time""
""fullscreenenter"",""1"",""1660""
","
","","","-1","","","19","15345","4170","a","elianto","#f73b6a7A","-1","-1","1","0","[]","0","2","","","15345","31","2","4","lose","no-go","0"
"pit-trial","150","1006515","0.0-36.0","battery-v0.2","","""event"",""trial"",""time""
""fullscreenenter"",""1"",""1660""
","
","
","""event"",""trial"",""time""
""fullscreenenter"",""1"",""1660""
","
","","","798.6999999880791","","","19","15345","4170","l","elianto","#3366ff99"," "," ","1","+10","[1652.3999999761581]","1","2","","","15345","32","1","1","win","go","0"
"pit-trial","151","1011377","0.0-37.0","battery-v0.2","","""event"",""trial"",""time""
""fullscreenenter"",""1"",""1660""
","
","
","""event"",""trial"",""time""
""fullscreenenter"",""1"",""1660""
","
","","","-1","","","19","15345","4170","u","elianto","#f73b6a7A","-1","-1","1","-10","[]","0","2","","","15345","33","0","4","lose","no-go","1"
"pit-trial","152","1015067","0.0-38.0","battery-v0.2","","""event"",""trial"",""time""
""fullscreenenter"",""1"",""1660""
","
","
","""event"",""trial"",""time""
""fullscreenenter"",""1"",""1660""
","
","","","833.5999999642372","","","19","15345","4170","l","elianto","#3366ff99"," "," ","1","+10","[1686.2999999523163]","1","2","","","15345","34","1","1","win","go","0"
"pit-trial","153","1019923","0.0-39.0","battery-v0.2","","""event"",""trial"",""time""
""fullscreenenter"",""1"",""1660""
","
","
","""event"",""trial"",""time""
""fullscreenenter"",""1"",""1660""
","
","","","-1","","","19","15345","4170","a","elianto","#f73b6a7A","-1","-1","1","-10","[]","0","2","","","15345","35","2","4","lose","no-go","1"
"pit-trial","154","1024779","0.0-40.0","battery-v0.2","","""event"",""trial"",""time""
""fullscreenenter"",""1"",""1660""
","
","
","""event"",""trial"",""time""
""fullscreenenter"",""1"",""1660""
","
","","","-1","","","19","15345","4170","g","elianto","#f73b6a7A"," ","-1","0","0","[]","0","2","","","15345","36","3","3","lose","go","1"
"pit-trial","155","1029634","0.0-41.0","battery-v0.2","","""event"",""trial"",""time""
""fullscreenenter"",""1"",""1660""
""blur"",""156"",""1030122""
""focus"",""156"",""1030124""
","""event"",""trial"",""time""
""blur"",""156"",""1030122""
","""event"",""trial"",""time""
""focus"",""156"",""1030124""
","""event"",""trial"",""time""
""fullscreenenter"",""1"",""1660""
","
","","","-1","","","19","15345","4170","u","elianto","#f73b6a7A","-1","-1","1","0","[]","0","2","","","15345","37","0","4","lose","no-go","0"
"pit-trial","156","1034490","0.0-42.0","battery-v0.2","","""event"",""trial"",""time""
""fullscreenenter"",""1"",""1660""
""blur"",""156"",""1030122""
""focus"",""156"",""1030124""
","""event"",""trial"",""time""
""blur"",""156"",""1030122""
","""event"",""trial"",""time""
""focus"",""156"",""1030124""
","""event"",""trial"",""time""
""fullscreenenter"",""1"",""1660""
","
","","","-1","","","19","15345","4170","a","elianto","#f73b6a7A","-1","-1","1","0","[]","0","2","","","15345","38","2","4","lose","no-go","0"
"pit-trial","157","1038004","0.0-43.0","battery-v0.2","","""event"",""trial"",""time""
""fullscreenenter"",""1"",""1660""
""blur"",""156"",""1030122""
""focus"",""156"",""1030124""
","""event"",""trial"",""time""
""blur"",""156"",""1030122""
","""event"",""trial"",""time""
""focus"",""156"",""1030124""
","""event"",""trial"",""time""
""fullscreenenter"",""1"",""1660""
","
","","","655.1999999880791","","","19","15345","4170","l","elianto","#3366ff99"," "," ","1","0","[1509.1000000238419]","1","2","","","15345","39","1","1","win","go","1"
"pit-trial","158","1042862","0.0-44.0","battery-v0.2","","""event"",""trial"",""time""
""fullscreenenter"",""1"",""1660""
""blur"",""156"",""1030122""
""focus"",""156"",""1030124""
","""event"",""trial"",""time""
""blur"",""156"",""1030122""
","""event"",""trial"",""time""
""focus"",""156"",""1030124""
","""event"",""trial"",""time""
""fullscreenenter"",""1"",""1660""
","
","","","-1","","","19","15345","4170","g","elianto","#f73b6a7A"," ","-1","0","-10","[]","0","2","","","15345","40","3","3","lose","go","0"
"pit-trial","159","1046515","0.0-45.0","battery-v0.2","","""event"",""trial"",""time""
""fullscreenenter"",""1"",""1660""
""blur"",""156"",""1030122""
""focus"",""156"",""1030124""
","""event"",""trial"",""time""
""blur"",""156"",""1030122""
","""event"",""trial"",""time""
""focus"",""156"",""1030124""
","""event"",""trial"",""time""
""fullscreenenter"",""1"",""1660""
","
","","","798.3000000119209","","","19","15345","4170","l","elianto","#3366ff99"," "," ","1","+10","[1648.300000011921]","1","2","","","15345","41","1","1","win","go","0"
"pit-trial","160","1049922","0.0-46.0","battery-v0.2","","""event"",""trial"",""time""
""fullscreenenter"",""1"",""1660""
""blur"",""156"",""1030122""
""focus"",""156"",""1030124""
","""event"",""trial"",""time""
""blur"",""156"",""1030122""
","""event"",""trial"",""time""
""focus"",""156"",""1030124""
","""event"",""trial"",""time""
""fullscreenenter"",""1"",""1660""
","
","","","537.8000000119209","","","19","15345","4170","u","elianto","#f73b6a7A","-1"," ","0","-10","[1388.7999999523163]","1","2","","","15345","42","0","4","lose","no-go","0"
"pit-trial","161","1054778","0.0-47.0","battery-v0.2","","""event"",""trial"",""time""
""fullscreenenter"",""1"",""1660""
""blur"",""156"",""1030122""
""focus"",""156"",""1030124""
","""event"",""trial"",""time""
""blur"",""156"",""1030122""
","""event"",""trial"",""time""
""focus"",""156"",""1030124""
","""event"",""trial"",""time""
""fullscreenenter"",""1"",""1660""
","
","","","-1","","","19","15345","4170","g","elianto","#f73b6a7A"," ","-1","0","-10","[]","0","2","","","15345","43","3","3","lose","go","0"
"pit-trial","162","1059633","0.0-48.0","battery-v0.2","","""event"",""trial"",""time""
""fullscreenenter"",""1"",""1660""
""blur"",""156"",""1030122""
""focus"",""156"",""1030124""
","""event"",""trial"",""time""
""blur"",""156"",""1030122""
","""event"",""trial"",""time""
""focus"",""156"",""1030124""
","""event"",""trial"",""time""
""fullscreenenter"",""1"",""1660""
","
","","","-1","","","19","15345","4170","a","elianto","#f73b6a7A","-1","-1","1","-10","[]","0","2","","","15345","44","2","4","lose","no-go","1"
"pit-trial","163","1064487","0.0-49.0","battery-v0.2","","""event"",""trial"",""time""
""fullscreenenter"",""1"",""1660""
""blur"",""156"",""1030122""
""focus"",""156"",""1030124""
","""event"",""trial"",""time""
""blur"",""156"",""1030122""
","""event"",""trial"",""time""
""focus"",""156"",""1030124""
","""event"",""trial"",""time""
""fullscreenenter"",""1"",""1660""
","
","","","-1","","","19","15345","4170","a","elianto","#f73b6a7A","-1","-1","1","0","[]","0","2","","","15345","45","2","4","lose","no-go","0"
"pit-trial","164","1068572","0.0-50.0","battery-v0.2","","""event"",""trial"",""time""
""fullscreenenter"",""1"",""1660""
""blur"",""156"",""1030122""
""focus"",""156"",""1030124""
","""event"",""trial"",""time""
""blur"",""156"",""1030122""
","""event"",""trial"",""time""
""focus"",""156"",""1030124""
","""event"",""trial"",""time""
""fullscreenenter"",""1"",""1660""
","
","","","1230","","","19","15345","4170","p","elianto","#3366ff99","-1"," ","0","0","[2080.699999988079]","1","2","","","15345","46","4","2","win","no-go","0"
"pit-trial","165","1073426","0.0-51.0","battery-v0.2","","""event"",""trial"",""time""
""fullscreenenter"",""1"",""1660""
""blur"",""156"",""1030122""
""focus"",""156"",""1030124""
","""event"",""trial"",""time""
""blur"",""156"",""1030122""
","""event"",""trial"",""time""
""focus"",""156"",""1030124""
","""event"",""trial"",""time""
""fullscreenenter"",""1"",""1660""
","
","","","-1","","","19","15345","4170","u","elianto","#f73b6a7A","-1","-1","1","0","[]","0","2","","","15345","47","0","4","lose","no-go","0"
"pit-trial","166","1078281","0.0-52.0","battery-v0.2","","""event"",""trial"",""time""
""fullscreenenter"",""1"",""1660""
""blur"",""156"",""1030122""
""focus"",""156"",""1030124""
","""event"",""trial"",""time""
""blur"",""156"",""1030122""
","""event"",""trial"",""time""
""focus"",""156"",""1030124""
","""event"",""trial"",""time""
""fullscreenenter"",""1"",""1660""
","
","","","-1","","","19","15345","4170","g","elianto","#f73b6a7A"," ","-1","0","-10","[]","0","2","","","15345","48","3","3","lose","go","0"
"pit-trial","167","1082436","0.0-53.0","battery-v0.2","","""event"",""trial"",""time""
""fullscreenenter"",""1"",""1660""
""blur"",""156"",""1030122""
""focus"",""156"",""1030124""
","""event"",""trial"",""time""
""blur"",""156"",""1030122""
","""event"",""trial"",""time""
""focus"",""156"",""1030124""
","""event"",""trial"",""time""
""fullscreenenter"",""1"",""1660""
","
","","","1299.4000000357628","","","19","15345","4170","p","elianto","#3366ff99","-1"," ","0","0","[2149.800000011921]","1","2","","","15345","49","4","2","win","no-go","0"
"pit-trial","168","1085860","0.0-54.0","battery-v0.2","","""event"",""trial"",""time""
""fullscreenenter"",""1"",""1660""
""blur"",""156"",""1030122""
""focus"",""156"",""1030124""
","""event"",""trial"",""time""
""blur"",""156"",""1030122""
","""event"",""trial"",""time""
""focus"",""156"",""1030124""
","""event"",""trial"",""time""
""fullscreenenter"",""1"",""1660""
","
","","","569.1000000238419","","","19","15345","4170","l","elianto","#3366ff99"," "," ","1","+10","[1419.2000000476837]","1","2","","","15345","50","1","1","win","go","0"
"pit-trial","169","1090715","0.0-55.0","battery-v0.2","","""event"",""trial"",""time""
""fullscreenenter"",""1"",""1660""
""blur"",""156"",""1030122""
""focus"",""156"",""1030124""
","""event"",""trial"",""time""
""blur"",""156"",""1030122""
","""event"",""trial"",""time""
""focus"",""156"",""1030124""
","""event"",""trial"",""time""
""fullscreenenter"",""1"",""1660""
","
","","","-1","","","19","15345","4170","g","elianto","#f73b6a7A"," ","-1","0","-10","[]","0","2","","","15345","51","3","3","lose","go","0"
"pit-trial","170","1095570","0.0-56.0","battery-v0.2","","""event"",""trial"",""time""
""fullscreenenter"",""1"",""1660""
""blur"",""156"",""1030122""
""focus"",""156"",""1030124""
","""event"",""trial"",""time""
""blur"",""156"",""1030122""
","""event"",""trial"",""time""
""focus"",""156"",""1030124""
","""event"",""trial"",""time""
""fullscreenenter"",""1"",""1660""
","
","","","-1","","","19","15345","4170","u","elianto","#f73b6a7A","-1","-1","1","0","[]","0","2","","","15345","52","0","4","lose","no-go","0"
"pit-trial","171","1100425","0.0-57.0","battery-v0.2","","""event"",""trial"",""time""
""fullscreenenter"",""1"",""1660""
""blur"",""156"",""1030122""
""focus"",""156"",""1030124""
","""event"",""trial"",""time""
""blur"",""156"",""1030122""
","""event"",""trial"",""time""
""focus"",""156"",""1030124""
","""event"",""trial"",""time""
""fullscreenenter"",""1"",""1660""
","
","","","-1","","","19","15345","4170","u","elianto","#f73b6a7A","-1","-1","1","0","[]","0","2","","","15345","53","0","4","lose","no-go","0"
"pit-trial","172","1105281","0.0-58.0","battery-v0.2","","""event"",""trial"",""time""
""fullscreenenter"",""1"",""1660""
""blur"",""156"",""1030122""
""focus"",""156"",""1030124""
","""event"",""trial"",""time""
""blur"",""156"",""1030122""
","""event"",""trial"",""time""
""focus"",""156"",""1030124""
","""event"",""trial"",""time""
""fullscreenenter"",""1"",""1660""
","
","","","-1","","","19","15345","4170","a","elianto","#f73b6a7A","-1","-1","1","0","[]","0","2","","","15345","54","2","4","lose","no-go","0"
"pit-trial","173","1108845","0.0-59.0","battery-v0.2","","""event"",""trial"",""time""
""fullscreenenter"",""1"",""1660""
""blur"",""156"",""1030122""
""focus"",""156"",""1030124""
","""event"",""trial"",""time""
""blur"",""156"",""1030122""
","""event"",""trial"",""time""
""focus"",""156"",""1030124""
","""event"",""trial"",""time""
""fullscreenenter"",""1"",""1660""
","
","","","705.8999999761581","","","19","15345","4170","p","elianto","#3366ff99","-1"," ","0","+10","[1557.699999988079]","1","2","","","15345","55","4","2","win","no-go","1"
"pit-trial","174","1112475","0.0-60.0","battery-v0.2","","""event"",""trial"",""time""
""fullscreenenter"",""1"",""1660""
""blur"",""156"",""1030122""
""focus"",""156"",""1030124""
","""event"",""trial"",""time""
""blur"",""156"",""1030122""
","""event"",""trial"",""time""
""focus"",""156"",""1030124""
","""event"",""trial"",""time""
""fullscreenenter"",""1"",""1660""
","
","","","776.3000000119209","","","19","15345","4170","l","elianto","#3366ff99"," "," ","1","0","[1626.5]","1","2","","","15345","56","1","1","win","go","1"
"pit-trial","175","1117330","0.0-61.0","battery-v0.2","","""event"",""trial"",""time""
""fullscreenenter"",""1"",""1660""
""blur"",""156"",""1030122""
""focus"",""156"",""1030124""
","""event"",""trial"",""time""
""blur"",""156"",""1030122""
","""event"",""trial"",""time""
""focus"",""156"",""1030124""
","""event"",""trial"",""time""
""fullscreenenter"",""1"",""1660""
","
","","","-1","","","19","15345","4170","g","elianto","#f73b6a7A"," ","-1","0","-10","[]","0","2","","","15345","57","3","3","lose","go","0"
"pit-trial","176","1121420","0.0-62.0","battery-v0.2","","""event"",""trial"",""time""
""fullscreenenter"",""1"",""1660""
""blur"",""156"",""1030122""
""focus"",""156"",""1030124""
","""event"",""trial"",""time""
""blur"",""156"",""1030122""
","""event"",""trial"",""time""
""focus"",""156"",""1030124""
","""event"",""trial"",""time""
""fullscreenenter"",""1"",""1660""
","
","","","1234.3999999761581","","","19","15345","4170","l","elianto","#3366ff99"," "," ","1","+10","[2085.2999999523163,2301.5]","2","2","","","15345","58","1","1","win","go","0"
"pit-trial","177","1126276","0.0-63.0","battery-v0.2","","""event"",""trial"",""time""
""fullscreenenter"",""1"",""1660""
""blur"",""156"",""1030122""
""focus"",""156"",""1030124""
","""event"",""trial"",""time""
""blur"",""156"",""1030122""
","""event"",""trial"",""time""
""focus"",""156"",""1030124""
","""event"",""trial"",""time""
""fullscreenenter"",""1"",""1660""
","
","","","-1","","","19","15345","4170","u","elianto","#f73b6a7A","-1","-1","1","-10","[]","0","2","","","15345","59","0","4","lose","no-go","1"
"pit-trial","178","1129852","0.0-64.0","battery-v0.2","","""event"",""trial"",""time""
""fullscreenenter"",""1"",""1660""
""blur"",""156"",""1030122""
""focus"",""156"",""1030124""
","""event"",""trial"",""time""
""blur"",""156"",""1030122""
","""event"",""trial"",""time""
""focus"",""156"",""1030124""
","""event"",""trial"",""time""
""fullscreenenter"",""1"",""1660""
","
","","","720.6999999880791","","","19","15345","4170","p","elianto","#3366ff99","-1"," ","0","+10","[1570.9000000357628]","1","2","","","15345","60","4","2","win","no-go","1"
"pit-trial","179","1134709","0.0-65.0","battery-v0.2","","""event"",""trial"",""time""
""fullscreenenter"",""1"",""1660""
""blur"",""156"",""1030122""
""focus"",""156"",""1030124""
","""event"",""trial"",""time""
""blur"",""156"",""1030122""
","""event"",""trial"",""time""
""focus"",""156"",""1030124""
","""event"",""trial"",""time""
""fullscreenenter"",""1"",""1660""
","
","","","-1","","","19","15345","4170","a","elianto","#f73b6a7A","-1","-1","1","-10","[649.6999999880791]","1","2","","","15345","61","2","4","lose","no-go","1"
"pit-trial","180","1139564","0.0-66.0","battery-v0.2","","""event"",""trial"",""time""
""fullscreenenter"",""1"",""1660""
""blur"",""156"",""1030122""
""focus"",""156"",""1030124""
","""event"",""trial"",""time""
""blur"",""156"",""1030122""
","""event"",""trial"",""time""
""focus"",""156"",""1030124""
","""event"",""trial"",""time""
""fullscreenenter"",""1"",""1660""
","
","","","-1","","","19","15345","4170","g","elianto","#f73b6a7A"," ","-1","0","0","[]","0","2","","","15345","62","3","3","lose","go","1"
"pit-trial","181","1143676","0.0-67.0","battery-v0.2","","""event"",""trial"",""time""
""fullscreenenter"",""1"",""1660""
""blur"",""156"",""1030122""
""focus"",""156"",""1030124""
","""event"",""trial"",""time""
""blur"",""156"",""1030122""
","""event"",""trial"",""time""
""focus"",""156"",""1030124""
","""event"",""trial"",""time""
""fullscreenenter"",""1"",""1660""
","
","","","1255.3999999761581","","","19","15345","4170","l","elianto","#3366ff99"," "," ","1","+10","[2106.899999976158,2979.300000011921]","2","2","","","15345","63","1","1","win","go","0"
"pit-trial","182","1147740","0.0-68.0","battery-v0.2","","""event"",""trial"",""time""
""fullscreenenter"",""1"",""1660""
""blur"",""156"",""1030122""
""focus"",""156"",""1030124""
","""event"",""trial"",""time""
""blur"",""156"",""1030122""
","""event"",""trial"",""time""
""focus"",""156"",""1030124""
","""event"",""trial"",""time""
""fullscreenenter"",""1"",""1660""
","
","","","1208.800000011921","","","19","15345","4170","p","elianto","#3366ff99","-1"," ","0","+10","[2059.699999988079]","1","2","","","15345","64","4","2","win","no-go","1"
"pit-trial","183","1152595","0.0-69.0","battery-v0.2","","""event"",""trial"",""time""
""fullscreenenter"",""1"",""1660""
""blur"",""156"",""1030122""
""focus"",""156"",""1030124""
","""event"",""trial"",""time""
""blur"",""156"",""1030122""
","""event"",""trial"",""time""
""focus"",""156"",""1030124""
","""event"",""trial"",""time""
""fullscreenenter"",""1"",""1660""
","
","","","-1","","","19","15345","4170","g","elianto","#f73b6a7A"," ","-1","0","-10","[]","0","2","","","15345","65","3","3","lose","go","0"
"pit-trial","184","1156092","0.0-70.0","battery-v0.2","","""event"",""trial"",""time""
""fullscreenenter"",""1"",""1660""
""blur"",""156"",""1030122""
""focus"",""156"",""1030124""
","""event"",""trial"",""time""
""blur"",""156"",""1030122""
","""event"",""trial"",""time""
""focus"",""156"",""1030124""
","""event"",""trial"",""time""
""fullscreenenter"",""1"",""1660""
","
","","","640.6999999880791","","","19","15345","4170","p","elianto","#3366ff99","-1"," ","0","0","[1491.3999999761581]","1","2","","","15345","66","4","2","win","no-go","0"
"pit-trial","185","1159803","0.0-71.0","battery-v0.2","","""event"",""trial"",""time""
""fullscreenenter"",""1"",""1660""
""blur"",""156"",""1030122""
""focus"",""156"",""1030124""
","""event"",""trial"",""time""
""blur"",""156"",""1030122""
","""event"",""trial"",""time""
""focus"",""156"",""1030124""
","""event"",""trial"",""time""
""fullscreenenter"",""1"",""1660""
","
","","","855.3000000119209","","","19","15345","4170","l","elianto","#3366ff99"," "," ","1","+10","[1706.9000000357628]","1","2","","","15345","67","1","1","win","go","0"
"pit-trial","186","1164659","0.0-72.0","battery-v0.2","","""event"",""trial"",""time""
""fullscreenenter"",""1"",""1660""
""blur"",""156"",""1030122""
""focus"",""156"",""1030124""
","""event"",""trial"",""time""
""blur"",""156"",""1030122""
","""event"",""trial"",""time""
""focus"",""156"",""1030124""
","""event"",""trial"",""time""
""fullscreenenter"",""1"",""1660""
","
","","","-1","","","19","15345","4170","a","elianto","#f73b6a7A","-1","-1","1","-10","[]","0","2","","","15345","68","2","4","lose","no-go","1"
"pit-trial","187","1168306","0.0-73.0","battery-v0.2","","""event"",""trial"",""time""
""fullscreenenter"",""1"",""1660""
""blur"",""156"",""1030122""
""focus"",""156"",""1030124""
","""event"",""trial"",""time""
""blur"",""156"",""1030122""
","""event"",""trial"",""time""
""focus"",""156"",""1030124""
","""event"",""trial"",""time""
""fullscreenenter"",""1"",""1660""
","
","","","792","","","19","15345","4170","l","elianto","#3366ff99"," "," ","1","+10","[1643.4000000357628,2339.900000035763]","2","2","","","15345","69","1","1","win","go","0"
"pit-trial","188","1173163","0.0-74.0","battery-v0.2","","""event"",""trial"",""time""
""fullscreenenter"",""1"",""1660""
""blur"",""156"",""1030122""
""focus"",""156"",""1030124""
","""event"",""trial"",""time""
""blur"",""156"",""1030122""
","""event"",""trial"",""time""
""focus"",""156"",""1030124""
","""event"",""trial"",""time""
""fullscreenenter"",""1"",""1660""
","
","","","-1","","","19","15345","4170","g","elianto","#f73b6a7A"," ","-1","0","-10","[]","0","2","","","15345","70","3","3","lose","go","0"
"pit-trial","189","1177027","0.0-75.0","battery-v0.2","","""event"",""trial"",""time""
""fullscreenenter"",""1"",""1660""
""blur"",""156"",""1030122""
""focus"",""156"",""1030124""
","""event"",""trial"",""time""
""blur"",""156"",""1030122""
","""event"",""trial"",""time""
""focus"",""156"",""1030124""
","""event"",""trial"",""time""
""fullscreenenter"",""1"",""1660""
","
","","","1009.8000000119209","","","19","15345","4170","s","elianto","#3366ff99"," "," ","1","+10","[1859.699999988079]","1","2","","","15345","71","5","1","win","go","0"
"pit-trial","190","1181229","0.0-76.0","battery-v0.2","","""event"",""trial"",""time""
""fullscreenenter"",""1"",""1660""
""blur"",""156"",""1030122""
""focus"",""156"",""1030124""
","""event"",""trial"",""time""
""blur"",""156"",""1030122""
","""event"",""trial"",""time""
""focus"",""156"",""1030124""
","""event"",""trial"",""time""
""fullscreenenter"",""1"",""1660""
","
","","","1346.300000011921","","","19","15345","4170","p","elianto","#3366ff99","-1"," ","0","0","[2196.5]","1","2","","","15345","72","4","2","win","no-go","0"
"pit-trial","191","1185469","0.0-77.0","battery-v0.2","","""event"",""trial"",""time""
""fullscreenenter"",""1"",""1660""
""blur"",""156"",""1030122""
""focus"",""156"",""1030124""
","""event"",""trial"",""time""
""blur"",""156"",""1030122""
","""event"",""trial"",""time""
""focus"",""156"",""1030124""
","""event"",""trial"",""time""
""fullscreenenter"",""1"",""1660""
","
","","","1383.800000011921","","","19","15345","4170","s","elianto","#3366ff99"," "," ","1","+10","[2234]","1","2","","","15345","73","5","1","win","go","0"
"pit-trial","192","1189267","0.0-78.0","battery-v0.2","","""event"",""trial"",""time""
""fullscreenenter"",""1"",""1660""
""blur"",""156"",""1030122""
""focus"",""156"",""1030124""
","""event"",""trial"",""time""
""blur"",""156"",""1030122""
","""event"",""trial"",""time""
""focus"",""156"",""1030124""
","""event"",""trial"",""time""
""fullscreenenter"",""1"",""1660""
","
","","","942.9000000357628","","","19","15345","4170","p","elianto","#3366ff99","-1"," ","0","0","[1793.300000011921]","1","2","","","15345","74","4","2","win","no-go","0"
"pit-trial","193","1193667","0.0-79.0","battery-v0.2","","""event"",""trial"",""time""
""fullscreenenter"",""1"",""1660""
""blur"",""156"",""1030122""
""focus"",""156"",""1030124""
","""event"",""trial"",""time""
""blur"",""156"",""1030122""
","""event"",""trial"",""time""
""focus"",""156"",""1030124""
","""event"",""trial"",""time""
""fullscreenenter"",""1"",""1660""
","
","","","1544.5","","","19","15345","4170","l","elianto","#3366ff99"," "," ","1","+10","[2396.599999964237]","1","2","","","15345","75","1","1","win","go","0"
"pit-trial","194","1198522","0.0-80.0","battery-v0.2","","""event"",""trial"",""time""
""fullscreenenter"",""1"",""1660""
""blur"",""156"",""1030122""
""focus"",""156"",""1030124""
","""event"",""trial"",""time""
""blur"",""156"",""1030122""
","""event"",""trial"",""time""
""focus"",""156"",""1030124""
","""event"",""trial"",""time""
""fullscreenenter"",""1"",""1660""
","
","","","-1","","","19","15345","4170","g","elianto","#f73b6a7A"," ","-1","0","-10","[]","0","2","","","15345","76","3","3","lose","go","0"
"pit-trial","195","1201979","0.0-81.0","battery-v0.2","","""event"",""trial"",""time""
""fullscreenenter"",""1"",""1660""
""blur"",""156"",""1030122""
""focus"",""156"",""1030124""
","""event"",""trial"",""time""
""blur"",""156"",""1030122""
","""event"",""trial"",""time""
""focus"",""156"",""1030124""
","""event"",""trial"",""time""
""fullscreenenter"",""1"",""1660""
","
","","","598.5","","","19","15345","4170","s","elianto","#3366ff99"," "," ","1","+10","[1452.6000000238419]","1","2","","","15345","77","5","1","win","go","0"
"pit-trial","196","1206834","0.0-82.0","battery-v0.2","","""event"",""trial"",""time""
""fullscreenenter"",""1"",""1660""
""blur"",""156"",""1030122""
""focus"",""156"",""1030124""
","""event"",""trial"",""time""
""blur"",""156"",""1030122""
","""event"",""trial"",""time""
""focus"",""156"",""1030124""
","""event"",""trial"",""time""
""fullscreenenter"",""1"",""1660""
","
","","","-1","","","19","15345","4170","w","elianto","#f73b6a7A","-1","-1","1","0","[]","0","2","","","15345","78","6","4","lose","no-go","0"
"pit-trial","197","1211363","0.0-83.0","battery-v0.2","","""event"",""trial"",""time""
""fullscreenenter"",""1"",""1660""
""blur"",""156"",""1030122""
""focus"",""156"",""1030124""
","""event"",""trial"",""time""
""blur"",""156"",""1030122""
","""event"",""trial"",""time""
""focus"",""156"",""1030124""
","""event"",""trial"",""time""
""fullscreenenter"",""1"",""1660""
","
","","","1674.699999988079","","","19","15345","4170","p","elianto","#3366ff99","-1"," ","0","0","[2524.800000011921]","1","2","","","15345","79","4","2","win","no-go","0"
"pit-trial","198","1216217","0.0-84.0","battery-v0.2","","""event"",""trial"",""time""
""fullscreenenter"",""1"",""1660""
""blur"",""156"",""1030122""
""focus"",""156"",""1030124""
","""event"",""trial"",""time""
""blur"",""156"",""1030122""
","""event"",""trial"",""time""
""focus"",""156"",""1030124""
","""event"",""trial"",""time""
""fullscreenenter"",""1"",""1660""
","
","","","-1","","","19","15345","4170","g","elianto","#f73b6a7A"," ","-1","0","-10","[]","0","2","","","15345","80","3","3","lose","go","0"
"pit-trial","199","1219979","0.0-85.0","battery-v0.2","","""event"",""trial"",""time""
""fullscreenenter"",""1"",""1660""
""blur"",""156"",""1030122""
""focus"",""156"",""1030124""
","""event"",""trial"",""time""
""blur"",""156"",""1030122""
","""event"",""trial"",""time""
""focus"",""156"",""1030124""
","""event"",""trial"",""time""
""fullscreenenter"",""1"",""1660""
","
","","","906.0999999642372","","","19","15345","4170","s","elianto","#3366ff99"," "," ","1","+10","[1757.0999999642372]","1","2","","","15345","81","5","1","win","go","0"
"pit-trial","200","1224834","0.0-86.0","battery-v0.2","","""event"",""trial"",""time""
""fullscreenenter"",""1"",""1660""
""blur"",""156"",""1030122""
""focus"",""156"",""1030124""
","""event"",""trial"",""time""
""blur"",""156"",""1030122""
","""event"",""trial"",""time""
""focus"",""156"",""1030124""
","""event"",""trial"",""time""
""fullscreenenter"",""1"",""1660""
","
","","","-1","","","19","15345","4170","w","elianto","#f73b6a7A","-1","-1","1","0","[]","0","2","","","15345","82","6","4","lose","no-go","0"
"pit-trial","201","1229252","0.0-87.0","battery-v0.2","","""event"",""trial"",""time""
""fullscreenenter"",""1"",""1660""
""blur"",""156"",""1030122""
""focus"",""156"",""1030124""
","""event"",""trial"",""time""
""blur"",""156"",""1030122""
","""event"",""trial"",""time""
""focus"",""156"",""1030124""
","""event"",""trial"",""time""
""fullscreenenter"",""1"",""1660""
","
","","","1561.5","","","19","15345","4170","p","elianto","#3366ff99","-1"," ","0","+10","[2411.899999976158]","1","2","","","15345","83","4","2","win","no-go","1"
"pit-trial","202","1234107","0.0-88.0","battery-v0.2","","""event"",""trial"",""time""
""fullscreenenter"",""1"",""1660""
""blur"",""156"",""1030122""
""focus"",""156"",""1030124""
","""event"",""trial"",""time""
""blur"",""156"",""1030122""
","""event"",""trial"",""time""
""focus"",""156"",""1030124""
","""event"",""trial"",""time""
""fullscreenenter"",""1"",""1660""
","
","","","-1","","","19","15345","4170","e","elianto","#f73b6a7A"," ","-1","0","-10","[]","0","2","","","15345","84","7","3","lose","go","0"
"pit-trial","203","1238963","0.0-89.0","battery-v0.2","","""event"",""trial"",""time""
""fullscreenenter"",""1"",""1660""
""blur"",""156"",""1030122""
""focus"",""156"",""1030124""
","""event"",""trial"",""time""
""blur"",""156"",""1030122""
","""event"",""trial"",""time""
""focus"",""156"",""1030124""
","""event"",""trial"",""time""
""fullscreenenter"",""1"",""1660""
","
","","","-1","","","19","15345","4170","e","elianto","#f73b6a7A"," ","-1","0","-10","[]","0","2","","","15345","85","7","3","lose","go","0"
"pit-trial","204","1242722","0.0-90.0","battery-v0.2","","""event"",""trial"",""time""
""fullscreenenter"",""1"",""1660""
""blur"",""156"",""1030122""
""focus"",""156"",""1030124""
","""event"",""trial"",""time""
""blur"",""156"",""1030122""
","""event"",""trial"",""time""
""focus"",""156"",""1030124""
","""event"",""trial"",""time""
""fullscreenenter"",""1"",""1660""
","
","","","897.1999999880791","","","19","15345","4170","p","elianto","#3366ff99","-1"," ","0","0","[1747.5]","1","2","","","15345","86","4","2","win","no-go","0"
"pit-trial","205","1246299","0.0-91.0","battery-v0.2","","""event"",""trial"",""time""
""fullscreenenter"",""1"",""1660""
""blur"",""156"",""1030122""
""focus"",""156"",""1030124""
","""event"",""trial"",""time""
""blur"",""156"",""1030122""
","""event"",""trial"",""time""
""focus"",""156"",""1030124""
","""event"",""trial"",""time""
""fullscreenenter"",""1"",""1660""
","
","","","722.1999999880791","","","19","15345","4170","s","elianto","#3366ff99"," "," ","1","+10","[1572.699999988079]","1","2","","","15345","87","5","1","win","go","0"
"pit-trial","206","1251153","0.0-92.0","battery-v0.2","","""event"",""trial"",""time""
""fullscreenenter"",""1"",""1660""
""blur"",""156"",""1030122""
""focus"",""156"",""1030124""
","""event"",""trial"",""time""
""blur"",""156"",""1030122""
","""event"",""trial"",""time""
""focus"",""156"",""1030124""
","""event"",""trial"",""time""
""fullscreenenter"",""1"",""1660""
","
","","","-1","","","19","15345","4170","w","elianto","#f73b6a7A","-1","-1","1","0","[]","0","2","","","15345","88","6","4","lose","no-go","0"
"pit-trial","207","1254764","0.0-93.0","battery-v0.2","","""event"",""trial"",""time""
""fullscreenenter"",""1"",""1660""
""blur"",""156"",""1030122""
""focus"",""156"",""1030124""
","""event"",""trial"",""time""
""blur"",""156"",""1030122""
","""event"",""trial"",""time""
""focus"",""156"",""1030124""
","""event"",""trial"",""time""
""fullscreenenter"",""1"",""1660""
","
","","","755.6999999880791","","","19","15345","4170","s","elianto","#3366ff99"," "," ","1","0","[1606]","1","2","","","15345","89","5","1","win","go","1"
"pit-trial","208","1259619","0.0-94.0","battery-v0.2","","""event"",""trial"",""time""
""fullscreenenter"",""1"",""1660""
""blur"",""156"",""1030122""
""focus"",""156"",""1030124""
","""event"",""trial"",""time""
""blur"",""156"",""1030122""
","""event"",""trial"",""time""
""focus"",""156"",""1030124""
","""event"",""trial"",""time""
""fullscreenenter"",""1"",""1660""
","
","","","-1","","","19","15345","4170","e","elianto","#f73b6a7A"," ","-1","0","-10","[]","0","2","","","15345","90","7","3","lose","go","0"
"pit-trial","209","1264474","0.0-95.0","battery-v0.2","","""event"",""trial"",""time""
""fullscreenenter"",""1"",""1660""
""blur"",""156"",""1030122""
""focus"",""156"",""1030124""
","""event"",""trial"",""time""
""blur"",""156"",""1030122""
","""event"",""trial"",""time""
""focus"",""156"",""1030124""
","""event"",""trial"",""time""
""fullscreenenter"",""1"",""1660""
","
","","","-1","","","19","15345","4170","w","elianto","#f73b6a7A","-1","-1","1","-10","[]","0","2","","","15345","91","6","4","lose","no-go","1"
"pit-trial","210","1267947","0.0-96.0","battery-v0.2","","""event"",""trial"",""time""
""fullscreenenter"",""1"",""1660""
""blur"",""156"",""1030122""
""focus"",""156"",""1030124""
","""event"",""trial"",""time""
""blur"",""156"",""1030122""
","""event"",""trial"",""time""
""focus"",""156"",""1030124""
","""event"",""trial"",""time""
""fullscreenenter"",""1"",""1660""
","
","","","613.6999999880791","","","19","15345","4170","p","elianto","#3366ff99","-1"," ","0","+10","[1468.7000000476837]","1","2","","","15345","92","4","2","win","no-go","1"
"pit-trial","211","1272804","0.0-97.0","battery-v0.2","","""event"",""trial"",""time""
""fullscreenenter"",""1"",""1660""
""blur"",""156"",""1030122""
""focus"",""156"",""1030124""
","""event"",""trial"",""time""
""blur"",""156"",""1030122""
","""event"",""trial"",""time""
""focus"",""156"",""1030124""
","""event"",""trial"",""time""
""fullscreenenter"",""1"",""1660""
","
","","","-1","","","19","15345","4170","w","elianto","#f73b6a7A","-1","-1","1","0","[]","0","2","","","15345","93","6","4","lose","no-go","0"
"pit-trial","212","1276587","0.0-98.0","battery-v0.2","","""event"",""trial"",""time""
""fullscreenenter"",""1"",""1660""
""blur"",""156"",""1030122""
""focus"",""156"",""1030124""
","""event"",""trial"",""time""
""blur"",""156"",""1030122""
","""event"",""trial"",""time""
""focus"",""156"",""1030124""
","""event"",""trial"",""time""
""fullscreenenter"",""1"",""1660""
","
","","","927.5999999642372","","","19","15345","4170","s","elianto","#3366ff99"," "," ","1","+10","[1778.3999999761581]","1","2","","","15345","94","5","1","win","go","0"
"pit-trial","213","1280565","0.0-99.0","battery-v0.2","","""event"",""trial"",""time""
""fullscreenenter"",""1"",""1660""
""blur"",""156"",""1030122""
""focus"",""156"",""1030124""
","""event"",""trial"",""time""
""blur"",""156"",""1030122""
","""event"",""trial"",""time""
""focus"",""156"",""1030124""
","""event"",""trial"",""time""
""fullscreenenter"",""1"",""1660""
","
","","","1122.199999988079","","","19","15345","4170","d","elianto","#3366ff99","-1"," ","0","0","[1972.699999988079]","1","2","","","15345","95","8","2","win","no-go","0"
"pit-trial","214","1285420","0.0-100.0","battery-v0.2","","""event"",""trial"",""time""
""fullscreenenter"",""1"",""1660""
""blur"",""156"",""1030122""
""focus"",""156"",""1030124""
","""event"",""trial"",""time""
""blur"",""156"",""1030122""
","""event"",""trial"",""time""
""focus"",""156"",""1030124""
","""event"",""trial"",""time""
""fullscreenenter"",""1"",""1660""
","
","","","-1","","","19","15345","4170","e","elianto","#f73b6a7A"," ","-1","0","-10","[]","0","2","","","15345","96","7","3","lose","go","0"
"pit-trial","215","1289171","0.0-101.0","battery-v0.2","","""event"",""trial"",""time""
""fullscreenenter"",""1"",""1660""
""blur"",""156"",""1030122""
""focus"",""156"",""1030124""
","""event"",""trial"",""time""
""blur"",""156"",""1030122""
","""event"",""trial"",""time""
""focus"",""156"",""1030124""
","""event"",""trial"",""time""
""fullscreenenter"",""1"",""1660""
","
","","","897.1999999880791","","","19","15345","4170","s","elianto","#3366ff99"," "," ","1","+10","[1747.6000000238419,2364.100000023842,2547.600000023842]","3","2","","","15345","97","5","1","win","go","0"
"pit-trial","216","1294026","0.0-102.0","battery-v0.2","","""event"",""trial"",""time""
""fullscreenenter"",""1"",""1660""
""blur"",""156"",""1030122""
""focus"",""156"",""1030124""
","""event"",""trial"",""time""
""blur"",""156"",""1030122""
","""event"",""trial"",""time""
""focus"",""156"",""1030124""
","""event"",""trial"",""time""
""fullscreenenter"",""1"",""1660""
","
","","","-1","","","19","15345","4170","w","elianto","#f73b6a7A","-1","-1","1","-10","[]","0","2","","","15345","98","6","4","lose","no-go","1"
"pit-trial","217","1298883","0.0-103.0","battery-v0.2","","""event"",""trial"",""time""
""fullscreenenter"",""1"",""1660""
""blur"",""156"",""1030122""
""focus"",""156"",""1030124""
","""event"",""trial"",""time""
""blur"",""156"",""1030122""
","""event"",""trial"",""time""
""focus"",""156"",""1030124""
","""event"",""trial"",""time""
""fullscreenenter"",""1"",""1660""
","
","","","-1","","","19","15345","4170","e","elianto","#f73b6a7A"," ","-1","0","-10","[]","0","2","","","15345","99","7","3","lose","go","0"
"pit-trial","218","1302781","0.0-104.0","battery-v0.2","","""event"",""trial"",""time""
""fullscreenenter"",""1"",""1660""
""blur"",""156"",""1030122""
""focus"",""156"",""1030124""
","""event"",""trial"",""time""
""blur"",""156"",""1030122""
","""event"",""trial"",""time""
""focus"",""156"",""1030124""
","""event"",""trial"",""time""
""fullscreenenter"",""1"",""1660""
","
","","","1042.0999999642372","","","19","15345","4170","d","elianto","#3366ff99","-1"," ","0","0","[1892.5999999642372]","1","2","","","15345","100","8","2","win","no-go","0"
"pit-trial","219","1306420","0.0-105.0","battery-v0.2","","""event"",""trial"",""time""
""fullscreenenter"",""1"",""1660""
""blur"",""156"",""1030122""
""focus"",""156"",""1030124""
","""event"",""trial"",""time""
""blur"",""156"",""1030122""
","""event"",""trial"",""time""
""focus"",""156"",""1030124""
","""event"",""trial"",""time""
""fullscreenenter"",""1"",""1660""
","
","","","784","","","19","15345","4170","s","elianto","#3366ff99"," "," ","1","+10","[1634.3999999761581]","1","2","","","15345","101","5","1","win","go","0"
"pit-trial","220","1311276","0.0-106.0","battery-v0.2","","""event"",""trial"",""time""
""fullscreenenter"",""1"",""1660""
""blur"",""156"",""1030122""
""focus"",""156"",""1030124""
","""event"",""trial"",""time""
""blur"",""156"",""1030122""
","""event"",""trial"",""time""
""focus"",""156"",""1030124""
","""event"",""trial"",""time""
""fullscreenenter"",""1"",""1660""
","
","","","-1","","","19","15345","4170","w","elianto","#f73b6a7A","-1","-1","1","0","[]","0","2","","","15345","102","6","4","lose","no-go","0"
"pit-trial","221","1314764","0.0-107.0","battery-v0.2","","""event"",""trial"",""time""
""fullscreenenter"",""1"",""1660""
""blur"",""156"",""1030122""
""focus"",""156"",""1030124""
","""event"",""trial"",""time""
""blur"",""156"",""1030122""
","""event"",""trial"",""time""
""focus"",""156"",""1030124""
","""event"",""trial"",""time""
""fullscreenenter"",""1"",""1660""
","
","","","631.8000000119209","","","19","15345","4170","d","elianto","#3366ff99","-1"," ","0","0","[1483.699999988079]","1","2","","","15345","103","8","2","win","no-go","0"
"pit-trial","222","1318435","0.0-108.0","battery-v0.2","","""event"",""trial"",""time""
""fullscreenenter"",""1"",""1660""
""blur"",""156"",""1030122""
""focus"",""156"",""1030124""
","""event"",""trial"",""time""
""blur"",""156"",""1030122""
","""event"",""trial"",""time""
""focus"",""156"",""1030124""
","""event"",""trial"",""time""
""fullscreenenter"",""1"",""1660""
","
","","","817.1000000238419","","","19","15345","4170","j","elianto","#3366ff99","-1"," ","0","0","[1667.300000011921]","1","2","","","15345","104","9","2","win","no-go","0"
"pit-trial","223","1321867","0.0-109.0","battery-v0.2","","""event"",""trial"",""time""
""fullscreenenter"",""1"",""1660""
""blur"",""156"",""1030122""
""focus"",""156"",""1030124""
","""event"",""trial"",""time""
""blur"",""156"",""1030122""
","""event"",""trial"",""time""
""focus"",""156"",""1030124""
","""event"",""trial"",""time""
""fullscreenenter"",""1"",""1660""
","
","","","576.6999999880791","","","19","15345","4170","j","elianto","#3366ff99","-1"," ","0","+10","[1428.0999999642372]","1","2","","","15345","105","9","2","win","no-go","1"
"pit-trial","224","1325220","0.0-110.0","battery-v0.2","","""event"",""trial"",""time""
""fullscreenenter"",""1"",""1660""
""blur"",""156"",""1030122""
""focus"",""156"",""1030124""
","""event"",""trial"",""time""
""blur"",""156"",""1030122""
","""event"",""trial"",""time""
""focus"",""156"",""1030124""
","""event"",""trial"",""time""
""fullscreenenter"",""1"",""1660""
","
","","","498.19999998807907","","","19","15345","4170","d","elianto","#3366ff99","-1"," ","0","0","[1349]","1","2","","","15345","106","8","2","win","no-go","0"
"pit-trial","225","1330075","0.0-111.0","battery-v0.2","","""event"",""trial"",""time""
""fullscreenenter"",""1"",""1660""
""blur"",""156"",""1030122""
""focus"",""156"",""1030124""
","""event"",""trial"",""time""
""blur"",""156"",""1030122""
","""event"",""trial"",""time""
""focus"",""156"",""1030124""
","""event"",""trial"",""time""
""fullscreenenter"",""1"",""1660""
","
","","","-1","","","19","15345","4170","w","elianto","#f73b6a7A","-1","-1","1","0","[]","0","2","","","15345","107","6","4","lose","no-go","0"
"pit-trial","226","1333715","0.0-112.0","battery-v0.2","","""event"",""trial"",""time""
""fullscreenenter"",""1"",""1660""
""blur"",""156"",""1030122""
""focus"",""156"",""1030124""
","""event"",""trial"",""time""
""blur"",""156"",""1030122""
","""event"",""trial"",""time""
""focus"",""156"",""1030124""
","""event"",""trial"",""time""
""fullscreenenter"",""1"",""1660""
","
","","","782.2000000476837","","","19","15345","4170","s","elianto","#3366ff99"," "," ","1","0","[1635.2000000476837]","1","2","","","15345","108","5","1","win","go","1"
"pit-trial","227","1337060","0.0-113.0","battery-v0.2","","""event"",""trial"",""time""
""fullscreenenter"",""1"",""1660""
""blur"",""156"",""1030122""
""focus"",""156"",""1030124""
","""event"",""trial"",""time""
""blur"",""156"",""1030122""
","""event"",""trial"",""time""
""focus"",""156"",""1030124""
","""event"",""trial"",""time""
""fullscreenenter"",""1"",""1660""
","
","","","490.19999998807907","","","19","15345","4170","s","elianto","#3366ff99"," "," ","1","+10","[1340.300000011921]","1","2","","","15345","109","5","1","win","go","0"
"pit-trial","228","1341916","0.0-114.0","battery-v0.2","","""event"",""trial"",""time""
""fullscreenenter"",""1"",""1660""
""blur"",""156"",""1030122""
""focus"",""156"",""1030124""
""fullscreenexit"",""229"",""1342909""
","""event"",""trial"",""time""
""blur"",""156"",""1030122""
","""event"",""trial"",""time""
""focus"",""156"",""1030124""
","""event"",""trial"",""time""
""fullscreenenter"",""1"",""1660""
","""event"",""trial"",""time""
""fullscreenexit"",""229"",""1342909""
","","","-1","","","19","15345","4170","w","elianto","#f73b6a7A","-1","-1","1","0","[]","0","2","","","15345","110","6","4","lose","no-go","0"
"pit-trial","229","1346100","0.0-115.0","battery-v0.2","","""event"",""trial"",""time""
""fullscreenenter"",""1"",""1660""
""blur"",""156"",""1030122""
""focus"",""156"",""1030124""
""fullscreenexit"",""229"",""1342909""
","""event"",""trial"",""time""
""blur"",""156"",""1030122""
","""event"",""trial"",""time""
""focus"",""156"",""1030124""
","""event"",""trial"",""time""
""fullscreenenter"",""1"",""1660""
","""event"",""trial"",""time""
""fullscreenexit"",""229"",""1342909""
","","","1327.3999999761581","","","19","15345","4170","d","elianto","#3366ff99","-1"," ","0","+10","[2179.399999976158]","1","2","","","15345","111","8","2","win","no-go","1"
