"trial_type","trial_index","time_elapsed","internal_node_id","task_version","subject_id","interactions","blur_events","focus_events","fullscreenenter_events","fullscreenexit_events","success","view_history","rt","responses","num_errors","age","subject","participantId","rune","rune_set","hex","correct","choice","accuracy","outcome","keys","total_keys","block","practice","value","sub","trial","stimulus","robot","valence","action","sham"
"pavlovia","0","38","0.0-0.0","battery-v0.2","","""event"",""trial"",""time""
""fullscreenenter"",""1"",""3284""
","
","
","""event"",""trial"",""time""
""fullscreenenter"",""1"",""3284""
","
","","","","","","","","","","","","","","","","","","","","","","","","","","",""
"fullscreen","1","4278","0.0-1.0","battery-v0.2","","""event"",""trial"",""time""
""fullscreenenter"",""1"",""3284""
","
","
","""event"",""trial"",""time""
""fullscreenenter"",""1"",""3284""
","
","true","","","","","","","","","","","","","","","","","","","","","","","","","",""
"pit-instructions","2","11268","0.0-2.0-0.0","battery-v0.2","","""event"",""trial"",""time""
""fullscreenenter"",""1"",""3284""
","
","
","""event"",""trial"",""time""
""fullscreenenter"",""1"",""3284""
","
","","[{""page_index"":0,""viewing_time"":6985.5}]","6986","","","","","","","","","","","","","","","","","","","","","","","",""
"pit-comprehension","3","14890","0.0-2.0-1.0-0.0","battery-v0.2","","""event"",""trial"",""time""
""fullscreenenter"",""1"",""3284""
","
","
","""event"",""trial"",""time""
""fullscreenenter"",""1"",""3284""
","
","","","3615.2000000178814","[""shark""]","0","18","4921","2368","","","","","","","","","","","","","","","","","","",""
"pit-instructions","4","15948","0.0-2.0-1.0-1.0","battery-v0.2","","""event"",""trial"",""time""
""fullscreenenter"",""1"",""3284""
","
","
","""event"",""trial"",""time""
""fullscreenenter"",""1"",""3284""
","
","","[{""page_index"":0,""viewing_time"":1048.7999999821186}]","1049.2999999821186","","","","","","","","","","","","","","","","","","","","","","","",""
"pit-comprehension","5","19038","0.0-2.0-2.0-0.0","battery-v0.2","","""event"",""trial"",""time""
""fullscreenenter"",""1"",""3284""
","
","
","""event"",""trial"",""time""
""fullscreenenter"",""1"",""3284""
","
","","","3085.4000000059605","[""tiger""]","0","18","4921","2368","","","","","","","","","","","","","","","","","","",""
"pit-instructions","6","20100","0.0-2.0-2.0-1.0","battery-v0.2","","""event"",""trial"",""time""
""fullscreenenter"",""1"",""3284""
","
","
","""event"",""trial"",""time""
""fullscreenenter"",""1"",""3284""
","
","","[{""page_index"":0,""viewing_time"":1058.5999999940395}]","1058.8999999761581","","","","","","","","","","","","","","","","","","","","","","","",""
"pit-instructions","7","122852","0.0-2.0-3.0","battery-v0.2","","""event"",""trial"",""time""
""fullscreenenter"",""1"",""3284""
","
","
","""event"",""trial"",""time""
""fullscreenenter"",""1"",""3284""
","
","","[{""page_index"":0,""viewing_time"":9097.40000000596},{""page_index"":1,""viewing_time"":7050.299999982119},{""page_index"":2,""viewing_time"":7284.800000011921},{""page_index"":3,""viewing_time"":5772.299999982119},{""page_index"":4,""viewing_time"":6886.5},{""page_index"":5,""viewing_time"":7898.4000000059605},{""page_index"":6,""viewing_time"":7474.5},{""page_index"":7,""viewing_time"":8507.800000011921},{""page_index"":8,""viewing_time"":6899.5},{""page_index"":9,""viewing_time"":7354.9000000059605},{""page_index"":10,""viewing_time"":8030.0999999940395},{""page_index"":11,""viewing_time"":7569.199999988079},{""page_index"":12,""viewing_time"":7813.5999999940395},{""page_index"":13,""viewing_time"":5106.300000011921}]","102746","","","","","","","","","","","","","","","","","","","","","","","",""
"pit-trial","8","126247","0.0-2.0-4.0-0.0","battery-v0.2","","""event"",""trial"",""time""
""fullscreenenter"",""1"",""3284""
","
","
","""event"",""trial"",""time""
""fullscreenenter"",""1"",""3284""
","
","","","536","","","18","4921","2368","&#9784;","elianto","#FFFFF080"," "," ","1","&#10004","[1389.7000000178814]","1","0","0","","","","","","","",""
"pit-trial","9","129643","0.0-2.0-4.1-0.1","battery-v0.2","","""event"",""trial"",""time""
""fullscreenenter"",""1"",""3284""
","
","
","""event"",""trial"",""time""
""fullscreenenter"",""1"",""3284""
","
","","","541.0999999940395","","","18","4921","2368","&#9784;","elianto","#FFFFF080"," "," ","1","&#10004","[1392.199999988079]","1","0","0","","","","","","","",""
"pit-trial","10","132981","0.0-2.0-4.2-0.2","battery-v0.2","","""event"",""trial"",""time""
""fullscreenenter"",""1"",""3284""
","
","
","""event"",""trial"",""time""
""fullscreenenter"",""1"",""3284""
","
","","","483","","","18","4921","2368","&#9784;","elianto","#FFFFF080"," "," ","1","&#10004","[1333.199999988079]","1","0","0","","","","","","","",""
"pit-trial","11","136261","0.0-2.0-4.3-0.3","battery-v0.2","","""event"",""trial"",""time""
""fullscreenenter"",""1"",""3284""
","
","
","""event"",""trial"",""time""
""fullscreenenter"",""1"",""3284""
","
","","","424.2000000178814","","","18","4921","2368","&#9784;","elianto","#FFFFF080"," "," ","1","&#10004","[1276.0999999940395]","1","0","0","","","","","","","",""
"pit-trial","12","139507","0.0-2.0-4.4-0.4","battery-v0.2","","""event"",""trial"",""time""
""fullscreenenter"",""1"",""3284""
","
","
","""event"",""trial"",""time""
""fullscreenenter"",""1"",""3284""
","
","","","381.19999998807907","","","18","4921","2368","&#9784;","elianto","#FFFFF080"," "," ","1","&#10004","[1239.800000011921]","1","0","0","","","","","","","",""
"pit-instructions","13","163149","0.0-2.0-5.0","battery-v0.2","","""event"",""trial"",""time""
""fullscreenenter"",""1"",""3284""
","
","
","""event"",""trial"",""time""
""fullscreenenter"",""1"",""3284""
","
","","[{""page_index"":0,""viewing_time"":6396.5999999940395},{""page_index"":1,""viewing_time"":6289.699999988079},{""page_index"":2,""viewing_time"":5047.5999999940395},{""page_index"":3,""viewing_time"":5904.600000023842}]","23638.79999998212","","","","","","","","","","","","","","","","","","","","","","","",""
"pit-trial","14","168003","0.0-2.0-6.0-0.0","battery-v0.2","","""event"",""trial"",""time""
""fullscreenenter"",""1"",""3284""
","
","
","""event"",""trial"",""time""
""fullscreenenter"",""1"",""3284""
","
","","","-1","","","18","4921","2368","&#9854;","elianto","#FFFFF080","-1","-1","1","&#10004","[]","0","0","1","","","","","","","",""
"pit-trial","15","172861","0.0-2.0-6.1-0.1","battery-v0.2","","""event"",""trial"",""time""
""fullscreenenter"",""1"",""3284""
","
","
","""event"",""trial"",""time""
""fullscreenenter"",""1"",""3284""
","
","","","-1","","","18","4921","2368","&#9854;","elianto","#FFFFF080","-1","-1","1","&#10004","[]","0","0","1","","","","","","","",""
"pit-trial","16","177722","0.0-2.0-6.2-0.2","battery-v0.2","","""event"",""trial"",""time""
""fullscreenenter"",""1"",""3284""
","
","
","""event"",""trial"",""time""
""fullscreenenter"",""1"",""3284""
","
","","","-1","","","18","4921","2368","&#9854;","elianto","#FFFFF080","-1","-1","1","&#10004","[]","0","0","1","","","","","","","",""
"pit-trial","17","182581","0.0-2.0-6.3-0.3","battery-v0.2","","""event"",""trial"",""time""
""fullscreenenter"",""1"",""3284""
","
","
","""event"",""trial"",""time""
""fullscreenenter"",""1"",""3284""
","
","","","-1","","","18","4921","2368","&#9854;","elianto","#FFFFF080","-1","-1","1","&#10004","[]","0","0","1","","","","","","","",""
"pit-trial","18","187439","0.0-2.0-6.4-0.4","battery-v0.2","","""event"",""trial"",""time""
""fullscreenenter"",""1"",""3284""
","
","
","""event"",""trial"",""time""
""fullscreenenter"",""1"",""3284""
","
","","","-1","","","18","4921","2368","&#9854;","elianto","#FFFFF080","-1","-1","1","&#10004","[]","0","0","1","","","","","","","",""
"pit-instructions","19","406167","0.0-2.0-7.0","battery-v0.2","","""event"",""trial"",""time""
""fullscreenenter"",""1"",""3284""
","
","
","""event"",""trial"",""time""
""fullscreenenter"",""1"",""3284""
","
","","[{""page_index"":0,""viewing_time"":6127.0999999940395},{""page_index"":1,""viewing_time"":7002.5999999940395},{""page_index"":2,""viewing_time"":6897.4000000059605},{""page_index"":3,""viewing_time"":7847.199999988079},{""page_index"":4,""viewing_time"":7211.0999999940395},{""page_index"":5,""viewing_time"":5903.4000000059605},{""page_index"":6,""viewing_time"":5684.700000017881},{""page_index"":7,""viewing_time"":7653.799999982119},{""page_index"":8,""viewing_time"":6806.5999999940395},{""page_index"":9,""viewing_time"":8968.90000000596},{""page_index"":10,""viewing_time"":6481.0999999940395},{""page_index"":11,""viewing_time"":5006.9000000059605},{""page_index"":12,""viewing_time"":70097.90000000596},{""page_index"":13,""viewing_time"":15792.5},{""page_index"":14,""viewing_time"":18048.30000001192},{""page_index"":15,""viewing_time"":17922.29999998212},{""page_index"":16,""viewing_time"":7775.800000011921},{""page_index"":17,""viewing_time"":7472.199999988079}]","218700.19999998808","","","","","","","","","","","","","","","","","","","","","","","",""
"pit-trial","20","409764","0.0-2.0-8.0-0.0","battery-v0.2","","""event"",""trial"",""time""
""fullscreenenter"",""1"",""3284""
","
","
","""event"",""trial"",""time""
""fullscreenenter"",""1"",""3284""
","
","","","736.5","","","18","4921","2368","&#9776;","elianto","#3366ff99"," "," ","1","+10","[1591.5]","1","0","1","","","","","","","",""
"pit-trial","21","413079","0.0-2.0-8.0-1.0","battery-v0.2","","""event"",""trial"",""time""
""fullscreenenter"",""1"",""3284""
","
","
","""event"",""trial"",""time""
""fullscreenenter"",""1"",""3284""
","
","","","458.5","","","18","4921","2368","&#9776;","elianto","#3366ff99"," "," ","1","+10","[1309.5999999940395]","1","0","1","","","","","","","",""
"pit-trial","22","416526","0.0-2.0-8.0-2.0","battery-v0.2","","""event"",""trial"",""time""
""fullscreenenter"",""1"",""3284""
","
","
","""event"",""trial"",""time""
""fullscreenenter"",""1"",""3284""
","
","","","589.4000000059605","","","18","4921","2368","&#9776;","elianto","#3366ff99"," "," ","1","+10","[1440.7000000178814]","1","0","1","","","","","","","",""
"pit-trial","23","420190","0.0-2.0-8.0-3.0","battery-v0.2","","""event"",""trial"",""time""
""fullscreenenter"",""1"",""3284""
","
","
","""event"",""trial"",""time""
""fullscreenenter"",""1"",""3284""
","
","","","808.8000000119209","","","18","4921","2368","&#9776;","elianto","#3366ff99"," "," ","1","0","[1661.2000000178814]","1","0","1","","","","","","","",""
"pit-trial","24","423536","0.0-2.0-8.0-4.0","battery-v0.2","","""event"",""trial"",""time""
""fullscreenenter"",""1"",""3284""
","
","
","""event"",""trial"",""time""
""fullscreenenter"",""1"",""3284""
","
","","","486.59999999403954","","","18","4921","2368","&#9776;","elianto","#3366ff99"," "," ","1","+10","[1339.300000011921]","1","0","1","","","","","","","",""
"pit-trial","25","426687","0.0-2.0-8.1-0.1","battery-v0.2","","""event"",""trial"",""time""
""fullscreenenter"",""1"",""3284""
","
","
","""event"",""trial"",""time""
""fullscreenenter"",""1"",""3284""
","
","","","290.30000001192093","","","18","4921","2368","&#9776;","elianto","#3366ff99"," "," ","1","+10","[1142.300000011921]","1","0","1","","","","","","","",""
"pit-trial","26","429900","0.0-2.0-8.1-1.1","battery-v0.2","","""event"",""trial"",""time""
""fullscreenenter"",""1"",""3284""
","
","
","""event"",""trial"",""time""
""fullscreenenter"",""1"",""3284""
","
","","","358.39999997615814","","","18","4921","2368","&#9776;","elianto","#3366ff99"," "," ","1","+10","[1209]","1","0","1","","","","","","","",""
"pit-trial","27","432967","0.0-2.0-8.1-2.1","battery-v0.2","","""event"",""trial"",""time""
""fullscreenenter"",""1"",""3284""
","
","
","""event"",""trial"",""time""
""fullscreenenter"",""1"",""3284""
","
","","","211","","","18","4921","2368","&#9776;","elianto","#3366ff99"," "," ","1","+10","[1063.300000011921]","1","0","1","","","","","","","",""
"pit-trial","28","435900","0.0-2.0-8.1-3.1","battery-v0.2","","""event"",""trial"",""time""
""fullscreenenter"",""1"",""3284""
","
","
","""event"",""trial"",""time""
""fullscreenenter"",""1"",""3284""
","
","","","73.09999999403954","","","18","4921","2368","&#9776;","elianto","#3366ff99"," "," ","1","0","[925.0999999940395]","1","0","1","","","","","","","",""
"pit-trial","29","439473","0.0-2.0-8.1-4.1","battery-v0.2","","""event"",""trial"",""time""
""fullscreenenter"",""1"",""3284""
","
","
","""event"",""trial"",""time""
""fullscreenenter"",""1"",""3284""
","
","","","715.9000000059605","","","18","4921","2368","&#9776;","elianto","#3366ff99"," "," ","1","+10","[809.7000000178814,1567.7000000178814]","2","0","1","","","","","","","",""
"pit-trial","30","442594","0.0-2.0-8.2-0.2","battery-v0.2","","""event"",""trial"",""time""
""fullscreenenter"",""1"",""3284""
","
","
","""event"",""trial"",""time""
""fullscreenenter"",""1"",""3284""
","
","","","261.2000000178814","","","18","4921","2368","&#9776;","elianto","#3366ff99"," "," ","1","+10","[1115.2000000178814]","1","0","1","","","","","","","",""
"pit-trial","31","445513","0.0-2.0-8.2-1.2","battery-v0.2","","""event"",""trial"",""time""
""fullscreenenter"",""1"",""3284""
","
","
","""event"",""trial"",""time""
""fullscreenenter"",""1"",""3284""
","
","","","65.09999999403954","","","18","4921","2368","&#9776;","elianto","#3366ff99"," "," ","1","+10","[915.5999999940395]","1","0","1","","","","","","","",""
"pit-trial","32","448578","0.0-2.0-8.2-2.2","battery-v0.2","","""event"",""trial"",""time""
""fullscreenenter"",""1"",""3284""
","
","
","""event"",""trial"",""time""
""fullscreenenter"",""1"",""3284""
","
","","","207.19999998807907","","","18","4921","2368","&#9776;","elianto","#3366ff99"," "," ","1","+10","[1060]","1","0","1","","","","","","","",""
"pit-trial","33","451789","0.0-2.0-8.2-3.2","battery-v0.2","","""event"",""trial"",""time""
""fullscreenenter"",""1"",""3284""
","
","
","""event"",""trial"",""time""
""fullscreenenter"",""1"",""3284""
","
","","","350.40000000596046","","","18","4921","2368","&#9776;","elianto","#3366ff99"," "," ","1","0","[1205.199999988079]","1","0","1","","","","","","","",""
"pit-trial","34","454763","0.0-2.0-8.2-4.2","battery-v0.2","","""event"",""trial"",""time""
""fullscreenenter"",""1"",""3284""
","
","
","""event"",""trial"",""time""
""fullscreenenter"",""1"",""3284""
","
","","","118.30000001192093","","","18","4921","2368","&#9776;","elianto","#3366ff99"," "," ","1","+10","[969.5999999940395]","1","0","1","","","","","","","",""
"call-function","35","454765","0.0-2.0-9.0","battery-v0.2","","""event"",""trial"",""time""
""fullscreenenter"",""1"",""3284""
","
","
","""event"",""trial"",""time""
""fullscreenenter"",""1"",""3284""
","
","","","","","","","","","","","","","","","","","","","","","","","","","","",""
"pit-instructions","36","586936","0.0-2.0-10.0","battery-v0.2","","""event"",""trial"",""time""
""fullscreenenter"",""1"",""3284""
","
","
","""event"",""trial"",""time""
""fullscreenenter"",""1"",""3284""
","
","","[{""page_index"":0,""viewing_time"":80321.19999998808},{""page_index"":1,""viewing_time"":6634.200000017881},{""page_index"":2,""viewing_time"":9064.09999999404},{""page_index"":3,""viewing_time"":25381.59999999404},{""page_index"":4,""viewing_time"":10764.800000011921}]","132166.59999999404","","","","","","","","","","","","","","","","","","","","","","","",""
"pit-trial","37","590349","0.0-2.0-11.0-0.0","battery-v0.2","","""event"",""trial"",""time""
""fullscreenenter"",""1"",""3284""
","
","
","""event"",""trial"",""time""
""fullscreenenter"",""1"",""3284""
","
","","","551.6999999880791","","","18","4921","2368","&#9761;","elianto","#3366ff99","-1"," ","0","0","[1406.199999988079]","1","0","2","","","","","","","",""
"pit-trial","38","593569","0.0-2.0-11.0-1.0","battery-v0.2","","""event"",""trial"",""time""
""fullscreenenter"",""1"",""3284""
","
","
","""event"",""trial"",""time""
""fullscreenenter"",""1"",""3284""
","
","","","361.90000000596046","","","18","4921","2368","&#9761;","elianto","#3366ff99","-1"," ","0","0","[1215.9000000059605]","1","0","2","","","","","","","",""
"pit-trial","39","596539","0.0-2.0-11.0-2.0","battery-v0.2","","""event"",""trial"",""time""
""fullscreenenter"",""1"",""3284""
","
","
","""event"",""trial"",""time""
""fullscreenenter"",""1"",""3284""
","
","","","111.2999999821186","","","18","4921","2368","&#9761;","elianto","#3366ff99","-1"," ","0","0","[964.2999999821186]","1","0","2","","","","","","","",""
"pit-trial","40","599780","0.0-2.0-11.0-3.0","battery-v0.2","","""event"",""trial"",""time""
""fullscreenenter"",""1"",""3284""
","
","
","""event"",""trial"",""time""
""fullscreenenter"",""1"",""3284""
","
","","","385.69999998807907","","","18","4921","2368","&#9761;","elianto","#3366ff99","-1"," ","0","+10","[1236.4000000059605]","1","0","2","","","","","","","",""
"pit-trial","41","602832","0.0-2.0-11.0-4.0","battery-v0.2","","""event"",""trial"",""time""
""fullscreenenter"",""1"",""3284""
","
","
","""event"",""trial"",""time""
""fullscreenenter"",""1"",""3284""
","
","","","195.40000000596046","","","18","4921","2368","&#9761;","elianto","#3366ff99","-1"," ","0","0","[1046.800000011921]","1","0","2","","","","","","","",""
"pit-trial","42","607689","0.0-2.0-11.1-0.1","battery-v0.2","","""event"",""trial"",""time""
""fullscreenenter"",""1"",""3284""
","
","
","""event"",""trial"",""time""
""fullscreenenter"",""1"",""3284""
","
","","","-1","","","18","4921","2368","&#9761;","elianto","#3366ff99","-1","-1","1","+10","[]","0","0","2","","","","","","","",""
"pit-trial","43","612548","0.0-2.0-11.1-1.1","battery-v0.2","","""event"",""trial"",""time""
""fullscreenenter"",""1"",""3284""
","
","
","""event"",""trial"",""time""
""fullscreenenter"",""1"",""3284""
","
","","","-1","","","18","4921","2368","&#9761;","elianto","#3366ff99","-1","-1","1","+10","[]","0","0","2","","","","","","","",""
"pit-trial","44","617408","0.0-2.0-11.1-2.1","battery-v0.2","","""event"",""trial"",""time""
""fullscreenenter"",""1"",""3284""
","
","
","""event"",""trial"",""time""
""fullscreenenter"",""1"",""3284""
","
","","","-1","","","18","4921","2368","&#9761;","elianto","#3366ff99","-1","-1","1","+10","[]","0","0","2","","","","","","","",""
"pit-trial","45","622266","0.0-2.0-11.1-3.1","battery-v0.2","","""event"",""trial"",""time""
""fullscreenenter"",""1"",""3284""
","
","
","""event"",""trial"",""time""
""fullscreenenter"",""1"",""3284""
","
","","","-1","","","18","4921","2368","&#9761;","elianto","#3366ff99","-1","-1","1","0","[]","0","0","2","","","","","","","",""
"pit-trial","46","627125","0.0-2.0-11.1-4.1","battery-v0.2","","""event"",""trial"",""time""
""fullscreenenter"",""1"",""3284""
","
","
","""event"",""trial"",""time""
""fullscreenenter"",""1"",""3284""
","
","","","-1","","","18","4921","2368","&#9761;","elianto","#3366ff99","-1","-1","1","+10","[]","0","0","2","","","","","","","",""
"pit-trial","47","631984","0.0-2.0-11.2-0.2","battery-v0.2","","""event"",""trial"",""time""
""fullscreenenter"",""1"",""3284""
","
","
","""event"",""trial"",""time""
""fullscreenenter"",""1"",""3284""
","
","","","-1","","","18","4921","2368","&#9761;","elianto","#3366ff99","-1","-1","1","+10","[]","0","0","2","","","","","","","",""
"pit-trial","48","636843","0.0-2.0-11.2-1.2","battery-v0.2","","""event"",""trial"",""time""
""fullscreenenter"",""1"",""3284""
","
","
","""event"",""trial"",""time""
""fullscreenenter"",""1"",""3284""
","
","","","-1","","","18","4921","2368","&#9761;","elianto","#3366ff99","-1","-1","1","+10","[]","0","0","2","","","","","","","",""
"pit-trial","49","641702","0.0-2.0-11.2-2.2","battery-v0.2","","""event"",""trial"",""time""
""fullscreenenter"",""1"",""3284""
","
","
","""event"",""trial"",""time""
""fullscreenenter"",""1"",""3284""
","
","","","-1","","","18","4921","2368","&#9761;","elianto","#3366ff99","-1","-1","1","+10","[]","0","0","2","","","","","","","",""
"pit-trial","50","646561","0.0-2.0-11.2-3.2","battery-v0.2","","""event"",""trial"",""time""
""fullscreenenter"",""1"",""3284""
","
","
","""event"",""trial"",""time""
""fullscreenenter"",""1"",""3284""
","
","","","-1","","","18","4921","2368","&#9761;","elianto","#3366ff99","-1","-1","1","0","[]","0","0","2","","","","","","","",""
"pit-trial","51","651420","0.0-2.0-11.2-4.2","battery-v0.2","","""event"",""trial"",""time""
""fullscreenenter"",""1"",""3284""
","
","
","""event"",""trial"",""time""
""fullscreenenter"",""1"",""3284""
","
","","","-1","","","18","4921","2368","&#9761;","elianto","#3366ff99","-1","-1","1","+10","[]","0","0","2","","","","","","","",""
"pit-trial","52","656279","0.0-2.0-11.3-0.3","battery-v0.2","","""event"",""trial"",""time""
""fullscreenenter"",""1"",""3284""
","
","
","""event"",""trial"",""time""
""fullscreenenter"",""1"",""3284""
","
","","","-1","","","18","4921","2368","&#9761;","elianto","#3366ff99","-1","-1","1","+10","[]","0","0","2","","","","","","","",""
"pit-trial","53","661138","0.0-2.0-11.3-1.3","battery-v0.2","","""event"",""trial"",""time""
""fullscreenenter"",""1"",""3284""
","
","
","""event"",""trial"",""time""
""fullscreenenter"",""1"",""3284""
","
","","","-1","","","18","4921","2368","&#9761;","elianto","#3366ff99","-1","-1","1","+10","[]","0","0","2","","","","","","","",""
"pit-trial","54","665991","0.0-2.0-11.3-2.3","battery-v0.2","","""event"",""trial"",""time""
""fullscreenenter"",""1"",""3284""
","
","
","""event"",""trial"",""time""
""fullscreenenter"",""1"",""3284""
","
","","","-1","","","18","4921","2368","&#9761;","elianto","#3366ff99","-1","-1","1","+10","[]","0","0","2","","","","","","","",""
"pit-trial","55","670850","0.0-2.0-11.3-3.3","battery-v0.2","","""event"",""trial"",""time""
""fullscreenenter"",""1"",""3284""
","
","
","""event"",""trial"",""time""
""fullscreenenter"",""1"",""3284""
","
","","","-1","","","18","4921","2368","&#9761;","elianto","#3366ff99","-1","-1","1","0","[]","0","0","2","","","","","","","",""
"pit-trial","56","675708","0.0-2.0-11.3-4.3","battery-v0.2","","""event"",""trial"",""time""
""fullscreenenter"",""1"",""3284""
","
","
","""event"",""trial"",""time""
""fullscreenenter"",""1"",""3284""
","
","","","-1","","","18","4921","2368","&#9761;","elianto","#3366ff99","-1","-1","1","+10","[]","0","0","2","","","","","","","",""
"call-function","57","675710","0.0-2.0-12.0","battery-v0.2","","""event"",""trial"",""time""
""fullscreenenter"",""1"",""3284""
","
","
","""event"",""trial"",""time""
""fullscreenenter"",""1"",""3284""
","
","","","","","","","","","","","","","","","","","","","","","","","","","","",""
"pit-instructions","58","727116","0.0-2.0-13.0","battery-v0.2","","""event"",""trial"",""time""
""fullscreenenter"",""1"",""3284""
","
","
","""event"",""trial"",""time""
""fullscreenenter"",""1"",""3284""
","
","","[{""page_index"":0,""viewing_time"":9060.300000011921},{""page_index"":1,""viewing_time"":14758.90000000596},{""page_index"":2,""viewing_time"":3861.2999999821186},{""page_index"":3,""viewing_time"":15417.5},{""page_index"":4,""viewing_time"":8304.700000017881}]","51403.09999999404","","","","","","","","","","","","","","","","","","","","","","","",""
"pit-trial","59","731975","0.0-2.0-14.0-0.0","battery-v0.2","","""event"",""trial"",""time""
""fullscreenenter"",""1"",""3284""
","
","
","""event"",""trial"",""time""
""fullscreenenter"",""1"",""3284""
","
","","","-1","","","18","4921","2368","&#9826;","elianto","#f73b6a7A","-1","-1","1","0","[]","0","0","3","","","","","","","",""
"pit-trial","60","736834","0.0-2.0-14.0-1.0","battery-v0.2","","""event"",""trial"",""time""
""fullscreenenter"",""1"",""3284""
","
","
","""event"",""trial"",""time""
""fullscreenenter"",""1"",""3284""
","
","","","-1","","","18","4921","2368","&#9826;","elianto","#f73b6a7A","-1","-1","1","0","[]","0","0","3","","","","","","","",""
"pit-trial","61","740089","0.0-2.0-14.0-2.0","battery-v0.2","","""event"",""trial"",""time""
""fullscreenenter"",""1"",""3284""
","
","
","""event"",""trial"",""time""
""fullscreenenter"",""1"",""3284""
","
","","","398.5","","","18","4921","2368","&#9826;","elianto","#f73b6a7A","-1"," ","0","-10","[1249.4000000059605]","1","0","3","","","","","","","",""
"pit-trial","62","744944","0.0-2.0-14.0-3.0","battery-v0.2","","""event"",""trial"",""time""
""fullscreenenter"",""1"",""3284""
","
","
","""event"",""trial"",""time""
""fullscreenenter"",""1"",""3284""
","
","","","-1","","","18","4921","2368","&#9826;","elianto","#f73b6a7A","-1","-1","1","-10","[]","0","0","3","","","","","","","",""
"pit-trial","63","749802","0.0-2.0-14.0-4.0","battery-v0.2","","""event"",""trial"",""time""
""fullscreenenter"",""1"",""3284""
","
","
","""event"",""trial"",""time""
""fullscreenenter"",""1"",""3284""
","
","","","-1","","","18","4921","2368","&#9826;","elianto","#f73b6a7A","-1","-1","1","0","[]","0","0","3","","","","","","","",""
"pit-trial","64","754662","0.0-2.0-14.1-0.1","battery-v0.2","","""event"",""trial"",""time""
""fullscreenenter"",""1"",""3284""
","
","
","""event"",""trial"",""time""
""fullscreenenter"",""1"",""3284""
","
","","","-1","","","18","4921","2368","&#9826;","elianto","#f73b6a7A","-1","-1","1","0","[]","0","0","3","","","","","","","",""
"pit-trial","65","759521","0.0-2.0-14.1-1.1","battery-v0.2","","""event"",""trial"",""time""
""fullscreenenter"",""1"",""3284""
","
","
","""event"",""trial"",""time""
""fullscreenenter"",""1"",""3284""
","
","","","-1","","","18","4921","2368","&#9826;","elianto","#f73b6a7A","-1","-1","1","0","[]","0","0","3","","","","","","","",""
"pit-trial","66","764380","0.0-2.0-14.1-2.1","battery-v0.2","","""event"",""trial"",""time""
""fullscreenenter"",""1"",""3284""
","
","
","""event"",""trial"",""time""
""fullscreenenter"",""1"",""3284""
","
","","","-1","","","18","4921","2368","&#9826;","elianto","#f73b6a7A","-1","-1","1","0","[]","0","0","3","","","","","","","",""
"pit-trial","67","769239","0.0-2.0-14.1-3.1","battery-v0.2","","""event"",""trial"",""time""
""fullscreenenter"",""1"",""3284""
","
","
","""event"",""trial"",""time""
""fullscreenenter"",""1"",""3284""
","
","","","-1","","","18","4921","2368","&#9826;","elianto","#f73b6a7A","-1","-1","1","-10","[]","0","0","3","","","","","","","",""
"pit-trial","68","774098","0.0-2.0-14.1-4.1","battery-v0.2","","""event"",""trial"",""time""
""fullscreenenter"",""1"",""3284""
","
","
","""event"",""trial"",""time""
""fullscreenenter"",""1"",""3284""
","
","","","-1","","","18","4921","2368","&#9826;","elianto","#f73b6a7A","-1","-1","1","0","[]","0","0","3","","","","","","","",""
"pit-trial","69","778957","0.0-2.0-14.2-0.2","battery-v0.2","","""event"",""trial"",""time""
""fullscreenenter"",""1"",""3284""
","
","
","""event"",""trial"",""time""
""fullscreenenter"",""1"",""3284""
","
","","","-1","","","18","4921","2368","&#9826;","elianto","#f73b6a7A","-1","-1","1","0","[]","0","0","3","","","","","","","",""
"pit-trial","70","783816","0.0-2.0-14.2-1.2","battery-v0.2","","""event"",""trial"",""time""
""fullscreenenter"",""1"",""3284""
","
","
","""event"",""trial"",""time""
""fullscreenenter"",""1"",""3284""
","
","","","-1","","","18","4921","2368","&#9826;","elianto","#f73b6a7A","-1","-1","1","0","[]","0","0","3","","","","","","","",""
"pit-trial","71","788675","0.0-2.0-14.2-2.2","battery-v0.2","","""event"",""trial"",""time""
""fullscreenenter"",""1"",""3284""
","
","
","""event"",""trial"",""time""
""fullscreenenter"",""1"",""3284""
","
","","","-1","","","18","4921","2368","&#9826;","elianto","#f73b6a7A","-1","-1","1","0","[]","0","0","3","","","","","","","",""
"pit-trial","72","793534","0.0-2.0-14.2-3.2","battery-v0.2","","""event"",""trial"",""time""
""fullscreenenter"",""1"",""3284""
","
","
","""event"",""trial"",""time""
""fullscreenenter"",""1"",""3284""
","
","","","-1","","","18","4921","2368","&#9826;","elianto","#f73b6a7A","-1","-1","1","-10","[]","0","0","3","","","","","","","",""
"pit-trial","73","798393","0.0-2.0-14.2-4.2","battery-v0.2","","""event"",""trial"",""time""
""fullscreenenter"",""1"",""3284""
","
","
","""event"",""trial"",""time""
""fullscreenenter"",""1"",""3284""
","
","","","-1","","","18","4921","2368","&#9826;","elianto","#f73b6a7A","-1","-1","1","0","[]","0","0","3","","","","","","","",""
"pit-trial","74","803252","0.0-2.0-14.3-0.3","battery-v0.2","","""event"",""trial"",""time""
""fullscreenenter"",""1"",""3284""
","
","
","""event"",""trial"",""time""
""fullscreenenter"",""1"",""3284""
","
","","","-1","","","18","4921","2368","&#9826;","elianto","#f73b6a7A","-1","-1","1","0","[]","0","0","3","","","","","","","",""
"pit-trial","75","808111","0.0-2.0-14.3-1.3","battery-v0.2","","""event"",""trial"",""time""
""fullscreenenter"",""1"",""3284""
","
","
","""event"",""trial"",""time""
""fullscreenenter"",""1"",""3284""
","
","","","-1","","","18","4921","2368","&#9826;","elianto","#f73b6a7A","-1","-1","1","0","[]","0","0","3","","","","","","","",""
"pit-trial","76","812969","0.0-2.0-14.3-2.3","battery-v0.2","","""event"",""trial"",""time""
""fullscreenenter"",""1"",""3284""
","
","
","""event"",""trial"",""time""
""fullscreenenter"",""1"",""3284""
","
","","","-1","","","18","4921","2368","&#9826;","elianto","#f73b6a7A","-1","-1","1","0","[]","0","0","3","","","","","","","",""
"pit-trial","77","817828","0.0-2.0-14.3-3.3","battery-v0.2","","""event"",""trial"",""time""
""fullscreenenter"",""1"",""3284""
","
","
","""event"",""trial"",""time""
""fullscreenenter"",""1"",""3284""
","
","","","-1","","","18","4921","2368","&#9826;","elianto","#f73b6a7A","-1","-1","1","-10","[]","0","0","3","","","","","","","",""
"pit-trial","78","822687","0.0-2.0-14.3-4.3","battery-v0.2","","""event"",""trial"",""time""
""fullscreenenter"",""1"",""3284""
","
","
","""event"",""trial"",""time""
""fullscreenenter"",""1"",""3284""
","
","","","-1","","","18","4921","2368","&#9826;","elianto","#f73b6a7A","-1","-1","1","0","[]","0","0","3","","","","","","","",""
"call-function","79","822689","0.0-2.0-15.0","battery-v0.2","","""event"",""trial"",""time""
""fullscreenenter"",""1"",""3284""
","
","
","""event"",""trial"",""time""
""fullscreenenter"",""1"",""3284""
","
","","","","","","","","","","","","","","","","","","","","","","","","","","",""
"pit-instructions","80","898505","0.0-2.0-16.0","battery-v0.2","","""event"",""trial"",""time""
""fullscreenenter"",""1"",""3284""
","
","
","""event"",""trial"",""time""
""fullscreenenter"",""1"",""3284""
","
","","[{""page_index"":0,""viewing_time"":10034.90000000596},{""page_index"":1,""viewing_time"":51843.29999998212},{""page_index"":2,""viewing_time"":6620.4000000059605},{""page_index"":3,""viewing_time"":7313.9000000059605}]","75813","","","","","","","","","","","","","","","","","","","","","","","",""
"pit-trial","81","903361","0.0-2.0-17.0-0.0","battery-v0.2","","""event"",""trial"",""time""
""fullscreenenter"",""1"",""3284""
","
","
","""event"",""trial"",""time""
""fullscreenenter"",""1"",""3284""
","
","","","-1","","","18","4921","2368","&#9789;","elianto","#f73b6a7A"," ","-1","0","-10","[]","0","0","4","","","","","","","",""
"pit-trial","82","906650","0.0-2.0-17.0-1.0","battery-v0.2","","""event"",""trial"",""time""
""fullscreenenter"",""1"",""3284""
","
","
","""event"",""trial"",""time""
""fullscreenenter"",""1"",""3284""
","
","","","431.30000001192093","","","18","4921","2368","&#9789;","elianto","#f73b6a7A"," "," ","1","0","[1285.800000011921]","1","0","4","","","","","","","",""
"pit-trial","83","909996","0.0-2.0-17.0-2.0","battery-v0.2","","""event"",""trial"",""time""
""fullscreenenter"",""1"",""3284""
","
","
","""event"",""trial"",""time""
""fullscreenenter"",""1"",""3284""
","
","","","484.7000000178814","","","18","4921","2368","&#9789;","elianto","#f73b6a7A"," "," ","1","0","[1337.9000000059605]","1","0","4","","","","","","","",""
"pit-trial","84","914854","0.0-2.0-17.0-3.0","battery-v0.2","","""event"",""trial"",""time""
""fullscreenenter"",""1"",""3284""
","
","
","""event"",""trial"",""time""
""fullscreenenter"",""1"",""3284""
","
","","","-1","","","18","4921","2368","&#9789;","elianto","#f73b6a7A"," ","-1","0","0","[]","0","0","4","","","","","","","",""
"pit-trial","85","919714","0.0-2.0-17.0-4.0","battery-v0.2","","""event"",""trial"",""time""
""fullscreenenter"",""1"",""3284""
","
","
","""event"",""trial"",""time""
""fullscreenenter"",""1"",""3284""
","
","","","-1","","","18","4921","2368","&#9789;","elianto","#f73b6a7A"," ","-1","0","-10","[3880.4000000059605]","1","0","4","","","","","","","",""
"pit-trial","86","923052","0.0-2.0-17.1-0.1","battery-v0.2","","""event"",""trial"",""time""
""fullscreenenter"",""1"",""3284""
","
","
","""event"",""trial"",""time""
""fullscreenenter"",""1"",""3284""
","
","","","483.40000000596046","","","18","4921","2368","&#9789;","elianto","#f73b6a7A"," "," ","1","0","[1333.5]","1","0","4","","","","","","","",""
"pit-trial","87","926298","0.0-2.0-17.1-1.1","battery-v0.2","","""event"",""trial"",""time""
""fullscreenenter"",""1"",""3284""
","
","
","""event"",""trial"",""time""
""fullscreenenter"",""1"",""3284""
","
","","","389.69999998807907","","","18","4921","2368","&#9789;","elianto","#f73b6a7A"," "," ","1","0","[1239.9000000059605]","1","0","4","","","","","","","",""
"pit-trial","88","929648","0.0-2.0-17.1-2.1","battery-v0.2","","""event"",""trial"",""time""
""fullscreenenter"",""1"",""3284""
","
","
","""event"",""trial"",""time""
""fullscreenenter"",""1"",""3284""
","
","","","494.30000001192093","","","18","4921","2368","&#9789;","elianto","#f73b6a7A"," "," ","1","0","[1344.5999999940395]","1","0","4","","","","","","","",""
"pit-trial","89","933456","0.0-2.0-17.1-3.1","battery-v0.2","","""event"",""trial"",""time""
""fullscreenenter"",""1"",""3284""
","
","
","""event"",""trial"",""time""
""fullscreenenter"",""1"",""3284""
","
","","","951.1999999880791","","","18","4921","2368","&#9789;","elianto","#f73b6a7A"," "," ","1","-10","[1806]","1","0","4","","","","","","","",""
"pit-trial","90","936829","0.0-2.0-17.1-4.1","battery-v0.2","","""event"",""trial"",""time""
""fullscreenenter"",""1"",""3284""
","
","
","""event"",""trial"",""time""
""fullscreenenter"",""1"",""3284""
","
","","","519.2999999821186","","","18","4921","2368","&#9789;","elianto","#f73b6a7A"," "," ","1","0","[1369.699999988079]","1","0","4","","","","","","","",""
"pit-trial","91","939905","0.0-2.0-17.2-0.2","battery-v0.2","","""event"",""trial"",""time""
""fullscreenenter"",""1"",""3284""
","
","
","""event"",""trial"",""time""
""fullscreenenter"",""1"",""3284""
","
","","","219.30000001192093","","","18","4921","2368","&#9789;","elianto","#f73b6a7A"," "," ","1","0","[1069.7000000178814]","1","0","4","","","","","","","",""
"pit-trial","92","942984","0.0-2.0-17.2-1.2","battery-v0.2","","""event"",""trial"",""time""
""fullscreenenter"",""1"",""3284""
","
","
","""event"",""trial"",""time""
""fullscreenenter"",""1"",""3284""
","
","","","223.09999999403954","","","18","4921","2368","&#9789;","elianto","#f73b6a7A"," "," ","1","0","[1074]","1","0","4","","","","","","","",""
"pit-trial","93","946287","0.0-2.0-17.2-2.2","battery-v0.2","","""event"",""trial"",""time""
""fullscreenenter"",""1"",""3284""
","
","
","""event"",""trial"",""time""
""fullscreenenter"",""1"",""3284""
","
","","","442.89999997615814","","","18","4921","2368","&#9789;","elianto","#f73b6a7A"," "," ","1","0","[1297.5999999940395]","1","0","4","","","","","","","",""
"pit-trial","94","949292","0.0-2.0-17.2-3.2","battery-v0.2","","""event"",""trial"",""time""
""fullscreenenter"",""1"",""3284""
","
","
","""event"",""trial"",""time""
""fullscreenenter"",""1"",""3284""
","
","","","148.69999998807907","","","18","4921","2368","&#9789;","elianto","#f73b6a7A"," "," ","1","-10","[999.5]","1","0","4","","","","","","","",""
"pit-trial","95","952566","0.0-2.0-17.2-4.2","battery-v0.2","","""event"",""trial"",""time""
""fullscreenenter"",""1"",""3284""
","
","
","""event"",""trial"",""time""
""fullscreenenter"",""1"",""3284""
","
","","","419.40000000596046","","","18","4921","2368","&#9789;","elianto","#f73b6a7A"," "," ","1","0","[411.40000000596046,1270.800000011921,2355.800000011921,2609.7000000178814,2840.800000011921,3222.7000000178814]","6","0","4","","","","","","","",""
"pit-trial","96","955574","0.0-2.0-17.3-0.3","battery-v0.2","","""event"",""trial"",""time""
""fullscreenenter"",""1"",""3284""
","
","
","""event"",""trial"",""time""
""fullscreenenter"",""1"",""3284""
","
","","","152.30000001192093","","","18","4921","2368","&#9789;","elianto","#f73b6a7A"," "," ","1","0","[275.59999999403954,492.2999999821186,1005.5999999940395]","3","0","4","","","","","","","",""
"pit-trial","97","959312","0.0-2.0-17.3-1.3","battery-v0.2","","""event"",""trial"",""time""
""fullscreenenter"",""1"",""3284""
","
","
","""event"",""trial"",""time""
""fullscreenenter"",""1"",""3284""
","
","","","882.0999999940395","","","18","4921","2368","&#9789;","elianto","#f73b6a7A"," "," ","1","0","[1735]","1","0","4","","","","","","","",""
"pit-trial","98","962545","0.0-2.0-17.3-2.3","battery-v0.2","","""event"",""trial"",""time""
""fullscreenenter"",""1"",""3284""
","
","
","""event"",""trial"",""time""
""fullscreenenter"",""1"",""3284""
","
","","","372.5","","","18","4921","2368","&#9789;","elianto","#f73b6a7A"," "," ","1","0","[1226.4000000059605]","1","0","4","","","","","","","",""
"pit-trial","99","965721","0.0-2.0-17.3-3.3","battery-v0.2","","""event"",""trial"",""time""
""fullscreenenter"",""1"",""3284""
","
","
","""event"",""trial"",""time""
""fullscreenenter"",""1"",""3284""
","
","","","318.19999998807907","","","18","4921","2368","&#9789;","elianto","#f73b6a7A"," "," ","1","-10","[1168.5999999940395]","1","0","4","","","","","","","",""
"pit-trial","100","968809","0.0-2.0-17.3-4.3","battery-v0.2","","""event"",""trial"",""time""
""fullscreenenter"",""1"",""3284""
","
","
","""event"",""trial"",""time""
""fullscreenenter"",""1"",""3284""
","
","","","233.40000000596046","","","18","4921","2368","&#9789;","elianto","#f73b6a7A"," "," ","1","0","[1084]","1","0","4","","","","","","","",""
"call-function","101","968811","0.0-2.0-18.0","battery-v0.2","","""event"",""trial"",""time""
""fullscreenenter"",""1"",""3284""
","
","
","""event"",""trial"",""time""
""fullscreenenter"",""1"",""3284""
","
","","","","","","","","","","","","","","","","","","","","","","","","","","",""
"pit-instructions","102","1082106","0.0-2.0-19.0","battery-v0.2","","""event"",""trial"",""time""
""fullscreenenter"",""1"",""3284""
","
","
","""event"",""trial"",""time""
""fullscreenenter"",""1"",""3284""
","
","","[{""page_index"":0,""viewing_time"":9299},{""page_index"":1,""viewing_time"":8598.700000017881},{""page_index"":2,""viewing_time"":14942.199999988079},{""page_index"":3,""viewing_time"":8509.5},{""page_index"":4,""viewing_time"":10518.90000000596},{""page_index"":5,""viewing_time"":10271.299999982119},{""page_index"":6,""viewing_time"":34731.40000000596},{""page_index"":7,""viewing_time"":12248.200000017881},{""page_index"":8,""viewing_time"":4170.799999982119}]","113290.59999999404","","","","","","","","","","","","","","","","","","","","","","","",""
"pit-comprehension","103","1086657","0.0-2.0-20.0-0.0","battery-v0.2","","""event"",""trial"",""time""
""fullscreenenter"",""1"",""3284""
","
","
","""event"",""trial"",""time""
""fullscreenenter"",""1"",""3284""
","
","","","4547.0999999940395","[""SPACE""]","0","18","4921","2368","","","","","","","","","","","","","","","","","","",""
"pit-instructions","104","1089653","0.0-2.0-20.0-1.0","battery-v0.2","","""event"",""trial"",""time""
""fullscreenenter"",""1"",""3284""
","
","
","""event"",""trial"",""time""
""fullscreenenter"",""1"",""3284""
","
","","[{""page_index"":0,""viewing_time"":2953.300000011921}]","2953.699999988079","","","","","","","","","","","","","","","","","","","","","","","",""
"pit-comprehension","105","1094580","0.0-2.0-21.0-0.0","battery-v0.2","","""event"",""trial"",""time""
""fullscreenenter"",""1"",""3284""
","
","
","""event"",""trial"",""time""
""fullscreenenter"",""1"",""3284""
","
","","","4920.9000000059605","[""10""]","0","18","4921","2368","","","","","","","","","","","","","","","","","","",""
"pit-instructions","106","1097608","0.0-2.0-21.0-1.0","battery-v0.2","","""event"",""trial"",""time""
""fullscreenenter"",""1"",""3284""
","
","
","""event"",""trial"",""time""
""fullscreenenter"",""1"",""3284""
","
","","[{""page_index"":0,""viewing_time"":2989}]","2989.4000000059605","","","","","","","","","","","","","","","","","","","","","","","",""
"pit-comprehension","107","1106765","0.0-2.0-22.0-0.0","battery-v0.2","","""event"",""trial"",""time""
""fullscreenenter"",""1"",""3284""
","
","
","""event"",""trial"",""time""
""fullscreenenter"",""1"",""3284""
","
","","","9153.200000017881","[""0""]","0","18","4921","2368","","","","","","","","","","","","","","","","","","",""
"pit-instructions","108","1109968","0.0-2.0-22.0-1.0","battery-v0.2","","""event"",""trial"",""time""
""fullscreenenter"",""1"",""3284""
","
","
","""event"",""trial"",""time""
""fullscreenenter"",""1"",""3284""
","
","","[{""page_index"":0,""viewing_time"":3162.5}]","3163.0999999940395","","","","","","","","","","","","","","","","","","","","","","","",""
"pit-comprehension","109","1127856","0.0-2.0-23.0-0.0","battery-v0.2","","""event"",""trial"",""time""
""fullscreenenter"",""1"",""3284""
","
","
","""event"",""trial"",""time""
""fullscreenenter"",""1"",""3284""
","
","","","17881.70000001788","[""True""]","0","18","4921","2368","","","","","","","","","","","","","","","","","","",""
"pit-instructions","110","1131884","0.0-2.0-23.0-1.0","battery-v0.2","","""event"",""trial"",""time""
""fullscreenenter"",""1"",""3284""
","
","
","""event"",""trial"",""time""
""fullscreenenter"",""1"",""3284""
","
","","[{""page_index"":0,""viewing_time"":3982.800000011921}]","3983.100000023842","","","","","","","","","","","","","","","","","","","","","","","",""
"pit-comprehension","111","1141102","0.0-2.0-24.0-0.0","battery-v0.2","","""event"",""trial"",""time""
""fullscreenenter"",""1"",""3284""
","
","
","""event"",""trial"",""time""
""fullscreenenter"",""1"",""3284""
","
","","","9213.5","[""True""]","0","18","4921","2368","","","","","","","","","","","","","","","","","","",""
"pit-instructions","112","1146049","0.0-2.0-24.0-1.0","battery-v0.2","","""event"",""trial"",""time""
""fullscreenenter"",""1"",""3284""
","
","
","""event"",""trial"",""time""
""fullscreenenter"",""1"",""3284""
","
","","[{""page_index"":0,""viewing_time"":4904.299999982119}]","4904.5999999940395","","","","","","","","","","","","","","","","","","","","","","","",""
"pit-comprehension","113","1153815","0.0-2.0-25.0-0.0","battery-v0.2","","""event"",""trial"",""time""
""fullscreenenter"",""1"",""3284""
","
","
","""event"",""trial"",""time""
""fullscreenenter"",""1"",""3284""
","
","","","7762.799999982119","[""True""]","0","18","4921","2368","","","","","","","","","","","","","","","","","","",""
"pit-instructions","114","1159377","0.0-2.0-25.0-1.0","battery-v0.2","","""event"",""trial"",""time""
""fullscreenenter"",""1"",""3284""
","
","
","""event"",""trial"",""time""
""fullscreenenter"",""1"",""3284""
","
","","[{""page_index"":0,""viewing_time"":5521.5999999940395}]","5522","","","","","","","","","","","","","","","","","","","","","","","",""
"pit-comprehension","115","1167899","0.0-2.0-26.0-0.0","battery-v0.2","","""event"",""trial"",""time""
""fullscreenenter"",""1"",""3284""
","
","
","""event"",""trial"",""time""
""fullscreenenter"",""1"",""3284""
","
","","","8517.899999976158","[""False""]","0","18","4921","2368","","","","","","","","","","","","","","","","","","",""
"pit-instructions","116","1171399","0.0-2.0-26.0-1.0","battery-v0.2","","""event"",""trial"",""time""
""fullscreenenter"",""1"",""3284""
","
","
","""event"",""trial"",""time""
""fullscreenenter"",""1"",""3284""
","
","","[{""page_index"":0,""viewing_time"":3458.7000000178814}]","3459","","","","","","","","","","","","","","","","","","","","","","","",""
"pit-instructions","117","1191471","0.0-3.0","battery-v0.2","","""event"",""trial"",""time""
""fullscreenenter"",""1"",""3284""
","
","
","""event"",""trial"",""time""
""fullscreenenter"",""1"",""3284""
","
","","[{""page_index"":0,""viewing_time"":4548.5999999940395},{""page_index"":1,""viewing_time"":5442.4000000059605},{""page_index"":2,""viewing_time"":10078}]","20069.40000000596","","","","","","","","","","","","","","","","","","","","","","","",""
"pit-trial","118","1194931","0.0-4.0","battery-v0.2","","""event"",""trial"",""time""
""fullscreenenter"",""1"",""3284""
","
","
","""event"",""trial"",""time""
""fullscreenenter"",""1"",""3284""
","
","","","598.8000000119209","","","18","4921","2368","&#9733;","elianto","#3366ff99","-1"," ","0","0","[1450.800000011921]","1","1","","","4921","1","2","2","win","no-go","0"
"pit-trial","119","1199785","0.0-5.0","battery-v0.2","","""event"",""trial"",""time""
""fullscreenenter"",""1"",""3284""
","
","
","""event"",""trial"",""time""
""fullscreenenter"",""1"",""3284""
","
","","","-1","","","18","4921","2368","&#9728;","elianto","#f73b6a7A","-1","-1","1","0","[]","0","1","","","4921","2","0","4","lose","no-go","0"
"pit-trial","120","1203193","0.0-6.0","battery-v0.2","","""event"",""trial"",""time""
""fullscreenenter"",""1"",""3284""
","
","
","""event"",""trial"",""time""
""fullscreenenter"",""1"",""3284""
","
","","","548.8999999761581","","","18","4921","2368","&#9730;","elianto","#3366ff99"," "," ","1","0","[1401.199999988079]","1","1","","","4921","3","1","1","win","go","1"
"pit-trial","121","1208046","0.0-7.0","battery-v0.2","","""event"",""trial"",""time""
""fullscreenenter"",""1"",""3284""
","
","
","""event"",""trial"",""time""
""fullscreenenter"",""1"",""3284""
","
","","","-1","","","18","4921","2368","&#9752;","elianto","#f73b6a7A"," ","-1","0","0","[]","0","1","","","4921","4","3","3","lose","go","1"
"pit-trial","122","1211356","0.0-8.0","battery-v0.2","","""event"",""trial"",""time""
""fullscreenenter"",""1"",""3284""
","
","
","""event"",""trial"",""time""
""fullscreenenter"",""1"",""3284""
","
","","","450.59999999403954","","","18","4921","2368","&#9733;","elianto","#3366ff99","-1"," ","0","+10","[1302.7999999821186]","1","1","","","4921","5","2","2","win","no-go","1"
"pit-trial","123","1214711","0.0-9.0","battery-v0.2","","""event"",""trial"",""time""
""fullscreenenter"",""1"",""3284""
","
","
","""event"",""trial"",""time""
""fullscreenenter"",""1"",""3284""
","
","","","498.39999997615814","","","18","4921","2368","&#9730;","elianto","#3366ff99"," "," ","1","+10","[1349.199999988079]","1","1","","","4921","6","1","1","win","go","0"
"pit-trial","124","1219571","0.0-10.0","battery-v0.2","","""event"",""trial"",""time""
""fullscreenenter"",""1"",""3284""
","
","
","""event"",""trial"",""time""
""fullscreenenter"",""1"",""3284""
","
","","","-1","","","18","4921","2368","&#9752;","elianto","#f73b6a7A"," ","-1","0","-10","[]","0","1","","","4921","7","3","3","lose","go","0"
"pit-trial","125","1224429","0.0-11.0","battery-v0.2","","""event"",""trial"",""time""
""fullscreenenter"",""1"",""3284""
","
","
","""event"",""trial"",""time""
""fullscreenenter"",""1"",""3284""
","
","","","-1","","","18","4921","2368","&#9728;","elianto","#f73b6a7A","-1","-1","1","0","[]","0","1","","","4921","8","0","4","lose","no-go","0"
"pit-trial","126","1227849","0.0-12.0","battery-v0.2","","""event"",""trial"",""time""
""fullscreenenter"",""1"",""3284""
","
","
","""event"",""trial"",""time""
""fullscreenenter"",""1"",""3284""
","
","","","561.8000000119209","","","18","4921","2368","&#9730;","elianto","#3366ff99"," "," ","1","0","[1414.5]","1","1","","","4921","9","1","1","win","go","1"
"pit-trial","127","1231269","0.0-13.0","battery-v0.2","","""event"",""trial"",""time""
""fullscreenenter"",""1"",""3284""
","
","
","""event"",""trial"",""time""
""fullscreenenter"",""1"",""3284""
","
","","","562.5","","","18","4921","2368","&#9733;","elianto","#3366ff99","-1"," ","0","0","[1413.5999999940395]","1","1","","","4921","10","2","2","win","no-go","0"
"pit-trial","128","1236134","0.0-14.0","battery-v0.2","","""event"",""trial"",""time""
""fullscreenenter"",""1"",""3284""
","
","
","""event"",""trial"",""time""
""fullscreenenter"",""1"",""3284""
","
","","","-1","","","18","4921","2368","&#9752;","elianto","#f73b6a7A"," ","-1","0","-10","[]","0","1","","","4921","11","3","3","lose","go","0"
"pit-trial","129","1240242","0.0-15.0","battery-v0.2","","""event"",""trial"",""time""
""fullscreenenter"",""1"",""3284""
","
","
","""event"",""trial"",""time""
""fullscreenenter"",""1"",""3284""
","
","","","1244.199999988079","","","18","4921","2368","&#9728;","elianto","#f73b6a7A","-1"," ","0","-10","[2097.0999999940395]","1","1","","","4921","12","0","4","lose","no-go","0"
"pit-trial","130","1244134","0.0-16.0","battery-v0.2","","""event"",""trial"",""time""
""fullscreenenter"",""1"",""3284""
","
","
","""event"",""trial"",""time""
""fullscreenenter"",""1"",""3284""
","
","","","1032.1000000238419","","","18","4921","2368","&#9730;","elianto","#3366ff99"," "," ","1","+10","[1882.300000011921]","1","1","","","4921","13","1","1","win","go","0"
"pit-trial","131","1248996","0.0-17.0","battery-v0.2","","""event"",""trial"",""time""
""fullscreenenter"",""1"",""3284""
","
","
","""event"",""trial"",""time""
""fullscreenenter"",""1"",""3284""
","
","","","-1","","","18","4921","2368","&#9752;","elianto","#f73b6a7A"," ","-1","0","-10","[]","0","1","","","4921","14","3","3","lose","go","0"
"pit-trial","132","1253857","0.0-18.0","battery-v0.2","","""event"",""trial"",""time""
""fullscreenenter"",""1"",""3284""
","
","
","""event"",""trial"",""time""
""fullscreenenter"",""1"",""3284""
","
","","","-1","","","18","4921","2368","&#9728;","elianto","#f73b6a7A","-1","-1","1","0","[]","0","1","","","4921","15","0","4","lose","no-go","0"
"pit-trial","133","1257329","0.0-19.0","battery-v0.2","","""event"",""trial"",""time""
""fullscreenenter"",""1"",""3284""
","
","
","""event"",""trial"",""time""
""fullscreenenter"",""1"",""3284""
","
","","","615.8000000119209","","","18","4921","2368","&#9733;","elianto","#3366ff99","-1"," ","0","0","[1467.800000011921]","1","1","","","4921","16","2","2","win","no-go","0"
"pit-trial","134","1262190","0.0-20.0","battery-v0.2","","""event"",""trial"",""time""
""fullscreenenter"",""1"",""3284""
","
","
","""event"",""trial"",""time""
""fullscreenenter"",""1"",""3284""
","
","","","-1","","","18","4921","2368","&#9752;","elianto","#f73b6a7A"," ","-1","0","0","[]","0","1","","","4921","17","3","3","lose","go","1"
"pit-trial","135","1265546","0.0-21.0","battery-v0.2","","""event"",""trial"",""time""
""fullscreenenter"",""1"",""3284""
","
","
","""event"",""trial"",""time""
""fullscreenenter"",""1"",""3284""
","
","","","500.80000001192093","","","18","4921","2368","&#9733;","elianto","#3366ff99","-1"," ","0","+10","[1352.8999999761581]","1","1","","","4921","18","2","2","win","no-go","1"
"pit-trial","136","1270406","0.0-22.0","battery-v0.2","","""event"",""trial"",""time""
""fullscreenenter"",""1"",""3284""
","
","
","""event"",""trial"",""time""
""fullscreenenter"",""1"",""3284""
","
","","","-1","","","18","4921","2368","&#9728;","elianto","#f73b6a7A","-1","-1","1","0","[]","0","1","","","4921","19","0","4","lose","no-go","0"
"pit-trial","137","1274104","0.0-23.0","battery-v0.2","","""event"",""trial"",""time""
""fullscreenenter"",""1"",""3284""
","
","
","""event"",""trial"",""time""
""fullscreenenter"",""1"",""3284""
","
","","","843.6999999880791","","","18","4921","2368","&#9730;","elianto","#3366ff99"," "," ","1","0","[1695.0999999940395]","1","1","","","4921","20","1","1","win","go","1"
"pit-instructions","138","1300804","0.0-24.0","battery-v0.2","","""event"",""trial"",""time""
""fullscreenenter"",""1"",""3284""
","
","
","""event"",""trial"",""time""
""fullscreenenter"",""1"",""3284""
","
","","[{""page_index"":0,""viewing_time"":17080.80000001192},{""page_index"":1,""viewing_time"":9615.09999999404}]","26696.40000000596","","","","","","","","","","","","","","","","","","","","","","","",""
"pit-trial","139","1305665","0.0-25.0","battery-v0.2","","""event"",""trial"",""time""
""fullscreenenter"",""1"",""3284""
","
","
","""event"",""trial"",""time""
""fullscreenenter"",""1"",""3284""
","
","","","-1","","","18","4921","2368","h","elianto","#f73b6a7A","-1","-1","1","0","[]","0","2","","","4921","21","3","4","lose","no-go","0"
"pit-trial","140","1310524","0.0-26.0","battery-v0.2","","""event"",""trial"",""time""
""fullscreenenter"",""1"",""3284""
","
","
","""event"",""trial"",""time""
""fullscreenenter"",""1"",""3284""
","
","","","-1","","","18","4921","2368","y","elianto","#f73b6a7A"," ","-1","0","-10","[]","0","2","","","4921","22","2","3","lose","go","0"
"pit-trial","141","1315384","0.0-27.0","battery-v0.2","","""event"",""trial"",""time""
""fullscreenenter"",""1"",""3284""
","
","
","""event"",""trial"",""time""
""fullscreenenter"",""1"",""3284""
","
","","","-1","","","18","4921","2368","m","elianto","#f73b6a7A"," ","-1","0","-10","[]","0","2","","","4921","23","0","3","lose","go","0"
"pit-trial","142","1319140","0.0-28.0","battery-v0.2","","""event"",""trial"",""time""
""fullscreenenter"",""1"",""3284""
","
","
","""event"",""trial"",""time""
""fullscreenenter"",""1"",""3284""
","
","","","897.6999999880791","","","18","4921","2368","r","elianto","#3366ff99","-1"," ","0","+10","[1748.4000000059605]","1","2","","","4921","24","1","2","win","no-go","1"
"pit-trial","143","1323587","0.0-29.0","battery-v0.2","","""event"",""trial"",""time""
""fullscreenenter"",""1"",""3284""
","
","
","""event"",""trial"",""time""
""fullscreenenter"",""1"",""3284""
","
","","","1585.7999999821186","","","18","4921","2368","m","elianto","#f73b6a7A"," "," ","1","0","[2440.0999999940395]","1","2","","","4921","25","0","3","lose","go","0"
"pit-trial","144","1327255","0.0-30.0","battery-v0.2","","""event"",""trial"",""time""
""fullscreenenter"",""1"",""3284""
","
","
","""event"",""trial"",""time""
""fullscreenenter"",""1"",""3284""
","
","","","807.1999999880791","","","18","4921","2368","r","elianto","#3366ff99","-1"," ","0","+10","[1661.199999988079]","1","2","","","4921","26","1","2","win","no-go","1"
"pit-trial","145","1332109","0.0-31.0","battery-v0.2","","""event"",""trial"",""time""
""fullscreenenter"",""1"",""3284""
","
","
","""event"",""trial"",""time""
""fullscreenenter"",""1"",""3284""
","
","","","-1","","","18","4921","2368","y","elianto","#f73b6a7A"," ","-1","0","-10","[]","0","2","","","4921","27","2","3","lose","go","0"
"pit-trial","146","1336968","0.0-32.0","battery-v0.2","","""event"",""trial"",""time""
""fullscreenenter"",""1"",""3284""
","
","
","""event"",""trial"",""time""
""fullscreenenter"",""1"",""3284""
","
","","","-1","","","18","4921","2368","h","elianto","#f73b6a7A","-1","-1","1","0","[]","0","2","","","4921","28","3","4","lose","no-go","0"
"pit-trial","147","1341828","0.0-33.0","battery-v0.2","","""event"",""trial"",""time""
""fullscreenenter"",""1"",""3284""
","
","
","""event"",""trial"",""time""
""fullscreenenter"",""1"",""3284""
","
","","","-1","","","18","4921","2368","m","elianto","#f73b6a7A"," ","-1","0","-10","[]","0","2","","","4921","29","0","3","lose","go","0"
"pit-trial","148","1345258","0.0-34.0","battery-v0.2","","""event"",""trial"",""time""
""fullscreenenter"",""1"",""3284""
","
","
","""event"",""trial"",""time""
""fullscreenenter"",""1"",""3284""
","
","","","573.2999999821186","","","18","4921","2368","r","elianto","#3366ff99","-1"," ","0","0","[1423.4000000059605]","1","2","","","4921","30","1","2","win","no-go","0"
"pit-trial","149","1350117","0.0-35.0","battery-v0.2","","""event"",""trial"",""time""
""fullscreenenter"",""1"",""3284""
","
","
","""event"",""trial"",""time""
""fullscreenenter"",""1"",""3284""
","
","","","-1","","","18","4921","2368","h","elianto","#f73b6a7A","-1","-1","1","-10","[]","0","2","","","4921","31","3","4","lose","no-go","1"
"pit-trial","150","1354001","0.0-36.0","battery-v0.2","","""event"",""trial"",""time""
""fullscreenenter"",""1"",""3284""
","
","
","""event"",""trial"",""time""
""fullscreenenter"",""1"",""3284""
","
","","","1028.4000000059605","","","18","4921","2368","y","elianto","#f73b6a7A"," "," ","1","0","[1879.2999999821186]","1","2","","","4921","32","2","3","lose","go","0"
"pit-trial","151","1358540","0.0-37.0","battery-v0.2","","""event"",""trial"",""time""
""fullscreenenter"",""1"",""3284""
","
","
","""event"",""trial"",""time""
""fullscreenenter"",""1"",""3284""
","
","","","1681.300000011921","","","18","4921","2368","h","elianto","#f73b6a7A","-1"," ","0","0","[2536.2000000178814]","1","2","","","4921","33","3","4","lose","no-go","1"
"pit-trial","152","1363399","0.0-38.0","battery-v0.2","","""event"",""trial"",""time""
""fullscreenenter"",""1"",""3284""
","
","
","""event"",""trial"",""time""
""fullscreenenter"",""1"",""3284""
","
","","","-1","","","18","4921","2368","y","elianto","#f73b6a7A"," ","-1","0","0","[]","0","2","","","4921","34","2","3","lose","go","1"
"pit-trial","153","1367098","0.0-39.0","battery-v0.2","","""event"",""trial"",""time""
""fullscreenenter"",""1"",""3284""
","
","
","""event"",""trial"",""time""
""fullscreenenter"",""1"",""3284""
","
","","","843.5999999940395","","","18","4921","2368","r","elianto","#3366ff99","-1"," ","0","0","[1695.2999999821186]","1","2","","","4921","35","1","2","win","no-go","0"
"pit-trial","154","1371956","0.0-40.0","battery-v0.2","","""event"",""trial"",""time""
""fullscreenenter"",""1"",""3284""
","
","
","""event"",""trial"",""time""
""fullscreenenter"",""1"",""3284""
","
","","","-1","","","18","4921","2368","m","elianto","#f73b6a7A"," ","-1","0","-10","[]","0","2","","","4921","36","0","3","lose","go","0"
"pit-trial","155","1375637","0.0-41.0","battery-v0.2","","""event"",""trial"",""time""
""fullscreenenter"",""1"",""3284""
","
","
","""event"",""trial"",""time""
""fullscreenenter"",""1"",""3284""
","
","","","822.4000000059605","","","18","4921","2368","h","elianto","#f73b6a7A","-1"," ","0","-10","[1672.6000000238419]","1","2","","","4921","37","3","4","lose","no-go","0"
"pit-trial","156","1379985","0.0-42.0","battery-v0.2","","""event"",""trial"",""time""
""fullscreenenter"",""1"",""3284""
","
","
","""event"",""trial"",""time""
""fullscreenenter"",""1"",""3284""
","
","","","1493.300000011921","","","18","4921","2368","m","elianto","#f73b6a7A"," "," ","1","0","[2343.5]","1","2","","","4921","38","0","3","lose","go","0"
"pit-trial","157","1383508","0.0-43.0","battery-v0.2","","""event"",""trial"",""time""
""fullscreenenter"",""1"",""3284""
","
","
","""event"",""trial"",""time""
""fullscreenenter"",""1"",""3284""
","
","","","662.2999999821186","","","18","4921","2368","r","elianto","#3366ff99","-1"," ","0","0","[1515.9000000059605]","1","2","","","4921","39","1","2","win","no-go","0"
"pit-trial","158","1388367","0.0-44.0","battery-v0.2","","""event"",""trial"",""time""
""fullscreenenter"",""1"",""3284""
","
","
","""event"",""trial"",""time""
""fullscreenenter"",""1"",""3284""
","
","","","-1","","","18","4921","2368","y","elianto","#f73b6a7A"," ","-1","0","-10","[]","0","2","","","4921","40","2","3","lose","go","0"
"pit-trial","159","1392335","0.0-45.0","battery-v0.2","","""event"",""trial"",""time""
""fullscreenenter"",""1"",""3284""
","
","
","""event"",""trial"",""time""
""fullscreenenter"",""1"",""3284""
","
","","","1109.6000000238419","","","18","4921","2368","y","elianto","#f73b6a7A"," "," ","1","0","[1962.6000000238419]","1","2","","","4921","41","2","3","lose","go","0"
"pit-trial","160","1397191","0.0-46.0","battery-v0.2","","""event"",""trial"",""time""
""fullscreenenter"",""1"",""3284""
","
","
","""event"",""trial"",""time""
""fullscreenenter"",""1"",""3284""
","
","","","-1","","","18","4921","2368","m","elianto","#f73b6a7A"," ","-1","0","-10","[]","0","2","","","4921","42","0","3","lose","go","0"
"pit-trial","161","1400704","0.0-47.0","battery-v0.2","","""event"",""trial"",""time""
""fullscreenenter"",""1"",""3284""
","
","
","""event"",""trial"",""time""
""fullscreenenter"",""1"",""3284""
","
","","","654.4000000059605","","","18","4921","2368","r","elianto","#3366ff99","-1"," ","0","0","[1506.5]","1","2","","","4921","43","1","2","win","no-go","0"
"pit-trial","162","1405562","0.0-48.0","battery-v0.2","","""event"",""trial"",""time""
""fullscreenenter"",""1"",""3284""
","
","
","""event"",""trial"",""time""
""fullscreenenter"",""1"",""3284""
","
","","","-1","","","18","4921","2368","h","elianto","#f73b6a7A","-1","-1","1","0","[]","0","2","","","4921","44","3","4","lose","no-go","0"
"pit-trial","163","1410421","0.0-49.0","battery-v0.2","","""event"",""trial"",""time""
""fullscreenenter"",""1"",""3284""
","
","
","""event"",""trial"",""time""
""fullscreenenter"",""1"",""3284""
","
","","","-1","","","18","4921","2368","m","elianto","#f73b6a7A"," ","-1","0","-10","[]","0","2","","","4921","45","0","3","lose","go","0"
"pit-trial","164","1415280","0.0-50.0","battery-v0.2","","""event"",""trial"",""time""
""fullscreenenter"",""1"",""3284""
","
","
","""event"",""trial"",""time""
""fullscreenenter"",""1"",""3284""
","
","","","-1","","","18","4921","2368","h","elianto","#f73b6a7A","-1","-1","1","0","[]","0","2","","","4921","46","3","4","lose","no-go","0"
"pit-trial","165","1418961","0.0-51.0","battery-v0.2","","""event"",""trial"",""time""
""fullscreenenter"",""1"",""3284""
","
","
","""event"",""trial"",""time""
""fullscreenenter"",""1"",""3284""
","
","","","825.0999999940395","","","18","4921","2368","y","elianto","#f73b6a7A"," "," ","1","0","[1676.5]","1","2","","","4921","47","2","3","lose","go","0"
"pit-trial","166","1423820","0.0-52.0","battery-v0.2","","""event"",""trial"",""time""
""fullscreenenter"",""1"",""3284""
","
","
","""event"",""trial"",""time""
""fullscreenenter"",""1"",""3284""
","
","","","-1","","","18","4921","2368","r","elianto","#3366ff99","-1","-1","1","+10","[]","0","2","","","4921","48","1","2","win","no-go","0"
"pit-trial","167","1428678","0.0-53.0","battery-v0.2","","""event"",""trial"",""time""
""fullscreenenter"",""1"",""3284""
","
","
","""event"",""trial"",""time""
""fullscreenenter"",""1"",""3284""
","
","","","-1","","","18","4921","2368","r","elianto","#3366ff99","-1","-1","1","+10","[]","0","2","","","4921","49","1","2","win","no-go","0"
"pit-trial","168","1432466","0.0-54.0","battery-v0.2","","""event"",""trial"",""time""
""fullscreenenter"",""1"",""3284""
","
","
","""event"",""trial"",""time""
""fullscreenenter"",""1"",""3284""
","
","","","932.6999999880791","","","18","4921","2368","y","elianto","#f73b6a7A"," "," ","1","0","[1782.8999999761581]","1","2","","","4921","50","2","3","lose","go","0"
"pit-trial","169","1436653","0.0-55.0","battery-v0.2","","""event"",""trial"",""time""
""fullscreenenter"",""1"",""3284""
","
","
","""event"",""trial"",""time""
""fullscreenenter"",""1"",""3284""
","
","","","1327.6000000238419","","","18","4921","2368","m","elianto","#f73b6a7A"," "," ","1","0","[2180.4000000059605]","1","2","","","4921","51","0","3","lose","go","0"
"pit-trial","170","1440724","0.0-56.0","battery-v0.2","","""event"",""trial"",""time""
""fullscreenenter"",""1"",""3284""
","
","
","""event"",""trial"",""time""
""fullscreenenter"",""1"",""3284""
","
","","","1213.7999999821186","","","18","4921","2368","h","elianto","#f73b6a7A","-1"," ","0","-10","[2066.7999999821186]","1","2","","","4921","52","3","4","lose","no-go","0"
"pit-trial","171","1444619","0.0-57.0","battery-v0.2","","""event"",""trial"",""time""
""fullscreenenter"",""1"",""3284""
","
","
","""event"",""trial"",""time""
""fullscreenenter"",""1"",""3284""
","
","","","1036.5999999940395","","","18","4921","2368","y","elianto","#f73b6a7A"," "," ","1","0","[1890.800000011921]","1","2","","","4921","53","2","3","lose","go","0"
"pit-trial","172","1449478","0.0-58.0","battery-v0.2","","""event"",""trial"",""time""
""fullscreenenter"",""1"",""3284""
","
","
","""event"",""trial"",""time""
""fullscreenenter"",""1"",""3284""
","
","","","-1","","","18","4921","2368","r","elianto","#3366ff99","-1","-1","1","+10","[]","0","2","","","4921","54","1","2","win","no-go","0"
"pit-trial","173","1454337","0.0-59.0","battery-v0.2","","""event"",""trial"",""time""
""fullscreenenter"",""1"",""3284""
","
","
","""event"",""trial"",""time""
""fullscreenenter"",""1"",""3284""
","
","","","-1","","","18","4921","2368","m","elianto","#f73b6a7A"," ","-1","0","-10","[]","0","2","","","4921","55","0","3","lose","go","0"
"pit-trial","174","1459196","0.0-60.0","battery-v0.2","","""event"",""trial"",""time""
""fullscreenenter"",""1"",""3284""
","
","
","""event"",""trial"",""time""
""fullscreenenter"",""1"",""3284""
","
","","","-1","","","18","4921","2368","h","elianto","#f73b6a7A","-1","-1","1","0","[]","0","2","","","4921","56","3","4","lose","no-go","0"
"pit-trial","175","1462900","0.0-61.0","battery-v0.2","","""event"",""trial"",""time""
""fullscreenenter"",""1"",""3284""
","
","
","""event"",""trial"",""time""
""fullscreenenter"",""1"",""3284""
","
","","","850.0999999940395","","","18","4921","2368","z","elianto","#3366ff99"," "," ","1","+10","[1700.699999988079]","1","2","","","4921","57","4","1","win","go","0"
"pit-trial","176","1466569","0.0-62.0","battery-v0.2","","""event"",""trial"",""time""
""fullscreenenter"",""1"",""3284""
","
","
","""event"",""trial"",""time""
""fullscreenenter"",""1"",""3284""
","
","","","807.3000000119209","","","18","4921","2368","y","elianto","#f73b6a7A"," "," ","1","0","[1661.5999999940395]","1","2","","","4921","58","2","3","lose","go","0"
"pit-trial","177","1471428","0.0-63.0","battery-v0.2","","""event"",""trial"",""time""
""fullscreenenter"",""1"",""3284""
","
","
","""event"",""trial"",""time""
""fullscreenenter"",""1"",""3284""
","
","","","-1","","","18","4921","2368","m","elianto","#f73b6a7A"," ","-1","0","0","[]","0","2","","","4921","59","0","3","lose","go","1"
"pit-trial","178","1475410","0.0-64.0","battery-v0.2","","""event"",""trial"",""time""
""fullscreenenter"",""1"",""3284""
","
","
","""event"",""trial"",""time""
""fullscreenenter"",""1"",""3284""
","
","","","1124.9000000059605","","","18","4921","2368","h","elianto","#f73b6a7A","-1"," ","0","-10","[1977]","1","2","","","4921","60","3","4","lose","no-go","0"
"pit-trial","179","1480269","0.0-65.0","battery-v0.2","","""event"",""trial"",""time""
""fullscreenenter"",""1"",""3284""
","
","
","""event"",""trial"",""time""
""fullscreenenter"",""1"",""3284""
","
","","","-1","","","18","4921","2368","r","elianto","#3366ff99","-1","-1","1","+10","[]","0","2","","","4921","61","1","2","win","no-go","0"
"pit-trial","180","1484147","0.0-66.0","battery-v0.2","","""event"",""trial"",""time""
""fullscreenenter"",""1"",""3284""
","
","
","""event"",""trial"",""time""
""fullscreenenter"",""1"",""3284""
","
","","","1021.3999999761581","","","18","4921","2368","h","elianto","#f73b6a7A","-1"," ","0","-10","[1872.0999999940395]","1","2","","","4921","62","3","4","lose","no-go","0"
"pit-trial","181","1487740","0.0-67.0","battery-v0.2","","""event"",""trial"",""time""
""fullscreenenter"",""1"",""3284""
","
","
","""event"",""trial"",""time""
""fullscreenenter"",""1"",""3284""
","
","","","735.3000000119209","","","18","4921","2368","z","elianto","#3366ff99"," "," ","1","+10","[1587.0999999940395]","1","2","","","4921","63","4","1","win","go","0"
"pit-trial","182","1492599","0.0-68.0","battery-v0.2","","""event"",""trial"",""time""
""fullscreenenter"",""1"",""3284""
","
","
","""event"",""trial"",""time""
""fullscreenenter"",""1"",""3284""
","
","","","-1","","","18","4921","2368","y","elianto","#f73b6a7A"," ","-1","0","-10","[]","0","2","","","4921","64","2","3","lose","go","0"
"pit-trial","183","1496145","0.0-69.0","battery-v0.2","","""event"",""trial"",""time""
""fullscreenenter"",""1"",""3284""
","
","
","""event"",""trial"",""time""
""fullscreenenter"",""1"",""3284""
","
","","","691.5","","","18","4921","2368","z","elianto","#3366ff99"," "," ","1","+10","[1542.9000000059605]","1","2","","","4921","65","4","1","win","go","0"
"pit-trial","184","1499908","0.0-70.0","battery-v0.2","","""event"",""trial"",""time""
""fullscreenenter"",""1"",""3284""
","
","
","""event"",""trial"",""time""
""fullscreenenter"",""1"",""3284""
","
","","","905.9000000059605","","","18","4921","2368","c","elianto","#3366ff99","-1"," ","0","0","[1755.9000000059605]","1","2","","","4921","66","5","2","win","no-go","0"
"pit-trial","185","1504767","0.0-71.0","battery-v0.2","","""event"",""trial"",""time""
""fullscreenenter"",""1"",""3284""
","
","
","""event"",""trial"",""time""
""fullscreenenter"",""1"",""3284""
","
","","","-1","","","18","4921","2368","r","elianto","#3366ff99","-1","-1","1","0","[3597.199999988079]","1","2","","","4921","67","1","2","win","no-go","1"
"pit-trial","186","1508662","0.0-72.0","battery-v0.2","","""event"",""trial"",""time""
""fullscreenenter"",""1"",""3284""
","
","
","""event"",""trial"",""time""
""fullscreenenter"",""1"",""3284""
","
","","","1039.5","","","18","4921","2368","h","elianto","#f73b6a7A","-1"," ","0","0","[1890.5]","1","2","","","4921","68","3","4","lose","no-go","1"
"pit-trial","187","1512319","0.0-73.0","battery-v0.2","","""event"",""trial"",""time""
""fullscreenenter"",""1"",""3284""
","
","
","""event"",""trial"",""time""
""fullscreenenter"",""1"",""3284""
","
","","","801.2000000178814","","","18","4921","2368","z","elianto","#3366ff99"," "," ","1","+10","[1652.4000000059605]","1","2","","","4921","69","4","1","win","go","0"
"pit-trial","188","1516987","0.0-74.0","battery-v0.2","","""event"",""trial"",""time""
""fullscreenenter"",""1"",""3284""
","
","
","""event"",""trial"",""time""
""fullscreenenter"",""1"",""3284""
","
","","","1811.7999999821186","","","18","4921","2368","r","elianto","#3366ff99","-1"," ","0","+10","[2664.2999999821186]","1","2","","","4921","70","1","2","win","no-go","1"
"pit-trial","189","1521151","0.0-75.0","battery-v0.2","","""event"",""trial"",""time""
""fullscreenenter"",""1"",""3284""
","
","
","""event"",""trial"",""time""
""fullscreenenter"",""1"",""3284""
","
","","","1307.800000011921","","","18","4921","2368","c","elianto","#3366ff99","-1"," ","0","0","[2158.699999988079]","1","2","","","4921","71","5","2","win","no-go","0"
"pit-trial","190","1525195","0.0-76.0","battery-v0.2","","""event"",""trial"",""time""
""fullscreenenter"",""1"",""3284""
","
","
","""event"",""trial"",""time""
""fullscreenenter"",""1"",""3284""
","
","","","1185.5999999940395","","","18","4921","2368","y","elianto","#f73b6a7A"," "," ","1","-10","[2039.9000000059605]","1","2","","","4921","72","2","3","lose","go","1"
"pit-trial","191","1530051","0.0-77.0","battery-v0.2","","""event"",""trial"",""time""
""fullscreenenter"",""1"",""3284""
","
","
","""event"",""trial"",""time""
""fullscreenenter"",""1"",""3284""
","
","","","-1","","","18","4921","2368","c","elianto","#3366ff99","-1","-1","1","+10","[]","0","2","","","4921","73","5","2","win","no-go","0"
"pit-trial","192","1534251","0.0-78.0","battery-v0.2","","""event"",""trial"",""time""
""fullscreenenter"",""1"",""3284""
","
","
","""event"",""trial"",""time""
""fullscreenenter"",""1"",""3284""
","
","","","1342.5999999940395","","","18","4921","2368","r","elianto","#3366ff99","-1"," ","0","0","[2194.5999999940395]","1","2","","","4921","74","1","2","win","no-go","0"
"pit-trial","193","1537844","0.0-79.0","battery-v0.2","","""event"",""trial"",""time""
""fullscreenenter"",""1"",""3284""
","
","
","""event"",""trial"",""time""
""fullscreenenter"",""1"",""3284""
","
","","","737.2000000178814","","","18","4921","2368","z","elianto","#3366ff99"," "," ","1","+10","[1588.2000000178814]","1","2","","","4921","75","4","1","win","go","0"
"pit-trial","194","1541862","0.0-80.0","battery-v0.2","","""event"",""trial"",""time""
""fullscreenenter"",""1"",""3284""
","
","
","""event"",""trial"",""time""
""fullscreenenter"",""1"",""3284""
","
","","","1162.800000011921","","","18","4921","2368","h","elianto","#f73b6a7A","-1"," ","0","-10","[2013.800000011921]","1","2","","","4921","76","3","4","lose","no-go","0"
"pit-trial","195","1545694","0.0-81.0","battery-v0.2","","""event"",""trial"",""time""
""fullscreenenter"",""1"",""3284""
","
","
","""event"",""trial"",""time""
""fullscreenenter"",""1"",""3284""
","
","","","977.9000000059605","","","18","4921","2368","z","elianto","#3366ff99"," "," ","1","+10","[1829]","1","2","","","4921","77","4","1","win","go","0"
"pit-trial","196","1550552","0.0-82.0","battery-v0.2","","""event"",""trial"",""time""
""fullscreenenter"",""1"",""3284""
","
","
","""event"",""trial"",""time""
""fullscreenenter"",""1"",""3284""
","
","","","-1","","","18","4921","2368","c","elianto","#3366ff99","-1","-1","1","+10","[]","0","2","","","4921","78","5","2","win","no-go","0"
"pit-trial","197","1554186","0.0-83.0","battery-v0.2","","""event"",""trial"",""time""
""fullscreenenter"",""1"",""3284""
","
","
","""event"",""trial"",""time""
""fullscreenenter"",""1"",""3284""
","
","","","779.7000000178814","","","18","4921","2368","z","elianto","#3366ff99"," "," ","1","+10","[1631.2000000178814]","1","2","","","4921","79","4","1","win","go","0"
"pit-trial","198","1559039","0.0-84.0","battery-v0.2","","""event"",""trial"",""time""
""fullscreenenter"",""1"",""3284""
","
","
","""event"",""trial"",""time""
""fullscreenenter"",""1"",""3284""
","
","","","-1","","","18","4921","2368","h","elianto","#f73b6a7A","-1","-1","1","0","[]","0","2","","","4921","80","3","4","lose","no-go","0"
"pit-trial","199","1563898","0.0-85.0","battery-v0.2","","""event"",""trial"",""time""
""fullscreenenter"",""1"",""3284""
","
","
","""event"",""trial"",""time""
""fullscreenenter"",""1"",""3284""
","
","","","-1","","","18","4921","2368","c","elianto","#3366ff99","-1","-1","1","+10","[]","0","2","","","4921","81","5","2","win","no-go","0"
"pit-trial","200","1568757","0.0-86.0","battery-v0.2","","""event"",""trial"",""time""
""fullscreenenter"",""1"",""3284""
","
","
","""event"",""trial"",""time""
""fullscreenenter"",""1"",""3284""
","
","","","-1","","","18","4921","2368","h","elianto","#f73b6a7A","-1","-1","1","0","[]","0","2","","","4921","82","3","4","lose","no-go","0"
"pit-trial","201","1573616","0.0-87.0","battery-v0.2","","""event"",""trial"",""time""
""fullscreenenter"",""1"",""3284""
","
","
","""event"",""trial"",""time""
""fullscreenenter"",""1"",""3284""
","
","","","-1","","","18","4921","2368","t","elianto","#f73b6a7A","-1","-1","1","0","[]","0","2","","","4921","83","7","4","lose","no-go","0"
"pit-trial","202","1577169","0.0-88.0","battery-v0.2","","""event"",""trial"",""time""
""fullscreenenter"",""1"",""3284""
","
","
","""event"",""trial"",""time""
""fullscreenenter"",""1"",""3284""
","
","","","695.9000000059605","","","18","4921","2368","z","elianto","#3366ff99"," "," ","1","0","[1548.5]","1","2","","","4921","84","4","1","win","go","1"
"pit-trial","203","1582027","0.0-89.0","battery-v0.2","","""event"",""trial"",""time""
""fullscreenenter"",""1"",""3284""
","
","
","""event"",""trial"",""time""
""fullscreenenter"",""1"",""3284""
","
","","","-1","","","18","4921","2368","b","elianto","#f73b6a7A"," ","-1","0","-10","[3395.9000000059605]","1","2","","","4921","85","6","3","lose","go","0"
"pit-trial","204","1586887","0.0-90.0","battery-v0.2","","""event"",""trial"",""time""
""fullscreenenter"",""1"",""3284""
","
","
","""event"",""trial"",""time""
""fullscreenenter"",""1"",""3284""
","
","","","-1","","","18","4921","2368","t","elianto","#f73b6a7A","-1","-1","1","0","[]","0","2","","","4921","86","7","4","lose","no-go","0"
"pit-trial","205","1591746","0.0-91.0","battery-v0.2","","""event"",""trial"",""time""
""fullscreenenter"",""1"",""3284""
","
","
","""event"",""trial"",""time""
""fullscreenenter"",""1"",""3284""
","
","","","-1","","","18","4921","2368","c","elianto","#3366ff99","-1","-1","1","0","[]","0","2","","","4921","87","5","2","win","no-go","1"
"pit-trial","206","1595251","0.0-92.0","battery-v0.2","","""event"",""trial"",""time""
""fullscreenenter"",""1"",""3284""
","
","
","""event"",""trial"",""time""
""fullscreenenter"",""1"",""3284""
","
","","","646.3000000119209","","","18","4921","2368","z","elianto","#3366ff99"," "," ","1","+10","[1498.300000011921]","1","2","","","4921","88","4","1","win","go","0"
"pit-trial","207","1600111","0.0-93.0","battery-v0.2","","""event"",""trial"",""time""
""fullscreenenter"",""1"",""3284""
","
","
","""event"",""trial"",""time""
""fullscreenenter"",""1"",""3284""
","
","","","-1","","","18","4921","2368","b","elianto","#f73b6a7A"," ","-1","0","0","[]","0","2","","","4921","89","6","3","lose","go","1"
"pit-trial","208","1604973","0.0-94.0","battery-v0.2","","""event"",""trial"",""time""
""fullscreenenter"",""1"",""3284""
","
","
","""event"",""trial"",""time""
""fullscreenenter"",""1"",""3284""
","
","","","-1","","","18","4921","2368","t","elianto","#f73b6a7A","-1","-1","1","0","[]","0","2","","","4921","90","7","4","lose","no-go","0"
"pit-trial","209","1609004","0.0-95.0","battery-v0.2","","""event"",""trial"",""time""
""fullscreenenter"",""1"",""3284""
","
","
","""event"",""trial"",""time""
""fullscreenenter"",""1"",""3284""
","
","","","1174.300000011921","","","18","4921","2368","c","elianto","#3366ff99","-1"," ","0","0","[2028]","1","2","","","4921","91","5","2","win","no-go","0"
"pit-trial","210","1612586","0.0-96.0","battery-v0.2","","""event"",""trial"",""time""
""fullscreenenter"",""1"",""3284""
","
","
","""event"",""trial"",""time""
""fullscreenenter"",""1"",""3284""
","
","","","724","","","18","4921","2368","z","elianto","#3366ff99"," "," ","1","+10","[1575]","1","2","","","4921","92","4","1","win","go","0"
"pit-trial","211","1616472","0.0-97.0","battery-v0.2","","""event"",""trial"",""time""
""fullscreenenter"",""1"",""3284""
","
","
","""event"",""trial"",""time""
""fullscreenenter"",""1"",""3284""
","
","","","1029.800000011921","","","18","4921","2368","f","elianto","#3366ff99"," "," ","1","+10","[1881.1000000238419]","1","2","","","4921","93","8","1","win","go","0"
"pit-trial","212","1621328","0.0-98.0","battery-v0.2","","""event"",""trial"",""time""
""fullscreenenter"",""1"",""3284""
","
","
","""event"",""trial"",""time""
""fullscreenenter"",""1"",""3284""
","
","","","-1","","","18","4921","2368","t","elianto","#f73b6a7A","-1","-1","1","0","[]","0","2","","","4921","94","7","4","lose","no-go","0"
"pit-trial","213","1626188","0.0-99.0","battery-v0.2","","""event"",""trial"",""time""
""fullscreenenter"",""1"",""3284""
","
","
","""event"",""trial"",""time""
""fullscreenenter"",""1"",""3284""
","
","","","-1","","","18","4921","2368","c","elianto","#3366ff99","-1","-1","1","+10","[]","0","2","","","4921","95","5","2","win","no-go","0"
"pit-trial","214","1631041","0.0-100.0","battery-v0.2","","""event"",""trial"",""time""
""fullscreenenter"",""1"",""3284""
","
","
","""event"",""trial"",""time""
""fullscreenenter"",""1"",""3284""
","
","","","-1","","","18","4921","2368","b","elianto","#f73b6a7A"," ","-1","0","-10","[]","0","2","","","4921","96","6","3","lose","go","0"
"pit-trial","215","1634495","0.0-101.0","battery-v0.2","","""event"",""trial"",""time""
""fullscreenenter"",""1"",""3284""
","
","
","""event"",""trial"",""time""
""fullscreenenter"",""1"",""3284""
","
","","","599.0999999940395","","","18","4921","2368","b","elianto","#f73b6a7A"," "," ","1","0","[1449.9000000059605]","1","2","","","4921","97","6","3","lose","go","0"
"pit-trial","216","1638442","0.0-102.0","battery-v0.2","","""event"",""trial"",""time""
""fullscreenenter"",""1"",""3284""
","
","
","""event"",""trial"",""time""
""fullscreenenter"",""1"",""3284""
","
","","","1092.1000000238419","","","18","4921","2368","f","elianto","#3366ff99"," "," ","1","+10","[1944.1000000238419]","1","2","","","4921","98","8","1","win","go","0"
"pit-trial","217","1643301","0.0-103.0","battery-v0.2","","""event"",""trial"",""time""
""fullscreenenter"",""1"",""3284""
","
","
","""event"",""trial"",""time""
""fullscreenenter"",""1"",""3284""
","
","","","-1","","","18","4921","2368","t","elianto","#f73b6a7A","-1","-1","1","0","[]","0","2","","","4921","99","7","4","lose","no-go","0"
"pit-trial","218","1648160","0.0-104.0","battery-v0.2","","""event"",""trial"",""time""
""fullscreenenter"",""1"",""3284""
","
","
","""event"",""trial"",""time""
""fullscreenenter"",""1"",""3284""
","
","","","-1","","","18","4921","2368","c","elianto","#3366ff99","-1","-1","1","+10","[]","0","2","","","4921","100","5","2","win","no-go","0"
"pit-trial","219","1652572","0.0-105.0","battery-v0.2","","""event"",""trial"",""time""
""fullscreenenter"",""1"",""3284""
","
","
","""event"",""trial"",""time""
""fullscreenenter"",""1"",""3284""
","
","","","1554.7999999821186","","","18","4921","2368","n","elianto","#3366ff99"," "," ","1","0","[2405.899999976158]","1","2","","","4921","101","9","1","win","go","1"
"pit-trial","220","1656339","0.0-106.0","battery-v0.2","","""event"",""trial"",""time""
""fullscreenenter"",""1"",""3284""
","
","
","""event"",""trial"",""time""
""fullscreenenter"",""1"",""3284""
","
","","","910.1999999880791","","","18","4921","2368","f","elianto","#3366ff99"," "," ","1","+10","[1760.8999999761581]","1","2","","","4921","102","8","1","win","go","0"
"pit-trial","221","1661199","0.0-107.0","battery-v0.2","","""event"",""trial"",""time""
""fullscreenenter"",""1"",""3284""
","
","
","""event"",""trial"",""time""
""fullscreenenter"",""1"",""3284""
","
","","","-1","","","18","4921","2368","c","elianto","#3366ff99","-1","-1","1","+10","[]","0","2","","","4921","103","5","2","win","no-go","0"
"pit-trial","222","1666052","0.0-108.0","battery-v0.2","","""event"",""trial"",""time""
""fullscreenenter"",""1"",""3284""
","
","
","""event"",""trial"",""time""
""fullscreenenter"",""1"",""3284""
","
","","","-1","","","18","4921","2368","t","elianto","#f73b6a7A","-1","-1","1","0","[]","0","2","","","4921","104","7","4","lose","no-go","0"
"pit-trial","223","1670272","0.0-109.0","battery-v0.2","","""event"",""trial"",""time""
""fullscreenenter"",""1"",""3284""
","
","
","""event"",""trial"",""time""
""fullscreenenter"",""1"",""3284""
","
","","","1365.800000011921","","","18","4921","2368","f","elianto","#3366ff99"," "," ","1","+10","[2216.0999999940395]","1","2","","","4921","105","8","1","win","go","0"
"pit-trial","224","1674208","0.0-110.0","battery-v0.2","","""event"",""trial"",""time""
""fullscreenenter"",""1"",""3284""
","
","
","""event"",""trial"",""time""
""fullscreenenter"",""1"",""3284""
","
","","","1073.699999988079","","","18","4921","2368","b","elianto","#f73b6a7A"," "," ","1","0","[1928.5999999940395]","1","2","","","4921","106","6","3","lose","go","0"
"pit-trial","225","1677987","0.0-111.0","battery-v0.2","","""event"",""trial"",""time""
""fullscreenenter"",""1"",""3284""
","
","
","""event"",""trial"",""time""
""fullscreenenter"",""1"",""3284""
","
","","","921.7999999821186","","","18","4921","2368","n","elianto","#3366ff99"," "," ","1","+10","[1772.0999999940395]","1","2","","","4921","107","9","1","win","go","0"
"pit-trial","226","1681528","0.0-112.0","battery-v0.2","","""event"",""trial"",""time""
""fullscreenenter"",""1"",""3284""
","
","
","""event"",""trial"",""time""
""fullscreenenter"",""1"",""3284""
","
","","","684.5","","","18","4921","2368","z","elianto","#3366ff99"," "," ","1","0","[1535.199999988079]","1","2","","","4921","108","4","1","win","go","1"
"pit-trial","227","1685203","0.0-113.0","battery-v0.2","","""event"",""trial"",""time""
""fullscreenenter"",""1"",""3284""
","
","
","""event"",""trial"",""time""
""fullscreenenter"",""1"",""3284""
","
","","","818.7000000178814","","","18","4921","2368","b","elianto","#f73b6a7A"," "," ","1","-10","[1668.7000000178814]","1","2","","","4921","109","6","3","lose","go","1"
"pit-trial","228","1690062","0.0-114.0","battery-v0.2","","""event"",""trial"",""time""
""fullscreenenter"",""1"",""3284""
","
","
","""event"",""trial"",""time""
""fullscreenenter"",""1"",""3284""
","
","","","-1","","","18","4921","2368","c","elianto","#3366ff99","-1","-1","1","+10","[]","0","2","","","4921","110","5","2","win","no-go","0"
"pit-trial","229","1694520","0.0-115.0","battery-v0.2","","""event"",""trial"",""time""
""fullscreenenter"",""1"",""3284""
","
","
","""event"",""trial"",""time""
""fullscreenenter"",""1"",""3284""
","
","","","1602.699999988079","","","18","4921","2368","n","elianto","#3366ff99"," "," ","1","+10","[2454.7999999821186]","1","2","","","4921","111","9","1","win","go","0"
"pit-trial","230","1698520","0.0-116.0","battery-v0.2","","""event"",""trial"",""time""
""fullscreenenter"",""1"",""3284""
","
","
","""event"",""trial"",""time""
""fullscreenenter"",""1"",""3284""
","
","","","1145.2999999821186","","","18","4921","2368","f","elianto","#3366ff99"," "," ","1","+10","[1997.199999988079]","1","2","","","4921","112","8","1","win","go","0"
"pit-trial","231","1703379","0.0-117.0","battery-v0.2","","""event"",""trial"",""time""
""fullscreenenter"",""1"",""3284""
","
","
","""event"",""trial"",""time""
""fullscreenenter"",""1"",""3284""
","
","","","-1","","","18","4921","2368","c","elianto","#3366ff99","-1","-1","1","+10","[]","0","2","","","4921","113","5","2","win","no-go","0"
"pit-trial","232","1707065","0.0-118.0","battery-v0.2","","""event"",""trial"",""time""
""fullscreenenter"",""1"",""3284""
","
","
","""event"",""trial"",""time""
""fullscreenenter"",""1"",""3284""
","
","","","825.5999999940395","","","18","4921","2368","n","elianto","#3366ff99"," "," ","1","+10","[1680.0999999940395]","1","2","","","4921","114","9","1","win","go","0"
"pit-trial","233","1710693","0.0-119.0","battery-v0.2","","""event"",""trial"",""time""
""fullscreenenter"",""1"",""3284""
","
","
","""event"",""trial"",""time""
""fullscreenenter"",""1"",""3284""
","
","","","774.1999999880791","","","18","4921","2368","f","elianto","#3366ff99"," "," ","1","+10","[1625.699999988079]","1","2","","","4921","115","8","1","win","go","0"
"pit-trial","234","1715157","0.0-120.0","battery-v0.2","","""event"",""trial"",""time""
""fullscreenenter"",""1"",""3284""
","
","
","""event"",""trial"",""time""
""fullscreenenter"",""1"",""3284""
","
","","","1607.0999999940395","","","18","4921","2368","b","elianto","#f73b6a7A"," "," ","1","0","[2458.5]","1","2","","","4921","116","6","3","lose","go","0"
"pit-trial","235","1720016","0.0-121.0","battery-v0.2","","""event"",""trial"",""time""
""fullscreenenter"",""1"",""3284""
","
","
","""event"",""trial"",""time""
""fullscreenenter"",""1"",""3284""
","
","","","-1","","","18","4921","2368","c","elianto","#3366ff99","-1","-1","1","0","[]","0","2","","","4921","117","5","2","win","no-go","1"
"pit-trial","236","1723506","0.0-122.0","battery-v0.2","","""event"",""trial"",""time""
""fullscreenenter"",""1"",""3284""
","
","
","""event"",""trial"",""time""
""fullscreenenter"",""1"",""3284""
","
","","","635.2999999821186","","","18","4921","2368","b","elianto","#f73b6a7A"," "," ","1","0","[1486.0999999940395]","1","2","","","4921","118","6","3","lose","go","0"
"pit-trial","237","1727255","0.0-123.0","battery-v0.2","","""event"",""trial"",""time""
""fullscreenenter"",""1"",""3284""
","
","
","""event"",""trial"",""time""
""fullscreenenter"",""1"",""3284""
","
","","","894","","","18","4921","2368","f","elianto","#3366ff99"," "," ","1","+10","[1745.0999999940395]","1","2","","","4921","119","8","1","win","go","0"
"pit-trial","238","1730913","0.0-124.0","battery-v0.2","","""event"",""trial"",""time""
""fullscreenenter"",""1"",""3284""
","
","
","""event"",""trial"",""time""
""fullscreenenter"",""1"",""3284""
","
","","","803.8000000119209","","","18","4921","2368","n","elianto","#3366ff99"," "," ","1","+10","[1655]","1","2","","","4921","120","9","1","win","go","0"
"pit-trial","239","1734280","0.0-125.0","battery-v0.2","","""event"",""trial"",""time""
""fullscreenenter"",""1"",""3284""
","
","
","""event"",""trial"",""time""
""fullscreenenter"",""1"",""3284""
","
","","","511.39999997615814","","","18","4921","2368","f","elianto","#3366ff99"," "," ","1","+10","[1361.3999999761581]","1","2","","","4921","121","8","1","win","go","0"
"pit-trial","240","1737745","0.0-126.0","battery-v0.2","","""event"",""trial"",""time""
""fullscreenenter"",""1"",""3284""
","
","
","""event"",""trial"",""time""
""fullscreenenter"",""1"",""3284""
","
","","","609.6999999880791","","","18","4921","2368","n","elianto","#3366ff99"," "," ","1","+10","[1462.5]","1","2","","","4921","122","9","1","win","go","0"
"pit-trial","241","1742606","0.0-127.0","battery-v0.2","","""event"",""trial"",""time""
""fullscreenenter"",""1"",""3284""
","
","
","""event"",""trial"",""time""
""fullscreenenter"",""1"",""3284""
","
","","","-1","","","18","4921","2368","t","elianto","#f73b6a7A","-1","-1","1","0","[]","0","2","","","4921","123","7","4","lose","no-go","0"
"pit-trial","242","1746517","0.0-128.0","battery-v0.2","","""event"",""trial"",""time""
""fullscreenenter"",""1"",""3284""
","
","
","""event"",""trial"",""time""
""fullscreenenter"",""1"",""3284""
","
","","","1052.0999999940395","","","18","4921","2368","b","elianto","#f73b6a7A"," "," ","1","0","[1905.0999999940395]","1","2","","","4921","124","6","3","lose","go","0"
"pit-trial","243","1750227","0.0-129.0","battery-v0.2","","""event"",""trial"",""time""
""fullscreenenter"",""1"",""3284""
","
","
","""event"",""trial"",""time""
""fullscreenenter"",""1"",""3284""
","
","","","848.2999999821186","","","18","4921","2368","f","elianto","#3366ff99"," "," ","1","+10","[1701.7999999821186]","1","2","","","4921","125","8","1","win","go","0"
"pit-trial","244","1755085","0.0-130.0","battery-v0.2","","""event"",""trial"",""time""
""fullscreenenter"",""1"",""3284""
","
","
","""event"",""trial"",""time""
""fullscreenenter"",""1"",""3284""
","
","","","-1","","","18","4921","2368","t","elianto","#f73b6a7A","-1","-1","1","-10","[]","0","2","","","4921","126","7","4","lose","no-go","1"
"pit-trial","245","1758812","0.0-131.0","battery-v0.2","","""event"",""trial"",""time""
""fullscreenenter"",""1"",""3284""
","
","
","""event"",""trial"",""time""
""fullscreenenter"",""1"",""3284""
","
","","","865.8000000119209","","","18","4921","2368","n","elianto","#3366ff99"," "," ","1","+10","[1719.5]","1","2","","","4921","127","9","1","win","go","0"
"pit-trial","246","1762649","0.0-132.0","battery-v0.2","","""event"",""trial"",""time""
""fullscreenenter"",""1"",""3284""
","
","
","""event"",""trial"",""time""
""fullscreenenter"",""1"",""3284""
","
","","","971.6000000238419","","","18","4921","2368","b","elianto","#f73b6a7A"," "," ","1","-10","[1829.800000011921]","1","2","","","4921","128","6","3","lose","go","1"
"pit-trial","247","1766040","0.0-133.0","battery-v0.2","","""event"",""trial"",""time""
""fullscreenenter"",""1"",""3284""
","
","
","""event"",""trial"",""time""
""fullscreenenter"",""1"",""3284""
","
","","","532.3000000119209","","","18","4921","2368","n","elianto","#3366ff99"," "," ","1","0","[1384.0999999940395]","1","2","","","4921","129","9","1","win","go","1"
"pit-trial","248","1769592","0.0-134.0","battery-v0.2","","""event"",""trial"",""time""
""fullscreenenter"",""1"",""3284""
","
","
","""event"",""trial"",""time""
""fullscreenenter"",""1"",""3284""
","
","","","699.4000000059605","","","18","4921","2368","f","elianto","#3366ff99"," "," ","1","+10","[1549.9000000059605]","1","2","","","4921","130","8","1","win","go","0"
"pit-trial","249","1774450","0.0-135.0","battery-v0.2","","""event"",""trial"",""time""
""fullscreenenter"",""1"",""3284""
","
","
","""event"",""trial"",""time""
""fullscreenenter"",""1"",""3284""
","
","","","-1","","","18","4921","2368","t","elianto","#f73b6a7A","-1","-1","1","0","[]","0","2","","","4921","131","7","4","lose","no-go","0"
"pit-trial","250","1779305","0.0-136.0","battery-v0.2","","""event"",""trial"",""time""
""fullscreenenter"",""1"",""3284""
","
","
","""event"",""trial"",""time""
""fullscreenenter"",""1"",""3284""
","
","","","-1","","","18","4921","2368","b","elianto","#f73b6a7A"," ","-1","0","0","[]","0","2","","","4921","132","6","3","lose","go","1"
"pit-trial","251","1782823","0.0-137.0","battery-v0.2","","""event"",""trial"",""time""
""fullscreenenter"",""1"",""3284""
","
","
","""event"",""trial"",""time""
""fullscreenenter"",""1"",""3284""
","
","","","659.8000000119209","","","18","4921","2368","f","elianto","#3366ff99"," "," ","1","0","[1513.4000000059605]","1","2","","","4921","133","8","1","win","go","1"
"pit-trial","252","1787681","0.0-138.0","battery-v0.2","","""event"",""trial"",""time""
""fullscreenenter"",""1"",""3284""
","
","
","""event"",""trial"",""time""
""fullscreenenter"",""1"",""3284""
","
","","","-1","","","18","4921","2368","b","elianto","#f73b6a7A"," ","-1","0","-10","[]","0","2","","","4921","134","6","3","lose","go","0"
"pit-trial","253","1792540","0.0-139.0","battery-v0.2","","""event"",""trial"",""time""
""fullscreenenter"",""1"",""3284""
","
","
","""event"",""trial"",""time""
""fullscreenenter"",""1"",""3284""
","
","","","-1","","","18","4921","2368","t","elianto","#f73b6a7A","-1","-1","1","0","[]","0","2","","","4921","135","7","4","lose","no-go","0"
"pit-trial","254","1796097","0.0-140.0","battery-v0.2","","""event"",""trial"",""time""
""fullscreenenter"",""1"",""3284""
","
","
","""event"",""trial"",""time""
""fullscreenenter"",""1"",""3284""
","
","","","699.4000000059605","","","18","4921","2368","n","elianto","#3366ff99"," "," ","1","+10","[1554.1000000238419]","1","2","","","4921","136","9","1","win","go","0"
"pit-trial","255","1800958","0.0-141.0","battery-v0.2","","""event"",""trial"",""time""
""fullscreenenter"",""1"",""3284""
","
","
","""event"",""trial"",""time""
""fullscreenenter"",""1"",""3284""
","
","","","-1","","","18","4921","2368","t","elianto","#f73b6a7A","-1","-1","1","0","[]","0","2","","","4921","137","7","4","lose","no-go","0"
"pit-trial","256","1804772","0.0-142.0","battery-v0.2","","""event"",""trial"",""time""
""fullscreenenter"",""1"",""3284""
","
","
","""event"",""trial"",""time""
""fullscreenenter"",""1"",""3284""
","
","","","956.1000000238419","","","18","4921","2368","f","elianto","#3366ff99"," "," ","1","+10","[1811]","1","2","","","4921","138","8","1","win","go","0"
"pit-trial","257","1808274","0.0-143.0","battery-v0.2","","""event"",""trial"",""time""
""fullscreenenter"",""1"",""3284""
","
","
","""event"",""trial"",""time""
""fullscreenenter"",""1"",""3284""
","
","","","647.5","","","18","4921","2368","n","elianto","#3366ff99"," "," ","1","0","[1498.9000000059605]","1","2","","","4921","139","9","1","win","go","1"
"pit-trial","258","1813131","0.0-144.0","battery-v0.2","","""event"",""trial"",""time""
""fullscreenenter"",""1"",""3284""
","
","
","""event"",""trial"",""time""
""fullscreenenter"",""1"",""3284""
","
","","","-1","","","18","4921","2368","b","elianto","#f73b6a7A"," ","-1","0","-10","[]","0","2","","","4921","140","6","3","lose","go","0"
"pit-instructions","259","1871823","0.0-145.0","battery-v0.2","","""event"",""trial"",""time""
""fullscreenenter"",""1"",""3284""
","
","
","""event"",""trial"",""time""
""fullscreenenter"",""1"",""3284""
","
","","[{""page_index"":0,""viewing_time"":48860.09999999404},{""page_index"":1,""viewing_time"":9827.800000011921}]","58688.20000001788","","","","","","","","","","","","","","","","","","","","","","","",""
"pit-trial","260","1875646","0.0-146.0","battery-v0.2","","""event"",""trial"",""time""
""fullscreenenter"",""1"",""3284""
","
","
","""event"",""trial"",""time""
""fullscreenenter"",""1"",""3284""
","
","","","961.1999999880791","","","18","4921","2368","d","elianto","#3366ff99"," "," ","1","0","[1811.5]","1","3","","","4921","141","1","1","win","go","1"
"pit-trial","261","1879513","0.0-147.0","battery-v0.2","","""event"",""trial"",""time""
""fullscreenenter"",""1"",""3284""
","
","
","""event"",""trial"",""time""
""fullscreenenter"",""1"",""3284""
","
","","","1011.2000000178814","","","18","4921","2368","e","elianto","#f73b6a7A","-1"," ","0","-10","[1863]","1","3","","","4921","142","2","4","lose","no-go","0"
"pit-trial","262","1883594","0.0-148.0","battery-v0.2","","""event"",""trial"",""time""
""fullscreenenter"",""1"",""3284""
","
","
","""event"",""trial"",""time""
""fullscreenenter"",""1"",""3284""
","
","","","1227","","","18","4921","2368","w","elianto","#f73b6a7A"," "," ","1","0","[2077.100000023842]","1","3","","","4921","143","3","3","lose","go","0"
"pit-trial","263","1887495","0.0-149.0","battery-v0.2","","""event"",""trial"",""time""
""fullscreenenter"",""1"",""3284""
","
","
","""event"",""trial"",""time""
""fullscreenenter"",""1"",""3284""
","
","","","1046.7999999821186","","","18","4921","2368","j","elianto","#f73b6a7A","-1"," ","0","-10","[1897.7999999821186]","1","3","","","4921","144","0","4","lose","no-go","0"
"pit-trial","264","1892354","0.0-150.0","battery-v0.2","","""event"",""trial"",""time""
""fullscreenenter"",""1"",""3284""
","
","
","""event"",""trial"",""time""
""fullscreenenter"",""1"",""3284""
","
","","","-1","","","18","4921","2368","d","elianto","#3366ff99"," ","-1","0","0","[]","0","3","","","4921","145","1","1","win","go","0"
"pit-trial","265","1896347","0.0-151.0","battery-v0.2","","""event"",""trial"",""time""
""fullscreenenter"",""1"",""3284""
","
","
","""event"",""trial"",""time""
""fullscreenenter"",""1"",""3284""
","
","","","1139.0999999940395","","","18","4921","2368","e","elianto","#f73b6a7A","-1"," ","0","0","[1990.1000000238419]","1","3","","","4921","146","2","4","lose","no-go","1"
"pit-trial","266","1901207","0.0-152.0","battery-v0.2","","""event"",""trial"",""time""
""fullscreenenter"",""1"",""3284""
","
","
","""event"",""trial"",""time""
""fullscreenenter"",""1"",""3284""
","
","","","-1","","","18","4921","2368","j","elianto","#f73b6a7A","-1","-1","1","0","[]","0","3","","","4921","147","0","4","lose","no-go","0"
