"trial_type","trial_index","time_elapsed","internal_node_id","task_version","subject_id","interactions","blur_events","focus_events","fullscreenenter_events","fullscreenexit_events","success","view_history","rt","responses","num_errors","age","subject","participantId","rune","rune_set","hex","correct","choice","accuracy","outcome","keys","total_keys","block","practice","value","sub","trial","stimulus","robot","valence","action","sham"
"pavlovia","0","6","0.0-0.0","battery-v0.2","","""event"",""trial"",""time""
""fullscreenenter"",""1"",""1391""
","
","
","""event"",""trial"",""time""
""fullscreenenter"",""1"",""1391""
","
","","","","","","","","","","","","","","","","","","","","","","","","","","",""
"fullscreen","1","2367","0.0-1.0","battery-v0.2","","""event"",""trial"",""time""
""fullscreenenter"",""1"",""1391""
","
","
","""event"",""trial"",""time""
""fullscreenenter"",""1"",""1391""
","
","true","","","","","","","","","","","","","","","","","","","","","","","","","",""
"pit-instructions","2","6942","0.0-2.0-0.0","battery-v0.2","","""event"",""trial"",""time""
""fullscreenenter"",""1"",""1391""
","
","
","""event"",""trial"",""time""
""fullscreenenter"",""1"",""1391""
","
","","[{""page_index"":0,""viewing_time"":4572.600000023842}]","4572.899999976158","","","","","","","","","","","","","","","","","","","","","","","",""
"pit-comprehension","3","9582","0.0-2.0-1.0-0.0","battery-v0.2","","""event"",""trial"",""time""
""fullscreenenter"",""1"",""1391""
","
","
","""event"",""trial"",""time""
""fullscreenenter"",""1"",""1391""
","
","","","2637.600000023842","[""shark""]","0","22","7698","3988","","","","","","","","","","","","","","","","","","",""
"pit-instructions","4","10845","0.0-2.0-1.0-1.0","battery-v0.2","","""event"",""trial"",""time""
""fullscreenenter"",""1"",""1391""
","
","
","""event"",""trial"",""time""
""fullscreenenter"",""1"",""1391""
","
","","[{""page_index"":0,""viewing_time"":1255.8999999761581}]","1256.2000000476837","","","","","","","","","","","","","","","","","","","","","","","",""
"pit-comprehension","5","13030","0.0-2.0-2.0-0.0","battery-v0.2","","""event"",""trial"",""time""
""fullscreenenter"",""1"",""1391""
","
","
","""event"",""trial"",""time""
""fullscreenenter"",""1"",""1391""
","
","","","2181.600000023842","[""tiger""]","0","22","7698","3988","","","","","","","","","","","","","","","","","","",""
"pit-instructions","6","13949","0.0-2.0-2.0-1.0","battery-v0.2","","""event"",""trial"",""time""
""fullscreenenter"",""1"",""1391""
","
","
","""event"",""trial"",""time""
""fullscreenenter"",""1"",""1391""
","
","","[{""page_index"":0,""viewing_time"":916.8999999761581}]","917.1000000238419","","","","","","","","","","","","","","","","","","","","","","","",""
"pit-instructions","7","117438","0.0-2.0-3.0","battery-v0.2","","""event"",""trial"",""time""
""fullscreenenter"",""1"",""1391""
","
","
","""event"",""trial"",""time""
""fullscreenenter"",""1"",""1391""
","
","","[{""page_index"":0,""viewing_time"":8933.200000047684},{""page_index"":1,""viewing_time"":6656.199999928474},{""page_index"":2,""viewing_time"":11767.700000047684},{""page_index"":3,""viewing_time"":5624.299999952316},{""page_index"":4,""viewing_time"":6232.100000023842},{""page_index"":5,""viewing_time"":5663.899999976158},{""page_index"":6,""viewing_time"":6528.700000047684},{""page_index"":7,""viewing_time"":6567.199999928474},{""page_index"":8,""viewing_time"":7552.200000047684},{""page_index"":9,""viewing_time"":8352},{""page_index"":10,""viewing_time"":8031.899999976158},{""page_index"":11,""viewing_time"":7888.100000023842},{""page_index"":12,""viewing_time"":6704},{""page_index"":13,""viewing_time"":6984}]","103485.79999995232","","","","","","","","","","","","","","","","","","","","","","","",""
"pit-trial","8","120863","0.0-2.0-4.0-0.0","battery-v0.2","","""event"",""trial"",""time""
""fullscreenenter"",""1"",""1391""
","
","
","""event"",""trial"",""time""
""fullscreenenter"",""1"",""1391""
","
","","","556.7000000476837","","","22","7698","3988","&#9784;","elianto","#FFFFF080"," "," ","1","&#10004","[1406.6999999284744]","1","0","0","","","","","","","",""
"pit-trial","9","124119","0.0-2.0-4.1-0.1","battery-v0.2","","""event"",""trial"",""time""
""fullscreenenter"",""1"",""1391""
","
","
","""event"",""trial"",""time""
""fullscreenenter"",""1"",""1391""
","
","","","393.1999999284744","","","22","7698","3988","&#9784;","elianto","#FFFFF080"," "," ","1","&#10004","[1248.1000000238419]","1","0","0","","","","","","","",""
"pit-trial","10","127183","0.0-2.0-4.2-0.2","battery-v0.2","","""event"",""trial"",""time""
""fullscreenenter"",""1"",""1391""
","
","
","""event"",""trial"",""time""
""fullscreenenter"",""1"",""1391""
","
","","","205.39999997615814","","","22","7698","3988","&#9784;","elianto","#FFFFF080"," "," ","1","&#10004","[1058]","1","0","0","","","","","","","",""
"pit-trial","11","130390","0.0-2.0-4.3-0.3","battery-v0.2","","""event"",""trial"",""time""
""fullscreenenter"",""1"",""1391""
","
","
","""event"",""trial"",""time""
""fullscreenenter"",""1"",""1391""
","
","","","350.7000000476837","","","22","7698","3988","&#9784;","elianto","#FFFFF080"," "," ","1","&#10004","[1201.7000000476837]","1","0","0","","","","","","","",""
"pit-trial","12","133889","0.0-2.0-4.4-0.4","battery-v0.2","","""event"",""trial"",""time""
""fullscreenenter"",""1"",""1391""
","
","
","""event"",""trial"",""time""
""fullscreenenter"",""1"",""1391""
","
","","","630.5","","","22","7698","3988","&#9784;","elianto","#FFFFF080"," "," ","1","&#10004","[1491.3999999761581]","1","0","0","","","","","","","",""
"pit-instructions","13","155974","0.0-2.0-5.0","battery-v0.2","","""event"",""trial"",""time""
""fullscreenenter"",""1"",""1391""
","
","
","""event"",""trial"",""time""
""fullscreenenter"",""1"",""1391""
","
","","[{""page_index"":0,""viewing_time"":5890},{""page_index"":1,""viewing_time"":5336.600000023842},{""page_index"":2,""viewing_time"":4974.799999952316},{""page_index"":3,""viewing_time"":5880.600000023842}]","22082.399999976158","","","","","","","","","","","","","","","","","","","","","","","",""
"pit-trial","14","160830","0.0-2.0-6.0-0.0","battery-v0.2","","""event"",""trial"",""time""
""fullscreenenter"",""1"",""1391""
","
","
","""event"",""trial"",""time""
""fullscreenenter"",""1"",""1391""
","
","","","-1","","","22","7698","3988","&#9854;","elianto","#FFFFF080","-1","-1","1","&#10004","[]","0","0","1","","","","","","","",""
"pit-trial","15","165700","0.0-2.0-6.1-0.1","battery-v0.2","","""event"",""trial"",""time""
""fullscreenenter"",""1"",""1391""
","
","
","""event"",""trial"",""time""
""fullscreenenter"",""1"",""1391""
","
","","","-1","","","22","7698","3988","&#9854;","elianto","#FFFFF080","-1","-1","1","&#10004","[]","0","0","1","","","","","","","",""
"pit-trial","16","170573","0.0-2.0-6.2-0.2","battery-v0.2","","""event"",""trial"",""time""
""fullscreenenter"",""1"",""1391""
","
","
","""event"",""trial"",""time""
""fullscreenenter"",""1"",""1391""
","
","","","-1","","","22","7698","3988","&#9854;","elianto","#FFFFF080","-1","-1","1","&#10004","[]","0","0","1","","","","","","","",""
"pit-trial","17","175448","0.0-2.0-6.3-0.3","battery-v0.2","","""event"",""trial"",""time""
""fullscreenenter"",""1"",""1391""
","
","
","""event"",""trial"",""time""
""fullscreenenter"",""1"",""1391""
","
","","","-1","","","22","7698","3988","&#9854;","elianto","#FFFFF080","-1","-1","1","&#10004","[]","0","0","1","","","","","","","",""
"pit-trial","18","180320","0.0-2.0-6.4-0.4","battery-v0.2","","""event"",""trial"",""time""
""fullscreenenter"",""1"",""1391""
","
","
","""event"",""trial"",""time""
""fullscreenenter"",""1"",""1391""
","
","","","-1","","","22","7698","3988","&#9854;","elianto","#FFFFF080","-1","-1","1","&#10004","[]","0","0","1","","","","","","","",""
"pit-instructions","19","291182","0.0-2.0-7.0","battery-v0.2","","""event"",""trial"",""time""
""fullscreenenter"",""1"",""1391""
","
","
","""event"",""trial"",""time""
""fullscreenenter"",""1"",""1391""
","
","","[{""page_index"":0,""viewing_time"":5690.099999904633},{""page_index"":1,""viewing_time"":6344.200000047684},{""page_index"":2,""viewing_time"":5481.399999976158},{""page_index"":3,""viewing_time"":5894.700000047684},{""page_index"":4,""viewing_time"":5184.199999928474},{""page_index"":5,""viewing_time"":5304.300000071526},{""page_index"":6,""viewing_time"":4392.199999928474},{""page_index"":7,""viewing_time"":7175.300000071526},{""page_index"":8,""viewing_time"":6048.399999976158},{""page_index"":9,""viewing_time"":5439.799999952316},{""page_index"":10,""viewing_time"":7759.800000071526},{""page_index"":11,""viewing_time"":4912.199999928474},{""page_index"":12,""viewing_time"":6768.100000023842},{""page_index"":13,""viewing_time"":7560},{""page_index"":14,""viewing_time"":7303.700000047684},{""page_index"":15,""viewing_time"":6248.199999928474},{""page_index"":16,""viewing_time"":6336},{""page_index"":17,""viewing_time"":7016}]","110858.89999997616","","","","","","","","","","","","","","","","","","","","","","","",""
"pit-trial","20","295122","0.0-2.0-8.0-0.0","battery-v0.2","","""event"",""trial"",""time""
""fullscreenenter"",""1"",""1391""
","
","
","""event"",""trial"",""time""
""fullscreenenter"",""1"",""1391""
","
","","","1074.2000000476837","","","22","7698","3988","&#9776;","elianto","#3366ff99"," "," ","1","+10","[1931.7000000476837]","1","0","1","","","","","","","",""
"pit-trial","21","298672","0.0-2.0-8.0-1.0","battery-v0.2","","""event"",""trial"",""time""
""fullscreenenter"",""1"",""1391""
","
","
","""event"",""trial"",""time""
""fullscreenenter"",""1"",""1391""
","
","","","678.3000000715256","","","22","7698","3988","&#9776;","elianto","#3366ff99"," "," ","1","+10","[1533]","1","0","1","","","","","","","",""
"pit-trial","22","301984","0.0-2.0-8.0-2.0","battery-v0.2","","""event"",""trial"",""time""
""fullscreenenter"",""1"",""1391""
","
","
","""event"",""trial"",""time""
""fullscreenenter"",""1"",""1391""
","
","","","452.7000000476837","","","22","7698","3988","&#9776;","elianto","#3366ff99"," "," ","1","+10","[1307.6000000238419]","1","0","1","","","","","","","",""
"pit-trial","23","305201","0.0-2.0-8.0-3.0","battery-v0.2","","""event"",""trial"",""time""
""fullscreenenter"",""1"",""1391""
","
","
","""event"",""trial"",""time""
""fullscreenenter"",""1"",""1391""
","
","","","352.7999999523163","","","22","7698","3988","&#9776;","elianto","#3366ff99"," "," ","1","0","[1206.1999999284744]","1","0","1","","","","","","","",""
"pit-trial","24","308470","0.0-2.0-8.0-4.0","battery-v0.2","","""event"",""trial"",""time""
""fullscreenenter"",""1"",""1391""
","
","
","""event"",""trial"",""time""
""fullscreenenter"",""1"",""1391""
","
","","","400.89999997615814","","","22","7698","3988","&#9776;","elianto","#3366ff99"," "," ","1","+10","[1255.6000000238419]","1","0","1","","","","","","","",""
"pit-trial","25","311747","0.0-2.0-8.1-0.1","battery-v0.2","","""event"",""trial"",""time""
""fullscreenenter"",""1"",""1391""
","
","
","""event"",""trial"",""time""
""fullscreenenter"",""1"",""1391""
","
","","","410.60000002384186","","","22","7698","3988","&#9776;","elianto","#3366ff99"," "," ","1","+10","[1267.2999999523163]","1","0","1","","","","","","","",""
"pit-trial","26","315058","0.0-2.0-8.1-1.1","battery-v0.2","","""event"",""trial"",""time""
""fullscreenenter"",""1"",""1391""
","
","
","""event"",""trial"",""time""
""fullscreenenter"",""1"",""1391""
","
","","","452.1999999284744","","","22","7698","3988","&#9776;","elianto","#3366ff99"," "," ","1","+10","[1302.5]","1","0","1","","","","","","","",""
"pit-trial","27","318235","0.0-2.0-8.1-2.1","battery-v0.2","","""event"",""trial"",""time""
""fullscreenenter"",""1"",""1391""
","
","
","""event"",""trial"",""time""
""fullscreenenter"",""1"",""1391""
","
","","","315","","","22","7698","3988","&#9776;","elianto","#3366ff99"," "," ","1","+10","[1171.2000000476837]","1","0","1","","","","","","","",""
"pit-trial","28","321485","0.0-2.0-8.1-3.1","battery-v0.2","","""event"",""trial"",""time""
""fullscreenenter"",""1"",""1391""
","
","
","""event"",""trial"",""time""
""fullscreenenter"",""1"",""1391""
","
","","","394.7999999523163","","","22","7698","3988","&#9776;","elianto","#3366ff99"," "," ","1","0","[1247]","1","0","1","","","","","","","",""
"pit-trial","29","324609","0.0-2.0-8.1-4.1","battery-v0.2","","""event"",""trial"",""time""
""fullscreenenter"",""1"",""1391""
","
","
","""event"",""trial"",""time""
""fullscreenenter"",""1"",""1391""
","
","","","270.1999999284744","","","22","7698","3988","&#9776;","elianto","#3366ff99"," "," ","1","+10","[1120.8999999761581]","1","0","1","","","","","","","",""
"pit-trial","30","327902","0.0-2.0-8.2-0.2","battery-v0.2","","""event"",""trial"",""time""
""fullscreenenter"",""1"",""1391""
","
","
","""event"",""trial"",""time""
""fullscreenenter"",""1"",""1391""
","
","","","440.2000000476837","","","22","7698","3988","&#9776;","elianto","#3366ff99"," "," ","1","+10","[1290.8000000715256]","1","0","1","","","","","","","",""
"pit-trial","31","331113","0.0-2.0-8.2-1.2","battery-v0.2","","""event"",""trial"",""time""
""fullscreenenter"",""1"",""1391""
","
","
","""event"",""trial"",""time""
""fullscreenenter"",""1"",""1391""
","
","","","357","","","22","7698","3988","&#9776;","elianto","#3366ff99"," "," ","1","+10","[1207.9000000953674]","1","0","1","","","","","","","",""
"pit-trial","32","334408","0.0-2.0-8.2-2.2","battery-v0.2","","""event"",""trial"",""time""
""fullscreenenter"",""1"",""1391""
","
","
","""event"",""trial"",""time""
""fullscreenenter"",""1"",""1391""
","
","","","441.7000000476837","","","22","7698","3988","&#9776;","elianto","#3366ff99"," "," ","1","+10","[1292.3000000715256]","1","0","1","","","","","","","",""
"pit-trial","33","337659","0.0-2.0-8.2-3.2","battery-v0.2","","""event"",""trial"",""time""
""fullscreenenter"",""1"",""1391""
","
","
","""event"",""trial"",""time""
""fullscreenenter"",""1"",""1391""
","
","","","399","","","22","7698","3988","&#9776;","elianto","#3366ff99"," "," ","1","0","[1249.3000000715256]","1","0","1","","","","","","","",""
"pit-trial","34","340956","0.0-2.0-8.2-4.2","battery-v0.2","","""event"",""trial"",""time""
""fullscreenenter"",""1"",""1391""
","
","
","""event"",""trial"",""time""
""fullscreenenter"",""1"",""1391""
","
","","","443.7000000476837","","","22","7698","3988","&#9776;","elianto","#3366ff99"," "," ","1","+10","[1294.2000000476837]","1","0","1","","","","","","","",""
"call-function","35","340958","0.0-2.0-9.0","battery-v0.2","","""event"",""trial"",""time""
""fullscreenenter"",""1"",""1391""
","
","
","""event"",""trial"",""time""
""fullscreenenter"",""1"",""1391""
","
","","","","","","","","","","","","","","","","","","","","","","","","","","",""
"pit-instructions","36","383373","0.0-2.0-10.0","battery-v0.2","","""event"",""trial"",""time""
""fullscreenenter"",""1"",""1391""
","
","
","""event"",""trial"",""time""
""fullscreenenter"",""1"",""1391""
","
","","[{""page_index"":0,""viewing_time"":8559.199999928474},{""page_index"":1,""viewing_time"":7960.700000047684},{""page_index"":2,""viewing_time"":9151.200000047684},{""page_index"":3,""viewing_time"":8888.199999928474},{""page_index"":4,""viewing_time"":7856}]","42415.60000002384","","","","","","","","","","","","","","","","","","","","","","","",""
"pit-trial","37","386924","0.0-2.0-11.0-0.0","battery-v0.2","","""event"",""trial"",""time""
""fullscreenenter"",""1"",""1391""
","
","
","""event"",""trial"",""time""
""fullscreenenter"",""1"",""1391""
","
","","","680.7000000476837","","","22","7698","3988","&#9761;","elianto","#3366ff99","-1"," ","0","0","[1535.2000000476837]","1","0","2","","","","","","","",""
"pit-trial","38","389951","0.0-2.0-11.0-1.0","battery-v0.2","","""event"",""trial"",""time""
""fullscreenenter"",""1"",""1391""
","
","
","""event"",""trial"",""time""
""fullscreenenter"",""1"",""1391""
","
","","","156.89999997615814","","","22","7698","3988","&#9761;","elianto","#3366ff99","-1"," ","0","0","[1009.1000000238419]","1","0","2","","","","","","","",""
"pit-trial","39","392905","0.0-2.0-11.0-2.0","battery-v0.2","","""event"",""trial"",""time""
""fullscreenenter"",""1"",""1391""
","
","
","""event"",""trial"",""time""
""fullscreenenter"",""1"",""1391""
","
","","","91.29999995231628","","","22","7698","3988","&#9761;","elianto","#3366ff99","-1"," ","0","0","[945.8999999761581]","1","0","2","","","","","","","",""
"pit-trial","40","397768","0.0-2.0-11.0-3.0","battery-v0.2","","""event"",""trial"",""time""
""fullscreenenter"",""1"",""1391""
","
","
","""event"",""trial"",""time""
""fullscreenenter"",""1"",""1391""
","
","","","-1","","","22","7698","3988","&#9761;","elianto","#3366ff99","-1","-1","1","0","[]","0","0","2","","","","","","","",""
"pit-trial","41","402641","0.0-2.0-11.0-4.0","battery-v0.2","","""event"",""trial"",""time""
""fullscreenenter"",""1"",""1391""
","
","
","""event"",""trial"",""time""
""fullscreenenter"",""1"",""1391""
","
","","","-1","","","22","7698","3988","&#9761;","elianto","#3366ff99","-1","-1","1","+10","[]","0","0","2","","","","","","","",""
"pit-trial","42","407508","0.0-2.0-11.1-0.1","battery-v0.2","","""event"",""trial"",""time""
""fullscreenenter"",""1"",""1391""
","
","
","""event"",""trial"",""time""
""fullscreenenter"",""1"",""1391""
","
","","","-1","","","22","7698","3988","&#9761;","elianto","#3366ff99","-1","-1","1","+10","[]","0","0","2","","","","","","","",""
"pit-trial","43","412378","0.0-2.0-11.1-1.1","battery-v0.2","","""event"",""trial"",""time""
""fullscreenenter"",""1"",""1391""
","
","
","""event"",""trial"",""time""
""fullscreenenter"",""1"",""1391""
","
","","","-1","","","22","7698","3988","&#9761;","elianto","#3366ff99","-1","-1","1","+10","[]","0","0","2","","","","","","","",""
"pit-trial","44","417233","0.0-2.0-11.1-2.1","battery-v0.2","","""event"",""trial"",""time""
""fullscreenenter"",""1"",""1391""
","
","
","""event"",""trial"",""time""
""fullscreenenter"",""1"",""1391""
","
","","","-1","","","22","7698","3988","&#9761;","elianto","#3366ff99","-1","-1","1","+10","[]","0","0","2","","","","","","","",""
"pit-trial","45","420822","0.0-2.0-11.1-3.1","battery-v0.2","","""event"",""trial"",""time""
""fullscreenenter"",""1"",""1391""
","
","
","""event"",""trial"",""time""
""fullscreenenter"",""1"",""1391""
","
","","","736.1999999284744","","","22","7698","3988","&#9761;","elianto","#3366ff99","-1"," ","0","+10","[1586.7999999523163]","1","0","2","","","","","","","",""
"pit-trial","46","424464","0.0-2.0-11.1-4.1","battery-v0.2","","""event"",""trial"",""time""
""fullscreenenter"",""1"",""1391""
","
","
","""event"",""trial"",""time""
""fullscreenenter"",""1"",""1391""
","
","","","788.6000000238419","","","22","7698","3988","&#9761;","elianto","#3366ff99","-1"," ","0","0","[1638.9000000953674]","1","0","2","","","","","","","",""
"pit-trial","47","427572","0.0-2.0-11.2-0.2","battery-v0.2","","""event"",""trial"",""time""
""fullscreenenter"",""1"",""1391""
","
","
","""event"",""trial"",""time""
""fullscreenenter"",""1"",""1391""
","
","","","255.20000004768372","","","22","7698","3988","&#9761;","elianto","#3366ff99","-1"," ","0","0","[1106.1000000238419]","1","0","2","","","","","","","",""
"pit-trial","48","430610","0.0-2.0-11.2-1.2","battery-v0.2","","""event"",""trial"",""time""
""fullscreenenter"",""1"",""1391""
","
","
","""event"",""trial"",""time""
""fullscreenenter"",""1"",""1391""
","
","","","184","","","22","7698","3988","&#9761;","elianto","#3366ff99","-1"," ","0","0","[1034.8999999761581]","1","0","2","","","","","","","",""
"pit-trial","49","433574","0.0-2.0-11.2-2.2","battery-v0.2","","""event"",""trial"",""time""
""fullscreenenter"",""1"",""1391""
","
","
","""event"",""trial"",""time""
""fullscreenenter"",""1"",""1391""
","
","","","110.89999997615814","","","22","7698","3988","&#9761;","elianto","#3366ff99","-1"," ","0","0","[962.1000000238419]","1","0","2","","","","","","","",""
"pit-trial","50","437001","0.0-2.0-11.2-3.2","battery-v0.2","","""event"",""trial"",""time""
""fullscreenenter"",""1"",""1391""
","
","
","""event"",""trial"",""time""
""fullscreenenter"",""1"",""1391""
","
","","","572.2000000476837","","","22","7698","3988","&#9761;","elianto","#3366ff99","-1"," ","0","+10","[1423.9000000953674]","1","0","2","","","","","","","",""
"pit-trial","51","440182","0.0-2.0-11.2-4.2","battery-v0.2","","""event"",""trial"",""time""
""fullscreenenter"",""1"",""1391""
","
","
","""event"",""trial"",""time""
""fullscreenenter"",""1"",""1391""
","
","","","327.90000009536743","","","22","7698","3988","&#9761;","elianto","#3366ff99","-1"," ","0","0","[1178.3000000715256]","1","0","2","","","","","","","",""
"pit-trial","52","443096","0.0-2.0-11.3-0.3","battery-v0.2","","""event"",""trial"",""time""
""fullscreenenter"",""1"",""1391""
","
","
","""event"",""trial"",""time""
""fullscreenenter"",""1"",""1391""
","
","","","52.799999952316284","","","22","7698","3988","&#9761;","elianto","#3366ff99","-1"," ","0","0","[903.7999999523163]","1","0","2","","","","","","","",""
"pit-trial","53","446183","0.0-2.0-11.3-1.3","battery-v0.2","","""event"",""trial"",""time""
""fullscreenenter"",""1"",""1391""
","
","
","""event"",""trial"",""time""
""fullscreenenter"",""1"",""1391""
","
","","","233","","","22","7698","3988","&#9761;","elianto","#3366ff99","-1"," ","0","0","[1083.8999999761581]","1","0","2","","","","","","","",""
"pit-trial","54","451039","0.0-2.0-11.3-2.3","battery-v0.2","","""event"",""trial"",""time""
""fullscreenenter"",""1"",""1391""
","
","
","""event"",""trial"",""time""
""fullscreenenter"",""1"",""1391""
","
","","","-1","","","22","7698","3988","&#9761;","elianto","#3366ff99","-1","-1","1","+10","[]","0","0","2","","","","","","","",""
"pit-trial","55","455892","0.0-2.0-11.3-3.3","battery-v0.2","","""event"",""trial"",""time""
""fullscreenenter"",""1"",""1391""
","
","
","""event"",""trial"",""time""
""fullscreenenter"",""1"",""1391""
","
","","","-1","","","22","7698","3988","&#9761;","elianto","#3366ff99","-1","-1","1","0","[]","0","0","2","","","","","","","",""
"pit-trial","56","460747","0.0-2.0-11.3-4.3","battery-v0.2","","""event"",""trial"",""time""
""fullscreenenter"",""1"",""1391""
","
","
","""event"",""trial"",""time""
""fullscreenenter"",""1"",""1391""
","
","","","-1","","","22","7698","3988","&#9761;","elianto","#3366ff99","-1","-1","1","+10","[]","0","0","2","","","","","","","",""
"call-function","57","460749","0.0-2.0-12.0","battery-v0.2","","""event"",""trial"",""time""
""fullscreenenter"",""1"",""1391""
","
","
","""event"",""trial"",""time""
""fullscreenenter"",""1"",""1391""
","
","","","","","","","","","","","","","","","","","","","","","","","","","","",""
"pit-instructions","58","492862","0.0-2.0-13.0","battery-v0.2","","""event"",""trial"",""time""
""fullscreenenter"",""1"",""1391""
","
","
","""event"",""trial"",""time""
""fullscreenenter"",""1"",""1391""
","
","","[{""page_index"":0,""viewing_time"":5911.600000023842},{""page_index"":1,""viewing_time"":8095.899999976158},{""page_index"":2,""viewing_time"":3048.100000023842},{""page_index"":3,""viewing_time"":10327.899999976158},{""page_index"":4,""viewing_time"":4728.5}]","32112.300000071526","","","","","","","","","","","","","","","","","","","","","","","",""
"pit-trial","59","496637","0.0-2.0-14.0-0.0","battery-v0.2","","""event"",""trial"",""time""
""fullscreenenter"",""1"",""1391""
","
","
","""event"",""trial"",""time""
""fullscreenenter"",""1"",""1391""
","
","","","905.8999999761581","","","22","7698","3988","&#9826;","elianto","#f73b6a7A","-1"," ","0","-10","[1758.2000000476837]","1","0","3","","","","","","","",""
"pit-trial","60","501511","0.0-2.0-14.0-1.0","battery-v0.2","","""event"",""trial"",""time""
""fullscreenenter"",""1"",""1391""
","
","
","""event"",""trial"",""time""
""fullscreenenter"",""1"",""1391""
","
","","","-1","","","22","7698","3988","&#9826;","elianto","#f73b6a7A","-1","-1","1","0","[]","0","0","3","","","","","","","",""
"pit-trial","61","504898","0.0-2.0-14.0-2.0","battery-v0.2","","""event"",""trial"",""time""
""fullscreenenter"",""1"",""1391""
","
","
","""event"",""trial"",""time""
""fullscreenenter"",""1"",""1391""
","
","","","527.5","","","22","7698","3988","&#9826;","elianto","#f73b6a7A","-1"," ","0","-10","[1384.6000000238419]","1","0","3","","","","","","","",""
"pit-trial","62","509762","0.0-2.0-14.0-3.0","battery-v0.2","","""event"",""trial"",""time""
""fullscreenenter"",""1"",""1391""
","
","
","""event"",""trial"",""time""
""fullscreenenter"",""1"",""1391""
","
","","","-1","","","22","7698","3988","&#9826;","elianto","#f73b6a7A","-1","-1","1","-10","[]","0","0","3","","","","","","","",""
"pit-trial","63","514633","0.0-2.0-14.0-4.0","battery-v0.2","","""event"",""trial"",""time""
""fullscreenenter"",""1"",""1391""
","
","
","""event"",""trial"",""time""
""fullscreenenter"",""1"",""1391""
","
","","","-1","","","22","7698","3988","&#9826;","elianto","#f73b6a7A","-1","-1","1","0","[]","0","0","3","","","","","","","",""
"pit-trial","64","519492","0.0-2.0-14.1-0.1","battery-v0.2","","""event"",""trial"",""time""
""fullscreenenter"",""1"",""1391""
","
","
","""event"",""trial"",""time""
""fullscreenenter"",""1"",""1391""
","
","","","-1","","","22","7698","3988","&#9826;","elianto","#f73b6a7A","-1","-1","1","0","[]","0","0","3","","","","","","","",""
"pit-trial","65","524349","0.0-2.0-14.1-1.1","battery-v0.2","","""event"",""trial"",""time""
""fullscreenenter"",""1"",""1391""
","
","
","""event"",""trial"",""time""
""fullscreenenter"",""1"",""1391""
","
","","","-1","","","22","7698","3988","&#9826;","elianto","#f73b6a7A","-1","-1","1","0","[]","0","0","3","","","","","","","",""
"pit-trial","66","529203","0.0-2.0-14.1-2.1","battery-v0.2","","""event"",""trial"",""time""
""fullscreenenter"",""1"",""1391""
","
","
","""event"",""trial"",""time""
""fullscreenenter"",""1"",""1391""
","
","","","-1","","","22","7698","3988","&#9826;","elianto","#f73b6a7A","-1","-1","1","0","[]","0","0","3","","","","","","","",""
"pit-trial","67","534058","0.0-2.0-14.1-3.1","battery-v0.2","","""event"",""trial"",""time""
""fullscreenenter"",""1"",""1391""
","
","
","""event"",""trial"",""time""
""fullscreenenter"",""1"",""1391""
","
","","","-1","","","22","7698","3988","&#9826;","elianto","#f73b6a7A","-1","-1","1","-10","[]","0","0","3","","","","","","","",""
"pit-trial","68","538911","0.0-2.0-14.1-4.1","battery-v0.2","","""event"",""trial"",""time""
""fullscreenenter"",""1"",""1391""
","
","
","""event"",""trial"",""time""
""fullscreenenter"",""1"",""1391""
","
","","","-1","","","22","7698","3988","&#9826;","elianto","#f73b6a7A","-1","-1","1","0","[]","0","0","3","","","","","","","",""
"pit-trial","69","543765","0.0-2.0-14.2-0.2","battery-v0.2","","""event"",""trial"",""time""
""fullscreenenter"",""1"",""1391""
","
","
","""event"",""trial"",""time""
""fullscreenenter"",""1"",""1391""
","
","","","-1","","","22","7698","3988","&#9826;","elianto","#f73b6a7A","-1","-1","1","0","[]","0","0","3","","","","","","","",""
"pit-trial","70","548620","0.0-2.0-14.2-1.2","battery-v0.2","","""event"",""trial"",""time""
""fullscreenenter"",""1"",""1391""
","
","
","""event"",""trial"",""time""
""fullscreenenter"",""1"",""1391""
","
","","","-1","","","22","7698","3988","&#9826;","elianto","#f73b6a7A","-1","-1","1","0","[]","0","0","3","","","","","","","",""
"pit-trial","71","553474","0.0-2.0-14.2-2.2","battery-v0.2","","""event"",""trial"",""time""
""fullscreenenter"",""1"",""1391""
","
","
","""event"",""trial"",""time""
""fullscreenenter"",""1"",""1391""
","
","","","-1","","","22","7698","3988","&#9826;","elianto","#f73b6a7A","-1","-1","1","0","[]","0","0","3","","","","","","","",""
"pit-trial","72","558328","0.0-2.0-14.2-3.2","battery-v0.2","","""event"",""trial"",""time""
""fullscreenenter"",""1"",""1391""
","
","
","""event"",""trial"",""time""
""fullscreenenter"",""1"",""1391""
","
","","","-1","","","22","7698","3988","&#9826;","elianto","#f73b6a7A","-1","-1","1","-10","[]","0","0","3","","","","","","","",""
"pit-trial","73","562176","0.0-2.0-14.2-4.2","battery-v0.2","","""event"",""trial"",""time""
""fullscreenenter"",""1"",""1391""
","
","
","""event"",""trial"",""time""
""fullscreenenter"",""1"",""1391""
","
","","","994.5","","","22","7698","3988","&#9826;","elianto","#f73b6a7A","-1"," ","0","-10","[1845.2000000476837]","1","0","3","","","","","","","",""
"pit-trial","74","565074","0.0-2.0-14.3-0.3","battery-v0.2","","""event"",""trial"",""time""
""fullscreenenter"",""1"",""1391""
","
","
","""event"",""trial"",""time""
""fullscreenenter"",""1"",""1391""
","
","","","39.799999952316284","","","22","7698","3988","&#9826;","elianto","#f73b6a7A","-1"," ","0","-10","[890,1135.1000000238419]","2","0","3","","","","","","","",""
"pit-trial","75","569929","0.0-2.0-14.3-1.3","battery-v0.2","","""event"",""trial"",""time""
""fullscreenenter"",""1"",""1391""
","
","
","""event"",""trial"",""time""
""fullscreenenter"",""1"",""1391""
","
","","","-1","","","22","7698","3988","&#9826;","elianto","#f73b6a7A","-1","-1","1","0","[]","0","0","3","","","","","","","",""
"pit-trial","76","574789","0.0-2.0-14.3-2.3","battery-v0.2","","""event"",""trial"",""time""
""fullscreenenter"",""1"",""1391""
","
","
","""event"",""trial"",""time""
""fullscreenenter"",""1"",""1391""
","
","","","-1","","","22","7698","3988","&#9826;","elianto","#f73b6a7A","-1","-1","1","0","[]","0","0","3","","","","","","","",""
"pit-trial","77","579643","0.0-2.0-14.3-3.3","battery-v0.2","","""event"",""trial"",""time""
""fullscreenenter"",""1"",""1391""
","
","
","""event"",""trial"",""time""
""fullscreenenter"",""1"",""1391""
","
","","","-1","","","22","7698","3988","&#9826;","elianto","#f73b6a7A","-1","-1","1","-10","[]","0","0","3","","","","","","","",""
"pit-trial","78","584498","0.0-2.0-14.3-4.3","battery-v0.2","","""event"",""trial"",""time""
""fullscreenenter"",""1"",""1391""
","
","
","""event"",""trial"",""time""
""fullscreenenter"",""1"",""1391""
","
","","","-1","","","22","7698","3988","&#9826;","elianto","#f73b6a7A","-1","-1","1","0","[]","0","0","3","","","","","","","",""
"call-function","79","584500","0.0-2.0-15.0","battery-v0.2","","""event"",""trial"",""time""
""fullscreenenter"",""1"",""1391""
","
","
","""event"",""trial"",""time""
""fullscreenenter"",""1"",""1391""
","
","","","","","","","","","","","","","","","","","","","","","","","","","","",""
"pit-instructions","80","608431","0.0-2.0-16.0","battery-v0.2","","""event"",""trial"",""time""
""fullscreenenter"",""1"",""1391""
","
","
","""event"",""trial"",""time""
""fullscreenenter"",""1"",""1391""
","
","","[{""page_index"":0,""viewing_time"":6426.599999904633},{""page_index"":1,""viewing_time"":8143.300000071526},{""page_index"":2,""viewing_time"":4544.100000023842},{""page_index"":3,""viewing_time"":4816.199999928474}]","23930.5","","","","","","","","","","","","","","","","","","","","","","","",""
"pit-trial","81","613293","0.0-2.0-17.0-0.0","battery-v0.2","","""event"",""trial"",""time""
""fullscreenenter"",""1"",""1391""
","
","
","""event"",""trial"",""time""
""fullscreenenter"",""1"",""1391""
","
","","","-1","","","22","7698","3988","&#9789;","elianto","#f73b6a7A"," ","-1","0","-10","[]","0","0","4","","","","","","","",""
"pit-trial","82","618165","0.0-2.0-17.0-1.0","battery-v0.2","","""event"",""trial"",""time""
""fullscreenenter"",""1"",""1391""
","
","
","""event"",""trial"",""time""
""fullscreenenter"",""1"",""1391""
","
","","","-1","","","22","7698","3988","&#9789;","elianto","#f73b6a7A"," ","-1","0","-10","[]","0","0","4","","","","","","","",""
"pit-trial","83","621352","0.0-2.0-17.0-2.0","battery-v0.2","","""event"",""trial"",""time""
""fullscreenenter"",""1"",""1391""
","
","
","""event"",""trial"",""time""
""fullscreenenter"",""1"",""1391""
","
","","","323.89999997615814","","","22","7698","3988","&#9789;","elianto","#f73b6a7A"," "," ","1","0","[1174.6000000238419]","1","0","4","","","","","","","",""
"pit-trial","84","624380","0.0-2.0-17.0-3.0","battery-v0.2","","""event"",""trial"",""time""
""fullscreenenter"",""1"",""1391""
","
","
","""event"",""trial"",""time""
""fullscreenenter"",""1"",""1391""
","
","","","160.19999992847443","","","22","7698","3988","&#9789;","elianto","#f73b6a7A"," "," ","1","-10","[1010.3999999761581]","1","0","4","","","","","","","",""
"pit-trial","85","627337","0.0-2.0-17.0-4.0","battery-v0.2","","""event"",""trial"",""time""
""fullscreenenter"",""1"",""1391""
","
","
","""event"",""trial"",""time""
""fullscreenenter"",""1"",""1391""
","
","","","87.79999995231628","","","22","7698","3988","&#9789;","elianto","#f73b6a7A"," "," ","1","0","[947.1999999284744]","1","0","4","","","","","","","",""
"pit-trial","86","630257","0.0-2.0-17.1-0.1","battery-v0.2","","""event"",""trial"",""time""
""fullscreenenter"",""1"",""1391""
","
","
","""event"",""trial"",""time""
""fullscreenenter"",""1"",""1391""
","
","","","57","","","22","7698","3988","&#9789;","elianto","#f73b6a7A"," "," ","1","0","[911.6000000238419]","1","0","4","","","","","","","",""
"pit-trial","87","633169","0.0-2.0-17.1-1.1","battery-v0.2","","""event"",""trial"",""time""
""fullscreenenter"",""1"",""1391""
","
","
","""event"",""trial"",""time""
""fullscreenenter"",""1"",""1391""
","
","","","45.39999997615814","","","22","7698","3988","&#9789;","elianto","#f73b6a7A"," "," ","1","0","[899.5999999046326]","1","0","4","","","","","","","",""
"pit-trial","88","636476","0.0-2.0-17.1-2.1","battery-v0.2","","""event"",""trial"",""time""
""fullscreenenter"",""1"",""1391""
","
","
","""event"",""trial"",""time""
""fullscreenenter"",""1"",""1391""
","
","","","447.10000002384186","","","22","7698","3988","&#9789;","elianto","#f73b6a7A"," "," ","1","0","[851.5,1298.7999999523163]","2","0","4","","","","","","","",""
"pit-trial","89","639493","0.0-2.0-17.1-3.1","battery-v0.2","","""event"",""trial"",""time""
""fullscreenenter"",""1"",""1391""
","
","
","""event"",""trial"",""time""
""fullscreenenter"",""1"",""1391""
","
","","","162.20000004768372","","","22","7698","3988","&#9789;","elianto","#f73b6a7A"," "," ","1","-10","[1013.6999999284744]","1","0","4","","","","","","","",""
"pit-trial","90","642631","0.0-2.0-17.1-4.1","battery-v0.2","","""event"",""trial"",""time""
""fullscreenenter"",""1"",""1391""
","
","
","""event"",""trial"",""time""
""fullscreenenter"",""1"",""1391""
","
","","","283.89999997615814","","","22","7698","3988","&#9789;","elianto","#f73b6a7A"," "," ","1","0","[1134.6999999284744]","1","0","4","","","","","","","",""
"pit-trial","91","645957","0.0-2.0-17.2-0.2","battery-v0.2","","""event"",""trial"",""time""
""fullscreenenter"",""1"",""1391""
","
","
","""event"",""trial"",""time""
""fullscreenenter"",""1"",""1391""
","
","","","471.5","","","22","7698","3988","&#9789;","elianto","#f73b6a7A"," "," ","1","0","[1322.1999999284744]","1","0","4","","","","","","","",""
"pit-trial","92","649210","0.0-2.0-17.2-1.2","battery-v0.2","","""event"",""trial"",""time""
""fullscreenenter"",""1"",""1391""
","
","
","""event"",""trial"",""time""
""fullscreenenter"",""1"",""1391""
","
","","","398.89999997615814","","","22","7698","3988","&#9789;","elianto","#f73b6a7A"," "," ","1","0","[1249.6000000238419]","1","0","4","","","","","","","",""
"pit-trial","93","652096","0.0-2.0-17.2-2.2","battery-v0.2","","""event"",""trial"",""time""
""fullscreenenter"",""1"",""1391""
","
","
","""event"",""trial"",""time""
""fullscreenenter"",""1"",""1391""
","
","","","22.799999952316284","","","22","7698","3988","&#9789;","elianto","#f73b6a7A"," "," ","1","0","[873.6000000238419]","1","0","4","","","","","","","",""
"pit-trial","94","655239","0.0-2.0-17.2-3.2","battery-v0.2","","""event"",""trial"",""time""
""fullscreenenter"",""1"",""1391""
","
","
","""event"",""trial"",""time""
""fullscreenenter"",""1"",""1391""
","
","","","288.89999997615814","","","22","7698","3988","&#9789;","elianto","#f73b6a7A"," "," ","1","-10","[1139.7000000476837]","1","0","4","","","","","","","",""
"pit-trial","95","658131","0.0-2.0-17.2-4.2","battery-v0.2","","""event"",""trial"",""time""
""fullscreenenter"",""1"",""1391""
","
","
","""event"",""trial"",""time""
""fullscreenenter"",""1"",""1391""
","
","","","37.800000071525574","","","22","7698","3988","&#9789;","elianto","#f73b6a7A"," "," ","1","0","[888.7000000476837]","1","0","4","","","","","","","",""
"pit-trial","96","661167","0.0-2.0-17.3-0.3","battery-v0.2","","""event"",""trial"",""time""
""fullscreenenter"",""1"",""1391""
","
","
","""event"",""trial"",""time""
""fullscreenenter"",""1"",""1391""
","
","","","182.19999992847443","","","22","7698","3988","&#9789;","elianto","#f73b6a7A"," "," ","1","0","[1032.6999999284744]","1","0","4","","","","","","","",""
"pit-trial","97","664174","0.0-2.0-17.3-1.3","battery-v0.2","","""event"",""trial"",""time""
""fullscreenenter"",""1"",""1391""
","
","
","""event"",""trial"",""time""
""fullscreenenter"",""1"",""1391""
","
","","","152.39999997615814","","","22","7698","3988","&#9789;","elianto","#f73b6a7A"," "," ","1","0","[1003.6000000238419]","1","0","4","","","","","","","",""
"pit-trial","98","667629","0.0-2.0-17.3-2.3","battery-v0.2","","""event"",""trial"",""time""
""fullscreenenter"",""1"",""1391""
","
","
","""event"",""trial"",""time""
""fullscreenenter"",""1"",""1391""
","
","","","601.2000000476837","","","22","7698","3988","&#9789;","elianto","#f73b6a7A"," "," ","1","0","[1452.8999999761581]","1","0","4","","","","","","","",""
"pit-trial","99","670608","0.0-2.0-17.3-3.3","battery-v0.2","","""event"",""trial"",""time""
""fullscreenenter"",""1"",""1391""
","
","
","""event"",""trial"",""time""
""fullscreenenter"",""1"",""1391""
","
","","","124.70000004768372","","","22","7698","3988","&#9789;","elianto","#f73b6a7A"," "," ","1","-10","[975.4000000953674]","1","0","4","","","","","","","",""
"pit-trial","100","673674","0.0-2.0-17.3-4.3","battery-v0.2","","""event"",""trial"",""time""
""fullscreenenter"",""1"",""1391""
","
","
","""event"",""trial"",""time""
""fullscreenenter"",""1"",""1391""
","
","","","211.29999995231628","","","22","7698","3988","&#9789;","elianto","#f73b6a7A"," "," ","1","0","[1063.1000000238419]","1","0","4","","","","","","","",""
"call-function","101","673676","0.0-2.0-18.0","battery-v0.2","","""event"",""trial"",""time""
""fullscreenenter"",""1"",""1391""
","
","
","""event"",""trial"",""time""
""fullscreenenter"",""1"",""1391""
","
","","","","","","","","","","","","","","","","","","","","","","","","","","",""
"pit-instructions","102","742269","0.0-2.0-19.0","battery-v0.2","","""event"",""trial"",""time""
""fullscreenenter"",""1"",""1391""
","
","
","""event"",""trial"",""time""
""fullscreenenter"",""1"",""1391""
","
","","[{""page_index"":0,""viewing_time"":6441},{""page_index"":1,""viewing_time"":6016.100000023842},{""page_index"":2,""viewing_time"":13896},{""page_index"":3,""viewing_time"":7640},{""page_index"":4,""viewing_time"":8384.099999904633},{""page_index"":5,""viewing_time"":8471.700000047684},{""page_index"":6,""viewing_time"":8136.299999952316},{""page_index"":7,""viewing_time"":5712.200000047684},{""page_index"":8,""viewing_time"":3895.7000000476837}]","68593.5","","","","","","","","","","","","","","","","","","","","","","","",""
"pit-comprehension","103","746822","0.0-2.0-20.0-0.0","battery-v0.2","","""event"",""trial"",""time""
""fullscreenenter"",""1"",""1391""
","
","
","""event"",""trial"",""time""
""fullscreenenter"",""1"",""1391""
","
","","","4550.399999976158","[""SPACE""]","0","22","7698","3988","","","","","","","","","","","","","","","","","","",""
"pit-instructions","104","749950","0.0-2.0-20.0-1.0","battery-v0.2","","""event"",""trial"",""time""
""fullscreenenter"",""1"",""1391""
","
","
","""event"",""trial"",""time""
""fullscreenenter"",""1"",""1391""
","
","","[{""page_index"":0,""viewing_time"":3101.3000000715256}]","3101.600000023842","","","","","","","","","","","","","","","","","","","","","","","",""
"pit-comprehension","105","755901","0.0-2.0-21.0-0.0","battery-v0.2","","""event"",""trial"",""time""
""fullscreenenter"",""1"",""1391""
","
","
","""event"",""trial"",""time""
""fullscreenenter"",""1"",""1391""
","
","","","5948.899999976158","[""10""]","0","22","7698","3988","","","","","","","","","","","","","","","","","","",""
"pit-instructions","106","758365","0.0-2.0-21.0-1.0","battery-v0.2","","""event"",""trial"",""time""
""fullscreenenter"",""1"",""1391""
","
","
","""event"",""trial"",""time""
""fullscreenenter"",""1"",""1391""
","
","","[{""page_index"":0,""viewing_time"":2441.100000023842}]","2441.399999976158","","","","","","","","","","","","","","","","","","","","","","","",""
"pit-comprehension","107","764966","0.0-2.0-22.0-0.0","battery-v0.2","","""event"",""trial"",""time""
""fullscreenenter"",""1"",""1391""
","
","
","""event"",""trial"",""time""
""fullscreenenter"",""1"",""1391""
","
","","","6598.699999928474","[""0""]","0","22","7698","3988","","","","","","","","","","","","","","","","","","",""
"pit-instructions","108","768237","0.0-2.0-22.0-1.0","battery-v0.2","","""event"",""trial"",""time""
""fullscreenenter"",""1"",""1391""
","
","
","""event"",""trial"",""time""
""fullscreenenter"",""1"",""1391""
","
","","[{""page_index"":0,""viewing_time"":3246.1999999284744}]","3246.5","","","","","","","","","","","","","","","","","","","","","","","",""
"pit-comprehension","109","791111","0.0-2.0-23.0-0.0","battery-v0.2","","""event"",""trial"",""time""
""fullscreenenter"",""1"",""1391""
","
","
","""event"",""trial"",""time""
""fullscreenenter"",""1"",""1391""
","
","","","22869.399999976158","[""True""]","0","22","7698","3988","","","","","","","","","","","","","","","","","","",""
"pit-instructions","110","793062","0.0-2.0-23.0-1.0","battery-v0.2","","""event"",""trial"",""time""
""fullscreenenter"",""1"",""1391""
","
","
","""event"",""trial"",""time""
""fullscreenenter"",""1"",""1391""
","
","","[{""page_index"":0,""viewing_time"":1928.5}]","1928.7000000476837","","","","","","","","","","","","","","","","","","","","","","","",""
"pit-comprehension","111","800422","0.0-2.0-24.0-0.0","battery-v0.2","","""event"",""trial"",""time""
""fullscreenenter"",""1"",""1391""
","
","
","""event"",""trial"",""time""
""fullscreenenter"",""1"",""1391""
","
","","","7357.5","[""True""]","0","22","7698","3988","","","","","","","","","","","","","","","","","","",""
"pit-instructions","112","802486","0.0-2.0-24.0-1.0","battery-v0.2","","""event"",""trial"",""time""
""fullscreenenter"",""1"",""1391""
","
","
","""event"",""trial"",""time""
""fullscreenenter"",""1"",""1391""
","
","","[{""page_index"":0,""viewing_time"":2040.2999999523163}]","2040.7000000476837","","","","","","","","","","","","","","","","","","","","","","","",""
"pit-comprehension","113","808655","0.0-2.0-25.0-0.0","battery-v0.2","","""event"",""trial"",""time""
""fullscreenenter"",""1"",""1391""
","
","
","""event"",""trial"",""time""
""fullscreenenter"",""1"",""1391""
","
","","","6165.799999952316","[""True""]","0","22","7698","3988","","","","","","","","","","","","","","","","","","",""
"pit-instructions","114","812751","0.0-2.0-25.0-1.0","battery-v0.2","","""event"",""trial"",""time""
""fullscreenenter"",""1"",""1391""
","
","
","""event"",""trial"",""time""
""fullscreenenter"",""1"",""1391""
","
","","[{""page_index"":0,""viewing_time"":4071.7999999523163}]","4072","","","","","","","","","","","","","","","","","","","","","","","",""
"pit-comprehension","115","818311","0.0-2.0-26.0-0.0","battery-v0.2","","""event"",""trial"",""time""
""fullscreenenter"",""1"",""1391""
","
","
","""event"",""trial"",""time""
""fullscreenenter"",""1"",""1391""
","
","","","5557.199999928474","[""False""]","0","22","7698","3988","","","","","","","","","","","","","","","","","","",""
"pit-instructions","116","820070","0.0-2.0-26.0-1.0","battery-v0.2","","""event"",""trial"",""time""
""fullscreenenter"",""1"",""1391""
","
","
","""event"",""trial"",""time""
""fullscreenenter"",""1"",""1391""
","
","","[{""page_index"":0,""viewing_time"":1734.8999999761581}]","1735.2000000476837","","","","","","","","","","","","","","","","","","","","","","","",""
"pit-instructions","117","837622","0.0-3.0","battery-v0.2","","""event"",""trial"",""time""
""fullscreenenter"",""1"",""1391""
","
","
","""event"",""trial"",""time""
""fullscreenenter"",""1"",""1391""
","
","","[{""page_index"":0,""viewing_time"":3661.7999999523163},{""page_index"":1,""viewing_time"":6504.100000023842},{""page_index"":2,""viewing_time"":7383.899999976158}]","17550.100000023842","","","","","","","","","","","","","","","","","","","","","","","",""
"pit-trial","118","841581","0.0-4.0","battery-v0.2","","""event"",""trial"",""time""
""fullscreenenter"",""1"",""1391""
","
","
","""event"",""trial"",""time""
""fullscreenenter"",""1"",""1391""
","
","","","1093.2000000476837","","","22","7698","3988","&#9728;","elianto","#f73b6a7A","-1"," ","0","-10","[1952.3999999761581]","1","1","","","7698","1","0","4","lose","no-go","0"
"pit-trial","119","844964","0.0-5.0","battery-v0.2","","""event"",""trial"",""time""
""fullscreenenter"",""1"",""1391""
","
","
","""event"",""trial"",""time""
""fullscreenenter"",""1"",""1391""
","
","","","523.8000000715256","","","22","7698","3988","&#9733;","elianto","#3366ff99","-1"," ","0","0","[1376.8999999761581]","1","1","","","7698","2","2","2","win","no-go","0"
"pit-trial","120","848211","0.0-6.0","battery-v0.2","","""event"",""trial"",""time""
""fullscreenenter"",""1"",""1391""
","
","
","""event"",""trial"",""time""
""fullscreenenter"",""1"",""1391""
","
","","","386.1999999284744","","","22","7698","3988","&#9730;","elianto","#3366ff99"," "," ","1","+10","[1245.1000000238419]","1","1","","","7698","3","1","1","win","go","0"
"pit-trial","121","851853","0.0-7.0","battery-v0.2","","""event"",""trial"",""time""
""fullscreenenter"",""1"",""1391""
","
","
","""event"",""trial"",""time""
""fullscreenenter"",""1"",""1391""
","
","","","784.6999999284744","","","22","7698","3988","&#9752;","elianto","#f73b6a7A"," "," ","1","-10","[1637.1000000238419]","1","1","","","7698","4","3","3","lose","go","1"
"pit-trial","122","855104","0.0-8.0","battery-v0.2","","""event"",""trial"",""time""
""fullscreenenter"",""1"",""1391""
","
","
","""event"",""trial"",""time""
""fullscreenenter"",""1"",""1391""
","
","","","381.90000009536743","","","22","7698","3988","&#9752;","elianto","#f73b6a7A"," "," ","1","0","[1233.6000000238419]","1","1","","","7698","5","3","3","lose","go","0"
"pit-trial","123","858376","0.0-9.0","battery-v0.2","","""event"",""trial"",""time""
""fullscreenenter"",""1"",""1391""
","
","
","""event"",""trial"",""time""
""fullscreenenter"",""1"",""1391""
","
","","","400.89999997615814","","","22","7698","3988","&#9733;","elianto","#3366ff99","-1"," ","0","0","[1264.1000000238419]","1","1","","","7698","6","2","2","win","no-go","0"
"pit-trial","124","861979","0.0-10.0","battery-v0.2","","""event"",""trial"",""time""
""fullscreenenter"",""1"",""1391""
","
","
","""event"",""trial"",""time""
""fullscreenenter"",""1"",""1391""
","
","","","737","","","22","7698","3988","&#9728;","elianto","#f73b6a7A","-1"," ","0","0","[1589.2999999523163]","1","1","","","7698","7","0","4","lose","no-go","1"
"pit-trial","125","865655","0.0-11.0","battery-v0.2","","""event"",""trial"",""time""
""fullscreenenter"",""1"",""1391""
","
","
","""event"",""trial"",""time""
""fullscreenenter"",""1"",""1391""
","
","","","810.7000000476837","","","22","7698","3988","&#9730;","elianto","#3366ff99"," "," ","1","+10","[1671.7000000476837]","1","1","","","7698","8","1","1","win","go","0"
"pit-trial","126","869108","0.0-12.0","battery-v0.2","","""event"",""trial"",""time""
""fullscreenenter"",""1"",""1391""
","
","
","""event"",""trial"",""time""
""fullscreenenter"",""1"",""1391""
","
","","","594.6999999284744","","","22","7698","3988","&#9733;","elianto","#3366ff99","-1"," ","0","+10","[1449.6999999284744]","1","1","","","7698","9","2","2","win","no-go","1"
"pit-trial","127","872419","0.0-13.0","battery-v0.2","","""event"",""trial"",""time""
""fullscreenenter"",""1"",""1391""
","
","
","""event"",""trial"",""time""
""fullscreenenter"",""1"",""1391""
","
","","","456.89999997615814","","","22","7698","3988","&#9730;","elianto","#3366ff99"," "," ","1","+10","[1307.2999999523163]","1","1","","","7698","10","1","1","win","go","0"
"pit-trial","128","875700","0.0-14.0","battery-v0.2","","""event"",""trial"",""time""
""fullscreenenter"",""1"",""1391""
","
","
","""event"",""trial"",""time""
""fullscreenenter"",""1"",""1391""
","
","","","428","","","22","7698","3988","&#9728;","elianto","#f73b6a7A","-1"," ","0","0","[1278.3999999761581]","1","1","","","7698","11","0","4","lose","no-go","1"
"pit-trial","129","878938","0.0-15.0","battery-v0.2","","""event"",""trial"",""time""
""fullscreenenter"",""1"",""1391""
","
","
","""event"",""trial"",""time""
""fullscreenenter"",""1"",""1391""
","
","","","383","","","22","7698","3988","&#9752;","elianto","#f73b6a7A"," "," ","1","0","[1234.4000000953674]","1","1","","","7698","12","3","3","lose","go","0"
"pit-trial","130","881989","0.0-16.0","battery-v0.2","","""event"",""trial"",""time""
""fullscreenenter"",""1"",""1391""
","
","
","""event"",""trial"",""time""
""fullscreenenter"",""1"",""1391""
","
","","","196.5","","","22","7698","3988","&#9733;","elianto","#3366ff99","-1"," ","0","0","[1047.2000000476837]","1","1","","","7698","13","2","2","win","no-go","0"
"pit-trial","131","885039","0.0-17.0","battery-v0.2","","""event"",""trial"",""time""
""fullscreenenter"",""1"",""1391""
","
","
","""event"",""trial"",""time""
""fullscreenenter"",""1"",""1391""
","
","","","196.5","","","22","7698","3988","&#9730;","elianto","#3366ff99"," "," ","1","+10","[1046.8000000715256]","1","1","","","7698","14","1","1","win","go","0"
"pit-trial","132","888219","0.0-18.0","battery-v0.2","","""event"",""trial"",""time""
""fullscreenenter"",""1"",""1391""
","
","
","""event"",""trial"",""time""
""fullscreenenter"",""1"",""1391""
","
","","","325.60000002384186","","","22","7698","3988","&#9728;","elianto","#f73b6a7A","-1"," ","0","-10","[1177]","1","1","","","7698","15","0","4","lose","no-go","0"
"pit-trial","133","891184","0.0-19.0","battery-v0.2","","""event"",""trial"",""time""
""fullscreenenter"",""1"",""1391""
","
","
","""event"",""trial"",""time""
""fullscreenenter"",""1"",""1391""
","
","","","111.89999997615814","","","22","7698","3988","&#9752;","elianto","#f73b6a7A"," "," ","1","0","[962]","1","1","","","7698","16","3","3","lose","go","0"
"pit-trial","134","894048","0.0-20.0","battery-v0.2","","""event"",""trial"",""time""
""fullscreenenter"",""1"",""1391""
","
","
","""event"",""trial"",""time""
""fullscreenenter"",""1"",""1391""
","
","","","10.899999976158142","","","22","7698","3988","&#9752;","elianto","#f73b6a7A"," "," ","1","-10","[861.5]","1","1","","","7698","17","3","3","lose","go","1"
"pit-trial","135","897373","0.0-21.0","battery-v0.2","","""event"",""trial"",""time""
""fullscreenenter"",""1"",""1391""
","
","
","""event"",""trial"",""time""
""fullscreenenter"",""1"",""1391""
","
","","","471","","","22","7698","3988","&#9730;","elianto","#3366ff99"," "," ","1","+10","[818.2999999523163,1322.0999999046326]","2","1","","","7698","18","1","1","win","go","0"
"pit-trial","136","900313","0.0-22.0","battery-v0.2","","""event"",""trial"",""time""
""fullscreenenter"",""1"",""1391""
","
","
","""event"",""trial"",""time""
""fullscreenenter"",""1"",""1391""
","
","","","83.70000004768372","","","22","7698","3988","&#9728;","elianto","#f73b6a7A","-1"," ","0","-10","[933.9000000953674]","1","1","","","7698","19","0","4","lose","no-go","0"
"pit-trial","137","903304","0.0-23.0","battery-v0.2","","""event"",""trial"",""time""
""fullscreenenter"",""1"",""1391""
","
","
","""event"",""trial"",""time""
""fullscreenenter"",""1"",""1391""
","
","","","136.70000004768372","","","22","7698","3988","&#9733;","elianto","#3366ff99","-1"," ","0","0","[987.7999999523163]","1","1","","","7698","20","2","2","win","no-go","0"
"pit-instructions","138","916294","0.0-24.0","battery-v0.2","","""event"",""trial"",""time""
""fullscreenenter"",""1"",""1391""
","
","
","""event"",""trial"",""time""
""fullscreenenter"",""1"",""1391""
","
","","[{""page_index"":0,""viewing_time"":6387.900000095367},{""page_index"":1,""viewing_time"":6599.899999976158}]","12988.100000023842","","","","","","","","","","","","","","","","","","","","","","","",""
"pit-trial","139","919709","0.0-25.0","battery-v0.2","","""event"",""trial"",""time""
""fullscreenenter"",""1"",""1391""
","
","
","""event"",""trial"",""time""
""fullscreenenter"",""1"",""1391""
","
","","","548.2000000476837","","","22","7698","3988","n","elianto","#f73b6a7A"," "," ","1","0","[1411]","1","2","","","7698","21","0","3","lose","go","0"
"pit-trial","140","923097","0.0-26.0","battery-v0.2","","""event"",""trial"",""time""
""fullscreenenter"",""1"",""1391""
","
","
","""event"",""trial"",""time""
""fullscreenenter"",""1"",""1391""
","
","","","526","","","22","7698","3988","t","elianto","#f73b6a7A"," "," ","1","0","[833.5999999046326,1381.0999999046326]","2","2","","","7698","22","2","3","lose","go","0"
"pit-trial","141","926331","0.0-27.0","battery-v0.2","","""event"",""trial"",""time""
""fullscreenenter"",""1"",""1391""
","
","
","""event"",""trial"",""time""
""fullscreenenter"",""1"",""1391""
","
","","","377.7000000476837","","","22","7698","3988","f","elianto","#3366ff99","-1"," ","0","+10","[1230.1000000238419]","1","2","","","7698","23","1","2","win","no-go","1"
"pit-trial","142","929521","0.0-28.0","battery-v0.2","","""event"",""trial"",""time""
""fullscreenenter"",""1"",""1391""
","
","
","""event"",""trial"",""time""
""fullscreenenter"",""1"",""1391""
","
","","","322.2999999523163","","","22","7698","3988","b","elianto","#f73b6a7A","-1"," ","0","-10","[1177.6999999284744]","1","2","","","7698","24","3","4","lose","no-go","0"
"pit-trial","143","932667","0.0-29.0","battery-v0.2","","""event"",""trial"",""time""
""fullscreenenter"",""1"",""1391""
","
","
","""event"",""trial"",""time""
""fullscreenenter"",""1"",""1391""
","
","","","288.2999999523163","","","22","7698","3988","n","elianto","#f73b6a7A"," "," ","1","0","[764.6000000238419,1138.7999999523163]","2","2","","","7698","25","0","3","lose","go","0"
"pit-trial","144","935640","0.0-30.0","battery-v0.2","","""event"",""trial"",""time""
""fullscreenenter"",""1"",""1391""
","
","
","""event"",""trial"",""time""
""fullscreenenter"",""1"",""1391""
","
","","","120","","","22","7698","3988","f","elianto","#3366ff99","-1"," ","0","0","[728.2000000476837,971.3000000715256]","2","2","","","7698","26","1","2","win","no-go","0"
"pit-trial","145","938780","0.0-31.0","battery-v0.2","","""event"",""trial"",""time""
""fullscreenenter"",""1"",""1391""
","
","
","""event"",""trial"",""time""
""fullscreenenter"",""1"",""1391""
","
","","","283.8000000715256","","","22","7698","3988","t","elianto","#f73b6a7A"," "," ","1","0","[1134.5]","1","2","","","7698","27","2","3","lose","go","0"
"pit-trial","146","941845","0.0-32.0","battery-v0.2","","""event"",""trial"",""time""
""fullscreenenter"",""1"",""1391""
","
","
","""event"",""trial"",""time""
""fullscreenenter"",""1"",""1391""
","
","","","207.60000002384186","","","22","7698","3988","b","elianto","#f73b6a7A","-1"," ","0","-10","[1060.3999999761581]","1","2","","","7698","28","3","4","lose","no-go","0"
"pit-trial","147","944742","0.0-33.0","battery-v0.2","","""event"",""trial"",""time""
""fullscreenenter"",""1"",""1391""
","
","
","""event"",""trial"",""time""
""fullscreenenter"",""1"",""1391""
","
","","","35.200000047683716","","","22","7698","3988","b","elianto","#f73b6a7A","-1"," ","0","0","[887.2999999523163]","1","2","","","7698","29","3","4","lose","no-go","1"
"pit-trial","148","947698","0.0-34.0","battery-v0.2","","""event"",""trial"",""time""
""fullscreenenter"",""1"",""1391""
","
","
","""event"",""trial"",""time""
""fullscreenenter"",""1"",""1391""
","
","","","89.60000002384186","","","22","7698","3988","n","elianto","#f73b6a7A"," "," ","1","-10","[952.5]","1","2","","","7698","30","0","3","lose","go","1"
"pit-trial","149","951007","0.0-35.0","battery-v0.2","","""event"",""trial"",""time""
""fullscreenenter"",""1"",""1391""
","
","
","""event"",""trial"",""time""
""fullscreenenter"",""1"",""1391""
","
","","","455.8000000715256","","","22","7698","3988","t","elianto","#f73b6a7A"," "," ","1","0","[414.2999999523163,788.2000000476837,1306.2000000476837]","3","2","","","7698","31","2","3","lose","go","0"
"pit-trial","150","953973","0.0-36.0","battery-v0.2","","""event"",""trial"",""time""
""fullscreenenter"",""1"",""1391""
","
","
","""event"",""trial"",""time""
""fullscreenenter"",""1"",""1391""
","
","","","112","","","22","7698","3988","f","elianto","#3366ff99","-1"," ","0","0","[963]","1","2","","","7698","32","1","2","win","no-go","0"
"pit-trial","151","957296","0.0-37.0","battery-v0.2","","""event"",""trial"",""time""
""fullscreenenter"",""1"",""1391""
","
","
","""event"",""trial"",""time""
""fullscreenenter"",""1"",""1391""
","
","","","470.2999999523163","","","22","7698","3988","f","elianto","#3366ff99","-1"," ","0","0","[1320.3999999761581]","1","2","","","7698","33","1","2","win","no-go","0"
"pit-trial","152","960433","0.0-38.0","battery-v0.2","","""event"",""trial"",""time""
""fullscreenenter"",""1"",""1391""
","
","
","""event"",""trial"",""time""
""fullscreenenter"",""1"",""1391""
","
","","","283.60000002384186","","","22","7698","3988","n","elianto","#f73b6a7A"," "," ","1","0","[1133.8000000715256]","1","2","","","7698","34","0","3","lose","go","0"
"pit-trial","153","963657","0.0-39.0","battery-v0.2","","""event"",""trial"",""time""
""fullscreenenter"",""1"",""1391""
","
","
","""event"",""trial"",""time""
""fullscreenenter"",""1"",""1391""
","
","","","371.2999999523163","","","22","7698","3988","b","elianto","#f73b6a7A","-1"," ","0","-10","[1221.7000000476837]","1","2","","","7698","35","3","4","lose","no-go","0"
"pit-trial","154","967066","0.0-40.0","battery-v0.2","","""event"",""trial"",""time""
""fullscreenenter"",""1"",""1391""
","
","
","""event"",""trial"",""time""
""fullscreenenter"",""1"",""1391""
","
","","","555.8000000715256","","","22","7698","3988","t","elianto","#f73b6a7A"," "," ","1","0","[1405.9000000953674]","1","2","","","7698","36","2","3","lose","go","0"
"pit-trial","155","970219","0.0-41.0","battery-v0.2","","""event"",""trial"",""time""
""fullscreenenter"",""1"",""1391""
","
","
","""event"",""trial"",""time""
""fullscreenenter"",""1"",""1391""
","
","","","298.89999997615814","","","22","7698","3988","n","elianto","#f73b6a7A"," "," ","1","0","[1149.2999999523163]","1","2","","","7698","37","0","3","lose","go","0"
"pit-trial","156","973239","0.0-42.0","battery-v0.2","","""event"",""trial"",""time""
""fullscreenenter"",""1"",""1391""
","
","
","""event"",""trial"",""time""
""fullscreenenter"",""1"",""1391""
","
","","","167.80000007152557","","","22","7698","3988","t","elianto","#f73b6a7A"," "," ","1","0","[1018.6000000238419]","1","2","","","7698","38","2","3","lose","go","0"
"pit-trial","157","976104","0.0-43.0","battery-v0.2","","""event"",""trial"",""time""
""fullscreenenter"",""1"",""1391""
","
","
","""event"",""trial"",""time""
""fullscreenenter"",""1"",""1391""
","
","","","11.100000023841858","","","22","7698","3988","f","elianto","#3366ff99","-1"," ","0","0","[861.8000000715256]","1","2","","","7698","39","1","2","win","no-go","0"
"pit-trial","158","979012","0.0-44.0","battery-v0.2","","""event"",""trial"",""time""
""fullscreenenter"",""1"",""1391""
","
","
","""event"",""trial"",""time""
""fullscreenenter"",""1"",""1391""
","
","","","53.800000071525574","","","22","7698","3988","b","elianto","#f73b6a7A","-1"," ","0","-10","[903.8999999761581]","1","2","","","7698","40","3","4","lose","no-go","0"
"pit-trial","159","981947","0.0-45.0","battery-v0.2","","""event"",""trial"",""time""
""fullscreenenter"",""1"",""1391""
","
","
","""event"",""trial"",""time""
""fullscreenenter"",""1"",""1391""
","
","","","82.19999992847443","","","22","7698","3988","b","elianto","#f73b6a7A","-1"," ","0","-10","[932.3999999761581]","1","2","","","7698","41","3","4","lose","no-go","0"
"pit-trial","160","984983","0.0-46.0","battery-v0.2","","""event"",""trial"",""time""
""fullscreenenter"",""1"",""1391""
","
","
","""event"",""trial"",""time""
""fullscreenenter"",""1"",""1391""
","
","","","183.30000007152557","","","22","7698","3988","n","elianto","#f73b6a7A"," "," ","1","0","[1033.8000000715256]","1","2","","","7698","42","0","3","lose","go","0"
"pit-trial","161","987962","0.0-47.0","battery-v0.2","","""event"",""trial"",""time""
""fullscreenenter"",""1"",""1391""
","
","
","""event"",""trial"",""time""
""fullscreenenter"",""1"",""1391""
","
","","","125.29999995231628","","","22","7698","3988","f","elianto","#3366ff99","-1"," ","0","+10","[975.8000000715256]","1","2","","","7698","43","1","2","win","no-go","1"
"pit-trial","162","990826","0.0-48.0","battery-v0.2","","""event"",""trial"",""time""
""fullscreenenter"",""1"",""1391""
","
","
","""event"",""trial"",""time""
""fullscreenenter"",""1"",""1391""
","
","","","11.599999904632568","","","22","7698","3988","t","elianto","#f73b6a7A"," "," ","1","0","[861.6999999284744]","1","2","","","7698","44","2","3","lose","go","0"
"pit-trial","163","994324","0.0-49.0","battery-v0.2","","""event"",""trial"",""time""
""fullscreenenter"",""1"",""1391""
","
","
","""event"",""trial"",""time""
""fullscreenenter"",""1"",""1391""
","
","","","644.3999999761581","","","22","7698","3988","t","elianto","#f73b6a7A"," "," ","1","-10","[759.2999999523163,1495]","2","2","","","7698","45","2","3","lose","go","1"
"pit-trial","164","999059","0.0-50.0","battery-v0.2","","""event"",""trial"",""time""
""fullscreenenter"",""1"",""1391""
","
","
","""event"",""trial"",""time""
""fullscreenenter"",""1"",""1391""
","
","","","1881","","","22","7698","3988","b","elianto","#f73b6a7A","-1"," ","0","0","[817.3999999761581,2732.5]","2","2","","","7698","46","3","4","lose","no-go","1"
"pit-trial","165","1002110","0.0-51.0","battery-v0.2","","""event"",""trial"",""time""
""fullscreenenter"",""1"",""1391""
","
","
","""event"",""trial"",""time""
""fullscreenenter"",""1"",""1391""
","
","","","197.09999990463257","","","22","7698","3988","f","elianto","#3366ff99","-1"," ","0","0","[1047.7999999523163]","1","2","","","7698","47","1","2","win","no-go","0"
"pit-trial","166","1005248","0.0-52.0","battery-v0.2","","""event"",""trial"",""time""
""fullscreenenter"",""1"",""1391""
","
","
","""event"",""trial"",""time""
""fullscreenenter"",""1"",""1391""
","
","","","283.5","","","22","7698","3988","n","elianto","#f73b6a7A"," "," ","1","0","[1135.1000000238419]","1","2","","","7698","48","0","3","lose","go","0"
"pit-trial","167","1008401","0.0-53.0","battery-v0.2","","""event"",""trial"",""time""
""fullscreenenter"",""1"",""1391""
","
","
","""event"",""trial"",""time""
""fullscreenenter"",""1"",""1391""
","
","","","298.6999999284744","","","22","7698","3988","n","elianto","#f73b6a7A"," "," ","1","0","[1149,3121.100000023842]","2","2","","","7698","49","0","3","lose","go","0"
"pit-trial","168","1011581","0.0-54.0","battery-v0.2","","""event"",""trial"",""time""
""fullscreenenter"",""1"",""1391""
","
","
","""event"",""trial"",""time""
""fullscreenenter"",""1"",""1391""
","
","","","325.90000009536743","","","22","7698","3988","b","elianto","#f73b6a7A","-1"," ","0","-10","[1176.8000000715256]","1","2","","","7698","50","3","4","lose","no-go","0"
"pit-trial","169","1014604","0.0-55.0","battery-v0.2","","""event"",""trial"",""time""
""fullscreenenter"",""1"",""1391""
","
","
","""event"",""trial"",""time""
""fullscreenenter"",""1"",""1391""
","
","","","170.5","","","22","7698","3988","t","elianto","#f73b6a7A"," "," ","1","0","[1020.7000000476837]","1","2","","","7698","51","2","3","lose","go","0"
"pit-trial","170","1017569","0.0-56.0","battery-v0.2","","""event"",""trial"",""time""
""fullscreenenter"",""1"",""1391""
","
","
","""event"",""trial"",""time""
""fullscreenenter"",""1"",""1391""
","
","","","111.19999992847443","","","22","7698","3988","f","elianto","#3366ff99","-1"," ","0","0","[961.8999999761581]","1","2","","","7698","52","1","2","win","no-go","0"
"pit-trial","171","1020994","0.0-57.0","battery-v0.2","","""event"",""trial"",""time""
""fullscreenenter"",""1"",""1391""
","
","
","""event"",""trial"",""time""
""fullscreenenter"",""1"",""1391""
","
","","","572.1999999284744","","","22","7698","3988","f","elianto","#3366ff99","-1"," ","0","0","[832.2000000476837,1422.2000000476837]","2","2","","","7698","53","1","2","win","no-go","0"
"pit-trial","172","1024004","0.0-58.0","battery-v0.2","","""event"",""trial"",""time""
""fullscreenenter"",""1"",""1391""
","
","
","""event"",""trial"",""time""
""fullscreenenter"",""1"",""1391""
","
","","","156.10000002384186","","","22","7698","3988","n","elianto","#f73b6a7A"," "," ","1","-10","[1006.4000000953674]","1","2","","","7698","54","0","3","lose","go","1"
"pit-trial","173","1027083","0.0-59.0","battery-v0.2","","""event"",""trial"",""time""
""fullscreenenter"",""1"",""1391""
","
","
","""event"",""trial"",""time""
""fullscreenenter"",""1"",""1391""
","
","","","225.20000004768372","","","22","7698","3988","b","elianto","#f73b6a7A","-1"," ","0","0","[1076]","1","2","","","7698","55","3","4","lose","no-go","1"
"pit-trial","174","1030436","0.0-60.0","battery-v0.2","","""event"",""trial"",""time""
""fullscreenenter"",""1"",""1391""
","
","
","""event"",""trial"",""time""
""fullscreenenter"",""1"",""1391""
","
","","","499.3000000715256","","","22","7698","3988","t","elianto","#f73b6a7A"," "," ","1","-10","[1350.2000000476837]","1","2","","","7698","56","2","3","lose","go","1"
"pit-trial","175","1033344","0.0-61.0","battery-v0.2","","""event"",""trial"",""time""
""fullscreenenter"",""1"",""1391""
","
","
","""event"",""trial"",""time""
""fullscreenenter"",""1"",""1391""
","
","","","53.10000002384186","","","22","7698","3988","t","elianto","#f73b6a7A"," "," ","1","0","[904.2000000476837,1322.1000000238419]","2","2","","","7698","57","2","3","lose","go","0"
"pit-trial","176","1036539","0.0-62.0","battery-v0.2","","""event"",""trial"",""time""
""fullscreenenter"",""1"",""1391""
","
","
","""event"",""trial"",""time""
""fullscreenenter"",""1"",""1391""
","
","","","341.8000000715256","","","22","7698","3988","n","elianto","#f73b6a7A"," "," ","1","0","[818.1999999284744,1191.8999999761581]","2","2","","","7698","58","0","3","lose","go","0"
"pit-trial","177","1039636","0.0-63.0","battery-v0.2","","""event"",""trial"",""time""
""fullscreenenter"",""1"",""1391""
","
","
","""event"",""trial"",""time""
""fullscreenenter"",""1"",""1391""
","
","","","243.10000002384186","","","22","7698","3988","b","elianto","#f73b6a7A","-1"," ","0","-10","[819,1093.0999999046326]","2","2","","","7698","59","3","4","lose","no-go","0"
"pit-trial","178","1042960","0.0-64.0","battery-v0.2","","""event"",""trial"",""time""
""fullscreenenter"",""1"",""1391""
","
","
","""event"",""trial"",""time""
""fullscreenenter"",""1"",""1391""
","
","","","470","","","22","7698","3988","c","elianto","#3366ff99"," "," ","1","0","[1320.3000000715256]","1","2","","","7698","60","4","1","win","go","1"
"pit-trial","179","1045995","0.0-65.0","battery-v0.2","","""event"",""trial"",""time""
""fullscreenenter"",""1"",""1391""
","
","
","""event"",""trial"",""time""
""fullscreenenter"",""1"",""1391""
","
","","","182.79999995231628","","","22","7698","3988","b","elianto","#f73b6a7A","-1"," ","0","0","[717,1032.8999999761581]","2","2","","","7698","61","3","4","lose","no-go","1"
"pit-trial","180","1049062","0.0-66.0","battery-v0.2","","""event"",""trial"",""time""
""fullscreenenter"",""1"",""1391""
","
","
","""event"",""trial"",""time""
""fullscreenenter"",""1"",""1391""
","
","","","213.10000002384186","","","22","7698","3988","f","elianto","#3366ff99","-1"," ","0","0","[1064.1000000238419]","1","2","","","7698","62","1","2","win","no-go","0"
"pit-trial","181","1052186","0.0-67.0","battery-v0.2","","""event"",""trial"",""time""
""fullscreenenter"",""1"",""1391""
","
","
","""event"",""trial"",""time""
""fullscreenenter"",""1"",""1391""
","
","","","269.5","","","22","7698","3988","c","elianto","#3366ff99"," "," ","1","+10","[1121.5]","1","2","","","7698","63","4","1","win","go","0"
"pit-trial","182","1055726","0.0-68.0","battery-v0.2","","""event"",""trial"",""time""
""fullscreenenter"",""1"",""1391""
","
","
","""event"",""trial"",""time""
""fullscreenenter"",""1"",""1391""
","
","","","686","","","22","7698","3988","t","elianto","#f73b6a7A"," "," ","1","-10","[645.4000000953674,1537,3235]","3","2","","","7698","64","2","3","lose","go","1"
"pit-trial","183","1059310","0.0-69.0","battery-v0.2","","""event"",""trial"",""time""
""fullscreenenter"",""1"",""1391""
","
","
","""event"",""trial"",""time""
""fullscreenenter"",""1"",""1391""
","
","","","730.1999999284744","","","22","7698","3988","c","elianto","#3366ff99"," "," ","1","0","[1580.1999999284744]","1","2","","","7698","65","4","1","win","go","1"
"pit-trial","184","1063599","0.0-70.0","battery-v0.2","","""event"",""trial"",""time""
""fullscreenenter"",""1"",""1391""
","
","
","""event"",""trial"",""time""
""fullscreenenter"",""1"",""1391""
","
","","","1434","","","22","7698","3988","z","elianto","#3366ff99","-1"," ","0","+10","[458,2285.8000000715256]","2","2","","","7698","66","5","2","win","no-go","1"
"pit-trial","185","1068454","0.0-71.0","battery-v0.2","","""event"",""trial"",""time""
""fullscreenenter"",""1"",""1391""
","
","
","""event"",""trial"",""time""
""fullscreenenter"",""1"",""1391""
","
","","","-1","","","22","7698","3988","f","elianto","#3366ff99","-1","-1","1","+10","[212.10000002384186,2945.899999976158]","2","2","","","7698","67","1","2","win","no-go","0"
"pit-trial","186","1071874","0.0-72.0","battery-v0.2","","""event"",""trial"",""time""
""fullscreenenter"",""1"",""1391""
","
","
","""event"",""trial"",""time""
""fullscreenenter"",""1"",""1391""
","
","","","566.7999999523163","","","22","7698","3988","b","elianto","#f73b6a7A","-1"," ","0","-10","[178.79999995231628,1417]","2","2","","","7698","68","3","4","lose","no-go","0"
"pit-trial","187","1075442","0.0-73.0","battery-v0.2","","""event"",""trial"",""time""
""fullscreenenter"",""1"",""1391""
","
","
","""event"",""trial"",""time""
""fullscreenenter"",""1"",""1391""
","
","","","715.6000000238419","","","22","7698","3988","z","elianto","#3366ff99","-1"," ","0","0","[1565.7000000476837]","1","2","","","7698","69","5","2","win","no-go","0"
"pit-trial","188","1080296","0.0-74.0","battery-v0.2","","""event"",""trial"",""time""
""fullscreenenter"",""1"",""1391""
","
","
","""event"",""trial"",""time""
""fullscreenenter"",""1"",""1391""
","
","","","-1","","","22","7698","3988","f","elianto","#3366ff99","-1","-1","1","+10","[3667.4000000953674]","1","2","","","7698","70","1","2","win","no-go","0"
"pit-trial","189","1083880","0.0-75.0","battery-v0.2","","""event"",""trial"",""time""
""fullscreenenter"",""1"",""1391""
","
","
","""event"",""trial"",""time""
""fullscreenenter"",""1"",""1391""
","
","","","725.3999999761581","","","22","7698","3988","c","elianto","#3366ff99"," "," ","1","+10","[1576.3999999761581]","1","2","","","7698","71","4","1","win","go","0"
"pit-trial","190","1087287","0.0-76.0","battery-v0.2","","""event"",""trial"",""time""
""fullscreenenter"",""1"",""1391""
","
","
","""event"",""trial"",""time""
""fullscreenenter"",""1"",""1391""
","
","","","552.8999999761581","","","22","7698","3988","t","elianto","#f73b6a7A"," "," ","1","0","[540.6000000238419,1403.6000000238419,2022.6000000238419]","3","2","","","7698","72","2","3","lose","go","0"
"pit-trial","191","1090597","0.0-77.0","battery-v0.2","","""event"",""trial"",""time""
""fullscreenenter"",""1"",""1391""
","
","
","""event"",""trial"",""time""
""fullscreenenter"",""1"",""1391""
","
","","","457.2000000476837","","","22","7698","3988","b","elianto","#f73b6a7A","-1"," ","0","-10","[1307.8000000715256,2875.8000000715256]","2","2","","","7698","73","3","4","lose","no-go","0"
"pit-trial","192","1094239","0.0-78.0","battery-v0.2","","""event"",""trial"",""time""
""fullscreenenter"",""1"",""1391""
","
","
","""event"",""trial"",""time""
""fullscreenenter"",""1"",""1391""
","
","","","788.2000000476837","","","22","7698","3988","c","elianto","#3366ff99"," "," ","1","+10","[1638.3999999761581,3220.2999999523163]","2","2","","","7698","74","4","1","win","go","0"
"pit-trial","193","1098254","0.0-79.0","battery-v0.2","","""event"",""trial"",""time""
""fullscreenenter"",""1"",""1391""
","
","
","""event"",""trial"",""time""
""fullscreenenter"",""1"",""1391""
","
","","","1160.2000000476837","","","22","7698","3988","z","elianto","#3366ff99","-1"," ","0","0","[2011.1000000238419,2745.100000023842]","2","2","","","7698","75","5","2","win","no-go","0"
"pit-trial","194","1101938","0.0-80.0","battery-v0.2","","""event"",""trial"",""time""
""fullscreenenter"",""1"",""1391""
","
","
","""event"",""trial"",""time""
""fullscreenenter"",""1"",""1391""
","
","","","830.1000000238419","","","22","7698","3988","f","elianto","#3366ff99","-1"," ","0","+10","[1681.1999999284744,2270.1999999284744]","2","2","","","7698","76","1","2","win","no-go","1"
"pit-trial","195","1106585","0.0-81.0","battery-v0.2","","""event"",""trial"",""time""
""fullscreenenter"",""1"",""1391""
","
","
","""event"",""trial"",""time""
""fullscreenenter"",""1"",""1391""
","
","","","1792.6000000238419","","","22","7698","3988","b","elianto","#f73b6a7A","-1"," ","0","-10","[2643.7000000476837,4615.100000023842]","2","2","","","7698","77","3","4","lose","no-go","0"
"pit-trial","196","1110900","0.0-82.0","battery-v0.2","","""event"",""trial"",""time""
""fullscreenenter"",""1"",""1391""
","
","
","""event"",""trial"",""time""
""fullscreenenter"",""1"",""1391""
","
","","","1461.7999999523163","","","22","7698","3988","c","elianto","#3366ff99"," "," ","1","+10","[2312.899999976158]","1","2","","","7698","78","4","1","win","go","0"
"pit-trial","197","1115753","0.0-83.0","battery-v0.2","","""event"",""trial"",""time""
""fullscreenenter"",""1"",""1391""
","
","
","""event"",""trial"",""time""
""fullscreenenter"",""1"",""1391""
","
","","","-1","","","22","7698","3988","z","elianto","#3366ff99","-1","-1","1","+10","[503.89999997615814,3007.8000000715256,3455,3858.5,4216.700000047684,4577.300000071526]","6","2","","","7698","79","5","2","win","no-go","0"
"pit-trial","198","1118891","0.0-84.0","battery-v0.2","","""event"",""trial"",""time""
""fullscreenenter"",""1"",""1391""
","
","
","""event"",""trial"",""time""
""fullscreenenter"",""1"",""1391""
","
","","","284","","","22","7698","3988","c","elianto","#3366ff99"," "," ","1","0","[70.20000004768372,358,645.1000000238419,831.9000000953674,1134.7000000476837,1335.8000000715256,1495.1000000238419,1696.4000000953674,1869.3000000715256]","9","2","","","7698","80","4","1","win","go","1"
"pit-trial","199","1122604","0.0-85.0","battery-v0.2","","""event"",""trial"",""time""
""fullscreenenter"",""1"",""1391""
","
","
","""event"",""trial"",""time""
""fullscreenenter"",""1"",""1391""
","
","","","859.5","","","22","7698","3988","y","elianto","#f73b6a7A","-1"," ","0","-10","[703.8999999761581,1710.1999999284744,2228.1999999284744]","3","2","","","7698","81","7","4","lose","no-go","0"
"pit-trial","200","1125813","0.0-86.0","battery-v0.2","","""event"",""trial"",""time""
""fullscreenenter"",""1"",""1391""
","
","
","""event"",""trial"",""time""
""fullscreenenter"",""1"",""1391""
","
","","","355.89999997615814","","","22","7698","3988","z","elianto","#3366ff99","-1"," ","0","0","[41.39999997615814,760.7000000476837,1206.3999999761581]","3","2","","","7698","82","5","2","win","no-go","0"
"pit-trial","201","1128892","0.0-87.0","battery-v0.2","","""event"",""trial"",""time""
""fullscreenenter"",""1"",""1391""
","
","
","""event"",""trial"",""time""
""fullscreenenter"",""1"",""1391""
","
","","","226.90000009536743","","","22","7698","3988","c","elianto","#3366ff99"," "," ","1","+10","[170.60000002384186,1077.1000000238419,2229,3034.2999999523163]","4","2","","","7698","83","4","1","win","go","0"
"pit-trial","202","1132303","0.0-88.0","battery-v0.2","","""event"",""trial"",""time""
""fullscreenenter"",""1"",""1391""
","
","
","""event"",""trial"",""time""
""fullscreenenter"",""1"",""1391""
","
","","","557.1999999284744","","","22","7698","3988","b","elianto","#f73b6a7A","-1"," ","0","-10","[717.8999999761581,1407.8999999761581,2070.100000023842,2674.899999976158]","4","2","","","7698","84","3","4","lose","no-go","0"
"pit-trial","203","1135745","0.0-89.0","battery-v0.2","","""event"",""trial"",""time""
""fullscreenenter"",""1"",""1391""
","
","
","""event"",""trial"",""time""
""fullscreenenter"",""1"",""1391""
","
","","","588.3999999761581","","","22","7698","3988","z","elianto","#3366ff99","-1"," ","0","0","[12.799999952316284,761.2999999523163,1439.3999999761581,2070.600000023842,2920.1999999284744]","5","2","","","7698","85","5","2","win","no-go","0"
"pit-trial","204","1138663","0.0-90.0","battery-v0.2","","""event"",""trial"",""time""
""fullscreenenter"",""1"",""1391""
","
","
","""event"",""trial"",""time""
""fullscreenenter"",""1"",""1391""
","
","","","64.89999997615814","","","22","7698","3988","y","elianto","#f73b6a7A","-1"," ","0","0","[311.10000002384186,915.1999999284744,1808.2999999523163,2571.2999999523163]","4","2","","","7698","86","7","4","lose","no-go","1"
"pit-trial","205","1141586","0.0-91.0","battery-v0.2","","""event"",""trial"",""time""
""fullscreenenter"",""1"",""1391""
","
","
","""event"",""trial"",""time""
""fullscreenenter"",""1"",""1391""
","
","","","69.70000004768372","","","22","7698","3988","h","elianto","#f73b6a7A"," "," ","1","0","[358.10000002384186,920.1000000238419,1524.3999999761581,2100.399999976158,2704.399999976158]","5","2","","","7698","87","6","3","lose","go","0"
"pit-trial","206","1144679","0.0-92.0","battery-v0.2","","""event"",""trial"",""time""
""fullscreenenter"",""1"",""1391""
","
","
","""event"",""trial"",""time""
""fullscreenenter"",""1"",""1391""
","
","","","225.10000002384186","","","22","7698","3988","c","elianto","#3366ff99"," "," ","1","0","[414.5,1076.2999999523163,1652.6000000238419,2184,2846.1999999284744]","5","2","","","7698","88","4","1","win","go","1"
"pit-trial","207","1147629","0.0-93.0","battery-v0.2","","""event"",""trial"",""time""
""fullscreenenter"",""1"",""1391""
","
","
","""event"",""trial"",""time""
""fullscreenenter"",""1"",""1391""
","
","","","96.90000009536743","","","22","7698","3988","c","elianto","#3366ff99"," "," ","1","+10","[387.6999999284744,948.6000000238419,1754.6999999284744,2273.899999976158]","4","2","","","7698","89","4","1","win","go","0"
"pit-trial","208","1150869","0.0-94.0","battery-v0.2","","""event"",""trial"",""time""
""fullscreenenter"",""1"",""1391""
","
","
","""event"",""trial"",""time""
""fullscreenenter"",""1"",""1391""
","
","","","385.60000002384186","","","22","7698","3988","h","elianto","#f73b6a7A"," "," ","1","0","[55.89999997615814,661.2000000476837,1236.5,1940.7999999523163,2589.100000023842,3179.2000000476837]","6","2","","","7698","90","6","3","lose","go","0"
"pit-trial","209","1154149","0.0-95.0","battery-v0.2","","""event"",""trial"",""time""
""fullscreenenter"",""1"",""1391""
","
","
","""event"",""trial"",""time""
""fullscreenenter"",""1"",""1391""
","
","","","426","","","22","7698","3988","z","elianto","#3366ff99","-1"," ","0","0","[1276.8999999761581,2385.2000000476837]","2","2","","","7698","91","5","2","win","no-go","0"
"pit-trial","210","1157561","0.0-96.0","battery-v0.2","","""event"",""trial"",""time""
""fullscreenenter"",""1"",""1391""
","
","
","""event"",""trial"",""time""
""fullscreenenter"",""1"",""1391""
","
","","","559","","","22","7698","3988","y","elianto","#f73b6a7A","-1"," ","0","0","[69.19999992847443,804.3999999761581,1409.0999999046326,2085.1999999284744,2704.1999999284744,3350.899999976158]","6","2","","","7698","92","7","4","lose","no-go","1"
"pit-trial","211","1160713","0.0-97.0","battery-v0.2","","""event"",""trial"",""time""
""fullscreenenter"",""1"",""1391""
","
","
","""event"",""trial"",""time""
""fullscreenenter"",""1"",""1391""
","
","","","297.7000000476837","","","22","7698","3988","r","elianto","#3366ff99"," "," ","1","+10","[515.7000000476837,1148.1000000238419,1652,2372]","4","2","","","7698","93","8","1","win","go","0"
"pit-trial","212","1164109","0.0-98.0","battery-v0.2","","""event"",""trial"",""time""
""fullscreenenter"",""1"",""1391""
","
","
","""event"",""trial"",""time""
""fullscreenenter"",""1"",""1391""
","
","","","542.8999999761581","","","22","7698","3988","z","elianto","#3366ff99","-1"," ","0","0","[227,832.5,1393.7000000476837,1897.3000000715256,2746.600000023842]","5","2","","","7698","94","5","2","win","no-go","0"
"pit-trial","213","1167232","0.0-99.0","battery-v0.2","","""event"",""trial"",""time""
""fullscreenenter"",""1"",""1391""
","
","
","""event"",""trial"",""time""
""fullscreenenter"",""1"",""1391""
","
","","","269.1999999284744","","","22","7698","3988","y","elianto","#f73b6a7A","-1"," ","0","-10","[558.7999999523163,1119.6999999284744,1637.6999999284744,2544.600000023842]","4","2","","","7698","95","7","4","lose","no-go","0"
"pit-trial","214","1170931","0.0-100.0","battery-v0.2","","""event"",""trial"",""time""
""fullscreenenter"",""1"",""1391""
","
","
","""event"",""trial"",""time""
""fullscreenenter"",""1"",""1391""
","
","","","846.1000000238419","","","22","7698","3988","h","elianto","#f73b6a7A"," "," ","1","0","[372.2000000476837,1696.1000000238419,2603.100000023842,3409]","4","2","","","7698","96","6","3","lose","go","0"
"pit-trial","215","1174708","0.0-101.0","battery-v0.2","","""event"",""trial"",""time""
""fullscreenenter"",""1"",""1391""
","
","
","""event"",""trial"",""time""
""fullscreenenter"",""1"",""1391""
","
","","","916.6999999284744","","","22","7698","3988","z","elianto","#3366ff99","-1"," ","0","0","[847,1768,2646.399999976158]","3","2","","","7698","97","5","2","win","no-go","0"
"pit-trial","216","1178013","0.0-102.0","battery-v0.2","","""event"",""trial"",""time""
""fullscreenenter"",""1"",""1391""
","
","
","""event"",""trial"",""time""
""fullscreenenter"",""1"",""1391""
","
","","","451","","","22","7698","3988","h","elianto","#f73b6a7A"," "," ","1","0","[19.699999928474426,1301.5999999046326]","2","2","","","7698","98","6","3","lose","go","0"
"pit-trial","217","1182867","0.0-103.0","battery-v0.2","","""event"",""trial"",""time""
""fullscreenenter"",""1"",""1391""
","
","
","""event"",""trial"",""time""
""fullscreenenter"",""1"",""1391""
","
","","","-1","","","22","7698","3988","r","elianto","#3366ff99"," ","-1","0","0","[2990.7999999523163,4803.799999952316]","2","2","","","7698","99","8","1","win","go","0"
"pit-trial","218","1185943","0.0-104.0","battery-v0.2","","""event"",""trial"",""time""
""fullscreenenter"",""1"",""1391""
","
","
","""event"",""trial"",""time""
""fullscreenenter"",""1"",""1391""
","
","","","221.89999997615814","","","22","7698","3988","y","elianto","#f73b6a7A","-1"," ","0","-10","[1072.8999999761581,1676.8999999761581,2439.6999999284744,2914.600000023842]","4","2","","","7698","100","7","4","lose","no-go","0"
"pit-trial","219","1189354","0.0-105.0","battery-v0.2","","""event"",""trial"",""time""
""fullscreenenter"",""1"",""1391""
","
","
","""event"",""trial"",""time""
""fullscreenenter"",""1"",""1391""
","
","","","556.7999999523163","","","22","7698","3988","r","elianto","#3366ff99"," "," ","1","+10","[1407.1000000238419,1811.1000000238419,2458.100000023842,3077]","4","2","","","7698","101","8","1","win","go","0"
"pit-trial","220","1192334","0.0-106.0","battery-v0.2","","""event"",""trial"",""time""
""fullscreenenter"",""1"",""1391""
","
","
","""event"",""trial"",""time""
""fullscreenenter"",""1"",""1391""
","
","","","126.20000004768372","","","22","7698","3988","m","elianto","#3366ff99"," "," ","1","+10","[299.2999999523163,659.6999999284744,976.6999999284744,1350.6999999284744,1624.7999999523163,2128.7999999523163,2689.7999999523163]","7","2","","","7698","102","9","1","win","go","0"
"pit-trial","221","1195342","0.0-107.0","battery-v0.2","","""event"",""trial"",""time""
""fullscreenenter"",""1"",""1391""
","
","
","""event"",""trial"",""time""
""fullscreenenter"",""1"",""1391""
","
","","","153.60000002384186","","","22","7698","3988","y","elianto","#f73b6a7A","-1"," ","0","-10","[515.1999999284744,1003.8999999761581,1393.1999999284744,1623.5999999046326,1912.2999999523163,2415,2732.0999999046326]","7","2","","","7698","103","7","4","lose","no-go","0"
"pit-trial","222","1198565","0.0-108.0","battery-v0.2","","""event"",""trial"",""time""
""fullscreenenter"",""1"",""1391""
","
","
","""event"",""trial"",""time""
""fullscreenenter"",""1"",""1391""
","
","","","370.2000000476837","","","22","7698","3988","z","elianto","#3366ff99","-1"," ","0","0","[56.299999952316284,443.7999999523163,1220.7999999523163,1638.8999999761581,2084.899999976158,2559.7999999523163,3048.600000023842]","7","2","","","7698","104","5","2","win","no-go","0"
"pit-trial","223","1201731","0.0-109.0","battery-v0.2","","""event"",""trial"",""time""
""fullscreenenter"",""1"",""1391""
","
","
","""event"",""trial"",""time""
""fullscreenenter"",""1"",""1391""
","
","","","313.7000000476837","","","22","7698","3988","c","elianto","#3366ff99"," "," ","1","0","[329.39999997615814,717.0999999046326,1164.1999999284744,1451.2999999523163,1768.2999999523163,2142.399999976158,2473.7999999523163,2718.2999999523163,3092.2999999523163]","9","2","","","7698","105","4","1","win","go","1"
"pit-trial","224","1204756","0.0-110.0","battery-v0.2","","""event"",""trial"",""time""
""fullscreenenter"",""1"",""1391""
","
","
","""event"",""trial"",""time""
""fullscreenenter"",""1"",""1391""
","
","","","170.39999997615814","","","22","7698","3988","r","elianto","#3366ff99"," "," ","1","0","[630.7999999523163,1020.8999999761581,2373.2999999523163,2905.899999976158]","4","2","","","7698","106","8","1","win","go","1"
"pit-trial","225","1207618","0.0-111.0","battery-v0.2","","""event"",""trial"",""time""
""fullscreenenter"",""1"",""1391""
","
","
","""event"",""trial"",""time""
""fullscreenenter"",""1"",""1391""
","
","","","8.200000047683716","","","22","7698","3988","m","elianto","#3366ff99"," "," ","1","0","[442,858.7000000476837,1090.7000000476837,1392.6000000238419,2111.100000023842,2759]","6","2","","","7698","107","9","1","win","go","1"
"pit-trial","226","1210583","0.0-112.0","battery-v0.2","","""event"",""trial"",""time""
""fullscreenenter"",""1"",""1391""
","
","
","""event"",""trial"",""time""
""fullscreenenter"",""1"",""1391""
","
","","","111.89999997615814","","","22","7698","3988","h","elianto","#f73b6a7A"," "," ","1","0","[962.2999999523163,1279.6000000238419,1495.7999999523163,2416.600000023842,2906.399999976158]","5","2","","","7698","108","6","3","lose","go","0"
"pit-trial","227","1213734","0.0-113.0","battery-v0.2","","""event"",""trial"",""time""
""fullscreenenter"",""1"",""1391""
","
","
","""event"",""trial"",""time""
""fullscreenenter"",""1"",""1391""
","
","","","286.5","","","22","7698","3988","h","elianto","#f73b6a7A"," "," ","1","0","[301.10000002384186,574.7999999523163,833.8999999761581,1137,1409.8999999761581,1612.3999999761581,1856,2490,2935.7000000476837]","9","2","","","7698","109","6","3","lose","go","0"
"pit-trial","228","1217972","0.0-114.0","battery-v0.2","","""event"",""trial"",""time""
""fullscreenenter"",""1"",""1391""
","
","
","""event"",""trial"",""time""
""fullscreenenter"",""1"",""1391""
","
","","","1380","","","22","7698","3988","r","elianto","#3366ff99"," "," ","1","+10","[2230.399999976158,2432.399999976158]","2","2","","","7698","110","8","1","win","go","0"
"pit-trial","229","1221668","0.0-115.0","battery-v0.2","","""event"",""trial"",""time""
""fullscreenenter"",""1"",""1391""
","
","
","""event"",""trial"",""time""
""fullscreenenter"",""1"",""1391""
","
","","","842.1000000238419","","","22","7698","3988","z","elianto","#3366ff99","-1"," ","0","0","[1692.7999999523163]","1","2","","","7698","111","5","2","win","no-go","0"
"pit-trial","230","1225265","0.0-116.0","battery-v0.2","","""event"",""trial"",""time""
""fullscreenenter"",""1"",""1391""
","
","
","""event"",""trial"",""time""
""fullscreenenter"",""1"",""1391""
","
","","","743.8000000715256","","","22","7698","3988","m","elianto","#3366ff99"," "," ","1","+10","[1595.1000000238419]","1","2","","","7698","112","9","1","win","go","0"
"pit-trial","231","1228432","0.0-117.0","battery-v0.2","","""event"",""trial"",""time""
""fullscreenenter"",""1"",""1391""
","
","
","""event"",""trial"",""time""
""fullscreenenter"",""1"",""1391""
","
","","","313.90000009536743","","","22","7698","3988","m","elianto","#3366ff99"," "," ","1","+10","[1164.4000000953674]","1","2","","","7698","113","9","1","win","go","0"
"pit-trial","232","1231843","0.0-118.0","battery-v0.2","","""event"",""trial"",""time""
""fullscreenenter"",""1"",""1391""
","
","
","""event"",""trial"",""time""
""fullscreenenter"",""1"",""1391""
","
","","","557.8999999761581","","","22","7698","3988","h","elianto","#f73b6a7A"," "," ","1","0","[1408.1000000238419]","1","2","","","7698","114","6","3","lose","go","0"
"pit-trial","233","1235542","0.0-119.0","battery-v0.2","","""event"",""trial"",""time""
""fullscreenenter"",""1"",""1391""
","
","
","""event"",""trial"",""time""
""fullscreenenter"",""1"",""1391""
","
","","","846.1000000238419","","","22","7698","3988","z","elianto","#3366ff99","-1"," ","0","+10","[1696.5]","1","2","","","7698","115","5","2","win","no-go","1"
"pit-trial","234","1239545","0.0-120.0","battery-v0.2","","""event"",""trial"",""time""
""fullscreenenter"",""1"",""1391""
","
","
","""event"",""trial"",""time""
""fullscreenenter"",""1"",""1391""
","
","","","1149.1999999284744","","","22","7698","3988","r","elianto","#3366ff99"," "," ","1","0","[1999.3999999761581]","1","2","","","7698","116","8","1","win","go","1"
"pit-trial","235","1244035","0.0-121.0","battery-v0.2","","""event"",""trial"",""time""
""fullscreenenter"",""1"",""1391""
","
","
","""event"",""trial"",""time""
""fullscreenenter"",""1"",""1391""
","
","","","1637","","","22","7698","3988","h","elianto","#f73b6a7A"," "," ","1","0","[2486.899999976158]","1","2","","","7698","117","6","3","lose","go","0"
"pit-trial","236","1247864","0.0-122.0","battery-v0.2","","""event"",""trial"",""time""
""fullscreenenter"",""1"",""1391""
","
","
","""event"",""trial"",""time""
""fullscreenenter"",""1"",""1391""
","
","","","975.1000000238419","","","22","7698","3988","m","elianto","#3366ff99"," "," ","1","+10","[1825.1000000238419]","1","2","","","7698","118","9","1","win","go","0"
"pit-trial","237","1250988","0.0-123.0","battery-v0.2","","""event"",""trial"",""time""
""fullscreenenter"",""1"",""1391""
","
","
","""event"",""trial"",""time""
""fullscreenenter"",""1"",""1391""
","
","","","270","","","22","7698","3988","z","elianto","#3366ff99","-1"," ","0","0","[1120.5]","1","2","","","7698","119","5","2","win","no-go","0"
"pit-trial","238","1254440","0.0-124.0","battery-v0.2","","""event"",""trial"",""time""
""fullscreenenter"",""1"",""1391""
","
","
","""event"",""trial"",""time""
""fullscreenenter"",""1"",""1391""
","
","","","599.1000000238419","","","22","7698","3988","r","elianto","#3366ff99"," "," ","1","+10","[1449.5]","1","2","","","7698","120","8","1","win","go","0"
"pit-trial","239","1257565","0.0-125.0","battery-v0.2","","""event"",""trial"",""time""
""fullscreenenter"",""1"",""1391""
","
","
","""event"",""trial"",""time""
""fullscreenenter"",""1"",""1391""
","
","","","266.8000000715256","","","22","7698","3988","m","elianto","#3366ff99"," "," ","1","+10","[703,1121]","2","2","","","7698","121","9","1","win","go","0"
"pit-trial","240","1260573","0.0-126.0","battery-v0.2","","""event"",""trial"",""time""
""fullscreenenter"",""1"",""1391""
","
","
","""event"",""trial"",""time""
""fullscreenenter"",""1"",""1391""
","
","","","154.10000002384186","","","22","7698","3988","y","elianto","#f73b6a7A","-1"," ","0","-10","[1004.7000000476837]","1","2","","","7698","122","7","4","lose","no-go","0"
"pit-trial","241","1263452","0.0-127.0","battery-v0.2","","""event"",""trial"",""time""
""fullscreenenter"",""1"",""1391""
","
","
","""event"",""trial"",""time""
""fullscreenenter"",""1"",""1391""
","
","","","24.5","","","22","7698","3988","h","elianto","#f73b6a7A"," "," ","1","0","[876.3999999761581,1092]","2","2","","","7698","123","6","3","lose","go","0"
"pit-trial","242","1266605","0.0-128.0","battery-v0.2","","""event"",""trial"",""time""
""fullscreenenter"",""1"",""1391""
","
","
","""event"",""trial"",""time""
""fullscreenenter"",""1"",""1391""
","
","","","299.39999997615814","","","22","7698","3988","r","elianto","#3366ff99"," "," ","1","+10","[759.8000000715256,1149.5]","2","2","","","7698","124","8","1","win","go","0"
"pit-trial","243","1270073","0.0-129.0","battery-v0.2","","""event"",""trial"",""time""
""fullscreenenter"",""1"",""1391""
","
","
","""event"",""trial"",""time""
""fullscreenenter"",""1"",""1391""
","
","","","614.6999999284744","","","22","7698","3988","y","elianto","#f73b6a7A","-1"," ","0","0","[845.5,1465.5]","2","2","","","7698","125","7","4","lose","no-go","1"
"pit-trial","244","1273053","0.0-130.0","battery-v0.2","","""event"",""trial"",""time""
""fullscreenenter"",""1"",""1391""
","
","
","""event"",""trial"",""time""
""fullscreenenter"",""1"",""1391""
","
","","","125.89999997615814","","","22","7698","3988","r","elianto","#3366ff99"," "," ","1","0","[976.3000000715256]","1","2","","","7698","126","8","1","win","go","1"
"pit-trial","245","1276077","0.0-131.0","battery-v0.2","","""event"",""trial"",""time""
""fullscreenenter"",""1"",""1391""
","
","
","""event"",""trial"",""time""
""fullscreenenter"",""1"",""1391""
","
","","","169.5","","","22","7698","3988","h","elianto","#f73b6a7A"," "," ","1","0","[515.3000000715256,761.4000000953674,1020.2000000476837,2185.2000000476837,2731.5]","5","2","","","7698","127","6","3","lose","go","0"
"pit-trial","246","1279415","0.0-132.0","battery-v0.2","","""event"",""trial"",""time""
""fullscreenenter"",""1"",""1391""
","
","
","""event"",""trial"",""time""
""fullscreenenter"",""1"",""1391""
","
","","","484.89999997615814","","","22","7698","3988","m","elianto","#3366ff99"," "," ","1","+10","[817.3999999761581,1335.1000000238419]","2","2","","","7698","128","9","1","win","go","0"
"pit-trial","247","1282294","0.0-133.0","battery-v0.2","","""event"",""trial"",""time""
""fullscreenenter"",""1"",""1391""
","
","
","""event"",""trial"",""time""
""fullscreenenter"",""1"",""1391""
","
","","","24","","","22","7698","3988","y","elianto","#f73b6a7A","-1"," ","0","-10","[659.2999999523163,875]","2","2","","","7698","129","7","4","lose","no-go","0"
"pit-trial","248","1285287","0.0-134.0","battery-v0.2","","""event"",""trial"",""time""
""fullscreenenter"",""1"",""1391""
","
","
","""event"",""trial"",""time""
""fullscreenenter"",""1"",""1391""
","
","","","139.39999997615814","","","22","7698","3988","h","elianto","#f73b6a7A"," "," ","1","0","[715.9000000953674,990.3000000715256]","2","2","","","7698","130","6","3","lose","go","0"
"pit-trial","249","1288280","0.0-135.0","battery-v0.2","","""event"",""trial"",""time""
""fullscreenenter"",""1"",""1391""
","
","
","""event"",""trial"",""time""
""fullscreenenter"",""1"",""1391""
","
","","","139","","","22","7698","3988","m","elianto","#3366ff99"," "," ","1","+10","[616.7000000476837,990.7000000476837]","2","2","","","7698","131","9","1","win","go","0"
"pit-trial","250","1291390","0.0-136.0","battery-v0.2","","""event"",""trial"",""time""
""fullscreenenter"",""1"",""1391""
","
","
","""event"",""trial"",""time""
""fullscreenenter"",""1"",""1391""
","
","","","254.70000004768372","","","22","7698","3988","r","elianto","#3366ff99"," "," ","1","+10","[818.3999999761581,1106.2999999523163]","2","2","","","7698","132","8","1","win","go","0"
"pit-trial","251","1294483","0.0-137.0","battery-v0.2","","""event"",""trial"",""time""
""fullscreenenter"",""1"",""1391""
","
","
","""event"",""trial"",""time""
""fullscreenenter"",""1"",""1391""
","
","","","239.80000007152557","","","22","7698","3988","y","elianto","#f73b6a7A","-1"," ","0","0","[773.6999999284744,1091]","2","2","","","7698","133","7","4","lose","no-go","1"
"pit-trial","252","1297419","0.0-138.0","battery-v0.2","","""event"",""trial"",""time""
""fullscreenenter"",""1"",""1391""
","
","
","""event"",""trial"",""time""
""fullscreenenter"",""1"",""1391""
","
","","","82.60000002384186","","","22","7698","3988","h","elianto","#f73b6a7A"," "," ","1","-10","[631.4000000953674,932.8000000715256]","2","2","","","7698","134","6","3","lose","go","1"
"pit-trial","253","1300442","0.0-139.0","battery-v0.2","","""event"",""trial"",""time""
""fullscreenenter"",""1"",""1391""
","
","
","""event"",""trial"",""time""
""fullscreenenter"",""1"",""1391""
","
","","","167.10000002384186","","","22","7698","3988","m","elianto","#3366ff99"," "," ","1","0","[428.90000009536743,731.7000000476837,1019.8000000715256]","3","2","","","7698","135","9","1","win","go","1"
"pit-trial","254","1303580","0.0-140.0","battery-v0.2","","""event"",""trial"",""time""
""fullscreenenter"",""1"",""1391""
","
","
","""event"",""trial"",""time""
""fullscreenenter"",""1"",""1391""
","
","","","284.7999999523163","","","22","7698","3988","r","elianto","#3366ff99"," "," ","1","0","[1134.7999999523163]","1","2","","","7698","136","8","1","win","go","1"
"pit-trial","255","1306473","0.0-141.0","battery-v0.2","","""event"",""trial"",""time""
""fullscreenenter"",""1"",""1391""
","
","
","""event"",""trial"",""time""
""fullscreenenter"",""1"",""1391""
","
