"trial_type","trial_index","time_elapsed","internal_node_id","task_version","subject_id","interactions","blur_events","focus_events","fullscreenenter_events","fullscreenexit_events","success","view_history","rt","responses","num_errors","age","subject","participantId","rune","rune_set","hex","correct","choice","accuracy","outcome","keys","total_keys","block","practice","value"
"pavlovia","0","4","0.0-0.0","battery-v0.2","","""event"",""trial"",""time""
""fullscreenenter"",""1"",""1124""
","
","
","""event"",""trial"",""time""
""fullscreenenter"",""1"",""1124""
","
","","","","","","","","","","","","","","","","","","","",""
"fullscreen","1","2110","0.0-1.0","battery-v0.2","","""event"",""trial"",""time""
""fullscreenenter"",""1"",""1124""
","
","
","""event"",""trial"",""time""
""fullscreenenter"",""1"",""1124""
","
","true","","","","","","","","","","","","","","","","","","",""
"pit-instructions","2","11341","0.0-2.0-0.0","battery-v0.2","","""event"",""trial"",""time""
""fullscreenenter"",""1"",""1124""
","
","
","""event"",""trial"",""time""
""fullscreenenter"",""1"",""1124""
","
","","[{""page_index"":0,""viewing_time"":9223.799999952316}]","9225","","","","","","","","","","","","","","","","",""
"pit-comprehension","3","51016","0.0-2.0-1.0-0.0","battery-v0.2","","""event"",""trial"",""time""
""fullscreenenter"",""1"",""1124""
","
","
","""event"",""trial"",""time""
""fullscreenenter"",""1"",""1124""
","
","","","39668.5","[""shark""]","0","13","3336","2608","","","","","","","","","","","",""
"pit-instructions","4","62226","0.0-2.0-1.0-1.0","battery-v0.2","","""event"",""trial"",""time""
""fullscreenenter"",""1"",""1124""
","
","
","""event"",""trial"",""time""
""fullscreenenter"",""1"",""1124""
","
","","[{""page_index"":0,""viewing_time"":11199.100000023842}]","11200","","","","","","","","","","","","","","","","",""
"pit-comprehension","5","85036","0.0-2.0-2.0-0.0","battery-v0.2","","""event"",""trial"",""time""
""fullscreenenter"",""1"",""1124""
","
","
","""event"",""trial"",""time""
""fullscreenenter"",""1"",""1124""
","
","","","22802.900000095367","[""tiger""]","0","13","3336","2608","","","","","","","","","","","",""
"pit-instructions","6","90040","0.0-2.0-2.0-1.0","battery-v0.2","","""event"",""trial"",""time""
""fullscreenenter"",""1"",""1124""
","
","
","""event"",""trial"",""time""
""fullscreenenter"",""1"",""1124""
","
","","[{""page_index"":0,""viewing_time"":4998.100000023842}]","4998.899999976158","","","","","","","","","","","","","","","","",""
"pit-instructions","7","199268","0.0-2.0-3.0","battery-v0.2","","""event"",""trial"",""time""
""fullscreenenter"",""1"",""1124""
","
","
","""event"",""trial"",""time""
""fullscreenenter"",""1"",""1124""
","
","","[{""page_index"":0,""viewing_time"":13243.200000047684},{""page_index"":1,""viewing_time"":8109.399999976158},{""page_index"":2,""viewing_time"":8072.399999976158},{""page_index"":3,""viewing_time"":6757.399999976158},{""page_index"":4,""viewing_time"":14271.899999976158},{""page_index"":5,""viewing_time"":5460.800000071526},{""page_index"":6,""viewing_time"":8589.399999976158},{""page_index"":7,""viewing_time"":6316.799999952316},{""page_index"":8,""viewing_time"":6090.300000071526},{""page_index"":9,""viewing_time"":5310.600000023842},{""page_index"":10,""viewing_time"":8171},{""page_index"":11,""viewing_time"":7693},{""page_index"":12,""viewing_time"":6352.899999976158},{""page_index"":13,""viewing_time"":4781.5}]","109221.70000004768","","","","","","","","","","","","","","","","",""
"pit-trial","8","202579","0.0-2.0-4.0-0.0","battery-v0.2","","""event"",""trial"",""time""
""fullscreenenter"",""1"",""1124""
","
","
","""event"",""trial"",""time""
""fullscreenenter"",""1"",""1124""
","
","","","449.3000000715256","","","13","3336","2608","&#9784;","elianto","#FFFFF080"," "," ","1","&#10004","[1300.6999999284744]","1","0","0",""
"pit-trial","9","206139","0.0-2.0-4.1-0.1","battery-v0.2","","""event"",""trial"",""time""
""fullscreenenter"",""1"",""1124""
","
","
","""event"",""trial"",""time""
""fullscreenenter"",""1"",""1124""
","
","","","699","","","13","3336","2608","&#9784;","elianto","#FFFFF080"," "," ","1","&#10004","[1549.6000000238419]","1","0","0",""
"pit-trial","10","209762","0.0-2.0-4.2-0.2","battery-v0.2","","""event"",""trial"",""time""
""fullscreenenter"",""1"",""1124""
","
","
","""event"",""trial"",""time""
""fullscreenenter"",""1"",""1124""
","
","","","760","","","13","3336","2608","&#9784;","elianto","#FFFFF080"," "," ","1","&#10004","[1612.5]","1","0","0",""
"pit-trial","11","213092","0.0-2.0-4.3-0.3","battery-v0.2","","""event"",""trial"",""time""
""fullscreenenter"",""1"",""1124""
","
","
","""event"",""trial"",""time""
""fullscreenenter"",""1"",""1124""
","
","","","468.8000000715256","","","13","3336","2608","&#9784;","elianto","#FFFFF080"," "," ","1","&#10004","[1318.7000000476837]","1","0","0",""
"pit-trial","12","216530","0.0-2.0-4.4-0.4","battery-v0.2","","""event"",""trial"",""time""
""fullscreenenter"",""1"",""1124""
","
","
","""event"",""trial"",""time""
""fullscreenenter"",""1"",""1124""
","
","","","576","","","13","3336","2608","&#9784;","elianto","#FFFFF080"," "," ","1","&#10004","[1426.3999999761581]","1","0","0",""
"pit-instructions","13","240054","0.0-2.0-5.0","battery-v0.2","","""event"",""trial"",""time""
""fullscreenenter"",""1"",""1124""
","
","
","""event"",""trial"",""time""
""fullscreenenter"",""1"",""1124""
","
","","[{""page_index"":0,""viewing_time"":6539.199999928474},{""page_index"":1,""viewing_time"":6134.600000023842},{""page_index"":2,""viewing_time"":5302.700000047684},{""page_index"":3,""viewing_time"":5542.699999928474}]","23520.199999928474","","","","","","","","","","","","","","","","",""
"pit-trial","14","244920","0.0-2.0-6.0-0.0","battery-v0.2","","""event"",""trial"",""time""
""fullscreenenter"",""1"",""1124""
","
","
","""event"",""trial"",""time""
""fullscreenenter"",""1"",""1124""
","
","","","-1","","","13","3336","2608","&#9854;","elianto","#FFFFF080","-1","-1","1","&#10004","[]","0","0","1",""
"pit-trial","15","249786","0.0-2.0-6.1-0.1","battery-v0.2","","""event"",""trial"",""time""
""fullscreenenter"",""1"",""1124""
","
","
","""event"",""trial"",""time""
""fullscreenenter"",""1"",""1124""
","
","","","-1","","","13","3336","2608","&#9854;","elianto","#FFFFF080","-1","-1","1","&#10004","[]","0","0","1",""
"pit-trial","16","254651","0.0-2.0-6.2-0.2","battery-v0.2","","""event"",""trial"",""time""
""fullscreenenter"",""1"",""1124""
","
","
","""event"",""trial"",""time""
""fullscreenenter"",""1"",""1124""
","
","","","-1","","","13","3336","2608","&#9854;","elianto","#FFFFF080","-1","-1","1","&#10004","[]","0","0","1",""
"pit-trial","17","259514","0.0-2.0-6.3-0.3","battery-v0.2","","""event"",""trial"",""time""
""fullscreenenter"",""1"",""1124""
","
","
","""event"",""trial"",""time""
""fullscreenenter"",""1"",""1124""
","
","","","-1","","","13","3336","2608","&#9854;","elianto","#FFFFF080","-1","-1","1","&#10004","[]","0","0","1",""
"pit-trial","18","264375","0.0-2.0-6.4-0.4","battery-v0.2","","""event"",""trial"",""time""
""fullscreenenter"",""1"",""1124""
","
","
","""event"",""trial"",""time""
""fullscreenenter"",""1"",""1124""
","
","","","-1","","","13","3336","2608","&#9854;","elianto","#FFFFF080","-1","-1","1","&#10004","[]","0","0","1",""
"pit-instructions","19","409012","0.0-2.0-7.0","battery-v0.2","","""event"",""trial"",""time""
""fullscreenenter"",""1"",""1124""
","
","
","""event"",""trial"",""time""
""fullscreenenter"",""1"",""1124""
","
","","[{""page_index"":0,""viewing_time"":10189.100000023842},{""page_index"":1,""viewing_time"":9051.899999976158},{""page_index"":2,""viewing_time"":6047.700000047684},{""page_index"":3,""viewing_time"":6377.899999976158},{""page_index"":4,""viewing_time"":6070.100000023842},{""page_index"":5,""viewing_time"":5742.5},{""page_index"":6,""viewing_time"":5590.600000023842},{""page_index"":7,""viewing_time"":9132.299999952316},{""page_index"":8,""viewing_time"":8268},{""page_index"":9,""viewing_time"":8295.299999952316},{""page_index"":10,""viewing_time"":7528.400000095367},{""page_index"":11,""viewing_time"":5453.099999904633},{""page_index"":12,""viewing_time"":7694.100000023842},{""page_index"":13,""viewing_time"":14370.399999976158},{""page_index"":14,""viewing_time"":8140.700000047684},{""page_index"":15,""viewing_time"":8260.600000023842},{""page_index"":16,""viewing_time"":11300.100000023842},{""page_index"":17,""viewing_time"":7118.599999904633}]","144632.30000007153","","","","","","","","","","","","","","","","",""
"pit-trial","20","413876","0.0-2.0-8.0-0.0","battery-v0.2","","""event"",""trial"",""time""
""fullscreenenter"",""1"",""1124""
","
","
","""event"",""trial"",""time""
""fullscreenenter"",""1"",""1124""
","
","","","-1","","","13","3336","2608","&#9776;","elianto","#3366ff99"," ","-1","0","0","[]","0","0","1",""
"pit-trial","21","417475","0.0-2.0-8.0-1.0","battery-v0.2","","""event"",""trial"",""time""
""fullscreenenter"",""1"",""1124""
","
","
","""event"",""trial"",""time""
""fullscreenenter"",""1"",""1124""
","
","","","737.5","","","13","3336","2608","&#9776;","elianto","#3366ff99"," "," ","1","+10","[1588.3999999761581]","1","0","1",""
"pit-trial","22","420908","0.0-2.0-8.0-2.0","battery-v0.2","","""event"",""trial"",""time""
""fullscreenenter"",""1"",""1124""
","
","
","""event"",""trial"",""time""
""fullscreenenter"",""1"",""1124""
","
","","","572","","","13","3336","2608","&#9776;","elianto","#3366ff99"," "," ","1","+10","[1424]","1","0","1",""
"pit-trial","23","424341","0.0-2.0-8.0-3.0","battery-v0.2","","""event"",""trial"",""time""
""fullscreenenter"",""1"",""1124""
","
","
","""event"",""trial"",""time""
""fullscreenenter"",""1"",""1124""
","
","","","571.5","","","13","3336","2608","&#9776;","elianto","#3366ff99"," "," ","1","0","[1423.2999999523163]","1","0","1",""
"pit-trial","24","427772","0.0-2.0-8.0-4.0","battery-v0.2","","""event"",""trial"",""time""
""fullscreenenter"",""1"",""1124""
","
","
","""event"",""trial"",""time""
""fullscreenenter"",""1"",""1124""
","
","","","569.8000000715256","","","13","3336","2608","&#9776;","elianto","#3366ff99"," "," ","1","+10","[1422.2000000476837]","1","0","1",""
"call-function","25","427776","0.0-2.0-9.0","battery-v0.2","","""event"",""trial"",""time""
""fullscreenenter"",""1"",""1124""
","
","
","""event"",""trial"",""time""
""fullscreenenter"",""1"",""1124""
","
","","","","","","","","","","","","","","","","","","","",""
"pit-instructions","26","471086","0.0-2.0-10.0","battery-v0.2","","""event"",""trial"",""time""
""fullscreenenter"",""1"",""1124""
","
","
","""event"",""trial"",""time""
""fullscreenenter"",""1"",""1124""
","
","","[{""page_index"":0,""viewing_time"":7146.699999928474},{""page_index"":1,""viewing_time"":7309.700000047684},{""page_index"":2,""viewing_time"":9943.399999976158},{""page_index"":3,""viewing_time"":9765.100000023842},{""page_index"":4,""viewing_time"":9143}]","43309","","","","","","","","","","","","","","","","",""
"pit-trial","27","474443","0.0-2.0-11.0-0.0","battery-v0.2","","""event"",""trial"",""time""
""fullscreenenter"",""1"",""1124""
","
","
","""event"",""trial"",""time""
""fullscreenenter"",""1"",""1124""
","
","","","499.10000002384186","","","13","3336","2608","&#9761;","elianto","#3366ff99","-1"," ","0","0","[1350.6000000238419]","1","0","2",""
"pit-trial","28","477628","0.0-2.0-11.0-1.0","battery-v0.2","","""event"",""trial"",""time""
""fullscreenenter"",""1"",""1124""
","
","
","""event"",""trial"",""time""
""fullscreenenter"",""1"",""1124""
","
","","","324.40000009536743","","","13","3336","2608","&#9761;","elianto","#3366ff99","-1"," ","0","0","[1175.6000000238419]","1","0","2",""
"pit-trial","29","480741","0.0-2.0-11.0-2.0","battery-v0.2","","""event"",""trial"",""time""
""fullscreenenter"",""1"",""1124""
","
","
","""event"",""trial"",""time""
""fullscreenenter"",""1"",""1124""
","
","","","256","","","13","3336","2608","&#9761;","elianto","#3366ff99","-1"," ","0","0","[1106.0999999046326]","1","0","2",""
"pit-trial","30","484484","0.0-2.0-11.0-3.0","battery-v0.2","","""event"",""trial"",""time""
""fullscreenenter"",""1"",""1124""
","
","
","""event"",""trial"",""time""
""fullscreenenter"",""1"",""1124""
","
","","","880.3000000715256","","","13","3336","2608","&#9761;","elianto","#3366ff99","-1"," ","0","+10","[1733]","1","0","2",""
"pit-trial","31","487678","0.0-2.0-11.0-4.0","battery-v0.2","","""event"",""trial"",""time""
""fullscreenenter"",""1"",""1124""
","
","
","""event"",""trial"",""time""
""fullscreenenter"",""1"",""1124""
","
","","","332.3000000715256","","","13","3336","2608","&#9761;","elianto","#3366ff99","-1"," ","0","0","[1183.5,2688]","2","0","2",""
"pit-trial","32","490853","0.0-2.0-11.1-0.1","battery-v0.2","","""event"",""trial"",""time""
""fullscreenenter"",""1"",""1124""
","
","
","""event"",""trial"",""time""
""fullscreenenter"",""1"",""1124""
","
","","","314","","","13","3336","2608","&#9761;","elianto","#3366ff99","-1"," ","0","0","[1164]","1","0","2",""
"pit-trial","33","493865","0.0-2.0-11.1-1.1","battery-v0.2","","""event"",""trial"",""time""
""fullscreenenter"",""1"",""1124""
","
","
","""event"",""trial"",""time""
""fullscreenenter"",""1"",""1124""
","
","","","151.20000004768372","","","13","3336","2608","&#9761;","elianto","#3366ff99","-1"," ","0","0","[1003.2000000476837]","1","0","2",""
"pit-trial","34","496977","0.0-2.0-11.1-2.1","battery-v0.2","","""event"",""trial"",""time""
""fullscreenenter"",""1"",""1124""
","
","
","""event"",""trial"",""time""
""fullscreenenter"",""1"",""1124""
","
","","","251.5","","","13","3336","2608","&#9761;","elianto","#3366ff99","-1"," ","0","0","[1102.3000000715256]","1","0","2",""
"pit-trial","35","500744","0.0-2.0-11.1-3.1","battery-v0.2","","""event"",""trial"",""time""
""fullscreenenter"",""1"",""1124""
","
","
","""event"",""trial"",""time""
""fullscreenenter"",""1"",""1124""
","
","","","907.4000000953674","","","13","3336","2608","&#9761;","elianto","#3366ff99","-1"," ","0","+10","[1757.8000000715256]","1","0","2",""
"pit-trial","36","504912","0.0-2.0-11.1-4.1","battery-v0.2","","""event"",""trial"",""time""
""fullscreenenter"",""1"",""1124""
","
","
","""event"",""trial"",""time""
""fullscreenenter"",""1"",""1124""
","
","","","1310.0999999046326","","","13","3336","2608","&#9761;","elianto","#3366ff99","-1"," ","0","0","[2160.600000023842]","1","0","2",""
"pit-trial","37","507964","0.0-2.0-11.2-0.2","battery-v0.2","","""event"",""trial"",""time""
""fullscreenenter"",""1"",""1124""
","
","
","""event"",""trial"",""time""
""fullscreenenter"",""1"",""1124""
","
","","","192.29999995231628","","","13","3336","2608","&#9761;","elianto","#3366ff99","-1"," ","0","0","[1042.7999999523163]","1","0","2",""
"pit-trial","38","512824","0.0-2.0-11.2-1.2","battery-v0.2","","""event"",""trial"",""time""
""fullscreenenter"",""1"",""1124""
","
","
","""event"",""trial"",""time""
""fullscreenenter"",""1"",""1124""
","
","","","-1","","","13","3336","2608","&#9761;","elianto","#3366ff99","-1","-1","1","+10","[3745.3000000715256]","1","0","2",""
"pit-trial","39","517683","0.0-2.0-11.2-2.2","battery-v0.2","","""event"",""trial"",""time""
""fullscreenenter"",""1"",""1124""
","
","
","""event"",""trial"",""time""
""fullscreenenter"",""1"",""1124""
","
","","","-1","","","13","3336","2608","&#9761;","elianto","#3366ff99","-1","-1","1","+10","[3152]","1","0","2",""
"pit-trial","40","521527","0.0-2.0-11.2-3.2","battery-v0.2","","""event"",""trial"",""time""
""fullscreenenter"",""1"",""1124""
","
","
","""event"",""trial"",""time""
""fullscreenenter"",""1"",""1124""
","
","","","984.5","","","13","3336","2608","&#9761;","elianto","#3366ff99","-1"," ","0","+10","[1835.2000000476837]","1","0","2",""
"pit-trial","41","524899","0.0-2.0-11.2-4.2","battery-v0.2","","""event"",""trial"",""time""
""fullscreenenter"",""1"",""1124""
","
","
","""event"",""trial"",""time""
""fullscreenenter"",""1"",""1124""
","
","","","513.2999999523163","","","13","3336","2608","&#9761;","elianto","#3366ff99","-1"," ","0","0","[1365]","1","0","2",""
"pit-trial","42","529757","0.0-2.0-11.3-0.3","battery-v0.2","","""event"",""trial"",""time""
""fullscreenenter"",""1"",""1124""
","
","
","""event"",""trial"",""time""
""fullscreenenter"",""1"",""1124""
","
","","","-1","","","13","3336","2608","&#9761;","elianto","#3366ff99","-1","-1","1","+10","[]","0","0","2",""
"pit-trial","43","534616","0.0-2.0-11.3-1.3","battery-v0.2","","""event"",""trial"",""time""
""fullscreenenter"",""1"",""1124""
","
","
","""event"",""trial"",""time""
""fullscreenenter"",""1"",""1124""
","
","","","-1","","","13","3336","2608","&#9761;","elianto","#3366ff99","-1","-1","1","+10","[]","0","0","2",""
"pit-trial","44","539475","0.0-2.0-11.3-2.3","battery-v0.2","","""event"",""trial"",""time""
""fullscreenenter"",""1"",""1124""
","
","
","""event"",""trial"",""time""
""fullscreenenter"",""1"",""1124""
","
","","","-1","","","13","3336","2608","&#9761;","elianto","#3366ff99","-1","-1","1","+10","[]","0","0","2",""
"pit-trial","45","543515","0.0-2.0-11.3-3.3","battery-v0.2","","""event"",""trial"",""time""
""fullscreenenter"",""1"",""1124""
","
","
","""event"",""trial"",""time""
""fullscreenenter"",""1"",""1124""
","
","","","1180.6999999284744","","","13","3336","2608","&#9761;","elianto","#3366ff99","-1"," ","0","+10","[2032.0999999046326]","1","0","2",""
"pit-trial","46","547080","0.0-2.0-11.3-4.3","battery-v0.2","","""event"",""trial"",""time""
""fullscreenenter"",""1"",""1124""
","
","
","""event"",""trial"",""time""
""fullscreenenter"",""1"",""1124""
","
","","","705.7999999523163","","","13","3336","2608","&#9761;","elianto","#3366ff99","-1"," ","0","0","[1556.5999999046326]","1","0","2",""
"pit-trial","47","550760","0.0-2.0-11.4-0.4","battery-v0.2","","""event"",""trial"",""time""
""fullscreenenter"",""1"",""1124""
","
","
","""event"",""trial"",""time""
""fullscreenenter"",""1"",""1124""
","
","","","819","","","13","3336","2608","&#9761;","elianto","#3366ff99","-1"," ","0","0","[1669.1999999284744]","1","0","2",""
"pit-trial","48","555624","0.0-2.0-11.4-1.4","battery-v0.2","","""event"",""trial"",""time""
""fullscreenenter"",""1"",""1124""
","
","
","""event"",""trial"",""time""
""fullscreenenter"",""1"",""1124""
","
","","","-1","","","13","3336","2608","&#9761;","elianto","#3366ff99","-1","-1","1","+10","[]","0","0","2",""
"pit-trial","49","558892","0.0-2.0-11.4-2.4","battery-v0.2","","""event"",""trial"",""time""
""fullscreenenter"",""1"",""1124""
","
","
","""event"",""trial"",""time""
""fullscreenenter"",""1"",""1124""
","
","","","406.1999999284744","","","13","3336","2608","&#9761;","elianto","#3366ff99","-1"," ","0","0","[1259.0999999046326]","1","0","2",""
"pit-trial","50","562515","0.0-2.0-11.4-3.4","battery-v0.2","","""event"",""trial"",""time""
""fullscreenenter"",""1"",""1124""
","
","
","""event"",""trial"",""time""
""fullscreenenter"",""1"",""1124""
","
","","","765.7000000476837","","","13","3336","2608","&#9761;","elianto","#3366ff99","-1"," ","0","+10","[1617]","1","0","2",""
"pit-trial","51","567373","0.0-2.0-11.4-4.4","battery-v0.2","","""event"",""trial"",""time""
""fullscreenenter"",""1"",""1124""
","
","
","""event"",""trial"",""time""
""fullscreenenter"",""1"",""1124""
","
","","","-1","","","13","3336","2608","&#9761;","elianto","#3366ff99","-1","-1","1","+10","[]","0","0","2",""
"pit-instructions","52","602329","0.0-2.0-11.4-5.4-0.4","battery-v0.2","","""event"",""trial"",""time""
""fullscreenenter"",""1"",""1124""
","
","
","""event"",""trial"",""time""
""fullscreenenter"",""1"",""1124""
","
","","[{""page_index"":0,""viewing_time"":7524.799999952316},{""page_index"":1,""viewing_time"":17723},{""page_index"":2,""viewing_time"":9703.5}]","34952.10000002384","","","","","","","","","","","","","","","","",""
"pit-trial","53","605712","0.0-2.0-11.5-0.5","battery-v0.2","","""event"",""trial"",""time""
""fullscreenenter"",""1"",""1124""
","
","
","""event"",""trial"",""time""
""fullscreenenter"",""1"",""1124""
","
","","","521.7999999523163","","","13","3336","2608","&#9761;","elianto","#3366ff99","-1"," ","0","0","[1372.4000000953674]","1","0","2",""
"pit-trial","54","608962","0.0-2.0-11.5-1.5","battery-v0.2","","""event"",""trial"",""time""
""fullscreenenter"",""1"",""1124""
","
","
","""event"",""trial"",""time""
""fullscreenenter"",""1"",""1124""
","
","","","387.89999997615814","","","13","3336","2608","&#9761;","elianto","#3366ff99","-1"," ","0","0","[1239.1000000238419]","1","0","2",""
"pit-trial","55","612147","0.0-2.0-11.5-2.5","battery-v0.2","","""event"",""trial"",""time""
""fullscreenenter"",""1"",""1124""
","
","
","""event"",""trial"",""time""
""fullscreenenter"",""1"",""1124""
","
","","","330.60000002384186","","","13","3336","2608","&#9761;","elianto","#3366ff99","-1"," ","0","0","[1180.7999999523163]","1","0","2",""
"pit-trial","56","615251","0.0-2.0-11.5-3.5","battery-v0.2","","""event"",""trial"",""time""
""fullscreenenter"",""1"",""1124""
","
","
","""event"",""trial"",""time""
""fullscreenenter"",""1"",""1124""
","
","","","244.09999990463257","","","13","3336","2608","&#9761;","elianto","#3366ff99","-1"," ","0","+10","[1094.2999999523163]","1","0","2",""
"pit-trial","57","618323","0.0-2.0-11.5-4.5","battery-v0.2","","""event"",""trial"",""time""
""fullscreenenter"",""1"",""1124""
","
","
","""event"",""trial"",""time""
""fullscreenenter"",""1"",""1124""
","
","","","210.69999992847443","","","13","3336","2608","&#9761;","elianto","#3366ff99","-1"," ","0","0","[1061.5]","1","0","2",""
"pit-trial","58","622032","0.0-2.0-11.6-0.6","battery-v0.2","","""event"",""trial"",""time""
""fullscreenenter"",""1"",""1124""
","
","
","""event"",""trial"",""time""
""fullscreenenter"",""1"",""1124""
","
","","","845.8999999761581","","","13","3336","2608","&#9761;","elianto","#3366ff99","-1"," ","0","0","[1698.5]","1","0","2",""
"pit-trial","59","625106","0.0-2.0-11.6-1.6","battery-v0.2","","""event"",""trial"",""time""
""fullscreenenter"",""1"",""1124""
","
","
","""event"",""trial"",""time""
""fullscreenenter"",""1"",""1124""
","
","","","213.5","","","13","3336","2608","&#9761;","elianto","#3366ff99","-1"," ","0","0","[1064]","1","0","2",""
"pit-trial","60","628248","0.0-2.0-11.6-2.6","battery-v0.2","","""event"",""trial"",""time""
""fullscreenenter"",""1"",""1124""
","
","
","""event"",""trial"",""time""
""fullscreenenter"",""1"",""1124""
","
","","","280","","","13","3336","2608","&#9761;","elianto","#3366ff99","-1"," ","0","0","[1132.6000000238419]","1","0","2",""
"pit-trial","61","631498","0.0-2.0-11.6-3.6","battery-v0.2","","""event"",""trial"",""time""
""fullscreenenter"",""1"",""1124""
","
","
","""event"",""trial"",""time""
""fullscreenenter"",""1"",""1124""
","
","","","392","","","13","3336","2608","&#9761;","elianto","#3366ff99","-1"," ","0","+10","[1242.2999999523163]","1","0","2",""
"pit-trial","62","634532","0.0-2.0-11.6-4.6","battery-v0.2","","""event"",""trial"",""time""
""fullscreenenter"",""1"",""1124""
","
","
","""event"",""trial"",""time""
""fullscreenenter"",""1"",""1124""
","
","","","178.39999997615814","","","13","3336","2608","&#9761;","elianto","#3366ff99","-1"," ","0","0","[1028.5]","1","0","2",""
"pit-trial","63","639393","0.0-2.0-11.7-0.7","battery-v0.2","","""event"",""trial"",""time""
""fullscreenenter"",""1"",""1124""
","
","
","""event"",""trial"",""time""
""fullscreenenter"",""1"",""1124""
","
","","","-1","","","13","3336","2608","&#9761;","elianto","#3366ff99","-1","-1","1","+10","[3914.899999976158]","1","0","2",""
"pit-trial","64","642591","0.0-2.0-11.7-1.7","battery-v0.2","","""event"",""trial"",""time""
""fullscreenenter"",""1"",""1124""
","
","
","""event"",""trial"",""time""
""fullscreenenter"",""1"",""1124""
","
","","","340.5","","","13","3336","2608","&#9761;","elianto","#3366ff99","-1"," ","0","0","[1192]","1","0","2",""
"pit-trial","65","645633","0.0-2.0-11.7-2.7","battery-v0.2","","""event"",""trial"",""time""
""fullscreenenter"",""1"",""1124""
","
","
","""event"",""trial"",""time""
""fullscreenenter"",""1"",""1124""
","
","","","180.90000009536743","","","13","3336","2608","&#9761;","elianto","#3366ff99","-1"," ","0","0","[1033.3000000715256]","1","0","2",""
"pit-trial","66","648653","0.0-2.0-11.7-3.7","battery-v0.2","","""event"",""trial"",""time""
""fullscreenenter"",""1"",""1124""
","
","
","""event"",""trial"",""time""
""fullscreenenter"",""1"",""1124""
","
","","","164","","","13","3336","2608","&#9761;","elianto","#3366ff99","-1"," ","0","+10","[1014.8999999761581]","1","0","2",""
"pit-trial","67","651758","0.0-2.0-11.7-4.7","battery-v0.2","","""event"",""trial"",""time""
""fullscreenenter"",""1"",""1124""
","
","
","""event"",""trial"",""time""
""fullscreenenter"",""1"",""1124""
","
","","","244.40000009536743","","","13","3336","2608","&#9761;","elianto","#3366ff99","-1"," ","0","0","[1095.7000000476837]","1","0","2",""
"pit-trial","68","654852","0.0-2.0-11.8-0.8","battery-v0.2","","""event"",""trial"",""time""
""fullscreenenter"",""1"",""1124""
","
","
","""event"",""trial"",""time""
""fullscreenenter"",""1"",""1124""
","
","","","231.29999995231628","","","13","3336","2608","&#9761;","elianto","#3366ff99","-1"," ","0","0","[1083.8999999761581]","1","0","2",""
"pit-trial","69","658016","0.0-2.0-11.8-1.8","battery-v0.2","","""event"",""trial"",""time""
""fullscreenenter"",""1"",""1124""
","
","
","""event"",""trial"",""time""
""fullscreenenter"",""1"",""1124""
","
","","","305.7000000476837","","","13","3336","2608","&#9761;","elianto","#3366ff99","-1"," ","0","0","[1156.8999999761581]","1","0","2",""
"pit-trial","70","661104","0.0-2.0-11.8-2.8","battery-v0.2","","""event"",""trial"",""time""
""fullscreenenter"",""1"",""1124""
","
","
","""event"",""trial"",""time""
""fullscreenenter"",""1"",""1124""
","
","","","229.40000009536743","","","13","3336","2608","&#9761;","elianto","#3366ff99","-1"," ","0","0","[1080.6000000238419]","1","0","2",""
"pit-trial","71","664308","0.0-2.0-11.8-3.8","battery-v0.2","","""event"",""trial"",""time""
""fullscreenenter"",""1"",""1124""
","
","
","""event"",""trial"",""time""
""fullscreenenter"",""1"",""1124""
","
","","","346.3000000715256","","","13","3336","2608","&#9761;","elianto","#3366ff99","-1"," ","0","+10","[313.1999999284744,1198.2999999523163]","2","0","2",""
"pit-trial","72","667373","0.0-2.0-11.8-4.8","battery-v0.2","","""event"",""trial"",""time""
""fullscreenenter"",""1"",""1124""
","
","
","""event"",""trial"",""time""
""fullscreenenter"",""1"",""1124""
","
","","","204.5","","","13","3336","2608","&#9761;","elianto","#3366ff99","-1"," ","0","0","[1056.8999999761581,2265.399999976158]","2","0","2",""
"pit-trial","73","670485","0.0-2.0-11.9-0.9","battery-v0.2","","""event"",""trial"",""time""
""fullscreenenter"",""1"",""1124""
","
","
","""event"",""trial"",""time""
""fullscreenenter"",""1"",""1124""
","
","","","252.30000007152557","","","13","3336","2608","&#9761;","elianto","#3366ff99","-1"," ","0","0","[1104.9000000953674]","1","0","2",""
"pit-trial","74","673469","0.0-2.0-11.9-1.9","battery-v0.2","","""event"",""trial"",""time""
""fullscreenenter"",""1"",""1124""
","
","
","""event"",""trial"",""time""
""fullscreenenter"",""1"",""1124""
","
","","","125.10000002384186","","","13","3336","2608","&#9761;","elianto","#3366ff99","-1"," ","0","0","[975]","1","0","2",""
"pit-trial","75","676406","0.0-2.0-11.9-2.9","battery-v0.2","","""event"",""trial"",""time""
""fullscreenenter"",""1"",""1124""
","
","
","""event"",""trial"",""time""
""fullscreenenter"",""1"",""1124""
","
","","","77.60000002384186","","","13","3336","2608","&#9761;","elianto","#3366ff99","-1"," ","0","0","[929.6000000238419]","1","0","2",""
"pit-trial","76","679610","0.0-2.0-11.9-3.9","battery-v0.2","","""event"",""trial"",""time""
""fullscreenenter"",""1"",""1124""
","
","
","""event"",""trial"",""time""
""fullscreenenter"",""1"",""1124""
","
","","","345.89999997615814","","","13","3336","2608","&#9761;","elianto","#3366ff99","-1"," ","0","+10","[1196.5]","1","0","2",""
"pit-trial","77","682884","0.0-2.0-11.9-4.9","battery-v0.2","","""event"",""trial"",""time""
""fullscreenenter"",""1"",""1124""
","
","
","""event"",""trial"",""time""
""fullscreenenter"",""1"",""1124""
","
","","","416.2999999523163","","","13","3336","2608","&#9761;","elianto","#3366ff99","-1"," ","0","0","[1267.6000000238419]","1","0","2",""
"pit-trial","78","685931","0.0-2.0-11.10-0.10","battery-v0.2","","""event"",""trial"",""time""
""fullscreenenter"",""1"",""1124""
","
","
","""event"",""trial"",""time""
""fullscreenenter"",""1"",""1124""
","
","","","187.29999995231628","","","13","3336","2608","&#9761;","elianto","#3366ff99","-1"," ","0","0","[1038]","1","0","2",""
"pit-trial","79","689081","0.0-2.0-11.10-1.10","battery-v0.2","","""event"",""trial"",""time""
""fullscreenenter"",""1"",""1124""
","
","
","""event"",""trial"",""time""
""fullscreenenter"",""1"",""1124""
","
","","","290.5","","","13","3336","2608","&#9761;","elianto","#3366ff99","-1"," ","0","0","[1140.5999999046326]","1","0","2",""
"pit-trial","80","692114","0.0-2.0-11.10-2.10","battery-v0.2","","""event"",""trial"",""time""
""fullscreenenter"",""1"",""1124""
","
","
","""event"",""trial"",""time""
""fullscreenenter"",""1"",""1124""
","
","","","176.59999990463257","","","13","3336","2608","&#9761;","elianto","#3366ff99","-1"," ","0","0","[1026.7000000476837]","1","0","2",""
"pit-trial","81","695007","0.0-2.0-11.10-3.10","battery-v0.2","","""event"",""trial"",""time""
""fullscreenenter"",""1"",""1124""
","
","
","""event"",""trial"",""time""
""fullscreenenter"",""1"",""1124""
","
","","","36.200000047683716","","","13","3336","2608","&#9761;","elianto","#3366ff99","-1"," ","0","+10","[886.6000000238419,1429]","2","0","2",""
"pit-trial","82","698163","0.0-2.0-11.10-4.10","battery-v0.2","","""event"",""trial"",""time""
""fullscreenenter"",""1"",""1124""
","
","
","""event"",""trial"",""time""
""fullscreenenter"",""1"",""1124""
","
","","","298","","","13","3336","2608","&#9761;","elianto","#3366ff99","-1"," ","0","0","[1150.6999999284744]","1","0","2",""
"pit-trial","83","701449","0.0-2.0-11.11-0.11","battery-v0.2","","""event"",""trial"",""time""
""fullscreenenter"",""1"",""1124""
","
","
","""event"",""trial"",""time""
""fullscreenenter"",""1"",""1124""
","
","","","425.90000009536743","","","13","3336","2608","&#9761;","elianto","#3366ff99","-1"," ","0","0","[473,1276.8000000715256]","2","0","2",""
"pit-trial","84","704676","0.0-2.0-11.11-1.11","battery-v0.2","","""event"",""trial"",""time""
""fullscreenenter"",""1"",""1124""
","
","
","""event"",""trial"",""time""
""fullscreenenter"",""1"",""1124""
","
","","","369.60000002384186","","","13","3336","2608","&#9761;","elianto","#3366ff99","-1"," ","0","0","[1220.5]","1","0","2",""
"pit-trial","85","707706","0.0-2.0-11.11-2.11","battery-v0.2","","""event"",""trial"",""time""
""fullscreenenter"",""1"",""1124""
","
","
","""event"",""trial"",""time""
""fullscreenenter"",""1"",""1124""
","
","","","171.79999995231628","","","13","3336","2608","&#9761;","elianto","#3366ff99","-1"," ","0","0","[1023.7000000476837]","1","0","2",""
"pit-trial","86","710841","0.0-2.0-11.11-3.11","battery-v0.2","","""event"",""trial"",""time""
""fullscreenenter"",""1"",""1124""
","
","
","""event"",""trial"",""time""
""fullscreenenter"",""1"",""1124""
","
","","","274.1999999284744","","","13","3336","2608","&#9761;","elianto","#3366ff99","-1"," ","0","+10","[1126.5]","1","0","2",""
"pit-trial","87","713959","0.0-2.0-11.11-4.11","battery-v0.2","","""event"",""trial"",""time""
""fullscreenenter"",""1"",""1124""
","
","
","""event"",""trial"",""time""
""fullscreenenter"",""1"",""1124""
","
","","","257.60000002384186","","","13","3336","2608","&#9761;","elianto","#3366ff99","-1"," ","0","0","[1110.1000000238419]","1","0","2",""
"pit-trial","88","717012","0.0-2.0-11.12-0.12","battery-v0.2","","""event"",""trial"",""time""
""fullscreenenter"",""1"",""1124""
","
","
","""event"",""trial"",""time""
""fullscreenenter"",""1"",""1124""
","
","","","191.20000004768372","","","13","3336","2608","&#9761;","elianto","#3366ff99","-1"," ","0","0","[1043.7000000476837]","1","0","2",""
"pit-trial","89","720141","0.0-2.0-11.12-1.12","battery-v0.2","","""event"",""trial"",""time""
""fullscreenenter"",""1"",""1124""
","
","
","""event"",""trial"",""time""
""fullscreenenter"",""1"",""1124""
","
","","","271.1999999284744","","","13","3336","2608","&#9761;","elianto","#3366ff99","-1"," ","0","0","[1122.3999999761581]","1","0","2",""
"pit-trial","90","723641","0.0-2.0-11.12-2.12","battery-v0.2","","""event"",""trial"",""time""
""fullscreenenter"",""1"",""1124""
","
","
","""event"",""trial"",""time""
""fullscreenenter"",""1"",""1124""
","
","","","638.7000000476837","","","13","3336","2608","&#9761;","elianto","#3366ff99","-1"," ","0","0","[654.2999999523163,1491.5]","2","0","2",""
"pit-trial","91","727449","0.0-2.0-11.12-3.12","battery-v0.2","","""event"",""trial"",""time""
""fullscreenenter"",""1"",""1124""
","
","
","""event"",""trial"",""time""
""fullscreenenter"",""1"",""1124""
","
","","","944.3000000715256","","","13","3336","2608","&#9761;","elianto","#3366ff99","-1"," ","0","+10","[1797]","1","0","2",""
"pit-trial","92","730676","0.0-2.0-11.12-4.12","battery-v0.2","","""event"",""trial"",""time""
""fullscreenenter"",""1"",""1124""
","
","
","""event"",""trial"",""time""
""fullscreenenter"",""1"",""1124""
","
","","","365.7000000476837","","","13","3336","2608","&#9761;","elianto","#3366ff99","-1"," ","0","0","[1216.5]","1","0","2",""
"pit-trial","93","733690","0.0-2.0-11.13-0.13","battery-v0.2","","""event"",""trial"",""time""
""fullscreenenter"",""1"",""1124""
","
","
","""event"",""trial"",""time""
""fullscreenenter"",""1"",""1124""
","
","","","156.79999995231628","","","13","3336","2608","&#9761;","elianto","#3366ff99","-1"," ","0","0","[1008.1000000238419]","1","0","2",""
"pit-trial","94","738548","0.0-2.0-11.13-1.13","battery-v0.2","","""event"",""trial"",""time""
""fullscreenenter"",""1"",""1124""
","
","
","""event"",""trial"",""time""
""fullscreenenter"",""1"",""1124""
","
","","","-1","","","13","3336","2608","&#9761;","elianto","#3366ff99","-1","-1","1","+10","[3288.9000000953674]","1","0","2",""
"pit-trial","95","741625","0.0-2.0-11.13-2.13","battery-v0.2","","""event"",""trial"",""time""
""fullscreenenter"",""1"",""1124""
","
","
","""event"",""trial"",""time""
""fullscreenenter"",""1"",""1124""
","
","","","220.20000004768372","","","13","3336","2608","&#9761;","elianto","#3366ff99","-1"," ","0","0","[1070.2000000476837]","1","0","2",""
"pit-trial","96","744707","0.0-2.0-11.13-3.13","battery-v0.2","","""event"",""trial"",""time""
""fullscreenenter"",""1"",""1124""
","
","
","""event"",""trial"",""time""
""fullscreenenter"",""1"",""1124""
","
","","","221.39999997615814","","","13","3336","2608","&#9761;","elianto","#3366ff99","-1"," ","0","+10","[1073.7000000476837]","1","0","2",""
"pit-trial","97","747825","0.0-2.0-11.13-4.13","battery-v0.2","","""event"",""trial"",""time""
""fullscreenenter"",""1"",""1124""
","
","
","""event"",""trial"",""time""
""fullscreenenter"",""1"",""1124""
","
","","","259.60000002384186","","","13","3336","2608","&#9761;","elianto","#3366ff99","-1"," ","0","0","[1112.1999999284744]","1","0","2",""
"pit-trial","98","751029","0.0-2.0-11.14-0.14","battery-v0.2","","""event"",""trial"",""time""
""fullscreenenter"",""1"",""1124""
","
","
","""event"",""trial"",""time""
""fullscreenenter"",""1"",""1124""
","
","","","343.89999997615814","","","13","3336","2608","&#9761;","elianto","#3366ff99","-1"," ","0","0","[1196.7999999523163]","1","0","2",""
"pit-trial","99","754280","0.0-2.0-11.14-1.14","battery-v0.2","","""event"",""trial"",""time""
""fullscreenenter"",""1"",""1124""
","
","
","""event"",""trial"",""time""
""fullscreenenter"",""1"",""1124""
","
","","","389.7999999523163","","","13","3336","2608","&#9761;","elianto","#3366ff99","-1"," ","0","0","[1241.3999999761581]","1","0","2",""
"pit-trial","100","757525","0.0-2.0-11.14-2.14","battery-v0.2","","""event"",""trial"",""time""
""fullscreenenter"",""1"",""1124""
","
","
","""event"",""trial"",""time""
""fullscreenenter"",""1"",""1124""
","
","","","385.60000002384186","","","13","3336","2608","&#9761;","elianto","#3366ff99","-1"," ","0","0","[1236.5]","1","0","2",""
"pit-trial","101","760857","0.0-2.0-11.14-3.14","battery-v0.2","","""event"",""trial"",""time""
""fullscreenenter"",""1"",""1124""
","
","
","""event"",""trial"",""time""
""fullscreenenter"",""1"",""1124""
","
","","","473","","","13","3336","2608","&#9761;","elianto","#3366ff99","-1"," ","0","+10","[1325.7000000476837]","1","0","2",""
"pit-trial","102","764215","0.0-2.0-11.14-4.14","battery-v0.2","","""event"",""trial"",""time""
""fullscreenenter"",""1"",""1124""
","
","
","""event"",""trial"",""time""
""fullscreenenter"",""1"",""1124""
","
","","","495.8000000715256","","","13","3336","2608","&#9761;","elianto","#3366ff99","-1"," ","0","0","[1348.6000000238419]","1","0","2",""
"pit-trial","103","767376","0.0-2.0-11.15-0.15","battery-v0.2","","""event"",""trial"",""time""
""fullscreenenter"",""1"",""1124""
","
","
","""event"",""trial"",""time""
""fullscreenenter"",""1"",""1124""
","
","","","305.10000002384186","","","13","3336","2608","&#9761;","elianto","#3366ff99","-1"," ","0","0","[1155.3999999761581]","1","0","2",""
"pit-trial","104","770459","0.0-2.0-11.15-1.15","battery-v0.2","","""event"",""trial"",""time""
""fullscreenenter"",""1"",""1124""
","
","
","""event"",""trial"",""time""
""fullscreenenter"",""1"",""1124""
","
","","","221.10000002384186","","","13","3336","2608","&#9761;","elianto","#3366ff99","-1"," ","0","0","[1072.6000000238419]","1","0","2",""
"pit-trial","105","773675","0.0-2.0-11.15-2.15","battery-v0.2","","""event"",""trial"",""time""
""fullscreenenter"",""1"",""1124""
","
","
","""event"",""trial"",""time""
""fullscreenenter"",""1"",""1124""
","
","","","354","","","13","3336","2608","&#9761;","elianto","#3366ff99","-1"," ","0","0","[1206.2999999523163]","1","0","2",""
"pit-trial","106","776728","0.0-2.0-11.15-3.15","battery-v0.2","","""event"",""trial"",""time""
""fullscreenenter"",""1"",""1124""
","
","
","""event"",""trial"",""time""
""fullscreenenter"",""1"",""1124""
","
","","","191.39999997615814","","","13","3336","2608","&#9761;","elianto","#3366ff99","-1"," ","0","+10","[1044.3000000715256]","1","0","2",""
"pit-trial","107","779851","0.0-2.0-11.15-4.15","battery-v0.2","","""event"",""trial"",""time""
""fullscreenenter"",""1"",""1124""
","
","
","""event"",""trial"",""time""
""fullscreenenter"",""1"",""1124""
","
","","","266.10000002384186","","","13","3336","2608","&#9761;","elianto","#3366ff99","-1"," ","0","0","[1116.8000000715256]","1","0","2",""
"pit-trial","108","782963","0.0-2.0-11.16-0.16","battery-v0.2","","""event"",""trial"",""time""
""fullscreenenter"",""1"",""1124""
","
","
","""event"",""trial"",""time""
""fullscreenenter"",""1"",""1124""
","
","","","254.59999990463257","","","13","3336","2608","&#9761;","elianto","#3366ff99","-1"," ","0","0","[1105.4000000953674]","1","0","2",""
"pit-trial","109","785990","0.0-2.0-11.16-1.16","battery-v0.2","","""event"",""trial"",""time""
""fullscreenenter"",""1"",""1124""
","
","
","""event"",""trial"",""time""
""fullscreenenter"",""1"",""1124""
","
","","","169.39999997615814","","","13","3336","2608","&#9761;","elianto","#3366ff99","-1"," ","0","0","[1020.7999999523163]","1","0","2",""
"pit-trial","110","789185","0.0-2.0-11.16-2.16","battery-v0.2","","""event"",""trial"",""time""
""fullscreenenter"",""1"",""1124""
","
","
","""event"",""trial"",""time""
""fullscreenenter"",""1"",""1124""
","
","","","335.7999999523163","","","13","3336","2608","&#9761;","elianto","#3366ff99","-1"," ","0","0","[1188]","1","0","2",""
"pit-trial","111","792211","0.0-2.0-11.16-3.16","battery-v0.2","","""event"",""trial"",""time""
""fullscreenenter"",""1"",""1124""
","
","
","""event"",""trial"",""time""
""fullscreenenter"",""1"",""1124""
","
","","","169.60000002384186","","","13","3336","2608","&#9761;","elianto","#3366ff99","-1"," ","0","+10","[1019.7000000476837]","1","0","2",""
"pit-trial","112","795327","0.0-2.0-11.16-4.16","battery-v0.2","","""event"",""trial"",""time""
""fullscreenenter"",""1"",""1124""
","
","
","""event"",""trial"",""time""
""fullscreenenter"",""1"",""1124""
","
","","","256.2000000476837","","","13","3336","2608","&#9761;","elianto","#3366ff99","-1"," ","0","0","[1107.7999999523163]","1","0","2",""
"pit-trial","113","798694","0.0-2.0-11.17-0.17","battery-v0.2","","""event"",""trial"",""time""
""fullscreenenter"",""1"",""1124""
","
","
","""event"",""trial"",""time""
""fullscreenenter"",""1"",""1124""
","
","","","506.5","","","13","3336","2608","&#9761;","elianto","#3366ff99","-1"," ","0","0","[1357.3999999761581]","1","0","2",""
"pit-trial","114","801997","0.0-2.0-11.17-1.17","battery-v0.2","","""event"",""trial"",""time""
""fullscreenenter"",""1"",""1124""
","
","
","""event"",""trial"",""time""
""fullscreenenter"",""1"",""1124""
","
","","","445.5","","","13","3336","2608","&#9761;","elianto","#3366ff99","-1"," ","0","0","[1296.1999999284744]","1","0","2",""
"pit-trial","115","805045","0.0-2.0-11.17-2.17","battery-v0.2","","""event"",""trial"",""time""
""fullscreenenter"",""1"",""1124""
","
","
","""event"",""trial"",""time""
""fullscreenenter"",""1"",""1124""
","
","","","188.20000004768372","","","13","3336","2608","&#9761;","elianto","#3366ff99","-1"," ","0","0","[1038.3999999761581]","1","0","2",""
"pit-trial","116","808202","0.0-2.0-11.17-3.17","battery-v0.2","","""event"",""trial"",""time""
""fullscreenenter"",""1"",""1124""
","
","
","""event"",""trial"",""time""
""fullscreenenter"",""1"",""1124""
","
","","","298.39999997615814","","","13","3336","2608","&#9761;","elianto","#3366ff99","-1"," ","0","+10","[1149]","1","0","2",""
"pit-trial","117","811192","0.0-2.0-11.17-4.17","battery-v0.2","","""event"",""trial"",""time""
""fullscreenenter"",""1"",""1124""
","
","
","""event"",""trial"",""time""
""fullscreenenter"",""1"",""1124""
","
","","","135.89999997615814","","","13","3336","2608","&#9761;","elianto","#3366ff99","-1"," ","0","0","[986.8999999761581]","1","0","2",""
"pit-trial","118","814223","0.0-2.0-11.18-0.18","battery-v0.2","","""event"",""trial"",""time""
""fullscreenenter"",""1"",""1124""
","
","
","""event"",""trial"",""time""
""fullscreenenter"",""1"",""1124""
","
","","","168.80000007152557","","","13","3336","2608","&#9761;","elianto","#3366ff99","-1"," ","0","0","[1021.1000000238419]","1","0","2",""
"pit-trial","119","817230","0.0-2.0-11.18-1.18","battery-v0.2","","""event"",""trial"",""time""
""fullscreenenter"",""1"",""1124""
","
","
","""event"",""trial"",""time""
""fullscreenenter"",""1"",""1124""
","
","","","149.20000004768372","","","13","3336","2608","&#9761;","elianto","#3366ff99","-1"," ","0","0","[1001.6000000238419]","1","0","2",""
"pit-trial","120","820608","0.0-2.0-11.18-2.18","battery-v0.2","","""event"",""trial"",""time""
""fullscreenenter"",""1"",""1124""
","
","
","""event"",""trial"",""time""
""fullscreenenter"",""1"",""1124""
","
","","","520.7000000476837","","","13","3336","2608","&#9761;","elianto","#3366ff99","-1"," ","0","0","[1370.7000000476837]","1","0","2",""
"pit-trial","121","825467","0.0-2.0-11.18-3.18","battery-v0.2","","""event"",""trial"",""time""
""fullscreenenter"",""1"",""1124""
","
","
","""event"",""trial"",""time""
""fullscreenenter"",""1"",""1124""
","
","","","-1","","","13","3336","2608","&#9761;","elianto","#3366ff99","-1","-1","1","0","[]","0","0","2",""
"pit-trial","122","828480","0.0-2.0-11.18-4.18","battery-v0.2","","""event"",""trial"",""time""
""fullscreenenter"",""1"",""1124""
""blur"",""123"",""842361""
""focus"",""123"",""842363""
""fullscreenexit"",""123"",""842371""
","""event"",""trial"",""time""
""blur"",""123"",""842361""
","""event"",""trial"",""time""
""focus"",""123"",""842363""
","""event"",""trial"",""time""
""fullscreenenter"",""1"",""1124""
","""event"",""trial"",""time""
""fullscreenexit"",""123"",""842371""
","","","152.89999997615814","","","13","3336","2608","&#9761;","elianto","#3366ff99","-1"," ","0","0","[1003.3999999761581]","1","0","2",""
