"trial_type","trial_index","time_elapsed","internal_node_id","task_version","subject_id","interactions","blur_events","focus_events","fullscreenenter_events","fullscreenexit_events","success","view_history","rt","responses","num_errors","age","subject","participantId","rune","rune_set","hex","correct","choice","accuracy","outcome","keys","total_keys","block","practice","value","sub","trial","stimulus","robot","valence","action","sham"
"pavlovia","0","16","0.0-0.0","battery-v0.2","","""event"",""trial"",""time""
""fullscreenenter"",""1"",""4993""
","
","
","""event"",""trial"",""time""
""fullscreenenter"",""1"",""4993""
","
","","","","","","","","","","","","","","","","","","","","","","","","","","",""
"fullscreen","1","5965","0.0-1.0","battery-v0.2","","""event"",""trial"",""time""
""fullscreenenter"",""1"",""4993""
","
","
","""event"",""trial"",""time""
""fullscreenenter"",""1"",""4993""
","
","true","","","","","","","","","","","","","","","","","","","","","","","","","",""
"pit-instructions","2","11992","0.0-2.0-0.0","battery-v0.2","","""event"",""trial"",""time""
""fullscreenenter"",""1"",""4993""
","
","
","""event"",""trial"",""time""
""fullscreenenter"",""1"",""4993""
","
","","[{""page_index"":0,""viewing_time"":6021.899999976158}]","6022.5","","","","","","","","","","","","","","","","","","","","","","","",""
"pit-comprehension","3","16452","0.0-2.0-1.0-0.0","battery-v0.2","","""event"",""trial"",""time""
""fullscreenenter"",""1"",""4993""
","
","
","""event"",""trial"",""time""
""fullscreenenter"",""1"",""4993""
","
","","","4454.899999976158","[""shark""]","0","24","10240","3861","","","","","","","","","","","","","","","","","","",""
"pit-instructions","4","19930","0.0-2.0-1.0-1.0","battery-v0.2","","""event"",""trial"",""time""
""fullscreenenter"",""1"",""4993""
","
","
","""event"",""trial"",""time""
""fullscreenenter"",""1"",""4993""
","
","","[{""page_index"":0,""viewing_time"":3465.300000011921}]","3465.7000000476837","","","","","","","","","","","","","","","","","","","","","","","",""
"pit-comprehension","5","24278","0.0-2.0-2.0-0.0","battery-v0.2","","""event"",""trial"",""time""
""fullscreenenter"",""1"",""4993""
","
","
","""event"",""trial"",""time""
""fullscreenenter"",""1"",""4993""
","
","","","4343.699999988079","[""tiger""]","0","24","10240","3861","","","","","","","","","","","","","","","","","","",""
"pit-instructions","6","36790","0.0-2.0-2.0-1.0","battery-v0.2","","""event"",""trial"",""time""
""fullscreenenter"",""1"",""4993""
","
","
","""event"",""trial"",""time""
""fullscreenenter"",""1"",""4993""
","
","","[{""page_index"":0,""viewing_time"":12507.900000035763}]","12508.100000023842","","","","","","","","","","","","","","","","","","","","","","","",""
"pit-instructions","7","164790","0.0-2.0-3.0","battery-v0.2","","""event"",""trial"",""time""
""fullscreenenter"",""1"",""4993""
","
","
","""event"",""trial"",""time""
""fullscreenenter"",""1"",""4993""
","
","","[{""page_index"":0,""viewing_time"":9139.100000023842},{""page_index"":1,""viewing_time"":7923.199999988079},{""page_index"":2,""viewing_time"":7259.699999988079},{""page_index"":3,""viewing_time"":8508.699999988079},{""page_index"":4,""viewing_time"":15562.300000011921},{""page_index"":5,""viewing_time"":6852},{""page_index"":6,""viewing_time"":8803.800000011921},{""page_index"":7,""viewing_time"":8408.399999976158},{""page_index"":8,""viewing_time"":6974.5},{""page_index"":9,""viewing_time"":11995.5},{""page_index"":10,""viewing_time"":8467.600000023842},{""page_index"":11,""viewing_time"":14434.5},{""page_index"":12,""viewing_time"":6449.699999988079},{""page_index"":13,""viewing_time"":7216.199999988079}]","127995.80000001192","","","","","","","","","","","","","","","","","","","","","","","",""
"pit-trial","8","168339","0.0-2.0-4.0-0.0","battery-v0.2","","""event"",""trial"",""time""
""fullscreenenter"",""1"",""4993""
","
","
","""event"",""trial"",""time""
""fullscreenenter"",""1"",""4993""
","
","","","688.1999999880791","","","24","10240","3861","&#9784;","elianto","#FFFFF080"," "," ","1","&#10004","[1539.300000011921]","1","0","0","","","","","","","",""
"pit-trial","9","172250","0.0-2.0-4.1-0.1","battery-v0.2","","""event"",""trial"",""time""
""fullscreenenter"",""1"",""4993""
","
","
","""event"",""trial"",""time""
""fullscreenenter"",""1"",""4993""
","
","","","1045.4000000357628","","","24","10240","3861","&#9784;","elianto","#FFFFF080"," "," ","1","&#10004","[1898.1000000238419]","1","0","0","","","","","","","",""
"pit-trial","10","175839","0.0-2.0-4.2-0.2","battery-v0.2","","""event"",""trial"",""time""
""fullscreenenter"",""1"",""4993""
","
","
","""event"",""trial"",""time""
""fullscreenenter"",""1"",""4993""
","
","","","718.5","","","24","10240","3861","&#9784;","elianto","#FFFFF080"," "," ","1","&#10004","[1575.8999999761581]","1","0","0","","","","","","","",""
"pit-trial","11","179810","0.0-2.0-4.3-0.3","battery-v0.2","","""event"",""trial"",""time""
""fullscreenenter"",""1"",""4993""
","
","
","""event"",""trial"",""time""
""fullscreenenter"",""1"",""4993""
","
","","","1108.1000000238419","","","24","10240","3861","&#9784;","elianto","#FFFFF080"," "," ","1","&#10004","[1960.2000000476837]","1","0","0","","","","","","","",""
"pit-trial","12","183530","0.0-2.0-4.4-0.4","battery-v0.2","","""event"",""trial"",""time""
""fullscreenenter"",""1"",""4993""
","
","
","""event"",""trial"",""time""
""fullscreenenter"",""1"",""4993""
","
","","","859.0999999642372","","","24","10240","3861","&#9784;","elianto","#FFFFF080"," "," ","1","&#10004","[1709.5]","1","0","0","","","","","","","",""
"pit-instructions","13","228220","0.0-2.0-5.0","battery-v0.2","","""event"",""trial"",""time""
""fullscreenenter"",""1"",""4993""
","
","
","""event"",""trial"",""time""
""fullscreenenter"",""1"",""4993""
","
","","[{""page_index"":0,""viewing_time"":13389.399999976158},{""page_index"":1,""viewing_time"":16744.899999976158},{""page_index"":2,""viewing_time"":7178},{""page_index"":3,""viewing_time"":7371.700000047684}]","44684.5","","","","","","","","","","","","","","","","","","","","","","","",""
"pit-trial","14","233091","0.0-2.0-6.0-0.0","battery-v0.2","","""event"",""trial"",""time""
""fullscreenenter"",""1"",""4993""
","
","
","""event"",""trial"",""time""
""fullscreenenter"",""1"",""4993""
","
","","","-1","","","24","10240","3861","&#9854;","elianto","#FFFFF080","-1","-1","1","&#10004","[]","0","0","1","","","","","","","",""
"pit-trial","15","237963","0.0-2.0-6.1-0.1","battery-v0.2","","""event"",""trial"",""time""
""fullscreenenter"",""1"",""4993""
","
","
","""event"",""trial"",""time""
""fullscreenenter"",""1"",""4993""
","
","","","-1","","","24","10240","3861","&#9854;","elianto","#FFFFF080","-1","-1","1","&#10004","[]","0","0","1","","","","","","","",""
"pit-trial","16","242836","0.0-2.0-6.2-0.2","battery-v0.2","","""event"",""trial"",""time""
""fullscreenenter"",""1"",""4993""
","
","
","""event"",""trial"",""time""
""fullscreenenter"",""1"",""4993""
","
","","","-1","","","24","10240","3861","&#9854;","elianto","#FFFFF080","-1","-1","1","&#10004","[]","0","0","1","","","","","","","",""
"pit-trial","17","247708","0.0-2.0-6.3-0.3","battery-v0.2","","""event"",""trial"",""time""
""fullscreenenter"",""1"",""4993""
","
","
","""event"",""trial"",""time""
""fullscreenenter"",""1"",""4993""
","
","","","-1","","","24","10240","3861","&#9854;","elianto","#FFFFF080","-1","-1","1","&#10004","[]","0","0","1","","","","","","","",""
"pit-trial","18","252576","0.0-2.0-6.4-0.4","battery-v0.2","","""event"",""trial"",""time""
""fullscreenenter"",""1"",""4993""
""blur"",""19"",""339107""
""focus"",""19"",""340150""
""blur"",""19"",""341443""
""focus"",""19"",""344104""
""blur"",""19"",""346128""
""focus"",""19"",""347219""
","""event"",""trial"",""time""
""blur"",""19"",""339107""
""blur"",""19"",""341443""
""blur"",""19"",""346128""
","""event"",""trial"",""time""
""focus"",""19"",""340150""
""focus"",""19"",""344104""
""focus"",""19"",""347219""
","""event"",""trial"",""time""
""fullscreenenter"",""1"",""4993""
","
","","","-1","","","24","10240","3861","&#9854;","elianto","#FFFFF080","-1","-1","1","&#10004","[]","0","0","1","","","","","","","",""
"pit-instructions","19","427784","0.0-2.0-7.0","battery-v0.2","","""event"",""trial"",""time""
""fullscreenenter"",""1"",""4993""
""blur"",""19"",""339107""
""focus"",""19"",""340150""
""blur"",""19"",""341443""
""focus"",""19"",""344104""
""blur"",""19"",""346128""
""focus"",""19"",""347219""
","""event"",""trial"",""time""
""blur"",""19"",""339107""
""blur"",""19"",""341443""
""blur"",""19"",""346128""
","""event"",""trial"",""time""
""focus"",""19"",""340150""
""focus"",""19"",""344104""
""focus"",""19"",""347219""
","""event"",""trial"",""time""
""fullscreenenter"",""1"",""4993""
","
","","[{""page_index"":0,""viewing_time"":21031.5},{""page_index"":1,""viewing_time"":9019.699999988079},{""page_index"":2,""viewing_time"":8182.400000035763},{""page_index"":3,""viewing_time"":13946.099999964237},{""page_index"":4,""viewing_time"":9814.300000011921},{""page_index"":5,""viewing_time"":6311.899999976158},{""page_index"":6,""viewing_time"":6371},{""page_index"":7,""viewing_time"":8882.800000011921},{""page_index"":8,""viewing_time"":12312.400000035763},{""page_index"":9,""viewing_time"":9714.899999976158},{""page_index"":10,""viewing_time"":7724.699999988079},{""page_index"":11,""viewing_time"":4275},{""page_index"":12,""viewing_time"":10946.300000011921},{""page_index"":13,""viewing_time"":8170.699999988079},{""page_index"":14,""viewing_time"":8655.400000035763},{""page_index"":15,""viewing_time"":8050.099999964237},{""page_index"":16,""viewing_time"":8519.699999988079},{""page_index"":17,""viewing_time"":13289.700000047684}]","175219.10000002384","","","","","","","","","","","","","","","","","","","","","","","",""
"pit-trial","20","431341","0.0-2.0-8.0-0.0","battery-v0.2","","""event"",""trial"",""time""
""fullscreenenter"",""1"",""4993""
""blur"",""19"",""339107""
""focus"",""19"",""340150""
""blur"",""19"",""341443""
""focus"",""19"",""344104""
""blur"",""19"",""346128""
""focus"",""19"",""347219""
","""event"",""trial"",""time""
""blur"",""19"",""339107""
""blur"",""19"",""341443""
""blur"",""19"",""346128""
","""event"",""trial"",""time""
""focus"",""19"",""340150""
""focus"",""19"",""344104""
""focus"",""19"",""347219""
","""event"",""trial"",""time""
""fullscreenenter"",""1"",""4993""
","
","","","690.8999999761581","","","24","10240","3861","&#9776;","elianto","#3366ff99"," "," ","1","+10","[1546]","1","0","1","","","","","","","",""
"pit-trial","21","434922","0.0-2.0-8.0-1.0","battery-v0.2","","""event"",""trial"",""time""
""fullscreenenter"",""1"",""4993""
""blur"",""19"",""339107""
""focus"",""19"",""340150""
""blur"",""19"",""341443""
""focus"",""19"",""344104""
""blur"",""19"",""346128""
""focus"",""19"",""347219""
","""event"",""trial"",""time""
""blur"",""19"",""339107""
""blur"",""19"",""341443""
""blur"",""19"",""346128""
","""event"",""trial"",""time""
""focus"",""19"",""340150""
""focus"",""19"",""344104""
""focus"",""19"",""347219""
","""event"",""trial"",""time""
""fullscreenenter"",""1"",""4993""
","
","","","715.8000000119209","","","24","10240","3861","&#9776;","elianto","#3366ff99"," "," ","1","+10","[1569.199999988079]","1","0","1","","","","","","","",""
"pit-trial","22","438261","0.0-2.0-8.0-2.0","battery-v0.2","","""event"",""trial"",""time""
""fullscreenenter"",""1"",""4993""
""blur"",""19"",""339107""
""focus"",""19"",""340150""
""blur"",""19"",""341443""
""focus"",""19"",""344104""
""blur"",""19"",""346128""
""focus"",""19"",""347219""
","""event"",""trial"",""time""
""blur"",""19"",""339107""
""blur"",""19"",""341443""
""blur"",""19"",""346128""
","""event"",""trial"",""time""
""focus"",""19"",""340150""
""focus"",""19"",""344104""
""focus"",""19"",""347219""
","""event"",""trial"",""time""
""fullscreenenter"",""1"",""4993""
","
","","","475.39999997615814","","","24","10240","3861","&#9776;","elianto","#3366ff99"," "," ","1","+10","[1327.0999999642372]","1","0","1","","","","","","","",""
"pit-trial","23","442274","0.0-2.0-8.0-3.0","battery-v0.2","","""event"",""trial"",""time""
""fullscreenenter"",""1"",""4993""
""blur"",""19"",""339107""
""focus"",""19"",""340150""
""blur"",""19"",""341443""
""focus"",""19"",""344104""
""blur"",""19"",""346128""
""focus"",""19"",""347219""
","""event"",""trial"",""time""
""blur"",""19"",""339107""
""blur"",""19"",""341443""
""blur"",""19"",""346128""
","""event"",""trial"",""time""
""focus"",""19"",""340150""
""focus"",""19"",""344104""
""focus"",""19"",""347219""
","""event"",""trial"",""time""
""fullscreenenter"",""1"",""4993""
","
","","","1156.9000000357628","","","24","10240","3861","&#9776;","elianto","#3366ff99"," "," ","1","0","[2007.800000011921]","1","0","1","","","","","","","",""
"pit-trial","24","447140","0.0-2.0-8.0-4.0","battery-v0.2","","""event"",""trial"",""time""
""fullscreenenter"",""1"",""4993""
""blur"",""19"",""339107""
""focus"",""19"",""340150""
""blur"",""19"",""341443""
""focus"",""19"",""344104""
""blur"",""19"",""346128""
""focus"",""19"",""347219""
","""event"",""trial"",""time""
""blur"",""19"",""339107""
""blur"",""19"",""341443""
""blur"",""19"",""346128""
","""event"",""trial"",""time""
""focus"",""19"",""340150""
""focus"",""19"",""344104""
""focus"",""19"",""347219""
","""event"",""trial"",""time""
""fullscreenenter"",""1"",""4993""
","
","","","-1","","","24","10240","3861","&#9776;","elianto","#3366ff99"," ","-1","0","0","[2944.699999988079]","1","0","1","","","","","","","",""
"pit-trial","25","451237","0.0-2.0-8.1-0.1","battery-v0.2","","""event"",""trial"",""time""
""fullscreenenter"",""1"",""4993""
""blur"",""19"",""339107""
""focus"",""19"",""340150""
""blur"",""19"",""341443""
""focus"",""19"",""344104""
""blur"",""19"",""346128""
""focus"",""19"",""347219""
","""event"",""trial"",""time""
""blur"",""19"",""339107""
""blur"",""19"",""341443""
""blur"",""19"",""346128""
","""event"",""trial"",""time""
""focus"",""19"",""340150""
""focus"",""19"",""344104""
""focus"",""19"",""347219""
","""event"",""trial"",""time""
""fullscreenenter"",""1"",""4993""
","
","","","1231.199999988079","","","24","10240","3861","&#9776;","elianto","#3366ff99"," "," ","1","+10","[2084.399999976158]","1","0","1","","","","","","","",""
"pit-trial","26","455770","0.0-2.0-8.1-1.1","battery-v0.2","","""event"",""trial"",""time""
""fullscreenenter"",""1"",""4993""
""blur"",""19"",""339107""
""focus"",""19"",""340150""
""blur"",""19"",""341443""
""focus"",""19"",""344104""
""blur"",""19"",""346128""
""focus"",""19"",""347219""
","""event"",""trial"",""time""
""blur"",""19"",""339107""
""blur"",""19"",""341443""
""blur"",""19"",""346128""
","""event"",""trial"",""time""
""focus"",""19"",""340150""
""focus"",""19"",""344104""
""focus"",""19"",""347219""
","""event"",""trial"",""time""
""fullscreenenter"",""1"",""4993""
","
","","","1663.3999999761581","","","24","10240","3861","&#9776;","elianto","#3366ff99"," "," ","1","+10","[2519.800000011921]","1","0","1","","","","","","","",""
"pit-trial","27","459533","0.0-2.0-8.1-2.1","battery-v0.2","","""event"",""trial"",""time""
""fullscreenenter"",""1"",""4993""
""blur"",""19"",""339107""
""focus"",""19"",""340150""
""blur"",""19"",""341443""
""focus"",""19"",""344104""
""blur"",""19"",""346128""
""focus"",""19"",""347219""
","""event"",""trial"",""time""
""blur"",""19"",""339107""
""blur"",""19"",""341443""
""blur"",""19"",""346128""
","""event"",""trial"",""time""
""focus"",""19"",""340150""
""focus"",""19"",""344104""
""focus"",""19"",""347219""
","""event"",""trial"",""time""
""fullscreenenter"",""1"",""4993""
","
","","","901.6000000238419","","","24","10240","3861","&#9776;","elianto","#3366ff99"," "," ","1","+10","[1754.300000011921]","1","0","1","","","","","","","",""
"pit-trial","28","463179","0.0-2.0-8.1-3.1","battery-v0.2","","""event"",""trial"",""time""
""fullscreenenter"",""1"",""4993""
""blur"",""19"",""339107""
""focus"",""19"",""340150""
""blur"",""19"",""341443""
""focus"",""19"",""344104""
""blur"",""19"",""346128""
""focus"",""19"",""347219""
","""event"",""trial"",""time""
""blur"",""19"",""339107""
""blur"",""19"",""341443""
""blur"",""19"",""346128""
","""event"",""trial"",""time""
""focus"",""19"",""340150""
""focus"",""19"",""344104""
""focus"",""19"",""347219""
","""event"",""trial"",""time""
""fullscreenenter"",""1"",""4993""
","
","","","777.3000000119209","","","24","10240","3861","&#9776;","elianto","#3366ff99"," "," ","1","0","[1636.199999988079]","1","0","1","","","","","","","",""
"pit-trial","29","468045","0.0-2.0-8.1-4.1","battery-v0.2","","""event"",""trial"",""time""
""fullscreenenter"",""1"",""4993""
""blur"",""19"",""339107""
""focus"",""19"",""340150""
""blur"",""19"",""341443""
""focus"",""19"",""344104""
""blur"",""19"",""346128""
""focus"",""19"",""347219""
","""event"",""trial"",""time""
""blur"",""19"",""339107""
""blur"",""19"",""341443""
""blur"",""19"",""346128""
","""event"",""trial"",""time""
""focus"",""19"",""340150""
""focus"",""19"",""344104""
""focus"",""19"",""347219""
","""event"",""trial"",""time""
""fullscreenenter"",""1"",""4993""
","
","","","-1","","","24","10240","3861","&#9776;","elianto","#3366ff99"," ","-1","0","0","[]","0","0","1","","","","","","","",""
"pit-trial","30","471489","0.0-2.0-8.2-0.2","battery-v0.2","","""event"",""trial"",""time""
""fullscreenenter"",""1"",""4993""
""blur"",""19"",""339107""
""focus"",""19"",""340150""
""blur"",""19"",""341443""
""focus"",""19"",""344104""
""blur"",""19"",""346128""
""focus"",""19"",""347219""
","""event"",""trial"",""time""
""blur"",""19"",""339107""
""blur"",""19"",""341443""
""blur"",""19"",""346128""
","""event"",""trial"",""time""
""focus"",""19"",""340150""
""focus"",""19"",""344104""
""focus"",""19"",""347219""
","""event"",""trial"",""time""
""fullscreenenter"",""1"",""4993""
","
","","","577.6000000238419","","","24","10240","3861","&#9776;","elianto","#3366ff99"," "," ","1","+10","[1433.5]","1","0","1","","","","","","","",""
"pit-trial","31","476357","0.0-2.0-8.2-1.2","battery-v0.2","","""event"",""trial"",""time""
""fullscreenenter"",""1"",""4993""
""blur"",""19"",""339107""
""focus"",""19"",""340150""
""blur"",""19"",""341443""
""focus"",""19"",""344104""
""blur"",""19"",""346128""
""focus"",""19"",""347219""
","""event"",""trial"",""time""
""blur"",""19"",""339107""
""blur"",""19"",""341443""
""blur"",""19"",""346128""
","""event"",""trial"",""time""
""focus"",""19"",""340150""
""focus"",""19"",""344104""
""focus"",""19"",""347219""
","""event"",""trial"",""time""
""fullscreenenter"",""1"",""4993""
","
","","","-1","","","24","10240","3861","&#9776;","elianto","#3366ff99"," ","-1","0","0","[]","0","0","1","","","","","","","",""
"pit-trial","32","479989","0.0-2.0-8.2-2.2","battery-v0.2","","""event"",""trial"",""time""
""fullscreenenter"",""1"",""4993""
""blur"",""19"",""339107""
""focus"",""19"",""340150""
""blur"",""19"",""341443""
""focus"",""19"",""344104""
""blur"",""19"",""346128""
""focus"",""19"",""347219""
","""event"",""trial"",""time""
""blur"",""19"",""339107""
""blur"",""19"",""341443""
""blur"",""19"",""346128""
","""event"",""trial"",""time""
""focus"",""19"",""340150""
""focus"",""19"",""344104""
""focus"",""19"",""347219""
","""event"",""trial"",""time""
""fullscreenenter"",""1"",""4993""
","
","","","765.7000000476837","","","24","10240","3861","&#9776;","elianto","#3366ff99"," "," ","1","+10","[1619.1000000238419]","1","0","1","","","","","","","",""
"pit-trial","33","483486","0.0-2.0-8.2-3.2","battery-v0.2","","""event"",""trial"",""time""
""fullscreenenter"",""1"",""4993""
""blur"",""19"",""339107""
""focus"",""19"",""340150""
""blur"",""19"",""341443""
""focus"",""19"",""344104""
""blur"",""19"",""346128""
""focus"",""19"",""347219""
","""event"",""trial"",""time""
""blur"",""19"",""339107""
""blur"",""19"",""341443""
""blur"",""19"",""346128""
","""event"",""trial"",""time""
""focus"",""19"",""340150""
""focus"",""19"",""344104""
""focus"",""19"",""347219""
","""event"",""trial"",""time""
""fullscreenenter"",""1"",""4993""
","
","","","625.5","","","24","10240","3861","&#9776;","elianto","#3366ff99"," "," ","1","0","[1481.7999999523163]","1","0","1","","","","","","","",""
"pit-trial","34","487539","0.0-2.0-8.2-4.2","battery-v0.2","","""event"",""trial"",""time""
""fullscreenenter"",""1"",""4993""
""blur"",""19"",""339107""
""focus"",""19"",""340150""
""blur"",""19"",""341443""
""focus"",""19"",""344104""
""blur"",""19"",""346128""
""focus"",""19"",""347219""
","""event"",""trial"",""time""
""blur"",""19"",""339107""
""blur"",""19"",""341443""
""blur"",""19"",""346128""
","""event"",""trial"",""time""
""focus"",""19"",""340150""
""focus"",""19"",""344104""
""focus"",""19"",""347219""
","""event"",""trial"",""time""
""fullscreenenter"",""1"",""4993""
","
","","","1183.5","","","24","10240","3861","&#9776;","elianto","#3366ff99"," "," ","1","+10","[2042.199999988079]","1","0","1","","","","","","","",""
"call-function","35","487542","0.0-2.0-9.0","battery-v0.2","","""event"",""trial"",""time""
""fullscreenenter"",""1"",""4993""
""blur"",""19"",""339107""
""focus"",""19"",""340150""
""blur"",""19"",""341443""
""focus"",""19"",""344104""
""blur"",""19"",""346128""
""focus"",""19"",""347219""
""fullscreenexit"",""36"",""493391""
""blur"",""36"",""496937""
""focus"",""36"",""572828""
""blur"",""36"",""678281""
""focus"",""36"",""721736""
""blur"",""36"",""723046""
""focus"",""36"",""5647788""
""blur"",""36"",""5651778""
""focus"",""36"",""5664159""
","""event"",""trial"",""time""
""blur"",""19"",""339107""
""blur"",""19"",""341443""
""blur"",""19"",""346128""
""blur"",""36"",""496937""
""blur"",""36"",""678281""
""blur"",""36"",""723046""
""blur"",""36"",""5651778""
","""event"",""trial"",""time""
""focus"",""19"",""340150""
""focus"",""19"",""344104""
""focus"",""19"",""347219""
""focus"",""36"",""572828""
""focus"",""36"",""721736""
""focus"",""36"",""5647788""
""focus"",""36"",""5664159""
","""event"",""trial"",""time""
""fullscreenenter"",""1"",""4993""
","""event"",""trial"",""time""
""fullscreenexit"",""36"",""493391""
","","","","","","","","","","","","","","","","","","","","","","","","","","",""
"pit-instructions","36","5669626","0.0-2.0-10.0","battery-v0.2","","""event"",""trial"",""time""
""fullscreenenter"",""1"",""4993""
""blur"",""19"",""339107""
""focus"",""19"",""340150""
""blur"",""19"",""341443""
""focus"",""19"",""344104""
""blur"",""19"",""346128""
""focus"",""19"",""347219""
""fullscreenexit"",""36"",""493391""
""blur"",""36"",""496937""
""focus"",""36"",""572828""
""blur"",""36"",""678281""
""focus"",""36"",""721736""
""blur"",""36"",""723046""
""focus"",""36"",""5647788""
""blur"",""36"",""5651778""
""focus"",""36"",""5664159""
","""event"",""trial"",""time""
""blur"",""19"",""339107""
""blur"",""19"",""341443""
""blur"",""19"",""346128""
""blur"",""36"",""496937""
""blur"",""36"",""678281""
""blur"",""36"",""723046""
""blur"",""36"",""5651778""
","""event"",""trial"",""time""
""focus"",""19"",""340150""
""focus"",""19"",""344104""
""focus"",""19"",""347219""
""focus"",""36"",""572828""
""focus"",""36"",""721736""
""focus"",""36"",""5647788""
""focus"",""36"",""5664159""
","""event"",""trial"",""time""
""fullscreenenter"",""1"",""4993""
","""event"",""trial"",""time""
""fullscreenexit"",""36"",""493391""
","","[{""page_index"":0,""viewing_time"":113826.10000002384},{""page_index"":1,""viewing_time"":15336.300000011921},{""page_index"":2,""viewing_time"":13014},{""page_index"":3,""viewing_time"":33837.19999998808},{""page_index"":4,""viewing_time"":2218562}]","2394576.600000024","","","","","","","","","","","","","","","","","","","","","","","",""
"pit-trial","37","5674494","0.0-2.0-11.0-0.0","battery-v0.2","","""event"",""trial"",""time""
""fullscreenenter"",""1"",""4993""
""blur"",""19"",""339107""
""focus"",""19"",""340150""
""blur"",""19"",""341443""
""focus"",""19"",""344104""
""blur"",""19"",""346128""
""focus"",""19"",""347219""
""fullscreenexit"",""36"",""493391""
""blur"",""36"",""496937""
""focus"",""36"",""572828""
""blur"",""36"",""678281""
""focus"",""36"",""721736""
""blur"",""36"",""723046""
""focus"",""36"",""5647788""
""blur"",""36"",""5651778""
""focus"",""36"",""5664159""
","""event"",""trial"",""time""
""blur"",""19"",""339107""
""blur"",""19"",""341443""
""blur"",""19"",""346128""
""blur"",""36"",""496937""
""blur"",""36"",""678281""
""blur"",""36"",""723046""
""blur"",""36"",""5651778""
","""event"",""trial"",""time""
""focus"",""19"",""340150""
""focus"",""19"",""344104""
""focus"",""19"",""347219""
""focus"",""36"",""572828""
""focus"",""36"",""721736""
""focus"",""36"",""5647788""
""focus"",""36"",""5664159""
","""event"",""trial"",""time""
""fullscreenenter"",""1"",""4993""
","""event"",""trial"",""time""
""fullscreenexit"",""36"",""493391""
","","","-1","","","24","10240","3861","&#9761;","elianto","#3366ff99","-1","-1","1","+10","[3434.699999988079]","1","0","2","","","","","","","",""
"pit-trial","38","5677943","0.0-2.0-11.0-1.0","battery-v0.2","","""event"",""trial"",""time""
""fullscreenenter"",""1"",""4993""
""blur"",""19"",""339107""
""focus"",""19"",""340150""
""blur"",""19"",""341443""
""focus"",""19"",""344104""
""blur"",""19"",""346128""
""focus"",""19"",""347219""
""fullscreenexit"",""36"",""493391""
""blur"",""36"",""496937""
""focus"",""36"",""572828""
""blur"",""36"",""678281""
""focus"",""36"",""721736""
""blur"",""36"",""723046""
""focus"",""36"",""5647788""
""blur"",""36"",""5651778""
""focus"",""36"",""5664159""
","""event"",""trial"",""time""
""blur"",""19"",""339107""
""blur"",""19"",""341443""
""blur"",""19"",""346128""
""blur"",""36"",""496937""
""blur"",""36"",""678281""
""blur"",""36"",""723046""
""blur"",""36"",""5651778""
","""event"",""trial"",""time""
""focus"",""19"",""340150""
""focus"",""19"",""344104""
""focus"",""19"",""347219""
""focus"",""36"",""572828""
""focus"",""36"",""721736""
""focus"",""36"",""5647788""
""focus"",""36"",""5664159""
","""event"",""trial"",""time""
""fullscreenenter"",""1"",""4993""
","""event"",""trial"",""time""
""fullscreenexit"",""36"",""493391""
","","","587.9000000357628","","","24","10240","3861","&#9761;","elianto","#3366ff99","-1"," ","0","0","[1439.5]","1","0","2","","","","","","","",""
"pit-trial","39","5681477","0.0-2.0-11.0-2.0","battery-v0.2","","""event"",""trial"",""time""
""fullscreenenter"",""1"",""4993""
""blur"",""19"",""339107""
""focus"",""19"",""340150""
""blur"",""19"",""341443""
""focus"",""19"",""344104""
""blur"",""19"",""346128""
""focus"",""19"",""347219""
""fullscreenexit"",""36"",""493391""
""blur"",""36"",""496937""
""focus"",""36"",""572828""
""blur"",""36"",""678281""
""focus"",""36"",""721736""
""blur"",""36"",""723046""
""focus"",""36"",""5647788""
""blur"",""36"",""5651778""
""focus"",""36"",""5664159""
","""event"",""trial"",""time""
""blur"",""19"",""339107""
""blur"",""19"",""341443""
""blur"",""19"",""346128""
""blur"",""36"",""496937""
""blur"",""36"",""678281""
""blur"",""36"",""723046""
""blur"",""36"",""5651778""
","""event"",""trial"",""time""
""focus"",""19"",""340150""
""focus"",""19"",""344104""
""focus"",""19"",""347219""
""focus"",""36"",""572828""
""focus"",""36"",""721736""
""focus"",""36"",""5647788""
""focus"",""36"",""5664159""
","""event"",""trial"",""time""
""fullscreenenter"",""1"",""4993""
","""event"",""trial"",""time""
""fullscreenexit"",""36"",""493391""
","","","675.6999999880791","","","24","10240","3861","&#9761;","elianto","#3366ff99","-1"," ","0","0","[1526.699999988079]","1","0","2","","","","","","","",""
"pit-trial","40","5686339","0.0-2.0-11.0-3.0","battery-v0.2","","""event"",""trial"",""time""
""fullscreenenter"",""1"",""4993""
""blur"",""19"",""339107""
""focus"",""19"",""340150""
""blur"",""19"",""341443""
""focus"",""19"",""344104""
""blur"",""19"",""346128""
""focus"",""19"",""347219""
""fullscreenexit"",""36"",""493391""
""blur"",""36"",""496937""
""focus"",""36"",""572828""
""blur"",""36"",""678281""
""focus"",""36"",""721736""
""blur"",""36"",""723046""
""focus"",""36"",""5647788""
""blur"",""36"",""5651778""
""focus"",""36"",""5664159""
","""event"",""trial"",""time""
""blur"",""19"",""339107""
""blur"",""19"",""341443""
""blur"",""19"",""346128""
""blur"",""36"",""496937""
""blur"",""36"",""678281""
""blur"",""36"",""723046""
""blur"",""36"",""5651778""
","""event"",""trial"",""time""
""focus"",""19"",""340150""
""focus"",""19"",""344104""
""focus"",""19"",""347219""
""focus"",""36"",""572828""
""focus"",""36"",""721736""
""focus"",""36"",""5647788""
""focus"",""36"",""5664159""
","""event"",""trial"",""time""
""fullscreenenter"",""1"",""4993""
","""event"",""trial"",""time""
""fullscreenexit"",""36"",""493391""
","","","-1","","","24","10240","3861","&#9761;","elianto","#3366ff99","-1","-1","1","0","[]","0","0","2","","","","","","","",""
"pit-trial","41","5691207","0.0-2.0-11.0-4.0","battery-v0.2","","""event"",""trial"",""time""
""fullscreenenter"",""1"",""4993""
""blur"",""19"",""339107""
""focus"",""19"",""340150""
""blur"",""19"",""341443""
""focus"",""19"",""344104""
""blur"",""19"",""346128""
""focus"",""19"",""347219""
""fullscreenexit"",""36"",""493391""
""blur"",""36"",""496937""
""focus"",""36"",""572828""
""blur"",""36"",""678281""
""focus"",""36"",""721736""
""blur"",""36"",""723046""
""focus"",""36"",""5647788""
""blur"",""36"",""5651778""
""focus"",""36"",""5664159""
","""event"",""trial"",""time""
""blur"",""19"",""339107""
""blur"",""19"",""341443""
""blur"",""19"",""346128""
""blur"",""36"",""496937""
""blur"",""36"",""678281""
""blur"",""36"",""723046""
""blur"",""36"",""5651778""
","""event"",""trial"",""time""
""focus"",""19"",""340150""
""focus"",""19"",""344104""
""focus"",""19"",""347219""
""focus"",""36"",""572828""
""focus"",""36"",""721736""
""focus"",""36"",""5647788""
""focus"",""36"",""5664159""
","""event"",""trial"",""time""
""fullscreenenter"",""1"",""4993""
","""event"",""trial"",""time""
""fullscreenexit"",""36"",""493391""
","","","-1","","","24","10240","3861","&#9761;","elianto","#3366ff99","-1","-1","1","+10","[]","0","0","2","","","","","","","",""
"pit-trial","42","5696079","0.0-2.0-11.1-0.1","battery-v0.2","","""event"",""trial"",""time""
""fullscreenenter"",""1"",""4993""
""blur"",""19"",""339107""
""focus"",""19"",""340150""
""blur"",""19"",""341443""
""focus"",""19"",""344104""
""blur"",""19"",""346128""
""focus"",""19"",""347219""
""fullscreenexit"",""36"",""493391""
""blur"",""36"",""496937""
""focus"",""36"",""572828""
""blur"",""36"",""678281""
""focus"",""36"",""721736""
""blur"",""36"",""723046""
""focus"",""36"",""5647788""
""blur"",""36"",""5651778""
""focus"",""36"",""5664159""
","""event"",""trial"",""time""
""blur"",""19"",""339107""
""blur"",""19"",""341443""
""blur"",""19"",""346128""
""blur"",""36"",""496937""
""blur"",""36"",""678281""
""blur"",""36"",""723046""
""blur"",""36"",""5651778""
","""event"",""trial"",""time""
""focus"",""19"",""340150""
""focus"",""19"",""344104""
""focus"",""19"",""347219""
""focus"",""36"",""572828""
""focus"",""36"",""721736""
""focus"",""36"",""5647788""
""focus"",""36"",""5664159""
","""event"",""trial"",""time""
""fullscreenenter"",""1"",""4993""
","""event"",""trial"",""time""
""fullscreenexit"",""36"",""493391""
","","","-1","","","24","10240","3861","&#9761;","elianto","#3366ff99","-1","-1","1","+10","[]","0","0","2","","","","","","","",""
"pit-trial","43","5700947","0.0-2.0-11.1-1.1","battery-v0.2","","""event"",""trial"",""time""
""fullscreenenter"",""1"",""4993""
""blur"",""19"",""339107""
""focus"",""19"",""340150""
""blur"",""19"",""341443""
""focus"",""19"",""344104""
""blur"",""19"",""346128""
""focus"",""19"",""347219""
""fullscreenexit"",""36"",""493391""
""blur"",""36"",""496937""
""focus"",""36"",""572828""
""blur"",""36"",""678281""
""focus"",""36"",""721736""
""blur"",""36"",""723046""
""focus"",""36"",""5647788""
""blur"",""36"",""5651778""
""focus"",""36"",""5664159""
","""event"",""trial"",""time""
""blur"",""19"",""339107""
""blur"",""19"",""341443""
""blur"",""19"",""346128""
""blur"",""36"",""496937""
""blur"",""36"",""678281""
""blur"",""36"",""723046""
""blur"",""36"",""5651778""
","""event"",""trial"",""time""
""focus"",""19"",""340150""
""focus"",""19"",""344104""
""focus"",""19"",""347219""
""focus"",""36"",""572828""
""focus"",""36"",""721736""
""focus"",""36"",""5647788""
""focus"",""36"",""5664159""
","""event"",""trial"",""time""
""fullscreenenter"",""1"",""4993""
","""event"",""trial"",""time""
""fullscreenexit"",""36"",""493391""
","","","-1","","","24","10240","3861","&#9761;","elianto","#3366ff99","-1","-1","1","+10","[]","0","0","2","","","","","","","",""
"pit-trial","44","5705814","0.0-2.0-11.1-2.1","battery-v0.2","","""event"",""trial"",""time""
""fullscreenenter"",""1"",""4993""
""blur"",""19"",""339107""
""focus"",""19"",""340150""
""blur"",""19"",""341443""
""focus"",""19"",""344104""
""blur"",""19"",""346128""
""focus"",""19"",""347219""
""fullscreenexit"",""36"",""493391""
""blur"",""36"",""496937""
""focus"",""36"",""572828""
""blur"",""36"",""678281""
""focus"",""36"",""721736""
""blur"",""36"",""723046""
""focus"",""36"",""5647788""
""blur"",""36"",""5651778""
""focus"",""36"",""5664159""
","""event"",""trial"",""time""
""blur"",""19"",""339107""
""blur"",""19"",""341443""
""blur"",""19"",""346128""
""blur"",""36"",""496937""
""blur"",""36"",""678281""
""blur"",""36"",""723046""
""blur"",""36"",""5651778""
","""event"",""trial"",""time""
""focus"",""19"",""340150""
""focus"",""19"",""344104""
""focus"",""19"",""347219""
""focus"",""36"",""572828""
""focus"",""36"",""721736""
""focus"",""36"",""5647788""
""focus"",""36"",""5664159""
","""event"",""trial"",""time""
""fullscreenenter"",""1"",""4993""
","""event"",""trial"",""time""
""fullscreenexit"",""36"",""493391""
","","","-1","","","24","10240","3861","&#9761;","elianto","#3366ff99","-1","-1","1","+10","[]","0","0","2","","","","","","","",""
"pit-trial","45","5710687","0.0-2.0-11.1-3.1","battery-v0.2","","""event"",""trial"",""time""
""fullscreenenter"",""1"",""4993""
""blur"",""19"",""339107""
""focus"",""19"",""340150""
""blur"",""19"",""341443""
""focus"",""19"",""344104""
""blur"",""19"",""346128""
""focus"",""19"",""347219""
""fullscreenexit"",""36"",""493391""
""blur"",""36"",""496937""
""focus"",""36"",""572828""
""blur"",""36"",""678281""
""focus"",""36"",""721736""
""blur"",""36"",""723046""
""focus"",""36"",""5647788""
""blur"",""36"",""5651778""
""focus"",""36"",""5664159""
","""event"",""trial"",""time""
""blur"",""19"",""339107""
""blur"",""19"",""341443""
""blur"",""19"",""346128""
""blur"",""36"",""496937""
""blur"",""36"",""678281""
""blur"",""36"",""723046""
""blur"",""36"",""5651778""
","""event"",""trial"",""time""
""focus"",""19"",""340150""
""focus"",""19"",""344104""
""focus"",""19"",""347219""
""focus"",""36"",""572828""
""focus"",""36"",""721736""
""focus"",""36"",""5647788""
""focus"",""36"",""5664159""
","""event"",""trial"",""time""
""fullscreenenter"",""1"",""4993""
","""event"",""trial"",""time""
""fullscreenexit"",""36"",""493391""
","","","-1","","","24","10240","3861","&#9761;","elianto","#3366ff99","-1","-1","1","0","[]","0","0","2","","","","","","","",""
"pit-trial","46","5715557","0.0-2.0-11.1-4.1","battery-v0.2","","""event"",""trial"",""time""
""fullscreenenter"",""1"",""4993""
""blur"",""19"",""339107""
""focus"",""19"",""340150""
""blur"",""19"",""341443""
""focus"",""19"",""344104""
""blur"",""19"",""346128""
""focus"",""19"",""347219""
""fullscreenexit"",""36"",""493391""
""blur"",""36"",""496937""
""focus"",""36"",""572828""
""blur"",""36"",""678281""
""focus"",""36"",""721736""
""blur"",""36"",""723046""
""focus"",""36"",""5647788""
""blur"",""36"",""5651778""
""focus"",""36"",""5664159""
","""event"",""trial"",""time""
""blur"",""19"",""339107""
""blur"",""19"",""341443""
""blur"",""19"",""346128""
""blur"",""36"",""496937""
""blur"",""36"",""678281""
""blur"",""36"",""723046""
""blur"",""36"",""5651778""
","""event"",""trial"",""time""
""focus"",""19"",""340150""
""focus"",""19"",""344104""
""focus"",""19"",""347219""
""focus"",""36"",""572828""
""focus"",""36"",""721736""
""focus"",""36"",""5647788""
""focus"",""36"",""5664159""
","""event"",""trial"",""time""
""fullscreenenter"",""1"",""4993""
","""event"",""trial"",""time""
""fullscreenexit"",""36"",""493391""
","","","-1","","","24","10240","3861","&#9761;","elianto","#3366ff99","-1","-1","1","+10","[]","0","0","2","","","","","","","",""
"pit-trial","47","5720431","0.0-2.0-11.2-0.2","battery-v0.2","","""event"",""trial"",""time""
""fullscreenenter"",""1"",""4993""
""blur"",""19"",""339107""
""focus"",""19"",""340150""
""blur"",""19"",""341443""
""focus"",""19"",""344104""
""blur"",""19"",""346128""
""focus"",""19"",""347219""
""fullscreenexit"",""36"",""493391""
""blur"",""36"",""496937""
""focus"",""36"",""572828""
""blur"",""36"",""678281""
""focus"",""36"",""721736""
""blur"",""36"",""723046""
""focus"",""36"",""5647788""
""blur"",""36"",""5651778""
""focus"",""36"",""5664159""
","""event"",""trial"",""time""
""blur"",""19"",""339107""
""blur"",""19"",""341443""
""blur"",""19"",""346128""
""blur"",""36"",""496937""
""blur"",""36"",""678281""
""blur"",""36"",""723046""
""blur"",""36"",""5651778""
","""event"",""trial"",""time""
""focus"",""19"",""340150""
""focus"",""19"",""344104""
""focus"",""19"",""347219""
""focus"",""36"",""572828""
""focus"",""36"",""721736""
""focus"",""36"",""5647788""
""focus"",""36"",""5664159""
","""event"",""trial"",""time""
""fullscreenenter"",""1"",""4993""
","""event"",""trial"",""time""
""fullscreenexit"",""36"",""493391""
","","","-1","","","24","10240","3861","&#9761;","elianto","#3366ff99","-1","-1","1","+10","[]","0","0","2","","","","","","","",""
"pit-trial","48","5725302","0.0-2.0-11.2-1.2","battery-v0.2","","""event"",""trial"",""time""
""fullscreenenter"",""1"",""4993""
""blur"",""19"",""339107""
""focus"",""19"",""340150""
""blur"",""19"",""341443""
""focus"",""19"",""344104""
""blur"",""19"",""346128""
""focus"",""19"",""347219""
""fullscreenexit"",""36"",""493391""
""blur"",""36"",""496937""
""focus"",""36"",""572828""
""blur"",""36"",""678281""
""focus"",""36"",""721736""
""blur"",""36"",""723046""
""focus"",""36"",""5647788""
""blur"",""36"",""5651778""
""focus"",""36"",""5664159""
","""event"",""trial"",""time""
""blur"",""19"",""339107""
""blur"",""19"",""341443""
""blur"",""19"",""346128""
""blur"",""36"",""496937""
""blur"",""36"",""678281""
""blur"",""36"",""723046""
""blur"",""36"",""5651778""
","""event"",""trial"",""time""
""focus"",""19"",""340150""
""focus"",""19"",""344104""
""focus"",""19"",""347219""
""focus"",""36"",""572828""
""focus"",""36"",""721736""
""focus"",""36"",""5647788""
""focus"",""36"",""5664159""
","""event"",""trial"",""time""
""fullscreenenter"",""1"",""4993""
","""event"",""trial"",""time""
""fullscreenexit"",""36"",""493391""
","","","-1","","","24","10240","3861","&#9761;","elianto","#3366ff99","-1","-1","1","+10","[]","0","0","2","","","","","","","",""
"pit-trial","49","5730171","0.0-2.0-11.2-2.2","battery-v0.2","","""event"",""trial"",""time""
""fullscreenenter"",""1"",""4993""
""blur"",""19"",""339107""
""focus"",""19"",""340150""
""blur"",""19"",""341443""
""focus"",""19"",""344104""
""blur"",""19"",""346128""
""focus"",""19"",""347219""
""fullscreenexit"",""36"",""493391""
""blur"",""36"",""496937""
""focus"",""36"",""572828""
""blur"",""36"",""678281""
""focus"",""36"",""721736""
""blur"",""36"",""723046""
""focus"",""36"",""5647788""
""blur"",""36"",""5651778""
""focus"",""36"",""5664159""
","""event"",""trial"",""time""
""blur"",""19"",""339107""
""blur"",""19"",""341443""
""blur"",""19"",""346128""
""blur"",""36"",""496937""
""blur"",""36"",""678281""
""blur"",""36"",""723046""
""blur"",""36"",""5651778""
","""event"",""trial"",""time""
""focus"",""19"",""340150""
""focus"",""19"",""344104""
""focus"",""19"",""347219""
""focus"",""36"",""572828""
""focus"",""36"",""721736""
""focus"",""36"",""5647788""
""focus"",""36"",""5664159""
","""event"",""trial"",""time""
""fullscreenenter"",""1"",""4993""
","""event"",""trial"",""time""
""fullscreenexit"",""36"",""493391""
","","","-1","","","24","10240","3861","&#9761;","elianto","#3366ff99","-1","-1","1","+10","[]","0","0","2","","","","","","","",""
"pit-trial","50","5735037","0.0-2.0-11.2-3.2","battery-v0.2","","""event"",""trial"",""time""
""fullscreenenter"",""1"",""4993""
""blur"",""19"",""339107""
""focus"",""19"",""340150""
""blur"",""19"",""341443""
""focus"",""19"",""344104""
""blur"",""19"",""346128""
""focus"",""19"",""347219""
""fullscreenexit"",""36"",""493391""
""blur"",""36"",""496937""
""focus"",""36"",""572828""
""blur"",""36"",""678281""
""focus"",""36"",""721736""
""blur"",""36"",""723046""
""focus"",""36"",""5647788""
""blur"",""36"",""5651778""
""focus"",""36"",""5664159""
","""event"",""trial"",""time""
""blur"",""19"",""339107""
""blur"",""19"",""341443""
""blur"",""19"",""346128""
""blur"",""36"",""496937""
""blur"",""36"",""678281""
""blur"",""36"",""723046""
""blur"",""36"",""5651778""
","""event"",""trial"",""time""
""focus"",""19"",""340150""
""focus"",""19"",""344104""
""focus"",""19"",""347219""
""focus"",""36"",""572828""
""focus"",""36"",""721736""
""focus"",""36"",""5647788""
""focus"",""36"",""5664159""
","""event"",""trial"",""time""
""fullscreenenter"",""1"",""4993""
","""event"",""trial"",""time""
""fullscreenexit"",""36"",""493391""
","","","-1","","","24","10240","3861","&#9761;","elianto","#3366ff99","-1","-1","1","0","[]","0","0","2","","","","","","","",""
"pit-trial","51","5739909","0.0-2.0-11.2-4.2","battery-v0.2","","""event"",""trial"",""time""
""fullscreenenter"",""1"",""4993""
""blur"",""19"",""339107""
""focus"",""19"",""340150""
""blur"",""19"",""341443""
""focus"",""19"",""344104""
""blur"",""19"",""346128""
""focus"",""19"",""347219""
""fullscreenexit"",""36"",""493391""
""blur"",""36"",""496937""
""focus"",""36"",""572828""
""blur"",""36"",""678281""
""focus"",""36"",""721736""
""blur"",""36"",""723046""
""focus"",""36"",""5647788""
""blur"",""36"",""5651778""
""focus"",""36"",""5664159""
","""event"",""trial"",""time""
""blur"",""19"",""339107""
""blur"",""19"",""341443""
""blur"",""19"",""346128""
""blur"",""36"",""496937""
""blur"",""36"",""678281""
""blur"",""36"",""723046""
""blur"",""36"",""5651778""
","""event"",""trial"",""time""
""focus"",""19"",""340150""
""focus"",""19"",""344104""
""focus"",""19"",""347219""
""focus"",""36"",""572828""
""focus"",""36"",""721736""
""focus"",""36"",""5647788""
""focus"",""36"",""5664159""
","""event"",""trial"",""time""
""fullscreenenter"",""1"",""4993""
","""event"",""trial"",""time""
""fullscreenexit"",""36"",""493391""
","","","-1","","","24","10240","3861","&#9761;","elianto","#3366ff99","-1","-1","1","+10","[]","0","0","2","","","","","","","",""
"pit-trial","52","5744782","0.0-2.0-11.3-0.3","battery-v0.2","","""event"",""trial"",""time""
""fullscreenenter"",""1"",""4993""
""blur"",""19"",""339107""
""focus"",""19"",""340150""
""blur"",""19"",""341443""
""focus"",""19"",""344104""
""blur"",""19"",""346128""
""focus"",""19"",""347219""
""fullscreenexit"",""36"",""493391""
""blur"",""36"",""496937""
""focus"",""36"",""572828""
""blur"",""36"",""678281""
""focus"",""36"",""721736""
""blur"",""36"",""723046""
""focus"",""36"",""5647788""
""blur"",""36"",""5651778""
""focus"",""36"",""5664159""
","""event"",""trial"",""time""
""blur"",""19"",""339107""
""blur"",""19"",""341443""
""blur"",""19"",""346128""
""blur"",""36"",""496937""
""blur"",""36"",""678281""
""blur"",""36"",""723046""
""blur"",""36"",""5651778""
","""event"",""trial"",""time""
""focus"",""19"",""340150""
""focus"",""19"",""344104""
""focus"",""19"",""347219""
""focus"",""36"",""572828""
""focus"",""36"",""721736""
""focus"",""36"",""5647788""
""focus"",""36"",""5664159""
","""event"",""trial"",""time""
""fullscreenenter"",""1"",""4993""
","""event"",""trial"",""time""
""fullscreenexit"",""36"",""493391""
","","","-1","","","24","10240","3861","&#9761;","elianto","#3366ff99","-1","-1","1","+10","[]","0","0","2","","","","","","","",""
"pit-trial","53","5749648","0.0-2.0-11.3-1.3","battery-v0.2","","""event"",""trial"",""time""
""fullscreenenter"",""1"",""4993""
""blur"",""19"",""339107""
""focus"",""19"",""340150""
""blur"",""19"",""341443""
""focus"",""19"",""344104""
""blur"",""19"",""346128""
""focus"",""19"",""347219""
""fullscreenexit"",""36"",""493391""
""blur"",""36"",""496937""
""focus"",""36"",""572828""
""blur"",""36"",""678281""
""focus"",""36"",""721736""
""blur"",""36"",""723046""
""focus"",""36"",""5647788""
""blur"",""36"",""5651778""
""focus"",""36"",""5664159""
","""event"",""trial"",""time""
""blur"",""19"",""339107""
""blur"",""19"",""341443""
""blur"",""19"",""346128""
""blur"",""36"",""496937""
""blur"",""36"",""678281""
""blur"",""36"",""723046""
""blur"",""36"",""5651778""
","""event"",""trial"",""time""
""focus"",""19"",""340150""
""focus"",""19"",""344104""
""focus"",""19"",""347219""
""focus"",""36"",""572828""
""focus"",""36"",""721736""
""focus"",""36"",""5647788""
""focus"",""36"",""5664159""
","""event"",""trial"",""time""
""fullscreenenter"",""1"",""4993""
","""event"",""trial"",""time""
""fullscreenexit"",""36"",""493391""
","","","-1","","","24","10240","3861","&#9761;","elianto","#3366ff99","-1","-1","1","+10","[]","0","0","2","","","","","","","",""
"pit-trial","54","5754516","0.0-2.0-11.3-2.3","battery-v0.2","","""event"",""trial"",""time""
""fullscreenenter"",""1"",""4993""
""blur"",""19"",""339107""
""focus"",""19"",""340150""
""blur"",""19"",""341443""
""focus"",""19"",""344104""
""blur"",""19"",""346128""
""focus"",""19"",""347219""
""fullscreenexit"",""36"",""493391""
""blur"",""36"",""496937""
""focus"",""36"",""572828""
""blur"",""36"",""678281""
""focus"",""36"",""721736""
""blur"",""36"",""723046""
""focus"",""36"",""5647788""
""blur"",""36"",""5651778""
""focus"",""36"",""5664159""
","""event"",""trial"",""time""
""blur"",""19"",""339107""
""blur"",""19"",""341443""
""blur"",""19"",""346128""
""blur"",""36"",""496937""
""blur"",""36"",""678281""
""blur"",""36"",""723046""
""blur"",""36"",""5651778""
","""event"",""trial"",""time""
""focus"",""19"",""340150""
""focus"",""19"",""344104""
""focus"",""19"",""347219""
""focus"",""36"",""572828""
""focus"",""36"",""721736""
""focus"",""36"",""5647788""
""focus"",""36"",""5664159""
","""event"",""trial"",""time""
""fullscreenenter"",""1"",""4993""
","""event"",""trial"",""time""
""fullscreenexit"",""36"",""493391""
","","","-1","","","24","10240","3861","&#9761;","elianto","#3366ff99","-1","-1","1","+10","[]","0","0","2","","","","","","","",""
"pit-trial","55","5759387","0.0-2.0-11.3-3.3","battery-v0.2","","""event"",""trial"",""time""
""fullscreenenter"",""1"",""4993""
""blur"",""19"",""339107""
""focus"",""19"",""340150""
""blur"",""19"",""341443""
""focus"",""19"",""344104""
""blur"",""19"",""346128""
""focus"",""19"",""347219""
""fullscreenexit"",""36"",""493391""
""blur"",""36"",""496937""
""focus"",""36"",""572828""
""blur"",""36"",""678281""
""focus"",""36"",""721736""
""blur"",""36"",""723046""
""focus"",""36"",""5647788""
""blur"",""36"",""5651778""
""focus"",""36"",""5664159""
","""event"",""trial"",""time""
""blur"",""19"",""339107""
""blur"",""19"",""341443""
""blur"",""19"",""346128""
""blur"",""36"",""496937""
""blur"",""36"",""678281""
""blur"",""36"",""723046""
""blur"",""36"",""5651778""
","""event"",""trial"",""time""
""focus"",""19"",""340150""
""focus"",""19"",""344104""
""focus"",""19"",""347219""
""focus"",""36"",""572828""
""focus"",""36"",""721736""
""focus"",""36"",""5647788""
""focus"",""36"",""5664159""
","""event"",""trial"",""time""
""fullscreenenter"",""1"",""4993""
","""event"",""trial"",""time""
""fullscreenexit"",""36"",""493391""
","","","-1","","","24","10240","3861","&#9761;","elianto","#3366ff99","-1","-1","1","0","[]","0","0","2","","","","","","","",""
"pit-trial","56","5764257","0.0-2.0-11.3-4.3","battery-v0.2","","""event"",""trial"",""time""
""fullscreenenter"",""1"",""4993""
""blur"",""19"",""339107""
""focus"",""19"",""340150""
""blur"",""19"",""341443""
""focus"",""19"",""344104""
""blur"",""19"",""346128""
""focus"",""19"",""347219""
""fullscreenexit"",""36"",""493391""
""blur"",""36"",""496937""
""focus"",""36"",""572828""
""blur"",""36"",""678281""
""focus"",""36"",""721736""
""blur"",""36"",""723046""
""focus"",""36"",""5647788""
""blur"",""36"",""5651778""
""focus"",""36"",""5664159""
","""event"",""trial"",""time""
""blur"",""19"",""339107""
""blur"",""19"",""341443""
""blur"",""19"",""346128""
""blur"",""36"",""496937""
""blur"",""36"",""678281""
""blur"",""36"",""723046""
""blur"",""36"",""5651778""
","""event"",""trial"",""time""
""focus"",""19"",""340150""
""focus"",""19"",""344104""
""focus"",""19"",""347219""
""focus"",""36"",""572828""
""focus"",""36"",""721736""
""focus"",""36"",""5647788""
""focus"",""36"",""5664159""
","""event"",""trial"",""time""
""fullscreenenter"",""1"",""4993""
","""event"",""trial"",""time""
""fullscreenexit"",""36"",""493391""
","","","-1","","","24","10240","3861","&#9761;","elianto","#3366ff99","-1","-1","1","+10","[]","0","0","2","","","","","","","",""
"call-function","57","5764261","0.0-2.0-12.0","battery-v0.2","","""event"",""trial"",""time""
""fullscreenenter"",""1"",""4993""
""blur"",""19"",""339107""
""focus"",""19"",""340150""
""blur"",""19"",""341443""
""focus"",""19"",""344104""
""blur"",""19"",""346128""
""focus"",""19"",""347219""
""fullscreenexit"",""36"",""493391""
""blur"",""36"",""496937""
""focus"",""36"",""572828""
""blur"",""36"",""678281""
""focus"",""36"",""721736""
""blur"",""36"",""723046""
""focus"",""36"",""5647788""
""blur"",""36"",""5651778""
""focus"",""36"",""5664159""
","""event"",""trial"",""time""
""blur"",""19"",""339107""
""blur"",""19"",""341443""
""blur"",""19"",""346128""
""blur"",""36"",""496937""
""blur"",""36"",""678281""
""blur"",""36"",""723046""
""blur"",""36"",""5651778""
","""event"",""trial"",""time""
""focus"",""19"",""340150""
""focus"",""19"",""344104""
""focus"",""19"",""347219""
""focus"",""36"",""572828""
""focus"",""36"",""721736""
""focus"",""36"",""5647788""
""focus"",""36"",""5664159""
","""event"",""trial"",""time""
""fullscreenenter"",""1"",""4993""
","""event"",""trial"",""time""
""fullscreenexit"",""36"",""493391""
","","","","","","","","","","","","","","","","","","","","","","","","","","",""
"pit-instructions","58","5910113","0.0-2.0-13.0","battery-v0.2","","""event"",""trial"",""time""
""fullscreenenter"",""1"",""4993""
""blur"",""19"",""339107""
""focus"",""19"",""340150""
""blur"",""19"",""341443""
""focus"",""19"",""344104""
""blur"",""19"",""346128""
""focus"",""19"",""347219""
""fullscreenexit"",""36"",""493391""
""blur"",""36"",""496937""
""focus"",""36"",""572828""
""blur"",""36"",""678281""
""focus"",""36"",""721736""
""blur"",""36"",""723046""
""focus"",""36"",""5647788""
""blur"",""36"",""5651778""
""focus"",""36"",""5664159""
","""event"",""trial"",""time""
""blur"",""19"",""339107""
""blur"",""19"",""341443""
""blur"",""19"",""346128""
""blur"",""36"",""496937""
""blur"",""36"",""678281""
""blur"",""36"",""723046""
""blur"",""36"",""5651778""
","""event"",""trial"",""time""
""focus"",""19"",""340150""
""focus"",""19"",""344104""
""focus"",""19"",""347219""
""focus"",""36"",""572828""
""focus"",""36"",""721736""
""focus"",""36"",""5647788""
""focus"",""36"",""5664159""
","""event"",""trial"",""time""
""fullscreenenter"",""1"",""4993""
","""event"",""trial"",""time""
""fullscreenexit"",""36"",""493391""
","","[{""page_index"":0,""viewing_time"":96183.80000001192},{""page_index"":1,""viewing_time"":9725.100000023842},{""page_index"":2,""viewing_time"":4939.199999988079},{""page_index"":3,""viewing_time"":24329.30000001192},{""page_index"":4,""viewing_time"":10677.5}]","145855.19999998808","","","","","","","","","","","","","","","","","","","","","","","",""
"pit-trial","59","5914985","0.0-2.0-14.0-0.0","battery-v0.2","","""event"",""trial"",""time""
""fullscreenenter"",""1"",""4993""
""blur"",""19"",""339107""
""focus"",""19"",""340150""
""blur"",""19"",""341443""
""focus"",""19"",""344104""
""blur"",""19"",""346128""
""focus"",""19"",""347219""
""fullscreenexit"",""36"",""493391""
""blur"",""36"",""496937""
""focus"",""36"",""572828""
""blur"",""36"",""678281""
""focus"",""36"",""721736""
""blur"",""36"",""723046""
""focus"",""36"",""5647788""
""blur"",""36"",""5651778""
""focus"",""36"",""5664159""
","""event"",""trial"",""time""
""blur"",""19"",""339107""
""blur"",""19"",""341443""
""blur"",""19"",""346128""
""blur"",""36"",""496937""
""blur"",""36"",""678281""
""blur"",""36"",""723046""
""blur"",""36"",""5651778""
","""event"",""trial"",""time""
""focus"",""19"",""340150""
""focus"",""19"",""344104""
""focus"",""19"",""347219""
""focus"",""36"",""572828""
""focus"",""36"",""721736""
""focus"",""36"",""5647788""
""focus"",""36"",""5664159""
","""event"",""trial"",""time""
""fullscreenenter"",""1"",""4993""
","""event"",""trial"",""time""
""fullscreenexit"",""36"",""493391""
","","","-1","","","24","10240","3861","&#9826;","elianto","#f73b6a7A","-1","-1","1","0","[]","0","0","3","","","","","","","",""
"pit-trial","60","5919856","0.0-2.0-14.0-1.0","battery-v0.2","","""event"",""trial"",""time""
""fullscreenenter"",""1"",""4993""
""blur"",""19"",""339107""
""focus"",""19"",""340150""
""blur"",""19"",""341443""
""focus"",""19"",""344104""
""blur"",""19"",""346128""
""focus"",""19"",""347219""
""fullscreenexit"",""36"",""493391""
""blur"",""36"",""496937""
""focus"",""36"",""572828""
""blur"",""36"",""678281""
""focus"",""36"",""721736""
""blur"",""36"",""723046""
""focus"",""36"",""5647788""
""blur"",""36"",""5651778""
""focus"",""36"",""5664159""
","""event"",""trial"",""time""
""blur"",""19"",""339107""
""blur"",""19"",""341443""
""blur"",""19"",""346128""
""blur"",""36"",""496937""
""blur"",""36"",""678281""
""blur"",""36"",""723046""
""blur"",""36"",""5651778""
","""event"",""trial"",""time""
""focus"",""19"",""340150""
""focus"",""19"",""344104""
""focus"",""19"",""347219""
""focus"",""36"",""572828""
""focus"",""36"",""721736""
""focus"",""36"",""5647788""
""focus"",""36"",""5664159""
","""event"",""trial"",""time""
""fullscreenenter"",""1"",""4993""
","""event"",""trial"",""time""
""fullscreenexit"",""36"",""493391""
","","","-1","","","24","10240","3861","&#9826;","elianto","#f73b6a7A","-1","-1","1","0","[]","0","0","3","","","","","","","",""
"pit-trial","61","5924728","0.0-2.0-14.0-2.0","battery-v0.2","","""event"",""trial"",""time""
""fullscreenenter"",""1"",""4993""
""blur"",""19"",""339107""
""focus"",""19"",""340150""
""blur"",""19"",""341443""
""focus"",""19"",""344104""
""blur"",""19"",""346128""
""focus"",""19"",""347219""
""fullscreenexit"",""36"",""493391""
""blur"",""36"",""496937""
""focus"",""36"",""572828""
""blur"",""36"",""678281""
""focus"",""36"",""721736""
""blur"",""36"",""723046""
""focus"",""36"",""5647788""
""blur"",""36"",""5651778""
""focus"",""36"",""5664159""
","""event"",""trial"",""time""
""blur"",""19"",""339107""
""blur"",""19"",""341443""
""blur"",""19"",""346128""
""blur"",""36"",""496937""
""blur"",""36"",""678281""
""blur"",""36"",""723046""
""blur"",""36"",""5651778""
","""event"",""trial"",""time""
""focus"",""19"",""340150""
""focus"",""19"",""344104""
""focus"",""19"",""347219""
""focus"",""36"",""572828""
""focus"",""36"",""721736""
""focus"",""36"",""5647788""
""focus"",""36"",""5664159""
","""event"",""trial"",""time""
""fullscreenenter"",""1"",""4993""
","""event"",""trial"",""time""
""fullscreenexit"",""36"",""493391""
","","","-1","","","24","10240","3861","&#9826;","elianto","#f73b6a7A","-1","-1","1","0","[]","0","0","3","","","","","","","",""
"pit-trial","62","5929600","0.0-2.0-14.0-3.0","battery-v0.2","","""event"",""trial"",""time""
""fullscreenenter"",""1"",""4993""
""blur"",""19"",""339107""
""focus"",""19"",""340150""
""blur"",""19"",""341443""
""focus"",""19"",""344104""
""blur"",""19"",""346128""
""focus"",""19"",""347219""
""fullscreenexit"",""36"",""493391""
""blur"",""36"",""496937""
""focus"",""36"",""572828""
""blur"",""36"",""678281""
""focus"",""36"",""721736""
""blur"",""36"",""723046""
""focus"",""36"",""5647788""
""blur"",""36"",""5651778""
""focus"",""36"",""5664159""
","""event"",""trial"",""time""
""blur"",""19"",""339107""
""blur"",""19"",""341443""
""blur"",""19"",""346128""
""blur"",""36"",""496937""
""blur"",""36"",""678281""
""blur"",""36"",""723046""
""blur"",""36"",""5651778""
","""event"",""trial"",""time""
""focus"",""19"",""340150""
""focus"",""19"",""344104""
""focus"",""19"",""347219""
""focus"",""36"",""572828""
""focus"",""36"",""721736""
""focus"",""36"",""5647788""
""focus"",""36"",""5664159""
","""event"",""trial"",""time""
""fullscreenenter"",""1"",""4993""
","""event"",""trial"",""time""
""fullscreenexit"",""36"",""493391""
","","","-1","","","24","10240","3861","&#9826;","elianto","#f73b6a7A","-1","-1","1","-10","[]","0","0","3","","","","","","","",""
"pit-trial","63","5934469","0.0-2.0-14.0-4.0","battery-v0.2","","""event"",""trial"",""time""
""fullscreenenter"",""1"",""4993""
""blur"",""19"",""339107""
""focus"",""19"",""340150""
""blur"",""19"",""341443""
""focus"",""19"",""344104""
""blur"",""19"",""346128""
""focus"",""19"",""347219""
""fullscreenexit"",""36"",""493391""
""blur"",""36"",""496937""
""focus"",""36"",""572828""
""blur"",""36"",""678281""
""focus"",""36"",""721736""
""blur"",""36"",""723046""
""focus"",""36"",""5647788""
""blur"",""36"",""5651778""
""focus"",""36"",""5664159""
","""event"",""trial"",""time""
""blur"",""19"",""339107""
""blur"",""19"",""341443""
""blur"",""19"",""346128""
""blur"",""36"",""496937""
""blur"",""36"",""678281""
""blur"",""36"",""723046""
""blur"",""36"",""5651778""
","""event"",""trial"",""time""
""focus"",""19"",""340150""
""focus"",""19"",""344104""
""focus"",""19"",""347219""
""focus"",""36"",""572828""
""focus"",""36"",""721736""
""focus"",""36"",""5647788""
""focus"",""36"",""5664159""
","""event"",""trial"",""time""
""fullscreenenter"",""1"",""4993""
","""event"",""trial"",""time""
""fullscreenexit"",""36"",""493391""
","","","-1","","","24","10240","3861","&#9826;","elianto","#f73b6a7A","-1","-1","1","0","[]","0","0","3","","","","","","","",""
"pit-trial","64","5938318","0.0-2.0-14.1-0.1","battery-v0.2","","""event"",""trial"",""time""
""fullscreenenter"",""1"",""4993""
""blur"",""19"",""339107""
""focus"",""19"",""340150""
""blur"",""19"",""341443""
""focus"",""19"",""344104""
""blur"",""19"",""346128""
""focus"",""19"",""347219""
""fullscreenexit"",""36"",""493391""
""blur"",""36"",""496937""
""focus"",""36"",""572828""
""blur"",""36"",""678281""
""focus"",""36"",""721736""
""blur"",""36"",""723046""
""focus"",""36"",""5647788""
""blur"",""36"",""5651778""
""focus"",""36"",""5664159""
","""event"",""trial"",""time""
""blur"",""19"",""339107""
""blur"",""19"",""341443""
""blur"",""19"",""346128""
""blur"",""36"",""496937""
""blur"",""36"",""678281""
""blur"",""36"",""723046""
""blur"",""36"",""5651778""
","""event"",""trial"",""time""
""focus"",""19"",""340150""
""focus"",""19"",""344104""
""focus"",""19"",""347219""
""focus"",""36"",""572828""
""focus"",""36"",""721736""
""focus"",""36"",""5647788""
""focus"",""36"",""5664159""
","""event"",""trial"",""time""
""fullscreenenter"",""1"",""4993""
","""event"",""trial"",""time""
""fullscreenexit"",""36"",""493391""
","","","973.7999999523163","","","24","10240","3861","&#9826;","elianto","#f73b6a7A","-1"," ","0","-10","[1832]","1","0","3","","","","","","","",""
"pit-trial","65","5943190","0.0-2.0-14.1-1.1","battery-v0.2","","""event"",""trial"",""time""
""fullscreenenter"",""1"",""4993""
""blur"",""19"",""339107""
""focus"",""19"",""340150""
""blur"",""19"",""341443""
""focus"",""19"",""344104""
""blur"",""19"",""346128""
""focus"",""19"",""347219""
""fullscreenexit"",""36"",""493391""
""blur"",""36"",""496937""
""focus"",""36"",""572828""
""blur"",""36"",""678281""
""focus"",""36"",""721736""
""blur"",""36"",""723046""
""focus"",""36"",""5647788""
""blur"",""36"",""5651778""
""focus"",""36"",""5664159""
","""event"",""trial"",""time""
""blur"",""19"",""339107""
""blur"",""19"",""341443""
""blur"",""19"",""346128""
""blur"",""36"",""496937""
""blur"",""36"",""678281""
""blur"",""36"",""723046""
""blur"",""36"",""5651778""
","""event"",""trial"",""time""
""focus"",""19"",""340150""
""focus"",""19"",""344104""
""focus"",""19"",""347219""
""focus"",""36"",""572828""
""focus"",""36"",""721736""
""focus"",""36"",""5647788""
""focus"",""36"",""5664159""
","""event"",""trial"",""time""
""fullscreenenter"",""1"",""4993""
","""event"",""trial"",""time""
""fullscreenexit"",""36"",""493391""
","","","-1","","","24","10240","3861","&#9826;","elianto","#f73b6a7A","-1","-1","1","0","[]","0","0","3","","","","","","","",""
"pit-trial","66","5948064","0.0-2.0-14.1-2.1","battery-v0.2","","""event"",""trial"",""time""
""fullscreenenter"",""1"",""4993""
""blur"",""19"",""339107""
""focus"",""19"",""340150""
""blur"",""19"",""341443""
""focus"",""19"",""344104""
""blur"",""19"",""346128""
""focus"",""19"",""347219""
""fullscreenexit"",""36"",""493391""
""blur"",""36"",""496937""
""focus"",""36"",""572828""
""blur"",""36"",""678281""
""focus"",""36"",""721736""
""blur"",""36"",""723046""
""focus"",""36"",""5647788""
""blur"",""36"",""5651778""
""focus"",""36"",""5664159""
","""event"",""trial"",""time""
""blur"",""19"",""339107""
""blur"",""19"",""341443""
""blur"",""19"",""346128""
""blur"",""36"",""496937""
""blur"",""36"",""678281""
""blur"",""36"",""723046""
""blur"",""36"",""5651778""
","""event"",""trial"",""time""
""focus"",""19"",""340150""
""focus"",""19"",""344104""
""focus"",""19"",""347219""
""focus"",""36"",""572828""
""focus"",""36"",""721736""
""focus"",""36"",""5647788""
""focus"",""36"",""5664159""
","""event"",""trial"",""time""
""fullscreenenter"",""1"",""4993""
","""event"",""trial"",""time""
""fullscreenexit"",""36"",""493391""
","","","-1","","","24","10240","3861","&#9826;","elianto","#f73b6a7A","-1","-1","1","0","[]","0","0","3","","","","","","","",""
"pit-trial","67","5952935","0.0-2.0-14.1-3.1","battery-v0.2","","""event"",""trial"",""time""
""fullscreenenter"",""1"",""4993""
""blur"",""19"",""339107""
""focus"",""19"",""340150""
""blur"",""19"",""341443""
""focus"",""19"",""344104""
""blur"",""19"",""346128""
""focus"",""19"",""347219""
""fullscreenexit"",""36"",""493391""
""blur"",""36"",""496937""
""focus"",""36"",""572828""
""blur"",""36"",""678281""
""focus"",""36"",""721736""
""blur"",""36"",""723046""
""focus"",""36"",""5647788""
""blur"",""36"",""5651778""
""focus"",""36"",""5664159""
","""event"",""trial"",""time""
""blur"",""19"",""339107""
""blur"",""19"",""341443""
""blur"",""19"",""346128""
""blur"",""36"",""496937""
""blur"",""36"",""678281""
""blur"",""36"",""723046""
""blur"",""36"",""5651778""
","""event"",""trial"",""time""
""focus"",""19"",""340150""
""focus"",""19"",""344104""
""focus"",""19"",""347219""
""focus"",""36"",""572828""
""focus"",""36"",""721736""
""focus"",""36"",""5647788""
""focus"",""36"",""5664159""
","""event"",""trial"",""time""
""fullscreenenter"",""1"",""4993""
","""event"",""trial"",""time""
""fullscreenexit"",""36"",""493391""
","","","-1","","","24","10240","3861","&#9826;","elianto","#f73b6a7A","-1","-1","1","-10","[]","0","0","3","","","","","","","",""
"pit-trial","68","5957189","0.0-2.0-14.1-4.1","battery-v0.2","","""event"",""trial"",""time""
""fullscreenenter"",""1"",""4993""
""blur"",""19"",""339107""
""focus"",""19"",""340150""
""blur"",""19"",""341443""
""focus"",""19"",""344104""
""blur"",""19"",""346128""
""focus"",""19"",""347219""
""fullscreenexit"",""36"",""493391""
""blur"",""36"",""496937""
""focus"",""36"",""572828""
""blur"",""36"",""678281""
""focus"",""36"",""721736""
""blur"",""36"",""723046""
""focus"",""36"",""5647788""
""blur"",""36"",""5651778""
""focus"",""36"",""5664159""
","""event"",""trial"",""time""
""blur"",""19"",""339107""
""blur"",""19"",""341443""
""blur"",""19"",""346128""
""blur"",""36"",""496937""
""blur"",""36"",""678281""
""blur"",""36"",""723046""
""blur"",""36"",""5651778""
","""event"",""trial"",""time""
""focus"",""19"",""340150""
""focus"",""19"",""344104""
""focus"",""19"",""347219""
""focus"",""36"",""572828""
""focus"",""36"",""721736""
""focus"",""36"",""5647788""
""focus"",""36"",""5664159""
","""event"",""trial"",""time""
""fullscreenenter"",""1"",""4993""
","""event"",""trial"",""time""
""fullscreenexit"",""36"",""493391""
","","","1391.5","","","24","10240","3861","&#9826;","elianto","#f73b6a7A","-1"," ","0","-10","[2242]","1","0","3","","","","","","","",""
"pit-trial","69","5962063","0.0-2.0-14.2-0.2","battery-v0.2","","""event"",""trial"",""time""
""fullscreenenter"",""1"",""4993""
""blur"",""19"",""339107""
""focus"",""19"",""340150""
""blur"",""19"",""341443""
""focus"",""19"",""344104""
""blur"",""19"",""346128""
""focus"",""19"",""347219""
""fullscreenexit"",""36"",""493391""
""blur"",""36"",""496937""
""focus"",""36"",""572828""
""blur"",""36"",""678281""
""focus"",""36"",""721736""
""blur"",""36"",""723046""
""focus"",""36"",""5647788""
""blur"",""36"",""5651778""
""focus"",""36"",""5664159""
","""event"",""trial"",""time""
""blur"",""19"",""339107""
""blur"",""19"",""341443""
""blur"",""19"",""346128""
""blur"",""36"",""496937""
""blur"",""36"",""678281""
""blur"",""36"",""723046""
""blur"",""36"",""5651778""
","""event"",""trial"",""time""
""focus"",""19"",""340150""
""focus"",""19"",""344104""
""focus"",""19"",""347219""
""focus"",""36"",""572828""
""focus"",""36"",""721736""
""focus"",""36"",""5647788""
""focus"",""36"",""5664159""
","""event"",""trial"",""time""
""fullscreenenter"",""1"",""4993""
","""event"",""trial"",""time""
""fullscreenexit"",""36"",""493391""
","","","-1","","","24","10240","3861","&#9826;","elianto","#f73b6a7A","-1","-1","1","0","[]","0","0","3","","","","","","","",""
"pit-trial","70","5966933","0.0-2.0-14.2-1.2","battery-v0.2","","""event"",""trial"",""time""
""fullscreenenter"",""1"",""4993""
""blur"",""19"",""339107""
""focus"",""19"",""340150""
""blur"",""19"",""341443""
""focus"",""19"",""344104""
""blur"",""19"",""346128""
""focus"",""19"",""347219""
""fullscreenexit"",""36"",""493391""
""blur"",""36"",""496937""
""focus"",""36"",""572828""
""blur"",""36"",""678281""
""focus"",""36"",""721736""
""blur"",""36"",""723046""
""focus"",""36"",""5647788""
""blur"",""36"",""5651778""
""focus"",""36"",""5664159""
","""event"",""trial"",""time""
""blur"",""19"",""339107""
""blur"",""19"",""341443""
""blur"",""19"",""346128""
""blur"",""36"",""496937""
""blur"",""36"",""678281""
""blur"",""36"",""723046""
""blur"",""36"",""5651778""
","""event"",""trial"",""time""
""focus"",""19"",""340150""
""focus"",""19"",""344104""
""focus"",""19"",""347219""
""focus"",""36"",""572828""
""focus"",""36"",""721736""
""focus"",""36"",""5647788""
""focus"",""36"",""5664159""
","""event"",""trial"",""time""
""fullscreenenter"",""1"",""4993""
","""event"",""trial"",""time""
""fullscreenexit"",""36"",""493391""
","","","-1","","","24","10240","3861","&#9826;","elianto","#f73b6a7A","-1","-1","1","0","[]","0","0","3","","","","","","","",""
"pit-trial","71","5971805","0.0-2.0-14.2-2.2","battery-v0.2","","""event"",""trial"",""time""
""fullscreenenter"",""1"",""4993""
""blur"",""19"",""339107""
""focus"",""19"",""340150""
""blur"",""19"",""341443""
""focus"",""19"",""344104""
""blur"",""19"",""346128""
""focus"",""19"",""347219""
""fullscreenexit"",""36"",""493391""
""blur"",""36"",""496937""
""focus"",""36"",""572828""
""blur"",""36"",""678281""
""focus"",""36"",""721736""
""blur"",""36"",""723046""
""focus"",""36"",""5647788""
""blur"",""36"",""5651778""
""focus"",""36"",""5664159""
","""event"",""trial"",""time""
""blur"",""19"",""339107""
""blur"",""19"",""341443""
""blur"",""19"",""346128""
""blur"",""36"",""496937""
""blur"",""36"",""678281""
""blur"",""36"",""723046""
""blur"",""36"",""5651778""
","""event"",""trial"",""time""
""focus"",""19"",""340150""
""focus"",""19"",""344104""
""focus"",""19"",""347219""
""focus"",""36"",""572828""
""focus"",""36"",""721736""
""focus"",""36"",""5647788""
""focus"",""36"",""5664159""
","""event"",""trial"",""time""
""fullscreenenter"",""1"",""4993""
","""event"",""trial"",""time""
""fullscreenexit"",""36"",""493391""
","","","-1","","","24","10240","3861","&#9826;","elianto","#f73b6a7A","-1","-1","1","0","[]","0","0","3","","","","","","","",""
"pit-trial","72","5976678","0.0-2.0-14.2-3.2","battery-v0.2","","""event"",""trial"",""time""
""fullscreenenter"",""1"",""4993""
""blur"",""19"",""339107""
""focus"",""19"",""340150""
""blur"",""19"",""341443""
""focus"",""19"",""344104""
""blur"",""19"",""346128""
""focus"",""19"",""347219""
""fullscreenexit"",""36"",""493391""
""blur"",""36"",""496937""
""focus"",""36"",""572828""
""blur"",""36"",""678281""
""focus"",""36"",""721736""
""blur"",""36"",""723046""
""focus"",""36"",""5647788""
""blur"",""36"",""5651778""
""focus"",""36"",""5664159""
","""event"",""trial"",""time""
""blur"",""19"",""339107""
""blur"",""19"",""341443""
""blur"",""19"",""346128""
""blur"",""36"",""496937""
""blur"",""36"",""678281""
""blur"",""36"",""723046""
""blur"",""36"",""5651778""
","""event"",""trial"",""time""
""focus"",""19"",""340150""
""focus"",""19"",""344104""
""focus"",""19"",""347219""
""focus"",""36"",""572828""
""focus"",""36"",""721736""
""focus"",""36"",""5647788""
""focus"",""36"",""5664159""
","""event"",""trial"",""time""
""fullscreenenter"",""1"",""4993""
","""event"",""trial"",""time""
""fullscreenexit"",""36"",""493391""
","","","-1","","","24","10240","3861","&#9826;","elianto","#f73b6a7A","-1","-1","1","-10","[]","0","0","3","","","","","","","",""
"pit-trial","73","5981550","0.0-2.0-14.2-4.2","battery-v0.2","","""event"",""trial"",""time""
""fullscreenenter"",""1"",""4993""
""blur"",""19"",""339107""
""focus"",""19"",""340150""
""blur"",""19"",""341443""
""focus"",""19"",""344104""
""blur"",""19"",""346128""
""focus"",""19"",""347219""
""fullscreenexit"",""36"",""493391""
""blur"",""36"",""496937""
""focus"",""36"",""572828""
""blur"",""36"",""678281""
""focus"",""36"",""721736""
""blur"",""36"",""723046""
""focus"",""36"",""5647788""
""blur"",""36"",""5651778""
""focus"",""36"",""5664159""
","""event"",""trial"",""time""
""blur"",""19"",""339107""
""blur"",""19"",""341443""
""blur"",""19"",""346128""
""blur"",""36"",""496937""
""blur"",""36"",""678281""
""blur"",""36"",""723046""
""blur"",""36"",""5651778""
","""event"",""trial"",""time""
""focus"",""19"",""340150""
""focus"",""19"",""344104""
""focus"",""19"",""347219""
""focus"",""36"",""572828""
""focus"",""36"",""721736""
""focus"",""36"",""5647788""
""focus"",""36"",""5664159""
","""event"",""trial"",""time""
""fullscreenenter"",""1"",""4993""
","""event"",""trial"",""time""
""fullscreenexit"",""36"",""493391""
","","","-1","","","24","10240","3861","&#9826;","elianto","#f73b6a7A","-1","-1","1","0","[]","0","0","3","","","","","","","",""
"pit-trial","74","5986420","0.0-2.0-14.3-0.3","battery-v0.2","","""event"",""trial"",""time""
""fullscreenenter"",""1"",""4993""
""blur"",""19"",""339107""
""focus"",""19"",""340150""
""blur"",""19"",""341443""
""focus"",""19"",""344104""
""blur"",""19"",""346128""
""focus"",""19"",""347219""
""fullscreenexit"",""36"",""493391""
""blur"",""36"",""496937""
""focus"",""36"",""572828""
""blur"",""36"",""678281""
""focus"",""36"",""721736""
""blur"",""36"",""723046""
""focus"",""36"",""5647788""
""blur"",""36"",""5651778""
""focus"",""36"",""5664159""
","""event"",""trial"",""time""
""blur"",""19"",""339107""
""blur"",""19"",""341443""
""blur"",""19"",""346128""
""blur"",""36"",""496937""
""blur"",""36"",""678281""
""blur"",""36"",""723046""
""blur"",""36"",""5651778""
","""event"",""trial"",""time""
""focus"",""19"",""340150""
""focus"",""19"",""344104""
""focus"",""19"",""347219""
""focus"",""36"",""572828""
""focus"",""36"",""721736""
""focus"",""36"",""5647788""
""focus"",""36"",""5664159""
","""event"",""trial"",""time""
""fullscreenenter"",""1"",""4993""
","""event"",""trial"",""time""
""fullscreenexit"",""36"",""493391""
","","","-1","","","24","10240","3861","&#9826;","elianto","#f73b6a7A","-1","-1","1","0","[]","0","0","3","","","","","","","",""
"pit-trial","75","5991286","0.0-2.0-14.3-1.3","battery-v0.2","","""event"",""trial"",""time""
""fullscreenenter"",""1"",""4993""
""blur"",""19"",""339107""
""focus"",""19"",""340150""
""blur"",""19"",""341443""
""focus"",""19"",""344104""
""blur"",""19"",""346128""
""focus"",""19"",""347219""
""fullscreenexit"",""36"",""493391""
""blur"",""36"",""496937""
""focus"",""36"",""572828""
""blur"",""36"",""678281""
""focus"",""36"",""721736""
""blur"",""36"",""723046""
""focus"",""36"",""5647788""
""blur"",""36"",""5651778""
""focus"",""36"",""5664159""
","""event"",""trial"",""time""
""blur"",""19"",""339107""
""blur"",""19"",""341443""
""blur"",""19"",""346128""
""blur"",""36"",""496937""
""blur"",""36"",""678281""
""blur"",""36"",""723046""
""blur"",""36"",""5651778""
","""event"",""trial"",""time""
""focus"",""19"",""340150""
""focus"",""19"",""344104""
""focus"",""19"",""347219""
""focus"",""36"",""572828""
""focus"",""36"",""721736""
""focus"",""36"",""5647788""
""focus"",""36"",""5664159""
","""event"",""trial"",""time""
""fullscreenenter"",""1"",""4993""
","""event"",""trial"",""time""
""fullscreenexit"",""36"",""493391""
","","","-1","","","24","10240","3861","&#9826;","elianto","#f73b6a7A","-1","-1","1","0","[]","0","0","3","","","","","","","",""
"pit-trial","76","5996157","0.0-2.0-14.3-2.3","battery-v0.2","","""event"",""trial"",""time""
""fullscreenenter"",""1"",""4993""
""blur"",""19"",""339107""
""focus"",""19"",""340150""
""blur"",""19"",""341443""
""focus"",""19"",""344104""
""blur"",""19"",""346128""
""focus"",""19"",""347219""
""fullscreenexit"",""36"",""493391""
""blur"",""36"",""496937""
""focus"",""36"",""572828""
""blur"",""36"",""678281""
""focus"",""36"",""721736""
""blur"",""36"",""723046""
""focus"",""36"",""5647788""
""blur"",""36"",""5651778""
""focus"",""36"",""5664159""
","""event"",""trial"",""time""
""blur"",""19"",""339107""
""blur"",""19"",""341443""
""blur"",""19"",""346128""
""blur"",""36"",""496937""
""blur"",""36"",""678281""
""blur"",""36"",""723046""
""blur"",""36"",""5651778""
","""event"",""trial"",""time""
""focus"",""19"",""340150""
""focus"",""19"",""344104""
""focus"",""19"",""347219""
""focus"",""36"",""572828""
""focus"",""36"",""721736""
""focus"",""36"",""5647788""
""focus"",""36"",""5664159""
","""event"",""trial"",""time""
""fullscreenenter"",""1"",""4993""
","""event"",""trial"",""time""
""fullscreenexit"",""36"",""493391""
","","","-1","","","24","10240","3861","&#9826;","elianto","#f73b6a7A","-1","-1","1","0","[]","0","0","3","","","","","","","",""
"pit-trial","77","6001027","0.0-2.0-14.3-3.3","battery-v0.2","","""event"",""trial"",""time""
""fullscreenenter"",""1"",""4993""
""blur"",""19"",""339107""
""focus"",""19"",""340150""
""blur"",""19"",""341443""
""focus"",""19"",""344104""
""blur"",""19"",""346128""
""focus"",""19"",""347219""
""fullscreenexit"",""36"",""493391""
""blur"",""36"",""496937""
""focus"",""36"",""572828""
""blur"",""36"",""678281""
""focus"",""36"",""721736""
""blur"",""36"",""723046""
""focus"",""36"",""5647788""
""blur"",""36"",""5651778""
""focus"",""36"",""5664159""
","""event"",""trial"",""time""
""blur"",""19"",""339107""
""blur"",""19"",""341443""
""blur"",""19"",""346128""
""blur"",""36"",""496937""
""blur"",""36"",""678281""
""blur"",""36"",""723046""
""blur"",""36"",""5651778""
","""event"",""trial"",""time""
""focus"",""19"",""340150""
""focus"",""19"",""344104""
""focus"",""19"",""347219""
""focus"",""36"",""572828""
""focus"",""36"",""721736""
""focus"",""36"",""5647788""
""focus"",""36"",""5664159""
","""event"",""trial"",""time""
""fullscreenenter"",""1"",""4993""
","""event"",""trial"",""time""
""fullscreenexit"",""36"",""493391""
","","","-1","","","24","10240","3861","&#9826;","elianto","#f73b6a7A","-1","-1","1","-10","[]","0","0","3","","","","","","","",""
"pit-trial","78","6005902","0.0-2.0-14.3-4.3","battery-v0.2","","""event"",""trial"",""time""
""fullscreenenter"",""1"",""4993""
""blur"",""19"",""339107""
""focus"",""19"",""340150""
""blur"",""19"",""341443""
""focus"",""19"",""344104""
""blur"",""19"",""346128""
""focus"",""19"",""347219""
""fullscreenexit"",""36"",""493391""
""blur"",""36"",""496937""
""focus"",""36"",""572828""
""blur"",""36"",""678281""
""focus"",""36"",""721736""
""blur"",""36"",""723046""
""focus"",""36"",""5647788""
""blur"",""36"",""5651778""
""focus"",""36"",""5664159""
","""event"",""trial"",""time""
""blur"",""19"",""339107""
""blur"",""19"",""341443""
""blur"",""19"",""346128""
""blur"",""36"",""496937""
""blur"",""36"",""678281""
""blur"",""36"",""723046""
""blur"",""36"",""5651778""
","""event"",""trial"",""time""
""focus"",""19"",""340150""
""focus"",""19"",""344104""
""focus"",""19"",""347219""
""focus"",""36"",""572828""
""focus"",""36"",""721736""
""focus"",""36"",""5647788""
""focus"",""36"",""5664159""
","""event"",""trial"",""time""
""fullscreenenter"",""1"",""4993""
","""event"",""trial"",""time""
""fullscreenexit"",""36"",""493391""
","","","-1","","","24","10240","3861","&#9826;","elianto","#f73b6a7A","-1","-1","1","0","[]","0","0","3","","","","","","","",""
"call-function","79","6005906","0.0-2.0-15.0","battery-v0.2","","""event"",""trial"",""time""
""fullscreenenter"",""1"",""4993""
""blur"",""19"",""339107""
""focus"",""19"",""340150""
""blur"",""19"",""341443""
""focus"",""19"",""344104""
""blur"",""19"",""346128""
""focus"",""19"",""347219""
""fullscreenexit"",""36"",""493391""
""blur"",""36"",""496937""
""focus"",""36"",""572828""
""blur"",""36"",""678281""
""focus"",""36"",""721736""
""blur"",""36"",""723046""
""focus"",""36"",""5647788""
""blur"",""36"",""5651778""
""focus"",""36"",""5664159""
","""event"",""trial"",""time""
""blur"",""19"",""339107""
""blur"",""19"",""341443""
""blur"",""19"",""346128""
""blur"",""36"",""496937""
""blur"",""36"",""678281""
""blur"",""36"",""723046""
""blur"",""36"",""5651778""
","""event"",""trial"",""time""
""focus"",""19"",""340150""
""focus"",""19"",""344104""
""focus"",""19"",""347219""
""focus"",""36"",""572828""
""focus"",""36"",""721736""
""focus"",""36"",""5647788""
""focus"",""36"",""5664159""
","""event"",""trial"",""time""
""fullscreenenter"",""1"",""4993""
","""event"",""trial"",""time""
""fullscreenexit"",""36"",""493391""
","","","","","","","","","","","","","","","","","","","","","","","","","","",""
"pit-instructions","80","6038791","0.0-2.0-16.0","battery-v0.2","","""event"",""trial"",""time""
""fullscreenenter"",""1"",""4993""
""blur"",""19"",""339107""
""focus"",""19"",""340150""
""blur"",""19"",""341443""
""focus"",""19"",""344104""
""blur"",""19"",""346128""
""focus"",""19"",""347219""
""fullscreenexit"",""36"",""493391""
""blur"",""36"",""496937""
""focus"",""36"",""572828""
""blur"",""36"",""678281""
""focus"",""36"",""721736""
""blur"",""36"",""723046""
""focus"",""36"",""5647788""
""blur"",""36"",""5651778""
""focus"",""36"",""5664159""
","""event"",""trial"",""time""
""blur"",""19"",""339107""
""blur"",""19"",""341443""
""blur"",""19"",""346128""
""blur"",""36"",""496937""
""blur"",""36"",""678281""
""blur"",""36"",""723046""
""blur"",""36"",""5651778""
","""event"",""trial"",""time""
""focus"",""19"",""340150""
""focus"",""19"",""344104""
""focus"",""19"",""347219""
""focus"",""36"",""572828""
""focus"",""36"",""721736""
""focus"",""36"",""5647788""
""focus"",""36"",""5664159""
","""event"",""trial"",""time""
""fullscreenenter"",""1"",""4993""
","""event"",""trial"",""time""
""fullscreenexit"",""36"",""493391""
","","[{""page_index"":0,""viewing_time"":9265.699999988079},{""page_index"":1,""viewing_time"":10557.699999988079},{""page_index"":2,""viewing_time"":7461.900000035763},{""page_index"":3,""viewing_time"":5599.899999976158}]","32885.59999996424","","","","","","","","","","","","","","","","","","","","","","","",""
"pit-trial","81","6043658","0.0-2.0-17.0-0.0","battery-v0.2","","""event"",""trial"",""time""
""fullscreenenter"",""1"",""4993""
""blur"",""19"",""339107""
""focus"",""19"",""340150""
""blur"",""19"",""341443""
""focus"",""19"",""344104""
""blur"",""19"",""346128""
""focus"",""19"",""347219""
""fullscreenexit"",""36"",""493391""
""blur"",""36"",""496937""
""focus"",""36"",""572828""
""blur"",""36"",""678281""
""focus"",""36"",""721736""
""blur"",""36"",""723046""
""focus"",""36"",""5647788""
""blur"",""36"",""5651778""
""focus"",""36"",""5664159""
","""event"",""trial"",""time""
""blur"",""19"",""339107""
""blur"",""19"",""341443""
""blur"",""19"",""346128""
""blur"",""36"",""496937""
""blur"",""36"",""678281""
""blur"",""36"",""723046""
""blur"",""36"",""5651778""
","""event"",""trial"",""time""
""focus"",""19"",""340150""
""focus"",""19"",""344104""
""focus"",""19"",""347219""
""focus"",""36"",""572828""
""focus"",""36"",""721736""
""focus"",""36"",""5647788""
""focus"",""36"",""5664159""
","""event"",""trial"",""time""
""fullscreenenter"",""1"",""4993""
","""event"",""trial"",""time""
""fullscreenexit"",""36"",""493391""
","","","-1","","","24","10240","3861","&#9789;","elianto","#f73b6a7A"," ","-1","0","-10","[]","0","0","4","","","","","","","",""
"pit-trial","82","6047052","0.0-2.0-17.0-1.0","battery-v0.2","","""event"",""trial"",""time""
""fullscreenenter"",""1"",""4993""
""blur"",""19"",""339107""
""focus"",""19"",""340150""
""blur"",""19"",""341443""
""focus"",""19"",""344104""
""blur"",""19"",""346128""
""focus"",""19"",""347219""
""fullscreenexit"",""36"",""493391""
""blur"",""36"",""496937""
""focus"",""36"",""572828""
""blur"",""36"",""678281""
""focus"",""36"",""721736""
""blur"",""36"",""723046""
""focus"",""36"",""5647788""
""blur"",""36"",""5651778""
""focus"",""36"",""5664159""
","""event"",""trial"",""time""
""blur"",""19"",""339107""
""blur"",""19"",""341443""
""blur"",""19"",""346128""
""blur"",""36"",""496937""
""blur"",""36"",""678281""
""blur"",""36"",""723046""
""blur"",""36"",""5651778""
","""event"",""trial"",""time""
""focus"",""19"",""340150""
""focus"",""19"",""344104""
""focus"",""19"",""347219""
""focus"",""36"",""572828""
""focus"",""36"",""721736""
""focus"",""36"",""5647788""
""focus"",""36"",""5664159""
","""event"",""trial"",""time""
""fullscreenenter"",""1"",""4993""
","""event"",""trial"",""time""
""fullscreenexit"",""36"",""493391""
","","","528.1000000238419","","","24","10240","3861","&#9789;","elianto","#f73b6a7A"," "," ","1","0","[1381.3999999761581]","1","0","4","","","","","","","",""
"pit-trial","83","6050346","0.0-2.0-17.0-2.0","battery-v0.2","","""event"",""trial"",""time""
""fullscreenenter"",""1"",""4993""
""blur"",""19"",""339107""
""focus"",""19"",""340150""
""blur"",""19"",""341443""
""focus"",""19"",""344104""
""blur"",""19"",""346128""
""focus"",""19"",""347219""
""fullscreenexit"",""36"",""493391""
""blur"",""36"",""496937""
""focus"",""36"",""572828""
""blur"",""36"",""678281""
""focus"",""36"",""721736""
""blur"",""36"",""723046""
""focus"",""36"",""5647788""
""blur"",""36"",""5651778""
""focus"",""36"",""5664159""
","""event"",""trial"",""time""
""blur"",""19"",""339107""
""blur"",""19"",""341443""
""blur"",""19"",""346128""
""blur"",""36"",""496937""
""blur"",""36"",""678281""
""blur"",""36"",""723046""
""blur"",""36"",""5651778""
","""event"",""trial"",""time""
""focus"",""19"",""340150""
""focus"",""19"",""344104""
""focus"",""19"",""347219""
""focus"",""36"",""572828""
""focus"",""36"",""721736""
""focus"",""36"",""5647788""
""focus"",""36"",""5664159""
","""event"",""trial"",""time""
""fullscreenenter"",""1"",""4993""
","""event"",""trial"",""time""
""fullscreenexit"",""36"",""493391""
","","","423","","","24","10240","3861","&#9789;","elianto","#f73b6a7A"," "," ","1","0","[1279.5]","1","0","4","","","","","","","",""
"pit-trial","84","6053675","0.0-2.0-17.0-3.0","battery-v0.2","","""event"",""trial"",""time""
""fullscreenenter"",""1"",""4993""
""blur"",""19"",""339107""
""focus"",""19"",""340150""
""blur"",""19"",""341443""
""focus"",""19"",""344104""
""blur"",""19"",""346128""
""focus"",""19"",""347219""
""fullscreenexit"",""36"",""493391""
""blur"",""36"",""496937""
""focus"",""36"",""572828""
""blur"",""36"",""678281""
""focus"",""36"",""721736""
""blur"",""36"",""723046""
""focus"",""36"",""5647788""
""blur"",""36"",""5651778""
""focus"",""36"",""5664159""
","""event"",""trial"",""time""
""blur"",""19"",""339107""
""blur"",""19"",""341443""
""blur"",""19"",""346128""
""blur"",""36"",""496937""
""blur"",""36"",""678281""
""blur"",""36"",""723046""
""blur"",""36"",""5651778""
","""event"",""trial"",""time""
""focus"",""19"",""340150""
""focus"",""19"",""344104""
""focus"",""19"",""347219""
""focus"",""36"",""572828""
""focus"",""36"",""721736""
""focus"",""36"",""5647788""
""focus"",""36"",""5664159""
","""event"",""trial"",""time""
""fullscreenenter"",""1"",""4993""
","""event"",""trial"",""time""
""fullscreenexit"",""36"",""493391""
","","","467.5","","","24","10240","3861","&#9789;","elianto","#f73b6a7A"," "," ","1","-10","[1318.6000000238419]","1","0","4","","","","","","","",""
"pit-trial","85","6056932","0.0-2.0-17.0-4.0","battery-v0.2","","""event"",""trial"",""time""
""fullscreenenter"",""1"",""4993""
""blur"",""19"",""339107""
""focus"",""19"",""340150""
""blur"",""19"",""341443""
""focus"",""19"",""344104""
""blur"",""19"",""346128""
""focus"",""19"",""347219""
""fullscreenexit"",""36"",""493391""
""blur"",""36"",""496937""
""focus"",""36"",""572828""
""blur"",""36"",""678281""
""focus"",""36"",""721736""
""blur"",""36"",""723046""
""focus"",""36"",""5647788""
""blur"",""36"",""5651778""
""focus"",""36"",""5664159""
","""event"",""trial"",""time""
""blur"",""19"",""339107""
""blur"",""19"",""341443""
""blur"",""19"",""346128""
""blur"",""36"",""496937""
""blur"",""36"",""678281""
""blur"",""36"",""723046""
""blur"",""36"",""5651778""
","""event"",""trial"",""time""
""focus"",""19"",""340150""
""focus"",""19"",""344104""
""focus"",""19"",""347219""
""focus"",""36"",""572828""
""focus"",""36"",""721736""
""focus"",""36"",""5647788""
""focus"",""36"",""5664159""
","""event"",""trial"",""time""
""fullscreenenter"",""1"",""4993""
","""event"",""trial"",""time""
""fullscreenexit"",""36"",""493391""
","","","390","","","24","10240","3861","&#9789;","elianto","#f73b6a7A"," "," ","1","0","[1244.5]","1","0","4","","","","","","","",""
"pit-trial","86","6060156","0.0-2.0-17.1-0.1","battery-v0.2","","""event"",""trial"",""time""
""fullscreenenter"",""1"",""4993""
""blur"",""19"",""339107""
""focus"",""19"",""340150""
""blur"",""19"",""341443""
""focus"",""19"",""344104""
""blur"",""19"",""346128""
""focus"",""19"",""347219""
""fullscreenexit"",""36"",""493391""
""blur"",""36"",""496937""
""focus"",""36"",""572828""
""blur"",""36"",""678281""
""focus"",""36"",""721736""
""blur"",""36"",""723046""
""focus"",""36"",""5647788""
""blur"",""36"",""5651778""
""focus"",""36"",""5664159""
","""event"",""trial"",""time""
""blur"",""19"",""339107""
""blur"",""19"",""341443""
""blur"",""19"",""346128""
""blur"",""36"",""496937""
""blur"",""36"",""678281""
""blur"",""36"",""723046""
""blur"",""36"",""5651778""
","""event"",""trial"",""time""
""focus"",""19"",""340150""
""focus"",""19"",""344104""
""focus"",""19"",""347219""
""focus"",""36"",""572828""
""focus"",""36"",""721736""
""focus"",""36"",""5647788""
""focus"",""36"",""5664159""
","""event"",""trial"",""time""
""fullscreenenter"",""1"",""4993""
","""event"",""trial"",""time""
""fullscreenexit"",""36"",""493391""
","","","351.39999997615814","","","24","10240","3861","&#9789;","elianto","#f73b6a7A"," "," ","1","0","[1206.3999999761581]","1","0","4","","","","","","","",""
"pit-trial","87","6063404","0.0-2.0-17.1-1.1","battery-v0.2","","""event"",""trial"",""time""
""fullscreenenter"",""1"",""4993""
""blur"",""19"",""339107""
""focus"",""19"",""340150""
""blur"",""19"",""341443""
""focus"",""19"",""344104""
""blur"",""19"",""346128""
""focus"",""19"",""347219""
""fullscreenexit"",""36"",""493391""
""blur"",""36"",""496937""
""focus"",""36"",""572828""
""blur"",""36"",""678281""
""focus"",""36"",""721736""
""blur"",""36"",""723046""
""focus"",""36"",""5647788""
""blur"",""36"",""5651778""
""focus"",""36"",""5664159""
","""event"",""trial"",""time""
""blur"",""19"",""339107""
""blur"",""19"",""341443""
""blur"",""19"",""346128""
""blur"",""36"",""496937""
""blur"",""36"",""678281""
""blur"",""36"",""723046""
""blur"",""36"",""5651778""
","""event"",""trial"",""time""
""focus"",""19"",""340150""
""focus"",""19"",""344104""
""focus"",""19"",""347219""
""focus"",""36"",""572828""
""focus"",""36"",""721736""
""focus"",""36"",""5647788""
""focus"",""36"",""5664159""
","""event"",""trial"",""time""
""fullscreenenter"",""1"",""4993""
","""event"",""trial"",""time""
""fullscreenexit"",""36"",""493391""
","","","375.10000002384186","","","24","10240","3861","&#9789;","elianto","#f73b6a7A"," "," ","1","0","[1232.3999999761581]","1","0","4","","","","","","","",""
"pit-trial","88","6066675","0.0-2.0-17.1-2.1","battery-v0.2","","""event"",""trial"",""time""
""fullscreenenter"",""1"",""4993""
""blur"",""19"",""339107""
""focus"",""19"",""340150""
""blur"",""19"",""341443""
""focus"",""19"",""344104""
""blur"",""19"",""346128""
""focus"",""19"",""347219""
""fullscreenexit"",""36"",""493391""
""blur"",""36"",""496937""
""focus"",""36"",""572828""
""blur"",""36"",""678281""
""focus"",""36"",""721736""
""blur"",""36"",""723046""
""focus"",""36"",""5647788""
""blur"",""36"",""5651778""
""focus"",""36"",""5664159""
","""event"",""trial"",""time""
""blur"",""19"",""339107""
""blur"",""19"",""341443""
""blur"",""19"",""346128""
""blur"",""36"",""496937""
""blur"",""36"",""678281""
""blur"",""36"",""723046""
""blur"",""36"",""5651778""
","""event"",""trial"",""time""
""focus"",""19"",""340150""
""focus"",""19"",""344104""
""focus"",""19"",""347219""
""focus"",""36"",""572828""
""focus"",""36"",""721736""
""focus"",""36"",""5647788""
""focus"",""36"",""5664159""
","""event"",""trial"",""time""
""fullscreenenter"",""1"",""4993""
","""event"",""trial"",""time""
""fullscreenexit"",""36"",""493391""
","","","400.4000000357628","","","24","10240","3861","&#9789;","elianto","#f73b6a7A"," "," ","1","0","[1259]","1","0","4","","","","","","","",""
"pit-trial","89","6069791","0.0-2.0-17.1-3.1","battery-v0.2","","""event"",""trial"",""time""
""fullscreenenter"",""1"",""4993""
""blur"",""19"",""339107""
""focus"",""19"",""340150""
""blur"",""19"",""341443""
""focus"",""19"",""344104""
""blur"",""19"",""346128""
""focus"",""19"",""347219""
""fullscreenexit"",""36"",""493391""
""blur"",""36"",""496937""
""focus"",""36"",""572828""
""blur"",""36"",""678281""
""focus"",""36"",""721736""
""blur"",""36"",""723046""
""focus"",""36"",""5647788""
""blur"",""36"",""5651778""
""focus"",""36"",""5664159""
","""event"",""trial"",""time""
""blur"",""19"",""339107""
""blur"",""19"",""341443""
""blur"",""19"",""346128""
""blur"",""36"",""496937""
""blur"",""36"",""678281""
""blur"",""36"",""723046""
""blur"",""36"",""5651778""
","""event"",""trial"",""time""
""focus"",""19"",""340150""
""focus"",""19"",""344104""
""focus"",""19"",""347219""
""focus"",""36"",""572828""
""focus"",""36"",""721736""
""focus"",""36"",""5647788""
""focus"",""36"",""5664159""
","""event"",""trial"",""time""
""fullscreenenter"",""1"",""4993""
","""event"",""trial"",""time""
""fullscreenexit"",""36"",""493391""
","","","251.89999997615814","","","24","10240","3861","&#9789;","elianto","#f73b6a7A"," "," ","1","-10","[1106.199999988079]","1","0","4","","","","","","","",""
"pit-trial","90","6072916","0.0-2.0-17.1-4.1","battery-v0.2","","""event"",""trial"",""time""
""fullscreenenter"",""1"",""4993""
""blur"",""19"",""339107""
""focus"",""19"",""340150""
""blur"",""19"",""341443""
""focus"",""19"",""344104""
""blur"",""19"",""346128""
""focus"",""19"",""347219""
""fullscreenexit"",""36"",""493391""
""blur"",""36"",""496937""
""focus"",""36"",""572828""
""blur"",""36"",""678281""
""focus"",""36"",""721736""
""blur"",""36"",""723046""
""focus"",""36"",""5647788""
""blur"",""36"",""5651778""
""focus"",""36"",""5664159""
","""event"",""trial"",""time""
""blur"",""19"",""339107""
""blur"",""19"",""341443""
""blur"",""19"",""346128""
""blur"",""36"",""496937""
""blur"",""36"",""678281""
""blur"",""36"",""723046""
""blur"",""36"",""5651778""
","""event"",""trial"",""time""
""focus"",""19"",""340150""
""focus"",""19"",""344104""
""focus"",""19"",""347219""
""focus"",""36"",""572828""
""focus"",""36"",""721736""
""focus"",""36"",""5647788""
""focus"",""36"",""5664159""
","""event"",""trial"",""time""
""fullscreenenter"",""1"",""4993""
","""event"",""trial"",""time""
""fullscreenexit"",""36"",""493391""
","","","254.19999998807907","","","24","10240","3861","&#9789;","elianto","#f73b6a7A"," "," ","1","0","[1108.800000011921]","1","0","4","","","","","","","",""
"pit-trial","91","6076138","0.0-2.0-17.2-0.2","battery-v0.2","","""event"",""trial"",""time""
""fullscreenenter"",""1"",""4993""
""blur"",""19"",""339107""
""focus"",""19"",""340150""
""blur"",""19"",""341443""
""focus"",""19"",""344104""
""blur"",""19"",""346128""
""focus"",""19"",""347219""
""fullscreenexit"",""36"",""493391""
""blur"",""36"",""496937""
""focus"",""36"",""572828""
""blur"",""36"",""678281""
""focus"",""36"",""721736""
""blur"",""36"",""723046""
""focus"",""36"",""5647788""
""blur"",""36"",""5651778""
""focus"",""36"",""5664159""
","""event"",""trial"",""time""
""blur"",""19"",""339107""
""blur"",""19"",""341443""
""blur"",""19"",""346128""
""blur"",""36"",""496937""
""blur"",""36"",""678281""
""blur"",""36"",""723046""
""blur"",""36"",""5651778""
","""event"",""trial"",""time""
""focus"",""19"",""340150""
""focus"",""19"",""344104""
""focus"",""19"",""347219""
""focus"",""36"",""572828""
""focus"",""36"",""721736""
""focus"",""36"",""5647788""
""focus"",""36"",""5664159""
","""event"",""trial"",""time""
""fullscreenenter"",""1"",""4993""
","""event"",""trial"",""time""
""fullscreenexit"",""36"",""493391""
","","","355.89999997615814","","","24","10240","3861","&#9789;","elianto","#f73b6a7A"," "," ","1","0","[1211]","1","0","4","","","","","","","",""
"pit-trial","92","6079393","0.0-2.0-17.2-1.2","battery-v0.2","","""event"",""trial"",""time""
""fullscreenenter"",""1"",""4993""
""blur"",""19"",""339107""
""focus"",""19"",""340150""
""blur"",""19"",""341443""
""focus"",""19"",""344104""
""blur"",""19"",""346128""
""focus"",""19"",""347219""
""fullscreenexit"",""36"",""493391""
""blur"",""36"",""496937""
""focus"",""36"",""572828""
""blur"",""36"",""678281""
""focus"",""36"",""721736""
""blur"",""36"",""723046""
""focus"",""36"",""5647788""
""blur"",""36"",""5651778""
""focus"",""36"",""5664159""
","""event"",""trial"",""time""
""blur"",""19"",""339107""
""blur"",""19"",""341443""
""blur"",""19"",""346128""
""blur"",""36"",""496937""
""blur"",""36"",""678281""
""blur"",""36"",""723046""
""blur"",""36"",""5651778""
","""event"",""trial"",""time""
""focus"",""19"",""340150""
""focus"",""19"",""344104""
""focus"",""19"",""347219""
""focus"",""36"",""572828""
""focus"",""36"",""721736""
""focus"",""36"",""5647788""
""focus"",""36"",""5664159""
","""event"",""trial"",""time""
""fullscreenenter"",""1"",""4993""
","""event"",""trial"",""time""
""fullscreenexit"",""36"",""493391""
","","","382.80000001192093","","","24","10240","3861","&#9789;","elianto","#f73b6a7A"," "," ","1","0","[1241.4000000357628]","1","0","4","","","","","","","",""
"pit-trial","93","6082691","0.0-2.0-17.2-2.2","battery-v0.2","","""event"",""trial"",""time""
""fullscreenenter"",""1"",""4993""
""blur"",""19"",""339107""
""focus"",""19"",""340150""
""blur"",""19"",""341443""
""focus"",""19"",""344104""
""blur"",""19"",""346128""
""focus"",""19"",""347219""
""fullscreenexit"",""36"",""493391""
""blur"",""36"",""496937""
""focus"",""36"",""572828""
""blur"",""36"",""678281""
""focus"",""36"",""721736""
""blur"",""36"",""723046""
""focus"",""36"",""5647788""
""blur"",""36"",""5651778""
""focus"",""36"",""5664159""
","""event"",""trial"",""time""
""blur"",""19"",""339107""
""blur"",""19"",""341443""
""blur"",""19"",""346128""
""blur"",""36"",""496937""
""blur"",""36"",""678281""
""blur"",""36"",""723046""
""blur"",""36"",""5651778""
","""event"",""trial"",""time""
""focus"",""19"",""340150""
""focus"",""19"",""344104""
""focus"",""19"",""347219""
""focus"",""36"",""572828""
""focus"",""36"",""721736""
""focus"",""36"",""5647788""
""focus"",""36"",""5664159""
","""event"",""trial"",""time""
""fullscreenenter"",""1"",""4993""
","""event"",""trial"",""time""
""fullscreenexit"",""36"",""493391""
","","","429.30000001192093","","","24","10240","3861","&#9789;","elianto","#f73b6a7A"," "," ","1","0","[1281.300000011921]","1","0","4","","","","","","","",""
"pit-trial","94","6086073","0.0-2.0-17.2-3.2","battery-v0.2","","""event"",""trial"",""time""
""fullscreenenter"",""1"",""4993""
""blur"",""19"",""339107""
""focus"",""19"",""340150""
""blur"",""19"",""341443""
""focus"",""19"",""344104""
