"trial_type","trial_index","time_elapsed","internal_node_id","task_version","subject_id","interactions","blur_events","focus_events","fullscreenenter_events","fullscreenexit_events","success","view_history","rt","responses","num_errors","age","subject","participantId","rune","rune_set","hex","correct","choice","accuracy","outcome","keys","total_keys","block","practice","value","sub","trial","stimulus","robot","valence","action","sham"
"pavlovia","0","5","0.0-0.0","battery-v0.2","","""event"",""trial"",""time""
""fullscreenenter"",""1"",""3690""
","
","
","""event"",""trial"",""time""
""fullscreenenter"",""1"",""3690""
","
","","","","","","","","","","","","","","","","","","","","","","","","","","",""
"fullscreen","1","4681","0.0-1.0","battery-v0.2","","""event"",""trial"",""time""
""fullscreenenter"",""1"",""3690""
","
","
","""event"",""trial"",""time""
""fullscreenenter"",""1"",""3690""
","
","true","","","","","","","","","","","","","","","","","","","","","","","","","",""
"pit-instructions","2","10140","0.0-2.0-0.0","battery-v0.2","","""event"",""trial"",""time""
""fullscreenenter"",""1"",""3690""
","
","
","""event"",""trial"",""time""
""fullscreenenter"",""1"",""3690""
","
","","[{""page_index"":0,""viewing_time"":5457.5}]","5457.799999952316","","","","","","","","","","","","","","","","","","","","","","","",""
"pit-comprehension","3","13188","0.0-2.0-1.0-0.0","battery-v0.2","","""event"",""trial"",""time""
""fullscreenenter"",""1"",""3690""
","
","
","""event"",""trial"",""time""
""fullscreenenter"",""1"",""3690""
","
","","","3046.0999999046326","[""shark""]","0","18","15460","6149","","","","","","","","","","","","","","","","","","",""
"pit-instructions","4","14403","0.0-2.0-1.0-1.0","battery-v0.2","","""event"",""trial"",""time""
""fullscreenenter"",""1"",""3690""
","
","
","""event"",""trial"",""time""
""fullscreenenter"",""1"",""3690""
","
","","[{""page_index"":0,""viewing_time"":1205.4000000953674}]","1205.7000000476837","","","","","","","","","","","","","","","","","","","","","","","",""
"pit-comprehension","5","18089","0.0-2.0-2.0-0.0","battery-v0.2","","""event"",""trial"",""time""
""fullscreenenter"",""1"",""3690""
","
","
","""event"",""trial"",""time""
""fullscreenenter"",""1"",""3690""
","
","","","3685.600000143051","[""tiger""]","0","18","15460","6149","","","","","","","","","","","","","","","","","","",""
"pit-instructions","6","19224","0.0-2.0-2.0-1.0","battery-v0.2","","""event"",""trial"",""time""
""fullscreenenter"",""1"",""3690""
","
","
","""event"",""trial"",""time""
""fullscreenenter"",""1"",""3690""
","
","","[{""page_index"":0,""viewing_time"":1132.6000001430511}]","1132.7999999523163","","","","","","","","","","","","","","","","","","","","","","","",""
"pit-instructions","7","125276","0.0-2.0-3.0","battery-v0.2","","""event"",""trial"",""time""
""fullscreenenter"",""1"",""3690""
","
","
","""event"",""trial"",""time""
""fullscreenenter"",""1"",""3690""
","
","","[{""page_index"":0,""viewing_time"":10417.700000047684},{""page_index"":1,""viewing_time"":8804.299999952316},{""page_index"":2,""viewing_time"":6021},{""page_index"":3,""viewing_time"":7630.100000143051},{""page_index"":4,""viewing_time"":6999.399999856949},{""page_index"":5,""viewing_time"":7161.600000143051},{""page_index"":6,""viewing_time"":8389.599999904633},{""page_index"":7,""viewing_time"":7041.200000047684},{""page_index"":8,""viewing_time"":6607.5},{""page_index"":9,""viewing_time"":7924.700000047684},{""page_index"":10,""viewing_time"":7580},{""page_index"":11,""viewing_time"":7618.599999904633},{""page_index"":12,""viewing_time"":6630.5},{""page_index"":13,""viewing_time"":7224.099999904633}]","106050.60000014305","","","","","","","","","","","","","","","","","","","","","","","",""
"pit-trial","8","128844","0.0-2.0-4.0-0.0","battery-v0.2","","""event"",""trial"",""time""
""fullscreenenter"",""1"",""3690""
","
","
","""event"",""trial"",""time""
""fullscreenenter"",""1"",""3690""
","
","","","702.4000000953674","","","18","15460","6149","&#9784;","elianto","#FFFFF080"," "," ","1","&#10004","[1554.3000001907349,2996.9000000953674]","2","0","0","","","","","","","",""
"pit-trial","9","132401","0.0-2.0-4.1-0.1","battery-v0.2","","""event"",""trial"",""time""
""fullscreenenter"",""1"",""3690""
","
","
","""event"",""trial"",""time""
""fullscreenenter"",""1"",""3690""
","
","","","703.4000000953674","","","18","15460","6149","&#9784;","elianto","#FFFFF080"," "," ","1","&#10004","[1553.9000000953674]","1","0","0","","","","","","","",""
"pit-trial","10","135843","0.0-2.0-4.2-0.2","battery-v0.2","","""event"",""trial"",""time""
""fullscreenenter"",""1"",""3690""
","
","
","""event"",""trial"",""time""
""fullscreenenter"",""1"",""3690""
","
","","","584.5999999046326","","","18","15460","6149","&#9784;","elianto","#FFFFF080"," "," ","1","&#10004","[1437.2999999523163]","1","0","0","","","","","","","",""
"pit-trial","11","139172","0.0-2.0-4.3-0.3","battery-v0.2","","""event"",""trial"",""time""
""fullscreenenter"",""1"",""3690""
","
","
","""event"",""trial"",""time""
""fullscreenenter"",""1"",""3690""
","
","","","461.60000014305115","","","18","15460","6149","&#9784;","elianto","#FFFFF080"," "," ","1","&#10004","[1312]","1","0","0","","","","","","","",""
"pit-trial","12","142413","0.0-2.0-4.4-0.4","battery-v0.2","","""event"",""trial"",""time""
""fullscreenenter"",""1"",""3690""
","
","
","""event"",""trial"",""time""
""fullscreenenter"",""1"",""3690""
","
","","","381.2999999523163","","","18","15460","6149","&#9784;","elianto","#FFFFF080"," "," ","1","&#10004","[1235.7000000476837]","1","0","0","","","","","","","",""
"pit-instructions","13","164913","0.0-2.0-5.0","battery-v0.2","","""event"",""trial"",""time""
""fullscreenenter"",""1"",""3690""
","
","
","""event"",""trial"",""time""
""fullscreenenter"",""1"",""3690""
","
","","[{""page_index"":0,""viewing_time"":6486.5},{""page_index"":1,""viewing_time"":5097.100000143051},{""page_index"":2,""viewing_time"":5691.899999856949},{""page_index"":3,""viewing_time"":5222.700000047684}]","22498.60000014305","","","","","","","","","","","","","","","","","","","","","","","",""
"pit-trial","14","169776","0.0-2.0-6.0-0.0","battery-v0.2","","""event"",""trial"",""time""
""fullscreenenter"",""1"",""3690""
","
","
","""event"",""trial"",""time""
""fullscreenenter"",""1"",""3690""
","
","","","-1","","","18","15460","6149","&#9854;","elianto","#FFFFF080","-1","-1","1","&#10004","[]","0","0","1","","","","","","","",""
"pit-trial","15","174634","0.0-2.0-6.1-0.1","battery-v0.2","","""event"",""trial"",""time""
""fullscreenenter"",""1"",""3690""
","
","
","""event"",""trial"",""time""
""fullscreenenter"",""1"",""3690""
","
","","","-1","","","18","15460","6149","&#9854;","elianto","#FFFFF080","-1","-1","1","&#10004","[]","0","0","1","","","","","","","",""
"pit-trial","16","179495","0.0-2.0-6.2-0.2","battery-v0.2","","""event"",""trial"",""time""
""fullscreenenter"",""1"",""3690""
","
","
","""event"",""trial"",""time""
""fullscreenenter"",""1"",""3690""
","
","","","-1","","","18","15460","6149","&#9854;","elianto","#FFFFF080","-1","-1","1","&#10004","[]","0","0","1","","","","","","","",""
"pit-trial","17","184371","0.0-2.0-6.3-0.3","battery-v0.2","","""event"",""trial"",""time""
""fullscreenenter"",""1"",""3690""
","
","
","""event"",""trial"",""time""
""fullscreenenter"",""1"",""3690""
","
","","","-1","","","18","15460","6149","&#9854;","elianto","#FFFFF080","-1","-1","1","&#10004","[]","0","0","1","","","","","","","",""
"pit-trial","18","189227","0.0-2.0-6.4-0.4","battery-v0.2","","""event"",""trial"",""time""
""fullscreenenter"",""1"",""3690""
","
","
","""event"",""trial"",""time""
""fullscreenenter"",""1"",""3690""
","
","","","-1","","","18","15460","6149","&#9854;","elianto","#FFFFF080","-1","-1","1","&#10004","[]","0","0","1","","","","","","","",""
"pit-instructions","19","300627","0.0-2.0-7.0","battery-v0.2","","""event"",""trial"",""time""
""fullscreenenter"",""1"",""3690""
","
","
","""event"",""trial"",""time""
""fullscreenenter"",""1"",""3690""
","
","","[{""page_index"":0,""viewing_time"":6305.799999952316},{""page_index"":1,""viewing_time"":7094.200000047684},{""page_index"":2,""viewing_time"":6051.399999856949},{""page_index"":3,""viewing_time"":5946},{""page_index"":4,""viewing_time"":5508},{""page_index"":5,""viewing_time"":5320.5},{""page_index"":6,""viewing_time"":4657.400000095367},{""page_index"":7,""viewing_time"":7815.299999952316},{""page_index"":8,""viewing_time"":6162.799999952316},{""page_index"":9,""viewing_time"":5708.300000190735},{""page_index"":10,""viewing_time"":6158.699999809265},{""page_index"":11,""viewing_time"":4375.800000190735},{""page_index"":12,""viewing_time"":6434},{""page_index"":13,""viewing_time"":7250.099999904633},{""page_index"":14,""viewing_time"":6791.200000047684},{""page_index"":15,""viewing_time"":6896.700000047684},{""page_index"":16,""viewing_time"":6050},{""page_index"":17,""viewing_time"":6871.699999809265}]","111398.20000004768","","","","","","","","","","","","","","","","","","","","","","","",""
"pit-trial","20","304259","0.0-2.0-8.0-0.0","battery-v0.2","","""event"",""trial"",""time""
""fullscreenenter"",""1"",""3690""
","
","
","""event"",""trial"",""time""
""fullscreenenter"",""1"",""3690""
","
","","","769.3000001907349","","","18","15460","6149","&#9776;","elianto","#3366ff99"," "," ","1","+10","[1619.6000001430511]","1","0","1","","","","","","","",""
"pit-trial","21","307612","0.0-2.0-8.0-1.0","battery-v0.2","","""event"",""trial"",""time""
""fullscreenenter"",""1"",""3690""
","
","
","""event"",""trial"",""time""
""fullscreenenter"",""1"",""3690""
","
","","","489.7000000476837","","","18","15460","6149","&#9776;","elianto","#3366ff99"," "," ","1","+10","[1340.4000000953674]","1","0","1","","","","","","","",""
"pit-trial","22","310739","0.0-2.0-8.0-2.0","battery-v0.2","","""event"",""trial"",""time""
""fullscreenenter"",""1"",""3690""
","
","
","""event"",""trial"",""time""
""fullscreenenter"",""1"",""3690""
","
","","","263","","","18","15460","6149","&#9776;","elianto","#3366ff99"," "," ","1","+10","[1113.4000000953674]","1","0","1","","","","","","","",""
"pit-trial","23","313906","0.0-2.0-8.0-3.0","battery-v0.2","","""event"",""trial"",""time""
""fullscreenenter"",""1"",""3690""
","
","
","""event"",""trial"",""time""
""fullscreenenter"",""1"",""3690""
","
","","","309.7000000476837","","","18","15460","6149","&#9776;","elianto","#3366ff99"," "," ","1","0","[1164.7000000476837]","1","0","1","","","","","","","",""
"pit-trial","24","317317","0.0-2.0-8.0-4.0","battery-v0.2","","""event"",""trial"",""time""
""fullscreenenter"",""1"",""3690""
","
","
","""event"",""trial"",""time""
""fullscreenenter"",""1"",""3690""
","
","","","546.7999999523163","","","18","15460","6149","&#9776;","elianto","#3366ff99"," "," ","1","+10","[1401.7000000476837]","1","0","1","","","","","","","",""
"pit-trial","25","320565","0.0-2.0-8.1-0.1","battery-v0.2","","""event"",""trial"",""time""
""fullscreenenter"",""1"",""3690""
","
","
","""event"",""trial"",""time""
""fullscreenenter"",""1"",""3690""
","
","","","378.7999999523163","","","18","15460","6149","&#9776;","elianto","#3366ff99"," "," ","1","+10","[1232.0999999046326]","1","0","1","","","","","","","",""
"pit-trial","26","323851","0.0-2.0-8.1-1.1","battery-v0.2","","""event"",""trial"",""time""
""fullscreenenter"",""1"",""3690""
","
","
","""event"",""trial"",""time""
""fullscreenenter"",""1"",""3690""
","
","","","432.09999990463257","","","18","15460","6149","&#9776;","elianto","#3366ff99"," "," ","1","+10","[1282.4000000953674]","1","0","1","","","","","","","",""
"pit-trial","27","327118","0.0-2.0-8.1-2.1","battery-v0.2","","""event"",""trial"",""time""
""fullscreenenter"",""1"",""3690""
","
","
","""event"",""trial"",""time""
""fullscreenenter"",""1"",""3690""
","
","","","400.2000000476837","","","18","15460","6149","&#9776;","elianto","#3366ff99"," "," ","1","+10","[1253.7999999523163]","1","0","1","","","","","","","",""
"pit-trial","28","330340","0.0-2.0-8.1-3.1","battery-v0.2","","""event"",""trial"",""time""
""fullscreenenter"",""1"",""3690""
","
","
","""event"",""trial"",""time""
""fullscreenenter"",""1"",""3690""
","
","","","361.60000014305115","","","18","15460","6149","&#9776;","elianto","#3366ff99"," "," ","1","0","[1213.1000001430511]","1","0","1","","","","","","","",""
"pit-trial","29","333502","0.0-2.0-8.1-4.1","battery-v0.2","","""event"",""trial"",""time""
""fullscreenenter"",""1"",""3690""
","
","
","""event"",""trial"",""time""
""fullscreenenter"",""1"",""3690""
","
","","","308.7000000476837","","","18","15460","6149","&#9776;","elianto","#3366ff99"," "," ","1","+10","[1159.7000000476837]","1","0","1","","","","","","","",""
"pit-trial","30","336684","0.0-2.0-8.2-0.2","battery-v0.2","","""event"",""trial"",""time""
""fullscreenenter"",""1"",""3690""
","
","
","""event"",""trial"",""time""
""fullscreenenter"",""1"",""3690""
","
","","","329.2999999523163","","","18","15460","6149","&#9776;","elianto","#3366ff99"," "," ","1","+10","[1179.7000000476837]","1","0","1","","","","","","","",""
"pit-trial","31","339915","0.0-2.0-8.2-1.2","battery-v0.2","","""event"",""trial"",""time""
""fullscreenenter"",""1"",""3690""
","
","
","""event"",""trial"",""time""
""fullscreenenter"",""1"",""3690""
","
","","","378.59999990463257","","","18","15460","6149","&#9776;","elianto","#3366ff99"," "," ","1","+10","[1229.5999999046326]","1","0","1","","","","","","","",""
"pit-trial","32","343386","0.0-2.0-8.2-2.2","battery-v0.2","","""event"",""trial"",""time""
""fullscreenenter"",""1"",""3690""
","
","
","""event"",""trial"",""time""
""fullscreenenter"",""1"",""3690""
","
","","","618.5","","","18","15460","6149","&#9776;","elianto","#3366ff99"," "," ","1","+10","[1469]","1","0","1","","","","","","","",""
"pit-trial","33","346601","0.0-2.0-8.2-3.2","battery-v0.2","","""event"",""trial"",""time""
""fullscreenenter"",""1"",""3690""
","
","
","""event"",""trial"",""time""
""fullscreenenter"",""1"",""3690""
","
","","","362.5","","","18","15460","6149","&#9776;","elianto","#3366ff99"," "," ","1","0","[1213]","1","0","1","","","","","","","",""
"pit-trial","34","349903","0.0-2.0-8.2-4.2","battery-v0.2","","""event"",""trial"",""time""
""fullscreenenter"",""1"",""3690""
","
","
","""event"",""trial"",""time""
""fullscreenenter"",""1"",""3690""
","
","","","449.2999999523163","","","18","15460","6149","&#9776;","elianto","#3366ff99"," "," ","1","+10","[1300.2999999523163]","1","0","1","","","","","","","",""
"call-function","35","349904","0.0-2.0-9.0","battery-v0.2","","""event"",""trial"",""time""
""fullscreenenter"",""1"",""3690""
","
","
","""event"",""trial"",""time""
""fullscreenenter"",""1"",""3690""
","
","","","","","","","","","","","","","","","","","","","","","","","","","","",""
"pit-instructions","36","388263","0.0-2.0-10.0","battery-v0.2","","""event"",""trial"",""time""
""fullscreenenter"",""1"",""3690""
","
","
","""event"",""trial"",""time""
""fullscreenenter"",""1"",""3690""
","
","","[{""page_index"":0,""viewing_time"":5766.099999904633},{""page_index"":1,""viewing_time"":8140.900000095367},{""page_index"":2,""viewing_time"":9255.799999952316},{""page_index"":3,""viewing_time"":8069.5},{""page_index"":4,""viewing_time"":7126.5}]","38359.09999990463","","","","","","","","","","","","","","","","","","","","","","","",""
"pit-trial","37","393136","0.0-2.0-11.0-0.0","battery-v0.2","","""event"",""trial"",""time""
""fullscreenenter"",""1"",""3690""
","
","
","""event"",""trial"",""time""
""fullscreenenter"",""1"",""3690""
","
","","","-1","","","18","15460","6149","&#9761;","elianto","#3366ff99","-1","-1","1","+10","[]","0","0","2","","","","","","","",""
"pit-trial","38","398011","0.0-2.0-11.0-1.0","battery-v0.2","","""event"",""trial"",""time""
""fullscreenenter"",""1"",""3690""
","
","
","""event"",""trial"",""time""
""fullscreenenter"",""1"",""3690""
","
","","","-1","","","18","15460","6149","&#9761;","elianto","#3366ff99","-1","-1","1","+10","[]","0","0","2","","","","","","","",""
"pit-trial","39","402881","0.0-2.0-11.0-2.0","battery-v0.2","","""event"",""trial"",""time""
""fullscreenenter"",""1"",""3690""
","
","
","""event"",""trial"",""time""
""fullscreenenter"",""1"",""3690""
","
","","","-1","","","18","15460","6149","&#9761;","elianto","#3366ff99","-1","-1","1","+10","[]","0","0","2","","","","","","","",""
"pit-trial","40","407749","0.0-2.0-11.0-3.0","battery-v0.2","","""event"",""trial"",""time""
""fullscreenenter"",""1"",""3690""
","
","
","""event"",""trial"",""time""
""fullscreenenter"",""1"",""3690""
","
","","","-1","","","18","15460","6149","&#9761;","elianto","#3366ff99","-1","-1","1","0","[]","0","0","2","","","","","","","",""
"pit-trial","41","412617","0.0-2.0-11.0-4.0","battery-v0.2","","""event"",""trial"",""time""
""fullscreenenter"",""1"",""3690""
","
","
","""event"",""trial"",""time""
""fullscreenenter"",""1"",""3690""
","
","","","-1","","","18","15460","6149","&#9761;","elianto","#3366ff99","-1","-1","1","+10","[]","0","0","2","","","","","","","",""
"pit-trial","42","417486","0.0-2.0-11.1-0.1","battery-v0.2","","""event"",""trial"",""time""
""fullscreenenter"",""1"",""3690""
","
","
","""event"",""trial"",""time""
""fullscreenenter"",""1"",""3690""
","
","","","-1","","","18","15460","6149","&#9761;","elianto","#3366ff99","-1","-1","1","+10","[]","0","0","2","","","","","","","",""
"pit-trial","43","422337","0.0-2.0-11.1-1.1","battery-v0.2","","""event"",""trial"",""time""
""fullscreenenter"",""1"",""3690""
","
","
","""event"",""trial"",""time""
""fullscreenenter"",""1"",""3690""
","
","","","-1","","","18","15460","6149","&#9761;","elianto","#3366ff99","-1","-1","1","+10","[]","0","0","2","","","","","","","",""
"pit-trial","44","427190","0.0-2.0-11.1-2.1","battery-v0.2","","""event"",""trial"",""time""
""fullscreenenter"",""1"",""3690""
","
","
","""event"",""trial"",""time""
""fullscreenenter"",""1"",""3690""
","
","","","-1","","","18","15460","6149","&#9761;","elianto","#3366ff99","-1","-1","1","+10","[]","0","0","2","","","","","","","",""
"pit-trial","45","432042","0.0-2.0-11.1-3.1","battery-v0.2","","""event"",""trial"",""time""
""fullscreenenter"",""1"",""3690""
","
","
","""event"",""trial"",""time""
""fullscreenenter"",""1"",""3690""
","
","","","-1","","","18","15460","6149","&#9761;","elianto","#3366ff99","-1","-1","1","0","[]","0","0","2","","","","","","","",""
"pit-trial","46","436894","0.0-2.0-11.1-4.1","battery-v0.2","","""event"",""trial"",""time""
""fullscreenenter"",""1"",""3690""
","
","
","""event"",""trial"",""time""
""fullscreenenter"",""1"",""3690""
","
","","","-1","","","18","15460","6149","&#9761;","elianto","#3366ff99","-1","-1","1","+10","[]","0","0","2","","","","","","","",""
"pit-trial","47","441747","0.0-2.0-11.2-0.2","battery-v0.2","","""event"",""trial"",""time""
""fullscreenenter"",""1"",""3690""
","
","
","""event"",""trial"",""time""
""fullscreenenter"",""1"",""3690""
","
","","","-1","","","18","15460","6149","&#9761;","elianto","#3366ff99","-1","-1","1","+10","[]","0","0","2","","","","","","","",""
"pit-trial","48","446608","0.0-2.0-11.2-1.2","battery-v0.2","","""event"",""trial"",""time""
""fullscreenenter"",""1"",""3690""
","
","
","""event"",""trial"",""time""
""fullscreenenter"",""1"",""3690""
","
","","","-1","","","18","15460","6149","&#9761;","elianto","#3366ff99","-1","-1","1","+10","[]","0","0","2","","","","","","","",""
"pit-trial","49","451461","0.0-2.0-11.2-2.2","battery-v0.2","","""event"",""trial"",""time""
""fullscreenenter"",""1"",""3690""
","
","
","""event"",""trial"",""time""
""fullscreenenter"",""1"",""3690""
","
","","","-1","","","18","15460","6149","&#9761;","elianto","#3366ff99","-1","-1","1","+10","[]","0","0","2","","","","","","","",""
"pit-trial","50","456315","0.0-2.0-11.2-3.2","battery-v0.2","","""event"",""trial"",""time""
""fullscreenenter"",""1"",""3690""
","
","
","""event"",""trial"",""time""
""fullscreenenter"",""1"",""3690""
","
","","","-1","","","18","15460","6149","&#9761;","elianto","#3366ff99","-1","-1","1","0","[]","0","0","2","","","","","","","",""
"pit-trial","51","461168","0.0-2.0-11.2-4.2","battery-v0.2","","""event"",""trial"",""time""
""fullscreenenter"",""1"",""3690""
","
","
","""event"",""trial"",""time""
""fullscreenenter"",""1"",""3690""
","
","","","-1","","","18","15460","6149","&#9761;","elianto","#3366ff99","-1","-1","1","+10","[]","0","0","2","","","","","","","",""
"pit-trial","52","466021","0.0-2.0-11.3-0.3","battery-v0.2","","""event"",""trial"",""time""
""fullscreenenter"",""1"",""3690""
","
","
","""event"",""trial"",""time""
""fullscreenenter"",""1"",""3690""
","
","","","-1","","","18","15460","6149","&#9761;","elianto","#3366ff99","-1","-1","1","+10","[]","0","0","2","","","","","","","",""
"pit-trial","53","470888","0.0-2.0-11.3-1.3","battery-v0.2","","""event"",""trial"",""time""
""fullscreenenter"",""1"",""3690""
","
","
","""event"",""trial"",""time""
""fullscreenenter"",""1"",""3690""
","
","","","-1","","","18","15460","6149","&#9761;","elianto","#3366ff99","-1","-1","1","+10","[]","0","0","2","","","","","","","",""
"pit-trial","54","475741","0.0-2.0-11.3-2.3","battery-v0.2","","""event"",""trial"",""time""
""fullscreenenter"",""1"",""3690""
","
","
","""event"",""trial"",""time""
""fullscreenenter"",""1"",""3690""
","
","","","-1","","","18","15460","6149","&#9761;","elianto","#3366ff99","-1","-1","1","+10","[]","0","0","2","","","","","","","",""
"pit-trial","55","480594","0.0-2.0-11.3-3.3","battery-v0.2","","""event"",""trial"",""time""
""fullscreenenter"",""1"",""3690""
","
","
","""event"",""trial"",""time""
""fullscreenenter"",""1"",""3690""
","
","","","-1","","","18","15460","6149","&#9761;","elianto","#3366ff99","-1","-1","1","0","[]","0","0","2","","","","","","","",""
"pit-trial","56","485447","0.0-2.0-11.3-4.3","battery-v0.2","","""event"",""trial"",""time""
""fullscreenenter"",""1"",""3690""
","
","
","""event"",""trial"",""time""
""fullscreenenter"",""1"",""3690""
","
","","","-1","","","18","15460","6149","&#9761;","elianto","#3366ff99","-1","-1","1","+10","[]","0","0","2","","","","","","","",""
"call-function","57","485448","0.0-2.0-12.0","battery-v0.2","","""event"",""trial"",""time""
""fullscreenenter"",""1"",""3690""
","
","
","""event"",""trial"",""time""
""fullscreenenter"",""1"",""3690""
","
","","","","","","","","","","","","","","","","","","","","","","","","","","",""
"pit-instructions","58","515031","0.0-2.0-13.0","battery-v0.2","","""event"",""trial"",""time""
""fullscreenenter"",""1"",""3690""
","
","
","""event"",""trial"",""time""
""fullscreenenter"",""1"",""3690""
","
","","[{""page_index"":0,""viewing_time"":4625.599999904633},{""page_index"":1,""viewing_time"":6261.299999952316},{""page_index"":2,""viewing_time"":3989.100000143051},{""page_index"":3,""viewing_time"":10187.899999856949},{""page_index"":4,""viewing_time"":4518.200000047684}]","29582.5","","","","","","","","","","","","","","","","","","","","","","","",""
"pit-trial","59","519899","0.0-2.0-14.0-0.0","battery-v0.2","","""event"",""trial"",""time""
""fullscreenenter"",""1"",""3690""
","
","
","""event"",""trial"",""time""
""fullscreenenter"",""1"",""3690""
","
","","","-1","","","18","15460","6149","&#9826;","elianto","#f73b6a7A","-1","-1","1","0","[]","0","0","3","","","","","","","",""
"pit-trial","60","524768","0.0-2.0-14.0-1.0","battery-v0.2","","""event"",""trial"",""time""
""fullscreenenter"",""1"",""3690""
","
","
","""event"",""trial"",""time""
""fullscreenenter"",""1"",""3690""
","
","","","-1","","","18","15460","6149","&#9826;","elianto","#f73b6a7A","-1","-1","1","0","[]","0","0","3","","","","","","","",""
"pit-trial","61","529640","0.0-2.0-14.0-2.0","battery-v0.2","","""event"",""trial"",""time""
""fullscreenenter"",""1"",""3690""
","
","
","""event"",""trial"",""time""
""fullscreenenter"",""1"",""3690""
","
","","","-1","","","18","15460","6149","&#9826;","elianto","#f73b6a7A","-1","-1","1","0","[]","0","0","3","","","","","","","",""
"pit-trial","62","534516","0.0-2.0-14.0-3.0","battery-v0.2","","""event"",""trial"",""time""
""fullscreenenter"",""1"",""3690""
","
","
","""event"",""trial"",""time""
""fullscreenenter"",""1"",""3690""
","
","","","-1","","","18","15460","6149","&#9826;","elianto","#f73b6a7A","-1","-1","1","-10","[]","0","0","3","","","","","","","",""
"pit-trial","63","539392","0.0-2.0-14.0-4.0","battery-v0.2","","""event"",""trial"",""time""
""fullscreenenter"",""1"",""3690""
","
","
","""event"",""trial"",""time""
""fullscreenenter"",""1"",""3690""
","
","","","-1","","","18","15460","6149","&#9826;","elianto","#f73b6a7A","-1","-1","1","0","[]","0","0","3","","","","","","","",""
"pit-trial","64","544262","0.0-2.0-14.1-0.1","battery-v0.2","","""event"",""trial"",""time""
""fullscreenenter"",""1"",""3690""
","
","
","""event"",""trial"",""time""
""fullscreenenter"",""1"",""3690""
","
","","","-1","","","18","15460","6149","&#9826;","elianto","#f73b6a7A","-1","-1","1","0","[]","0","0","3","","","","","","","",""
"pit-trial","65","549115","0.0-2.0-14.1-1.1","battery-v0.2","","""event"",""trial"",""time""
""fullscreenenter"",""1"",""3690""
","
","
","""event"",""trial"",""time""
""fullscreenenter"",""1"",""3690""
","
","","","-1","","","18","15460","6149","&#9826;","elianto","#f73b6a7A","-1","-1","1","0","[]","0","0","3","","","","","","","",""
"pit-trial","66","553969","0.0-2.0-14.1-2.1","battery-v0.2","","""event"",""trial"",""time""
""fullscreenenter"",""1"",""3690""
","
","
","""event"",""trial"",""time""
""fullscreenenter"",""1"",""3690""
","
","","","-1","","","18","15460","6149","&#9826;","elianto","#f73b6a7A","-1","-1","1","0","[]","0","0","3","","","","","","","",""
"pit-trial","67","558823","0.0-2.0-14.1-3.1","battery-v0.2","","""event"",""trial"",""time""
""fullscreenenter"",""1"",""3690""
","
","
","""event"",""trial"",""time""
""fullscreenenter"",""1"",""3690""
","
","","","-1","","","18","15460","6149","&#9826;","elianto","#f73b6a7A","-1","-1","1","-10","[]","0","0","3","","","","","","","",""
"pit-trial","68","563676","0.0-2.0-14.1-4.1","battery-v0.2","","""event"",""trial"",""time""
""fullscreenenter"",""1"",""3690""
","
","
","""event"",""trial"",""time""
""fullscreenenter"",""1"",""3690""
","
","","","-1","","","18","15460","6149","&#9826;","elianto","#f73b6a7A","-1","-1","1","0","[]","0","0","3","","","","","","","",""
"pit-trial","69","568531","0.0-2.0-14.2-0.2","battery-v0.2","","""event"",""trial"",""time""
""fullscreenenter"",""1"",""3690""
","
","
","""event"",""trial"",""time""
""fullscreenenter"",""1"",""3690""
","
","","","-1","","","18","15460","6149","&#9826;","elianto","#f73b6a7A","-1","-1","1","0","[]","0","0","3","","","","","","","",""
"pit-trial","70","573384","0.0-2.0-14.2-1.2","battery-v0.2","","""event"",""trial"",""time""
""fullscreenenter"",""1"",""3690""
","
","
","""event"",""trial"",""time""
""fullscreenenter"",""1"",""3690""
","
","","","-1","","","18","15460","6149","&#9826;","elianto","#f73b6a7A","-1","-1","1","0","[]","0","0","3","","","","","","","",""
"pit-trial","71","578237","0.0-2.0-14.2-2.2","battery-v0.2","","""event"",""trial"",""time""
""fullscreenenter"",""1"",""3690""
","
","
","""event"",""trial"",""time""
""fullscreenenter"",""1"",""3690""
","
","","","-1","","","18","15460","6149","&#9826;","elianto","#f73b6a7A","-1","-1","1","0","[]","0","0","3","","","","","","","",""
"pit-trial","72","583091","0.0-2.0-14.2-3.2","battery-v0.2","","""event"",""trial"",""time""
""fullscreenenter"",""1"",""3690""
","
","
","""event"",""trial"",""time""
""fullscreenenter"",""1"",""3690""
","
","","","-1","","","18","15460","6149","&#9826;","elianto","#f73b6a7A","-1","-1","1","-10","[]","0","0","3","","","","","","","",""
"pit-trial","73","587944","0.0-2.0-14.2-4.2","battery-v0.2","","""event"",""trial"",""time""
""fullscreenenter"",""1"",""3690""
","
","
","""event"",""trial"",""time""
""fullscreenenter"",""1"",""3690""
","
","","","-1","","","18","15460","6149","&#9826;","elianto","#f73b6a7A","-1","-1","1","0","[]","0","0","3","","","","","","","",""
"pit-trial","74","592800","0.0-2.0-14.3-0.3","battery-v0.2","","""event"",""trial"",""time""
""fullscreenenter"",""1"",""3690""
","
","
","""event"",""trial"",""time""
""fullscreenenter"",""1"",""3690""
","
","","","-1","","","18","15460","6149","&#9826;","elianto","#f73b6a7A","-1","-1","1","0","[]","0","0","3","","","","","","","",""
"pit-trial","75","597653","0.0-2.0-14.3-1.3","battery-v0.2","","""event"",""trial"",""time""
""fullscreenenter"",""1"",""3690""
","
","
","""event"",""trial"",""time""
""fullscreenenter"",""1"",""3690""
","
","","","-1","","","18","15460","6149","&#9826;","elianto","#f73b6a7A","-1","-1","1","0","[]","0","0","3","","","","","","","",""
"pit-trial","76","602505","0.0-2.0-14.3-2.3","battery-v0.2","","""event"",""trial"",""time""
""fullscreenenter"",""1"",""3690""
","
","
","""event"",""trial"",""time""
""fullscreenenter"",""1"",""3690""
","
","","","-1","","","18","15460","6149","&#9826;","elianto","#f73b6a7A","-1","-1","1","0","[]","0","0","3","","","","","","","",""
"pit-trial","77","607358","0.0-2.0-14.3-3.3","battery-v0.2","","""event"",""trial"",""time""
""fullscreenenter"",""1"",""3690""
","
","
","""event"",""trial"",""time""
""fullscreenenter"",""1"",""3690""
","
","","","-1","","","18","15460","6149","&#9826;","elianto","#f73b6a7A","-1","-1","1","-10","[]","0","0","3","","","","","","","",""
"pit-trial","78","612211","0.0-2.0-14.3-4.3","battery-v0.2","","""event"",""trial"",""time""
""fullscreenenter"",""1"",""3690""
","
","
","""event"",""trial"",""time""
""fullscreenenter"",""1"",""3690""
","
","","","-1","","","18","15460","6149","&#9826;","elianto","#f73b6a7A","-1","-1","1","0","[]","0","0","3","","","","","","","",""
"call-function","79","612212","0.0-2.0-15.0","battery-v0.2","","""event"",""trial"",""time""
""fullscreenenter"",""1"",""3690""
","
","
","""event"",""trial"",""time""
""fullscreenenter"",""1"",""3690""
","
","","","","","","","","","","","","","","","","","","","","","","","","","","",""
"pit-instructions","80","636186","0.0-2.0-16.0","battery-v0.2","","""event"",""trial"",""time""
""fullscreenenter"",""1"",""3690""
","
","
","""event"",""trial"",""time""
""fullscreenenter"",""1"",""3690""
","
","","[{""page_index"":0,""viewing_time"":6765.200000047684},{""page_index"":1,""viewing_time"":8252.099999904633},{""page_index"":2,""viewing_time"":4207.099999904633},{""page_index"":3,""viewing_time"":4748.800000190735}]","23973.599999904633","","","","","","","","","","","","","","","","","","","","","","","",""
"pit-trial","81","639639","0.0-2.0-17.0-0.0","battery-v0.2","","""event"",""trial"",""time""
""fullscreenenter"",""1"",""3690""
","
","
","""event"",""trial"",""time""
""fullscreenenter"",""1"",""3690""
","
","","","592.5","","","18","15460","6149","&#9789;","elianto","#f73b6a7A"," "," ","1","0","[1446]","1","0","4","","","","","","","",""
"pit-trial","82","643115","0.0-2.0-17.0-1.0","battery-v0.2","","""event"",""trial"",""time""
""fullscreenenter"",""1"",""3690""
","
","
","""event"",""trial"",""time""
""fullscreenenter"",""1"",""3690""
","
","","","608.2999999523163","","","18","15460","6149","&#9789;","elianto","#f73b6a7A"," "," ","1","0","[1458.9000000953674]","1","0","4","","","","","","","",""
"pit-trial","83","646419","0.0-2.0-17.0-2.0","battery-v0.2","","""event"",""trial"",""time""
""fullscreenenter"",""1"",""3690""
","
","
","""event"",""trial"",""time""
""fullscreenenter"",""1"",""3690""
","
","","","434.10000014305115","","","18","15460","6149","&#9789;","elianto","#f73b6a7A"," "," ","1","0","[1288.2000000476837]","1","0","4","","","","","","","",""
"pit-trial","84","649810","0.0-2.0-17.0-3.0","battery-v0.2","","""event"",""trial"",""time""
""fullscreenenter"",""1"",""3690""
","
","
","""event"",""trial"",""time""
""fullscreenenter"",""1"",""3690""
","
","","","521","","","18","15460","6149","&#9789;","elianto","#f73b6a7A"," "," ","1","-10","[1373.4000000953674]","1","0","4","","","","","","","",""
"pit-trial","85","653114","0.0-2.0-17.0-4.0","battery-v0.2","","""event"",""trial"",""time""
""fullscreenenter"",""1"",""3690""
","
","
","""event"",""trial"",""time""
""fullscreenenter"",""1"",""3690""
","
","","","434.7000000476837","","","18","15460","6149","&#9789;","elianto","#f73b6a7A"," "," ","1","0","[1287.7000000476837]","1","0","4","","","","","","","",""
"pit-trial","86","656455","0.0-2.0-17.1-0.1","battery-v0.2","","""event"",""trial"",""time""
""fullscreenenter"",""1"",""3690""
","
","
","""event"",""trial"",""time""
""fullscreenenter"",""1"",""3690""
","
","","","472.2000000476837","","","18","15460","6149","&#9789;","elianto","#f73b6a7A"," "," ","1","0","[1325.1000001430511]","1","0","4","","","","","","","",""
"pit-trial","87","659722","0.0-2.0-17.1-1.1","battery-v0.2","","""event"",""trial"",""time""
""fullscreenenter"",""1"",""3690""
","
","
","""event"",""trial"",""time""
""fullscreenenter"",""1"",""3690""
","
","","","400.40000009536743","","","18","15460","6149","&#9789;","elianto","#f73b6a7A"," "," ","1","0","[1252.5]","1","0","4","","","","","","","",""
"pit-trial","88","663196","0.0-2.0-17.1-2.1","battery-v0.2","","""event"",""trial"",""time""
""fullscreenenter"",""1"",""3690""
","
","
","""event"",""trial"",""time""
""fullscreenenter"",""1"",""3690""
","
","","","607.7999999523163","","","18","15460","6149","&#9789;","elianto","#f73b6a7A"," "," ","1","0","[1458.2999999523163]","1","0","4","","","","","","","",""
"pit-trial","89","666276","0.0-2.0-17.1-3.1","battery-v0.2","","""event"",""trial"",""time""
""fullscreenenter"",""1"",""3690""
","
","
","""event"",""trial"",""time""
""fullscreenenter"",""1"",""3690""
","
","","","224.40000009536743","","","18","15460","6149","&#9789;","elianto","#f73b6a7A"," "," ","1","-10","[1079.2000000476837]","1","0","4","","","","","","","",""
"pit-trial","90","669386","0.0-2.0-17.1-4.1","battery-v0.2","","""event"",""trial"",""time""
""fullscreenenter"",""1"",""3690""
","
","
","""event"",""trial"",""time""
""fullscreenenter"",""1"",""3690""
","
","","","257.09999990463257","","","18","15460","6149","&#9789;","elianto","#f73b6a7A"," "," ","1","0","[1107.7999999523163]","1","0","4","","","","","","","",""
"pit-trial","91","672498","0.0-2.0-17.2-0.2","battery-v0.2","","""event"",""trial"",""time""
""fullscreenenter"",""1"",""3690""
","
","
","""event"",""trial"",""time""
""fullscreenenter"",""1"",""3690""
","
","","","258.59999990463257","","","18","15460","6149","&#9789;","elianto","#f73b6a7A"," "," ","1","0","[1109]","1","0","4","","","","","","","",""
"pit-trial","92","675678","0.0-2.0-17.2-1.2","battery-v0.2","","""event"",""trial"",""time""
""fullscreenenter"",""1"",""3690""
","
","
","""event"",""trial"",""time""
""fullscreenenter"",""1"",""3690""
","
","","","326.40000009536743","","","18","15460","6149","&#9789;","elianto","#f73b6a7A"," "," ","1","0","[1177.7000000476837]","1","0","4","","","","","","","",""
"pit-trial","93","679024","0.0-2.0-17.2-2.2","battery-v0.2","","""event"",""trial"",""time""
""fullscreenenter"",""1"",""3690""
","
","
","""event"",""trial"",""time""
""fullscreenenter"",""1"",""3690""
","
","","","493","","","18","15460","6149","&#9789;","elianto","#f73b6a7A"," "," ","1","0","[1343.9000000953674]","1","0","4","","","","","","","",""
"pit-trial","94","682325","0.0-2.0-17.2-3.2","battery-v0.2","","""event"",""trial"",""time""
""fullscreenenter"",""1"",""3690""
","
","
","""event"",""trial"",""time""
""fullscreenenter"",""1"",""3690""
","
","","","448.2000000476837","","","18","15460","6149","&#9789;","elianto","#f73b6a7A"," "," ","1","-10","[1299.3000001907349]","1","0","4","","","","","","","",""
"pit-trial","95","685539","0.0-2.0-17.2-4.2","battery-v0.2","","""event"",""trial"",""time""
""fullscreenenter"",""1"",""3690""
","
","
","""event"",""trial"",""time""
""fullscreenenter"",""1"",""3690""
","
","","","362.40000009536743","","","18","15460","6149","&#9789;","elianto","#f73b6a7A"," "," ","1","0","[1212.5999999046326]","1","0","4","","","","","","","",""
"pit-trial","96","688872","0.0-2.0-17.3-0.3","battery-v0.2","","""event"",""trial"",""time""
""fullscreenenter"",""1"",""3690""
","
","
","""event"",""trial"",""time""
""fullscreenenter"",""1"",""3690""
","
","","","479.7000000476837","","","18","15460","6149","&#9789;","elianto","#f73b6a7A"," "," ","1","0","[1330.4000000953674]","1","0","4","","","","","","","",""
"pit-trial","97","692132","0.0-2.0-17.3-1.3","battery-v0.2","","""event"",""trial"",""time""
""fullscreenenter"",""1"",""3690""
","
","
","""event"",""trial"",""time""
""fullscreenenter"",""1"",""3690""
","
","","","407.60000014305115","","","18","15460","6149","&#9789;","elianto","#f73b6a7A"," "," ","1","0","[1258.0999999046326]","1","0","4","","","","","","","",""
"pit-trial","98","695346","0.0-2.0-17.3-2.3","battery-v0.2","","""event"",""trial"",""time""
""fullscreenenter"",""1"",""3690""
","
","
","""event"",""trial"",""time""
""fullscreenenter"",""1"",""3690""
","
","","","361.2000000476837","","","18","15460","6149","&#9789;","elianto","#f73b6a7A"," "," ","1","0","[1211.9000000953674]","1","0","4","","","","","","","",""
"pit-trial","99","698514","0.0-2.0-17.3-3.3","battery-v0.2","","""event"",""trial"",""time""
""fullscreenenter"",""1"",""3690""
","
","
","""event"",""trial"",""time""
""fullscreenenter"",""1"",""3690""
","
","","","315.5","","","18","15460","6149","&#9789;","elianto","#f73b6a7A"," "," ","1","-10","[1166.3000001907349]","1","0","4","","","","","","","",""
"pit-trial","100","701639","0.0-2.0-17.3-4.3","battery-v0.2","","""event"",""trial"",""time""
""fullscreenenter"",""1"",""3690""
","
","
","""event"",""trial"",""time""
""fullscreenenter"",""1"",""3690""
","
","","","272.7999999523163","","","18","15460","6149","&#9789;","elianto","#f73b6a7A"," "," ","1","0","[1122.9000000953674]","1","0","4","","","","","","","",""
"call-function","101","701640","0.0-2.0-18.0","battery-v0.2","","""event"",""trial"",""time""
""fullscreenenter"",""1"",""3690""
","
","
","""event"",""trial"",""time""
""fullscreenenter"",""1"",""3690""
","
","","","","","","","","","","","","","","","","","","","","","","","","","","",""
"pit-instructions","102","768129","0.0-2.0-19.0","battery-v0.2","","""event"",""trial"",""time""
""fullscreenenter"",""1"",""3690""
","
","
","""event"",""trial"",""time""
""fullscreenenter"",""1"",""3690""
","
","","[{""page_index"":0,""viewing_time"":8176.599999904633},{""page_index"":1,""viewing_time"":4903.900000095367},{""page_index"":2,""viewing_time"":9242.700000047684},{""page_index"":3,""viewing_time"":8075.799999952316},{""page_index"":4,""viewing_time"":8932.400000095367},{""page_index"":5,""viewing_time"":8605.199999809265},{""page_index"":6,""viewing_time"":8235.5},{""page_index"":7,""viewing_time"":6205.200000047684},{""page_index"":8,""viewing_time"":4111}]","66488.59999990463","","","","","","","","","","","","","","","","","","","","","","","",""
"pit-comprehension","103","772983","0.0-2.0-20.0-0.0","battery-v0.2","","""event"",""trial"",""time""
""fullscreenenter"",""1"",""3690""
","
","
","""event"",""trial"",""time""
""fullscreenenter"",""1"",""3690""
","
","","","4851.400000095367","[""SPACE""]","0","18","15460","6149","","","","","","","","","","","","","","","","","","",""
"pit-instructions","104","775484","0.0-2.0-20.0-1.0","battery-v0.2","","""event"",""trial"",""time""
""fullscreenenter"",""1"",""3690""
","
","
","""event"",""trial"",""time""
""fullscreenenter"",""1"",""3690""
","
","","[{""page_index"":0,""viewing_time"":2476.899999856949}]","2477.199999809265","","","","","","","","","","","","","","","","","","","","","","","",""
"pit-comprehension","105","780356","0.0-2.0-21.0-0.0","battery-v0.2","","""event"",""trial"",""time""
""fullscreenenter"",""1"",""3690""
","
","
","""event"",""trial"",""time""
""fullscreenenter"",""1"",""3690""
","
","","","4869.599999904633","[""10""]","0","18","15460","6149","","","","","","","","","","","","","","","","","","",""
"pit-instructions","106","781994","0.0-2.0-21.0-1.0","battery-v0.2","","""event"",""trial"",""time""
""fullscreenenter"",""1"",""3690""
","
","
","""event"",""trial"",""time""
""fullscreenenter"",""1"",""3690""
","
","","[{""page_index"":0,""viewing_time"":1614.1000001430511}]","1614.5","","","","","","","","","","","","","","","","","","","","","","","",""
"pit-comprehension","107","788649","0.0-2.0-22.0-0.0","battery-v0.2","","""event"",""trial"",""time""
""fullscreenenter"",""1"",""3690""
","
","
","""event"",""trial"",""time""
""fullscreenenter"",""1"",""3690""
","
","","","6653.299999952316","[""-10""]","1","18","15460","6149","","","","","","","","","","","","","","","","","","",""
"pit-instructions","108","794533","0.0-2.0-22.0-1.0","battery-v0.2","","""event"",""trial"",""time""
""fullscreenenter"",""1"",""3690""
","
","
","""event"",""trial"",""time""
""fullscreenenter"",""1"",""3690""
","
","","[{""page_index"":0,""viewing_time"":5864.799999952316}]","5865.200000047684","","","","","","","","","","","","","","","","","","","","","","","",""
"pit-instructions","109","795382","0.0-2.0-22.0-2.0-0.0","battery-v0.2","","""event"",""trial"",""time""
""fullscreenenter"",""1"",""3690""
","
","
","""event"",""trial"",""time""
""fullscreenenter"",""1"",""3690""
","
","","[{""page_index"":0,""viewing_time"":847.3999998569489}]","847.6999998092651","","","","","","","","","","","","","","","","","","","","","","","",""
"pit-comprehension","110","801811","0.0-2.0-22.1-0.1","battery-v0.2","","""event"",""trial"",""time""
""fullscreenenter"",""1"",""3690""
","
","
","""event"",""trial"",""time""
""fullscreenenter"",""1"",""3690""
","
","","","6427.700000047684","[""0""]","0","18","15460","6149","","","","","","","","","","","","","","","","","","",""
"pit-instructions","111","802897","0.0-2.0-22.1-1.1","battery-v0.2","","""event"",""trial"",""time""
""fullscreenenter"",""1"",""3690""
","
","
","""event"",""trial"",""time""
""fullscreenenter"",""1"",""3690""
","
","","[{""page_index"":0,""viewing_time"":1066.6000001430511}]","1066.8000001907349","","","","","","","","","","","","","","","","","","","","","","","",""
"pit-comprehension","112","811239","0.0-2.0-23.0-0.0","battery-v0.2","","""event"",""trial"",""time""
""fullscreenenter"",""1"",""3690""
","
","
","""event"",""trial"",""time""
""fullscreenenter"",""1"",""3690""
","
","","","8339.799999952316","[""True""]","0","18","15460","6149","","","","","","","","","","","","","","","","","","",""
"pit-instructions","113","812421","0.0-2.0-23.0-1.0","battery-v0.2","","""event"",""trial"",""time""
""fullscreenenter"",""1"",""3690""
","
","
","""event"",""trial"",""time""
""fullscreenenter"",""1"",""3690""
","
","","[{""page_index"":0,""viewing_time"":1163.5}]","1163.9000000953674","","","","","","","","","","","","","","","","","","","","","","","",""
"pit-comprehension","114","819658","0.0-2.0-24.0-0.0","battery-v0.2","","""event"",""trial"",""time""
""fullscreenenter"",""1"",""3690""
","
","
","""event"",""trial"",""time""
""fullscreenenter"",""1"",""3690""
","
","","","7235.099999904633","[""True""]","0","18","15460","6149","","","","","","","","","","","","","","","","","","",""
"pit-instructions","115","821049","0.0-2.0-24.0-1.0","battery-v0.2","","""event"",""trial"",""time""
""fullscreenenter"",""1"",""3690""
","
","
","""event"",""trial"",""time""
""fullscreenenter"",""1"",""3690""
","
","","[{""page_index"":0,""viewing_time"":1370.2999999523163}]","1370.6000001430511","","","","","","","","","","","","","","","","","","","","","","","",""
"pit-comprehension","116","827375","0.0-2.0-25.0-0.0","battery-v0.2","","""event"",""trial"",""time""
""fullscreenenter"",""1"",""3690""
","
","
","""event"",""trial"",""time""
""fullscreenenter"",""1"",""3690""
","
","","","6324.400000095367","[""True""]","0","18","15460","6149","","","","","","","","","","","","","","","","","","",""
"pit-instructions","117","828702","0.0-2.0-25.0-1.0","battery-v0.2","","""event"",""trial"",""time""
""fullscreenenter"",""1"",""3690""
","
","
","""event"",""trial"",""time""
""fullscreenenter"",""1"",""3690""
","
","","[{""page_index"":0,""viewing_time"":1305.9000000953674}]","1306.1000001430511","","","","","","","","","","","","","","","","","","","","","","","",""
"pit-comprehension","118","833332","0.0-2.0-26.0-0.0","battery-v0.2","","""event"",""trial"",""time""
""fullscreenenter"",""1"",""3690""
","
","
","""event"",""trial"",""time""
""fullscreenenter"",""1"",""3690""
","
","","","4628.600000143051","[""False""]","0","18","15460","6149","","","","","","","","","","","","","","","","","","",""
"pit-instructions","119","834667","0.0-2.0-26.0-1.0","battery-v0.2","","""event"",""trial"",""time""
""fullscreenenter"",""1"",""3690""
","
","
","""event"",""trial"",""time""
""fullscreenenter"",""1"",""3690""
","
","","[{""page_index"":0,""viewing_time"":1314.0999999046326}]","1314.7000000476837","","","","","","","","","","","","","","","","","","","","","","","",""
"pit-instructions","120","850117","0.0-3.0","battery-v0.2","","""event"",""trial"",""time""
""fullscreenenter"",""1"",""3690""
","
","
","""event"",""trial"",""time""
""fullscreenenter"",""1"",""3690""
","
","","[{""page_index"":0,""viewing_time"":3389.2000000476837},{""page_index"":1,""viewing_time"":5093.400000095367},{""page_index"":2,""viewing_time"":6966}]","15448.800000190735","","","","","","","","","","","","","","","","","","","","","","","",""
"pit-trial","121","854050","0.0-4.0","battery-v0.2","","""event"",""trial"",""time""
""fullscreenenter"",""1"",""3690""
","
","
","""event"",""trial"",""time""
""fullscreenenter"",""1"",""3690""
","
","","","1068.1000001430511","","","18","15460","6149","&#9730;","elianto","#3366ff99"," "," ","1","+10","[1922.7999999523163]","1","1","","","15460","1","1","1","win","go","0"
"pit-trial","122","857581","0.0-5.0","battery-v0.2","","""event"",""trial"",""time""
""fullscreenenter"",""1"",""3690""
","
","
","""event"",""trial"",""time""
""fullscreenenter"",""1"",""3690""
","
","","","669.9000000953674","","","18","15460","6149","&#9733;","elianto","#3366ff99","-1"," ","0","0","[1523.6000001430511]","1","1","","","15460","2","2","2","win","no-go","0"
"pit-trial","123","862451","0.0-6.0","battery-v0.2","","""event"",""trial"",""time""
""fullscreenenter"",""1"",""3690""
","
","
","""event"",""trial"",""time""
""fullscreenenter"",""1"",""3690""
","
","","","-1","","","18","15460","6149","&#9752;","elianto","#f73b6a7A"," ","-1","0","-10","[]","0","1","","","15460","3","3","3","lose","go","0"
"pit-trial","124","867320","0.0-7.0","battery-v0.2","","""event"",""trial"",""time""
""fullscreenenter"",""1"",""3690""
","
","
","""event"",""trial"",""time""
""fullscreenenter"",""1"",""3690""
","
","","","-1","","","18","15460","6149","&#9728;","elianto","#f73b6a7A","-1","-1","1","0","[]","0","1","","","15460","4","0","4","lose","no-go","0"
"pit-trial","125","871465","0.0-8.0","battery-v0.2","","""event"",""trial"",""time""
""fullscreenenter"",""1"",""3690""
","
","
","""event"",""trial"",""time""
""fullscreenenter"",""1"",""3690""
","
","","","1285.9000000953674","","","18","15460","6149","&#9730;","elianto","#3366ff99"," "," ","1","+10","[2136.7999999523163]","1","1","","","15460","5","1","1","win","go","0"
"pit-trial","126","876334","0.0-9.0","battery-v0.2","","""event"",""trial"",""time""
""fullscreenenter"",""1"",""3690""
","
","
","""event"",""trial"",""time""
""fullscreenenter"",""1"",""3690""
","
","","","-1","","","18","15460","6149","&#9733;","elianto","#3366ff99","-1","-1","1","+10","[]","0","1","","","15460","6","2","2","win","no-go","0"
"pit-trial","127","880553","0.0-10.0","battery-v0.2","","""event"",""trial"",""time""
""fullscreenenter"",""1"",""3690""
","
","
","""event"",""trial"",""time""
""fullscreenenter"",""1"",""3690""
","
","","","1360.4000000953674","","","18","15460","6149","&#9728;","elianto","#f73b6a7A","-1"," ","0","-10","[2212.7999999523163]","1","1","","","15460","7","0","4","lose","no-go","0"
"pit-trial","128","883931","0.0-11.0","battery-v0.2","","""event"",""trial"",""time""
""fullscreenenter"",""1"",""3690""
","
","
","""event"",""trial"",""time""
""fullscreenenter"",""1"",""3690""
","
","","","526","","","18","15460","6149","&#9752;","elianto","#f73b6a7A"," "," ","1","0","[1376]","1","1","","","15460","8","3","3","lose","go","0"
"pit-trial","129","887727","0.0-12.0","battery-v0.2","","""event"",""trial"",""time""
""fullscreenenter"",""1"",""3690""
","
","
","""event"",""trial"",""time""
""fullscreenenter"",""1"",""3690""
","
","","","942","","","18","15460","6149","&#9730;","elianto","#3366ff99"," "," ","1","+10","[1793.2000000476837]","1","1","","","15460","9","1","1","win","go","0"
"pit-trial","130","892581","0.0-13.0","battery-v0.2","","""event"",""trial"",""time""
""fullscreenenter"",""1"",""3690""
","
","
","""event"",""trial"",""time""
""fullscreenenter"",""1"",""3690""
","
","","","-1","","","18","15460","6149","&#9728;","elianto","#f73b6a7A","-1","-1","1","0","[]","0","1","","","15460","10","0","4","lose","no-go","0"
"pit-trial","131","896051","0.0-14.0","battery-v0.2","","""event"",""trial"",""time""
""fullscreenenter"",""1"",""3690""
","
","
","""event"",""trial"",""time""
""fullscreenenter"",""1"",""3690""
","
","","","616.5","","","18","15460","6149","&#9752;","elianto","#f73b6a7A"," "," ","1","0","[1467]","1","1","","","15460","11","3","3","lose","go","0"
"pit-trial","132","900904","0.0-15.0","battery-v0.2","","""event"",""trial"",""time""
""fullscreenenter"",""1"",""3690""
","
","
","""event"",""trial"",""time""
""fullscreenenter"",""1"",""3690""
","
","","","-1","","","18","15460","6149","&#9733;","elianto","#3366ff99","-1","-1","1","+10","[]","0","1","","","15460","12","2","2","win","no-go","0"
"pit-trial","133","905024","0.0-16.0","battery-v0.2","","""event"",""trial"",""time""
""fullscreenenter"",""1"",""3690""
","
","
","""event"",""trial"",""time""
""fullscreenenter"",""1"",""3690""
","
","","","1267.7000000476837","","","18","15460","6149","&#9752;","elianto","#f73b6a7A"," "," ","1","0","[2117.9000000953674]","1","1","","","15460","13","3","3","lose","go","0"
"pit-trial","134","908567","0.0-17.0","battery-v0.2","","""event"",""trial"",""time""
""fullscreenenter"",""1"",""3690""
","
","
","""event"",""trial"",""time""
""fullscreenenter"",""1"",""3690""
","
","","","690.1000001430511","","","18","15460","6149","&#9730;","elianto","#3366ff99"," "," ","1","+10","[1540.7999999523163]","1","1","","","15460","14","1","1","win","go","0"
"pit-trial","135","913420","0.0-18.0","battery-v0.2","","""event"",""trial"",""time""
""fullscreenenter"",""1"",""3690""
","
","
","""event"",""trial"",""time""
""fullscreenenter"",""1"",""3690""
","
","","","-1","","","18","15460","6149","&#9733;","elianto","#3366ff99","-1","-1","1","0","[]","0","1","","","15460","15","2","2","win","no-go","1"
"pit-trial","136","918273","0.0-19.0","battery-v0.2","","""event"",""trial"",""time""
""fullscreenenter"",""1"",""3690""
","
","
","""event"",""trial"",""time""
""fullscreenenter"",""1"",""3690""
","
","","","-1","","","18","15460","6149","&#9728;","elianto","#f73b6a7A","-1","-1","1","0","[]","0","1","","","15460","16","0","4","lose","no-go","0"
"pit-trial","137","921953","0.0-20.0","battery-v0.2","","""event"",""trial"",""time""
""fullscreenenter"",""1"",""3690""
","
","
","""event"",""trial"",""time""
""fullscreenenter"",""1"",""3690""
","
","","","827.3999998569489","","","18","15460","6149","&#9752;","elianto","#f73b6a7A"," "," ","1","0","[1678.0999999046326]","1","1","","","15460","17","3","3","lose","go","0"
"pit-trial","138","925319","0.0-21.0","battery-v0.2","","""event"",""trial"",""time""
""fullscreenenter"",""1"",""3690""
","
","
","""event"",""trial"",""time""
""fullscreenenter"",""1"",""3690""
","
","","","513.5","","","18","15460","6149","&#9730;","elianto","#3366ff99"," "," ","1","+10","[1364.2999999523163]","1","1","","","15460","18","1","1","win","go","0"
"pit-trial","139","930173","0.0-22.0","battery-v0.2","","""event"",""trial"",""time""
""fullscreenenter"",""1"",""3690""
","
","
","""event"",""trial"",""time""
""fullscreenenter"",""1"",""3690""
","
","","","-1","","","18","15460","6149","&#9733;","elianto","#3366ff99","-1","-1","1","+10","[]","0","1","","","15460","19","2","2","win","no-go","0"
"pit-trial","140","935027","0.0-23.0","battery-v0.2","","""event"",""trial"",""time""
""fullscreenenter"",""1"",""3690""
","
","
","""event"",""trial"",""time""
""fullscreenenter"",""1"",""3690""
","
","","","-1","","","18","15460","6149","&#9728;","elianto","#f73b6a7A","-1","-1","1","0","[]","0","1","","","15460","20","0","4","lose","no-go","0"
"pit-instructions","141","947735","0.0-24.0","battery-v0.2","","""event"",""trial"",""time""
""fullscreenenter"",""1"",""3690""
","
","
","""event"",""trial"",""time""
""fullscreenenter"",""1"",""3690""
","
","","[{""page_index"":0,""viewing_time"":5727.200000047684},{""page_index"":1,""viewing_time"":6979.5}]","12707.099999904633","","","","","","","","","","","","","","","","","","","","","","","",""
"pit-trial","142","951716","0.0-25.0","battery-v0.2","","""event"",""trial"",""time""
""fullscreenenter"",""1"",""3690""
","
","
","""event"",""trial"",""time""
""fullscreenenter"",""1"",""3690""
","
","","","1114.0999999046326","","","18","15460","6149","f","elianto","#3366ff99","-1"," ","0","0","[1964.2999999523163]","1","2","","","15460","21","1","2","win","no-go","0"
"pit-trial","143","955489","0.0-26.0","battery-v0.2","","""event"",""trial"",""time""
""fullscreenenter"",""1"",""3690""
","
","
","""event"",""trial"",""time""
""fullscreenenter"",""1"",""3690""
","
","","","909.6000001430511","","","18","15460","6149","n","elianto","#f73b6a7A"," "," ","1","0","[1764.4000000953674]","1","2","","","15460","22","0","3","lose","go","0"
"pit-trial","144","960359","0.0-27.0","battery-v0.2","","""event"",""trial"",""time""
""fullscreenenter"",""1"",""3690""
","
","
","""event"",""trial"",""time""
""fullscreenenter"",""1"",""3690""
","
","","","-1","","","18","15460","6149","b","elianto","#f73b6a7A","-1","-1","1","0","[]","0","2","","","15460","23","3","4","lose","no-go","0"
"pit-trial","145","964611","0.0-28.0","battery-v0.2","","""event"",""trial"",""time""
""fullscreenenter"",""1"",""3690""
","
","
","""event"",""trial"",""time""
""fullscreenenter"",""1"",""3690""
","
","","","1392.4000000953674","","","18","15460","6149","t","elianto","#f73b6a7A"," "," ","1","0","[2243.2000000476837]","1","2","","","15460","24","2","3","lose","go","0"
"pit-trial","146","969476","0.0-29.0","battery-v0.2","","""event"",""trial"",""time""
""fullscreenenter"",""1"",""3690""
","
","
","""event"",""trial"",""time""
""fullscreenenter"",""1"",""3690""
","
","","","-1","","","18","15460","6149","b","elianto","#f73b6a7A","-1","-1","1","0","[]","0","2","","","15460","25","3","4","lose","no-go","0"
"pit-trial","147","973470","0.0-30.0","battery-v0.2","","""event"",""trial"",""time""
""fullscreenenter"",""1"",""3690""
","
","
","""event"",""trial"",""time""
""fullscreenenter"",""1"",""3690""
","
","","","1136.2999999523163","","","18","15460","6149","n","elianto","#f73b6a7A"," "," ","1","0","[1987.7999999523163]","1","2","","","15460","26","0","3","lose","go","0"
"pit-trial","148","978331","0.0-31.0","battery-v0.2","","""event"",""trial"",""time""
""fullscreenenter"",""1"",""3690""
","
","
","""event"",""trial"",""time""
""fullscreenenter"",""1"",""3690""
","
","","","-1","","","18","15460","6149","f","elianto","#3366ff99","-1","-1","1","+10","[]","0","2","","","15460","27","1","2","win","no-go","0"
"pit-trial","149","981960","0.0-32.0","battery-v0.2","","""event"",""trial"",""time""
""fullscreenenter"",""1"",""3690""
","
","
","""event"",""trial"",""time""
""fullscreenenter"",""1"",""3690""
","
","","","776.8999998569489","","","18","15460","6149","t","elianto","#f73b6a7A"," "," ","1","0","[1627]","1","2","","","15460","28","2","3","lose","go","0"
"pit-trial","150","985533","0.0-33.0","battery-v0.2","","""event"",""trial"",""time""
""fullscreenenter"",""1"",""3690""
","
","
","""event"",""trial"",""time""
""fullscreenenter"",""1"",""3690""
","
","","","719.2000000476837","","","18","15460","6149","t","elianto","#f73b6a7A"," "," ","1","0","[1570.9000000953674]","1","2","","","15460","29","2","3","lose","go","0"
"pit-trial","151","989040","0.0-34.0","battery-v0.2","","""event"",""trial"",""time""
""fullscreenenter"",""1"",""3690""
","
","
","""event"",""trial"",""time""
""fullscreenenter"",""1"",""3690""
","
","","","652.7000000476837","","","18","15460","6149","n","elianto","#f73b6a7A"," "," ","1","0","[1503.5]","1","2","","","15460","30","0","3","lose","go","0"
"pit-trial","152","993905","0.0-35.0","battery-v0.2","","""event"",""trial"",""time""
""fullscreenenter"",""1"",""3690""
","
","
","""event"",""trial"",""time""
""fullscreenenter"",""1"",""3690""
","
","","","-1","","","18","15460","6149","f","elianto","#3366ff99","-1","-1","1","+10","[]","0","2","","","15460","31","1","2","win","no-go","0"
"pit-trial","153","998758","0.0-36.0","battery-v0.2","","""event"",""trial"",""time""
""fullscreenenter"",""1"",""3690""
","
","
","""event"",""trial"",""time""
""fullscreenenter"",""1"",""3690""
","
","","","-1","","","18","15460","6149","b","elianto","#f73b6a7A","-1","-1","1","0","[]","0","2","","","15460","32","3","4","lose","no-go","0"
"pit-trial","154","1003611","0.0-37.0","battery-v0.2","","""event"",""trial"",""time""
""fullscreenenter"",""1"",""3690""
","
","
","""event"",""trial"",""time""
""fullscreenenter"",""1"",""3690""
","
","","","-1","","","18","15460","6149","f","elianto","#3366ff99","-1","-1","1","+10","[]","0","2","","","15460","33","1","2","win","no-go","0"
"pit-trial","155","1007341","0.0-38.0","battery-v0.2","","""event"",""trial"",""time""
""fullscreenenter"",""1"",""3690""
","
","
","""event"",""trial"",""time""
""fullscreenenter"",""1"",""3690""
","
","","","876.5","","","18","15460","6149","t","elianto","#f73b6a7A"," "," ","1","0","[1728.1000001430511]","1","2","","","15460","34","2","3","lose","go","0"
"pit-trial","156","1010982","0.0-39.0","battery-v0.2","","""event"",""trial"",""time""
""fullscreenenter"",""1"",""3690""
","
","
","""event"",""trial"",""time""
""fullscreenenter"",""1"",""3690""
","
","","","788.4000000953674","","","18","15460","6149","n","elianto","#f73b6a7A"," "," ","1","0","[1638.7000000476837]","1","2","","","15460","35","0","3","lose","go","0"
"pit-trial","157","1015836","0.0-40.0","battery-v0.2","","""event"",""trial"",""time""
""fullscreenenter"",""1"",""3690""
","
","
","""event"",""trial"",""time""
""fullscreenenter"",""1"",""3690""
","
","","","-1","","","18","15460","6149","b","elianto","#f73b6a7A","-1","-1","1","0","[]","0","2","","","15460","36","3","4","lose","no-go","0"
"pit-trial","158","1020691","0.0-41.0","battery-v0.2","","""event"",""trial"",""time""
""fullscreenenter"",""1"",""3690""
","
","
","""event"",""trial"",""time""
""fullscreenenter"",""1"",""3690""
","
","","","-1","","","18","15460","6149","f","elianto","#3366ff99","-1","-1","1","+10","[]","0","2","","","15460","37","1","2","win","no-go","0"
"pit-trial","159","1024837","0.0-42.0","battery-v0.2","","""event"",""trial"",""time""
""fullscreenenter"",""1"",""3690""
","
","
","""event"",""trial"",""time""
""fullscreenenter"",""1"",""3690""
","
","","","1294.2999999523163","","","18","15460","6149","t","elianto","#f73b6a7A"," "," ","1","-10","[2144.399999856949]","1","2","","","15460","38","2","3","lose","go","1"
"pit-trial","160","1029693","0.0-43.0","battery-v0.2","","""event"",""trial"",""time""
""fullscreenenter"",""1"",""3690""
","
","
","""event"",""trial"",""time""
""fullscreenenter"",""1"",""3690""
","
","","","-1","","","18","15460","6149","b","elianto","#f73b6a7A","-1","-1","1","0","[]","0","2","","","15460","39","3","4","lose","no-go","0"
"pit-trial","161","1033220","0.0-44.0","battery-v0.2","","""event"",""trial"",""time""
""fullscreenenter"",""1"",""3690""
","
","
","""event"",""trial"",""time""
""fullscreenenter"",""1"",""3690""
","
","","","673.0999999046326","","","18","15460","6149","n","elianto","#f73b6a7A"," "," ","1","-10","[1524.5]","1","2","","","15460","40","0","3","lose","go","1"
"pit-trial","162","1038073","0.0-45.0","battery-v0.2","","""event"",""trial"",""time""
""fullscreenenter"",""1"",""3690""
","
","
","""event"",""trial"",""time""
""fullscreenenter"",""1"",""3690""
","
","","","-1","","","18","15460","6149","b","elianto","#f73b6a7A","-1","-1","1","-10","[]","0","2","","","15460","41","3","4","lose","no-go","1"
"pit-trial","163","1041439","0.0-46.0","battery-v0.2","","""event"",""trial"",""time""
""fullscreenenter"",""1"",""3690""
","
","
","""event"",""trial"",""time""
""fullscreenenter"",""1"",""3690""
","
","","","513.0999999046326","","","18","15460","6149","t","elianto","#f73b6a7A"," "," ","1","0","[1363.2000000476837]","1","2","","","15460","42","2","3","lose","go","0"
"pit-trial","164","1045295","0.0-47.0","battery-v0.2","","""event"",""trial"",""time""
""fullscreenenter"",""1"",""3690""
","
","
","""event"",""trial"",""time""
""fullscreenenter"",""1"",""3690""
","
","","","1001.8000001907349","","","18","15460","6149","n","elianto","#f73b6a7A"," "," ","1","0","[1853.8000001907349]","1","2","","","15460","43","0","3","lose","go","0"
"pit-trial","165","1050157","0.0-48.0","battery-v0.2","","""event"",""trial"",""time""
""fullscreenenter"",""1"",""3690""
","
","
","""event"",""trial"",""time""
""fullscreenenter"",""1"",""3690""
","
","","","-1","","","18","15460","6149","f","elianto","#3366ff99","-1","-1","1","+10","[]","0","2","","","15460","44","1","2","win","no-go","0"
"pit-trial","166","1055011","0.0-49.0","battery-v0.2","","""event"",""trial"",""time""
""fullscreenenter"",""1"",""3690""
","
","
","""event"",""trial"",""time""
""fullscreenenter"",""1"",""3690""
","
","","","-1","","","18","15460","6149","b","elianto","#f73b6a7A","-1","-1","1","-10","[]","0","2","","","15460","45","3","4","lose","no-go","1"
"pit-trial","167","1059865","0.0-50.0","battery-v0.2","","""event"",""trial"",""time""
""fullscreenenter"",""1"",""3690""
","
","
","""event"",""trial"",""time""
""fullscreenenter"",""1"",""3690""
","
","","","-1","","","18","15460","6149","f","elianto","#3366ff99","-1","-1","1","0","[]","0","2","","","15460","46","1","2","win","no-go","1"
"pit-trial","168","1063395","0.0-51.0","battery-v0.2","","""event"",""trial"",""time""
""fullscreenenter"",""1"",""3690""
","
","
","""event"",""trial"",""time""
""fullscreenenter"",""1"",""3690""
","
","","","677.7000000476837","","","18","15460","6149","n","elianto","#f73b6a7A"," "," ","1","0","[1527.7999999523163]","1","2","","","15460","47","0","3","lose","go","0"
"pit-trial","169","1066914","0.0-52.0","battery-v0.2","","""event"",""trial"",""time""
""fullscreenenter"",""1"",""3690""
","
","
","""event"",""trial"",""time""
""fullscreenenter"",""1"",""3690""
","
","","","665.5999999046326","","","18","15460","6149","t","elianto","#f73b6a7A"," "," ","1","0","[1515.9000000953674]","1","2","","","15460","48","2","3","lose","go","0"
"pit-trial","170","1070278","0.0-53.0","battery-v0.2","","""event"",""trial"",""time""
""fullscreenenter"",""1"",""3690""
","
","
","""event"",""trial"",""time""
""fullscreenenter"",""1"",""3690""
","
","","","512.3999998569489","","","18","15460","6149","n","elianto","#f73b6a7A"," "," ","1","0","[1363.0999999046326]","1","2","","","15460","49","0","3","lose","go","0"
"pit-trial","171","1075131","0.0-54.0","battery-v0.2","","""event"",""trial"",""time""
""fullscreenenter"",""1"",""3690""
","
","
","""event"",""trial"",""time""
""fullscreenenter"",""1"",""3690""
","
","","","-1","","","18","15460","6149","f","elianto","#3366ff99","-1","-1","1","+10","[]","0","2","","","15460","50","1","2","win","no-go","0"
"pit-trial","172","1078776","0.0-55.0","battery-v0.2","","""event"",""trial"",""time""
""fullscreenenter"",""1"",""3690""
","
","
","""event"",""trial"",""time""
""fullscreenenter"",""1"",""3690""
","
","","","791.4000000953674","","","18","15460","6149","t","elianto","#f73b6a7A"," "," ","1","0","[1643.4000000953674]","1","2","","","15460","51","2","3","lose","go","0"
"pit-trial","173","1083629","0.0-56.0","battery-v0.2","","""event"",""trial"",""time""
""fullscreenenter"",""1"",""3690""
","
","
","""event"",""trial"",""time""
""fullscreenenter"",""1"",""3690""
","
","","","-1","","","18","15460","6149","b","elianto","#f73b6a7A","-1","-1","1","0","[]","0","2","","","15460","52","3","4","lose","no-go","0"
"pit-trial","174","1087148","0.0-57.0","battery-v0.2","","""event"",""trial"",""time""
""fullscreenenter"",""1"",""3690""
","
","
","""event"",""trial"",""time""
""fullscreenenter"",""1"",""3690""
","
","","","666","","","18","15460","6149","t","elianto","#f73b6a7A"," "," ","1","0","[1517.1999998092651]","1","2","","","15460","53","2","3","lose","go","0"
"pit-trial","175","1092002","0.0-58.0","battery-v0.2","","""event"",""trial"",""time""
""fullscreenenter"",""1"",""3690""
","
","
","""event"",""trial"",""time""
""fullscreenenter"",""1"",""3690""
","
","","","-1","","","18","15460","6149","b","elianto","#f73b6a7A","-1","-1","1","0","[]","0","2","","","15460","54","3","4","lose","no-go","0"
"pit-trial","176","1095607","0.0-59.0","battery-v0.2","","""event"",""trial"",""time""
""fullscreenenter"",""1"",""3690""
","
","
","""event"",""trial"",""time""
""fullscreenenter"",""1"",""3690""
","
","","","752.3999998569489","","","18","15460","6149","n","elianto","#f73b6a7A"," "," ","1","0","[1602.7000000476837]","1","2","","","15460","55","0","3","lose","go","0"
"pit-trial","177","1099130","0.0-60.0","battery-v0.2","","""event"",""trial"",""time""
""fullscreenenter"",""1"",""3690""
","
","
","""event"",""trial"",""time""
""fullscreenenter"",""1"",""3690""
","
","","","669.2999999523163","","","18","15460","6149","f","elianto","#3366ff99","-1"," ","0","0","[1520.0999999046326]","1","2","","","15460","56","1","2","win","no-go","0"
"pit-trial","178","1102621","0.0-61.0","battery-v0.2","","""event"",""trial"",""time""
""fullscreenenter"",""1"",""3690""
","
","
","""event"",""trial"",""time""
""fullscreenenter"",""1"",""3690""
","
","","","637.8000001907349","","","18","15460","6149","t","elianto","#f73b6a7A"," "," ","1","0","[1487.9000000953674]","1","2","","","15460","57","2","3","lose","go","0"
"pit-trial","179","1107475","0.0-62.0","battery-v0.2","","""event"",""trial"",""time""
""fullscreenenter"",""1"",""3690""
","
","
","""event"",""trial"",""time""
""fullscreenenter"",""1"",""3690""
","
","","","-1","","","18","15460","6149","c","elianto","#3366ff99"," ","-1","0","+10","[]","0","2","","","15460","58","4","1","win","go","1"
"pit-trial","180","1111035","0.0-63.0","battery-v0.2","","""event"",""trial"",""time""
""fullscreenenter"",""1"",""3690""
","
","
","""event"",""trial"",""time""
""fullscreenenter"",""1"",""3690""
","
","","","707.5","","","18","15460","6149","n","elianto","#f73b6a7A"," "," ","1","0","[1557.7000000476837]","1","2","","","15460","59","0","3","lose","go","0"
"pit-trial","181","1115888","0.0-64.0","battery-v0.2","","""event"",""trial"",""time""
""fullscreenenter"",""1"",""3690""
","
","
","""event"",""trial"",""time""
""fullscreenenter"",""1"",""3690""
","
","","","-1","","","18","15460","6149","b","elianto","#f73b6a7A","-1","-1","1","0","[]","0","2","","","15460","60","3","4","lose","no-go","0"
"pit-trial","182","1120742","0.0-65.0","battery-v0.2","","""event"",""trial"",""time""
""fullscreenenter"",""1"",""3690""
","
","
","""event"",""trial"",""time""
""fullscreenenter"",""1"",""3690""
","
","","","-1","","","18","15460","6149","b","elianto","#f73b6a7A","-1","-1","1","-10","[]","0","2","","","15460","61","3","4","lose","no-go","1"
"pit-trial","183","1125595","0.0-66.0","battery-v0.2","","""event"",""trial"",""time""
""fullscreenenter"",""1"",""3690""
","
","
","""event"",""trial"",""time""
""fullscreenenter"",""1"",""3690""
","
","","","-1","","","18","15460","6149","c","elianto","#3366ff99"," ","-1","0","0","[]","0","2","","","15460","62","4","1","win","go","0"
"pit-trial","184","1129192","0.0-67.0","battery-v0.2","","""event"",""trial"",""time""
""fullscreenenter"",""1"",""3690""
","
","
","""event"",""trial"",""time""
""fullscreenenter"",""1"",""3690""
","
","","","744.7000000476837","","","18","15460","6149","t","elianto","#f73b6a7A"," "," ","1","0","[1595.2000000476837]","1","2","","","15460","63","2","3","lose","go","0"
"pit-trial","185","1134046","0.0-68.0","battery-v0.2","","""event"",""trial"",""time""
""fullscreenenter"",""1"",""3690""
","
","
","""event"",""trial"",""time""
""fullscreenenter"",""1"",""3690""
","
","","","-1","","","18","15460","6149","f","elianto","#3366ff99","-1","-1","1","0","[]","0","2","","","15460","64","1","2","win","no-go","1"
"pit-trial","186","1138899","0.0-69.0","battery-v0.2","","""event"",""trial"",""time""
""fullscreenenter"",""1"",""3690""
","
","
","""event"",""trial"",""time""
""fullscreenenter"",""1"",""3690""
","
","","","-1","","","18","15460","6149","b","elianto","#f73b6a7A","-1","-1","1","-10","[]","0","2","","","15460","65","3","4","lose","no-go","1"
"pit-trial","187","1142871","0.0-70.0","battery-v0.2","","""event"",""trial"",""time""
""fullscreenenter"",""1"",""3690""
","
","
","""event"",""trial"",""time""
""fullscreenenter"",""1"",""3690""
","
","","","1119.2999999523163","","","18","15460","6149","c","elianto","#3366ff99"," "," ","1","+10","[1969.6999998092651]","1","2","","","15460","66","4","1","win","go","0"
"pit-trial","188","1146894","0.0-71.0","battery-v0.2","","""event"",""trial"",""time""
""fullscreenenter"",""1"",""3690""
","
","
","""event"",""trial"",""time""
""fullscreenenter"",""1"",""3690""
","
","","","1170.2999999523163","","","18","15460","6149","z","elianto","#3366ff99","-1"," ","0","+10","[2021.1000001430511]","1","2","","","15460","67","5","2","win","no-go","1"
"pit-trial","189","1151751","0.0-72.0","battery-v0.2","","""event"",""trial"",""time""
""fullscreenenter"",""1"",""3690""
","
","
","""event"",""trial"",""time""
""fullscreenenter"",""1"",""3690""
","
","","","-1","","","18","15460","6149","f","elianto","#3366ff99","-1","-1","1","+10","[]","0","2","","","15460","68","1","2","win","no-go","0"
"pit-trial","190","1156604","0.0-73.0","battery-v0.2","","""event"",""trial"",""time""
""fullscreenenter"",""1"",""3690""
","
","
","""event"",""trial"",""time""
""fullscreenenter"",""1"",""3690""
","
","","","-1","","","18","15460","6149","f","elianto","#3366ff99","-1","-1","1","+10","[]","0","2","","","15460","69","1","2","win","no-go","0"
"pit-trial","191","1160185","0.0-74.0","battery-v0.2","","""event"",""trial"",""time""
""fullscreenenter"",""1"",""3690""
","
","
","""event"",""trial"",""time""
""fullscreenenter"",""1"",""3690""
","
","","","727.9000000953674","","","18","15460","6149","t","elianto","#f73b6a7A"," "," ","1","-10","[1578.6000001430511]","1","2","","","15460","70","2","3","lose","go","1"
"pit-trial","192","1163610","0.0-75.0","battery-v0.2","","""event"",""trial"",""time""
""fullscreenenter"",""1"",""3690""
","
","
","""event"",""trial"",""time""
""fullscreenenter"",""1"",""3690""
","
","","","571.7999999523163","","","18","15460","6149","z","elianto","#3366ff99","-1"," ","0","+10","[1422.2000000476837]","1","2","","","15460","71","5","2","win","no-go","1"
"pit-trial","193","1167115","0.0-76.0","battery-v0.2","","""event"",""trial"",""time""
""fullscreenenter"",""1"",""3690""
","
","
","""event"",""trial"",""time""
""fullscreenenter"",""1"",""3690""
","
","","","651.9000000953674","","","18","15460","6149","c","elianto","#3366ff99"," "," ","1","+10","[1502.4000000953674]","1","2","","","15460","72","4","1","win","go","0"
"pit-trial","194","1171968","0.0-77.0","battery-v0.2","","""event"",""trial"",""time""
""fullscreenenter"",""1"",""3690""
","
","
","""event"",""trial"",""time""
""fullscreenenter"",""1"",""3690""
","
","","","-1","","","18","15460","6149","f","elianto","#3366ff99","-1","-1","1","+10","[]","0","2","","","15460","73","1","2","win","no-go","0"
"pit-trial","195","1175552","0.0-78.0","battery-v0.2","","""event"",""trial"",""time""
""fullscreenenter"",""1"",""3690""
","
","
","""event"",""trial"",""time""
""fullscreenenter"",""1"",""3690""
","
","","","731.7000000476837","","","18","15460","6149","c","elianto","#3366ff99"," "," ","1","+10","[1582.2000000476837]","1","2","","","15460","74","4","1","win","go","0"
"pit-trial","196","1179198","0.0-79.0","battery-v0.2","","""event"",""trial"",""time""
""fullscreenenter"",""1"",""3690""
","
","
","""event"",""trial"",""time""
""fullscreenenter"",""1"",""3690""
","
","","","794.2000000476837","","","18","15460","6149","z","elianto","#3366ff99","-1"," ","0","0","[1644.4000000953674]","1","2","","","15460","75","5","2","win","no-go","0"
"pit-trial","197","1184051","0.0-80.0","battery-v0.2","","""event"",""trial"",""time""
""fullscreenenter"",""1"",""3690""
","
","
","""event"",""trial"",""time""
""fullscreenenter"",""1"",""3690""
","
","","","-1","","","18","15460","6149","b","elianto","#f73b6a7A","-1","-1","1","0","[]","0","2","","","15460","76","3","4","lose","no-go","0"
"pit-trial","198","1188904","0.0-81.0","battery-v0.2","","""event"",""trial"",""time""
""fullscreenenter"",""1"",""3690""
","
","
","""event"",""trial"",""time""
""fullscreenenter"",""1"",""3690""
","
","","","-1","","","18","15460","6149","b","elianto","#f73b6a7A","-1","-1","1","0","[]","0","2","","","15460","77","3","4","lose","no-go","0"
"pit-trial","199","1192309","0.0-82.0","battery-v0.2","","""event"",""trial"",""time""
""fullscreenenter"",""1"",""3690""
","
","
","""event"",""trial"",""time""
""fullscreenenter"",""1"",""3690""
","
","","","551.7999999523163","","","18","15460","6149","c","elianto","#3366ff99"," "," ","1","+10","[1402.1999998092651]","1","2","","","15460","78","4","1","win","go","0"
"pit-trial","200","1195882","0.0-83.0","battery-v0.2","","""event"",""trial"",""time""
""fullscreenenter"",""1"",""3690""
","
","
","""event"",""trial"",""time""
""fullscreenenter"",""1"",""3690""
","
","","","719.7999999523163","","","18","15460","6149","c","elianto","#3366ff99"," "," ","1","+10","[1570.9000000953674]","1","2","","","15460","79","4","1","win","go","0"
"pit-trial","201","1199416","0.0-84.0","battery-v0.2","","""event"",""trial"",""time""
""fullscreenenter"",""1"",""3690""
","
","
","""event"",""trial"",""time""
""fullscreenenter"",""1"",""3690""
","
","","","681.7000000476837","","","18","15460","6149","z","elianto","#3366ff99","-1"," ","0","0","[1532.3999998569489]","1","2","","","15460","80","5","2","win","no-go","0"
"pit-trial","202","1203409","0.0-85.0","battery-v0.2","","""event"",""trial"",""time""
""fullscreenenter"",""1"",""3690""
","
","
","""event"",""trial"",""time""
""fullscreenenter"",""1"",""3690""
","
","","","1140.2000000476837","","","18","15460","6149","c","elianto","#3366ff99"," "," ","1","+10","[1990.7999999523163]","1","2","","","15460","81","4","1","win","go","0"
"pit-trial","203","1208276","0.0-86.0","battery-v0.2","","""event"",""trial"",""time""
""fullscreenenter"",""1"",""3690""
","
","
","""event"",""trial"",""time""
""fullscreenenter"",""1"",""3690""
","
","","","-1","","","18","15460","6149","y","elianto","#f73b6a7A","-1","-1","1","0","[]","0","2","","","15460","82","7","4","lose","no-go","0"
"pit-trial","204","1211772","0.0-87.0","battery-v0.2","","""event"",""trial"",""time""
""fullscreenenter"",""1"",""3690""
","
","
","""event"",""trial"",""time""
""fullscreenenter"",""1"",""3690""
","
","","","643.7999999523163","","","18","15460","6149","z","elianto","#3366ff99","-1"," ","0","+10","[1494.0999999046326]","1","2","","","15460","83","5","2","win","no-go","1"
"pit-trial","205","1216624","0.0-88.0","battery-v0.2","","""event"",""trial"",""time""
""fullscreenenter"",""1"",""3690""
","
","
","""event"",""trial"",""time""
""fullscreenenter"",""1"",""3690""
","
","","","-1","","","18","15460","6149","b","elianto","#f73b6a7A","-1","-1","1","0","[]","0","2","","","15460","84","3","4","lose","no-go","0"
"pit-trial","206","1220767","0.0-89.0","battery-v0.2","","""event"",""trial"",""time""
""fullscreenenter"",""1"",""3690""
","
","
","""event"",""trial"",""time""
""fullscreenenter"",""1"",""3690""
","
","","","1289.3999998569489","","","18","15460","6149","h","elianto","#f73b6a7A"," "," ","1","-10","[2140.2999999523163]","1","2","","","15460","85","6","3","lose","go","1"
"pit-trial","207","1224145","0.0-90.0","battery-v0.2","","""event"",""trial"",""time""
""fullscreenenter"",""1"",""3690""
","
","
","""event"",""trial"",""time""
""fullscreenenter"",""1"",""3690""
","
","","","525.2999999523163","","","18","15460","6149","c","elianto","#3366ff99"," "," ","1","0","[1375.9000000953674]","1","2","","","15460","86","4","1","win","go","1"
"pit-trial","208","1228998","0.0-91.0","battery-v0.2","","""event"",""trial"",""time""
""fullscreenenter"",""1"",""3690""
","
","
","""event"",""trial"",""time""
""fullscreenenter"",""1"",""3690""
","
","","","-1","","","18","15460","6149","y","elianto","#f73b6a7A","-1","-1","1","0","[]","0","2","","","15460","87","7","4","lose","no-go","0"
"pit-trial","209","1232492","0.0-92.0","battery-v0.2","","""event"",""trial"",""time""
""fullscreenenter"",""1"",""3690""
","
","
","""event"",""trial"",""time""
""fullscreenenter"",""1"",""3690""
","
","","","640.7999999523163","","","18","15460","6149","z","elianto","#3366ff99","-1"," ","0","0","[1492.3999998569489]","1","2","","","15460","88","5","2","win","no-go","0"
"pit-trial","210","1237346","0.0-93.0","battery-v0.2","","""event"",""trial"",""time""
""fullscreenenter"",""1"",""3690""
","
","
","""event"",""trial"",""time""
""fullscreenenter"",""1"",""3690""
","
","","","-1","","","18","15460","6149","y","elianto","#f73b6a7A","-1","-1","1","0","[]","0","2","","","15460","89","7","4","lose","no-go","0"
"pit-trial","211","1240825","0.0-94.0","battery-v0.2","","""event"",""trial"",""time""
""fullscreenenter"",""1"",""3690""
","
","
","""event"",""trial"",""time""
""fullscreenenter"",""1"",""3690""
","
","","","625.3999998569489","","","18","15460","6149","z","elianto","#3366ff99","-1"," ","0","+10","[1477]","1","2","","","15460","90","5","2","win","no-go","1"
"pit-trial","212","1244413","0.0-95.0","battery-v0.2","","""event"",""trial"",""time""
""fullscreenenter"",""1"",""3690""
","
","
","""event"",""trial"",""time""
""fullscreenenter"",""1"",""3690""
","
","","","734.0999999046326","","","18","15460","6149","c","elianto","#3366ff99"," "," ","1","0","[1585.9000000953674]","1","2","","","15460","91","4","1","win","go","1"
"pit-trial","213","1249266","0.0-96.0","battery-v0.2","","""event"",""trial"",""time""
""fullscreenenter"",""1"",""3690""
","
","
","""event"",""trial"",""time""
""fullscreenenter"",""1"",""3690""
","
","","","-1","","","18","15460","6149","h","elianto","#f73b6a7A"," ","-1","0","-10","[]","0","2","","","15460","92","6","3","lose","go","0"
"pit-trial","214","1254119","0.0-97.0","battery-v0.2","","""event"",""trial"",""time""
""fullscreenenter"",""1"",""3690""
","
","
","""event"",""trial"",""time""
""fullscreenenter"",""1"",""3690""
","
","","","-1","","","18","15460","6149","r","elianto","#3366ff99"," ","-1","0","0","[]","0","2","","","15460","93","8","1","win","go","0"
"pit-trial","215","1258394","0.0-98.0","battery-v0.2","","""event"",""trial"",""time""
""fullscreenenter"",""1"",""3690""
","
","
","""event"",""trial"",""time""
""fullscreenenter"",""1"",""3690""
","
","","","1421.7999999523163","","","18","15460","6149","h","elianto","#f73b6a7A"," "," ","1","0","[2272.399999856949]","1","2","","","15460","94","6","3","lose","go","0"
"pit-trial","216","1263247","0.0-99.0","battery-v0.2","","""event"",""trial"",""time""
""fullscreenenter"",""1"",""3690""
","
","
","""event"",""trial"",""time""
""fullscreenenter"",""1"",""3690""
","
","","","-1","","","18","15460","6149","y","elianto","#f73b6a7A","-1","-1","1","0","[]","0","2","","","15460","95","7","4","lose","no-go","0"
"pit-trial","217","1266723","0.0-100.0","battery-v0.2","","""event"",""trial"",""time""
""fullscreenenter"",""1"",""3690""
","
","
","""event"",""trial"",""time""
""fullscreenenter"",""1"",""3690""
","
","","","623.4000000953674","","","18","15460","6149","z","elianto","#3366ff99","-1"," ","0","0","[1474.3000001907349]","1","2","","","15460","96","5","2","win","no-go","0"
"pit-trial","218","1271577","0.0-101.0","battery-v0.2","","""event"",""trial"",""time""
""fullscreenenter"",""1"",""3690""
","
","
","""event"",""trial"",""time""
""fullscreenenter"",""1"",""3690""
","
","","","-1","","","18","15460","6149","y","elianto","#f73b6a7A","-1","-1","1","0","[]","0","2","","","15460","97","7","4","lose","no-go","0"
"pit-trial","219","1275197","0.0-102.0","battery-v0.2","","""event"",""trial"",""time""
""fullscreenenter"",""1"",""3690""
","
","
","""event"",""trial"",""time""
""fullscreenenter"",""1"",""3690""
","
","","","768.7999999523163","","","18","15460","6149","r","elianto","#3366ff99"," "," ","1","+10","[1619]","1","2","","","15460","98","8","1","win","go","0"
"pit-trial","220","1278917","0.0-103.0","battery-v0.2","","""event"",""trial"",""time""
""fullscreenenter"",""1"",""3690""
","
","
","""event"",""trial"",""time""
""fullscreenenter"",""1"",""3690""
","
","","","867.2000000476837","","","18","15460","6149","z","elianto","#3366ff99","-1"," ","0","+10","[1717.9000000953674]","1","2","","","15460","99","5","2","win","no-go","1"
"pit-trial","221","1282450","0.0-104.0","battery-v0.2","","""event"",""trial"",""time""
""fullscreenenter"",""1"",""3690""
","
","
","""event"",""trial"",""time""
""fullscreenenter"",""1"",""3690""
","
","","","679.8000001907349","","","18","15460","6149","h","elianto","#f73b6a7A"," "," ","1","0","[1531]","1","2","","","15460","100","6","3","lose","go","0"
"pit-trial","222","1287304","0.0-105.0","battery-v0.2","","""event"",""trial"",""time""
""fullscreenenter"",""1"",""3690""
","
","
","""event"",""trial"",""time""
""fullscreenenter"",""1"",""3690""
","
","","","-1","","","18","15460","6149","y","elianto","#f73b6a7A","-1","-1","1","-10","[]","0","2","","","15460","101","7","4","lose","no-go","1"
"pit-trial","223","1291183","0.0-106.0","battery-v0.2","","""event"",""trial"",""time""
""fullscreenenter"",""1"",""3690""
","
","
","""event"",""trial"",""time""
""fullscreenenter"",""1"",""3690""
","
","","","1026.7000000476837","","","18","15460","6149","r","elianto","#3366ff99"," "," ","1","+10","[1876.9000000953674]","1","2","","","15460","102","8","1","win","go","0"
"pit-trial","224","1294822","0.0-107.0","battery-v0.2","","""event"",""trial"",""time""
""fullscreenenter"",""1"",""3690""
","
","
","""event"",""trial"",""time""
""fullscreenenter"",""1"",""3690""
","
","","","786.2999999523163","","","18","15460","6149","z","elianto","#3366ff99","-1"," ","0","0","[1636.8999998569489]","1","2","","","15460","103","5","2","win","no-go","0"
"pit-trial","225","1299674","0.0-108.0","battery-v0.2","","""event"",""trial"",""time""
""fullscreenenter"",""1"",""3690""
","
","
","""event"",""trial"",""time""
""fullscreenenter"",""1"",""3690""
","
","","","-1","","","18","15460","6149","m","elianto","#3366ff99"," ","-1","0","0","[]","0","2","","","15460","104","9","1","win","go","0"
"pit-trial","226","1303833","0.0-109.0","battery-v0.2","","""event"",""trial"",""time""
""fullscreenenter"",""1"",""3690""
","
","
","""event"",""trial"",""time""
""fullscreenenter"",""1"",""3690""
","
","","","1307.0999999046326","","","18","15460","6149","h","elianto","#f73b6a7A"," "," ","1","0","[2157.2999999523163]","1","2","","","15460","105","6","3","lose","go","0"
"pit-trial","227","1307719","0.0-110.0","battery-v0.2","","""event"",""trial"",""time""
""fullscreenenter"",""1"",""3690""
","
","
","""event"",""trial"",""time""
""fullscreenenter"",""1"",""3690""
","
","","","1032.5999999046326","","","18","15460","6149","m","elianto","#3366ff99"," "," ","1","+10","[1882.6000001430511]","1","2","","","15460","106","9","1","win","go","0"
"pit-trial","228","1311285","0.0-111.0","battery-v0.2","","""event"",""trial"",""time""
""fullscreenenter"",""1"",""3690""
","
","
","""event"",""trial"",""time""
""fullscreenenter"",""1"",""3690""
","
","","","713.9000000953674","","","18","15460","6149","c","elianto","#3366ff99"," "," ","1","+10","[1564.2000000476837]","1","2","","","15460","107","4","1","win","go","0"
"pit-trial","229","1314923","0.0-112.0","battery-v0.2","","""event"",""trial"",""time""
""fullscreenenter"",""1"",""3690""
","
","
","""event"",""trial"",""time""
""fullscreenenter"",""1"",""3690""
","
","","","785.2999999523163","","","18","15460","6149","r","elianto","#3366ff99"," "," ","1","0","[1635.8999998569489]","1","2","","","15460","108","8","1","win","go","1"
"pit-trial","230","1318388","0.0-113.0","battery-v0.2","","""event"",""trial"",""time""
""fullscreenenter"",""1"",""3690""
","
","
","""event"",""trial"",""time""
""fullscreenenter"",""1"",""3690""
","
","","","613.2000000476837","","","18","15460","6149","z","elianto","#3366ff99","-1"," ","0","0","[1463.7999999523163]","1","2","","","15460","109","5","2","win","no-go","0"
"pit-trial","231","1322255","0.0-114.0","battery-v0.2","","""event"",""trial"",""time""
""fullscreenenter"",""1"",""3690""
","
","
","""event"",""trial"",""time""
""fullscreenenter"",""1"",""3690""
","
","","","1013.0999999046326","","","18","15460","6149","h","elianto","#f73b6a7A"," "," ","1","-10","[1863.3999998569489]","1","2","","","15460","110","6","3","lose","go","1"
"pit-trial","232","1325618","0.0-115.0","battery-v0.2","","""event"",""trial"",""time""
""fullscreenenter"",""1"",""3690""
","
","
","""event"",""trial"",""time""
""fullscreenenter"",""1"",""3690""
","
","","","510.7000000476837","","","18","15460","6149","m","elianto","#3366ff99"," "," ","1","0","[1361.8999998569489]","1","2","","","15460","111","9","1","win","go","1"
"pit-trial","233","1329135","0.0-116.0","battery-v0.2","","""event"",""trial"",""time""
""fullscreenenter"",""1"",""3690""
","
","
","""event"",""trial"",""time""
""fullscreenenter"",""1"",""3690""
","
","","","663.7999999523163","","","18","15460","6149","r","elianto","#3366ff99"," "," ","1","+10","[1514]","1","2","","","15460","112","8","1","win","go","0"
"pit-trial","234","1332441","0.0-117.0","battery-v0.2","","""event"",""trial"",""time""
""fullscreenenter"",""1"",""3690""
","
","
","""event"",""trial"",""time""
""fullscreenenter"",""1"",""3690""
","
","","","453.09999990463257","","","18","15460","6149","m","elianto","#3366ff99"," "," ","1","+10","[1304]","1","2","","","15460","113","9","1","win","go","0"
"pit-trial","235","1336124","0.0-118.0","battery-v0.2","","""event"",""trial"",""time""
""fullscreenenter"",""1"",""3690""
","
","
","""event"",""trial"",""time""
""fullscreenenter"",""1"",""3690""
","
","","","831.0999999046326","","","18","15460","6149","z","elianto","#3366ff99","-1"," ","0","0","[1681.7999999523163]","1","2","","","15460","114","5","2","win","no-go","0"
"pit-trial","236","1339801","0.0-119.0","battery-v0.2","","""event"",""trial"",""time""
""fullscreenenter"",""1"",""3690""
","
","
","""event"",""trial"",""time""
""fullscreenenter"",""1"",""3690""
","
","","","824.3999998569489","","","18","15460","6149","h","elianto","#f73b6a7A"," "," ","1","0","[1674.7000000476837]","1","2","","","15460","115","6","3","lose","go","0"
"pit-trial","237","1343539","0.0-120.0","battery-v0.2","","""event"",""trial"",""time""
""fullscreenenter"",""1"",""3690""
","
","
","""event"",""trial"",""time""
""fullscreenenter"",""1"",""3690""
","
","","","883.6999998092651","","","18","15460","6149","r","elianto","#3366ff99"," "," ","1","+10","[1734.8999998569489]","1","2","","","15460","116","8","1","win","go","0"
"pit-trial","238","1348175","0.0-121.0","battery-v0.2","","""event"",""trial"",""time""
""fullscreenenter"",""1"",""3690""
","
","
","""event"",""trial"",""time""
""fullscreenenter"",""1"",""3690""
","
","","","1784.3000001907349","","","18","15460","6149","m","elianto","#3366ff99"," "," ","1","0","[2634.600000143051]","1","2","","","15460","117","9","1","win","go","1"
"pit-trial","239","1351637","0.0-122.0","battery-v0.2","","""event"",""trial"",""time""
""fullscreenenter"",""1"",""3690""
","
","
","""event"",""trial"",""time""
""fullscreenenter"",""1"",""3690""
","
","","","609.2999999523163","","","18","15460","6149","h","elianto","#f73b6a7A"," "," ","1","0","[1459.6999998092651]","1","2","","","15460","118","6","3","lose","go","0"
"pit-trial","240","1355087","0.0-123.0","battery-v0.2","","""event"",""trial"",""time""
""fullscreenenter"",""1"",""3690""
","
","
","""event"",""trial"",""time""
""fullscreenenter"",""1"",""3690""
","
","","","595.7999999523163","","","18","15460","6149","z","elianto","#3366ff99","-1"," ","0","0","[1447.5]","1","2","","","15460","119","5","2","win","no-go","0"
"pit-trial","241","1358439","0.0-124.0","battery-v0.2","","""event"",""trial"",""time""
""fullscreenenter"",""1"",""3690""
","
","
","""event"",""trial"",""time""
""fullscreenenter"",""1"",""3690""
","
","","","499.7000000476837","","","18","15460","6149","r","elianto","#3366ff99"," "," ","1","+10","[1350]","1","2","","","15460","120","8","1","win","go","0"
"pit-trial","242","1362513","0.0-125.0","battery-v0.2","","""event"",""trial"",""time""
""fullscreenenter"",""1"",""3690""
","
","
","""event"",""trial"",""time""
""fullscreenenter"",""1"",""3690""
","
","","","1220.7000000476837","","","18","15460","6149","m","elianto","#3366ff99"," "," ","1","+10","[2071.0999999046326]","1","2","","","15460","121","9","1","win","go","0"
"pit-trial","243","1365977","0.0-126.0","battery-v0.2","","""event"",""trial"",""time""
""fullscreenenter"",""1"",""3690""
","
","
","""event"",""trial"",""time""
""fullscreenenter"",""1"",""3690""
","
","","","610.5","","","18","15460","6149","h","elianto","#f73b6a7A"," "," ","1","-10","[1461.3999998569489]","1","2","","","15460","122","6","3","lose","go","1"
"pit-trial","244","1370831","0.0-127.0","battery-v0.2","","""event"",""trial"",""time""
""fullscreenenter"",""1"",""3690""
","
","
","""event"",""trial"",""time""
""fullscreenenter"",""1"",""3690""
","
","","","-1","","","18","15460","6149","y","elianto","#f73b6a7A","-1","-1","1","0","[]","0","2","","","15460","123","7","4","lose","no-go","0"
"pit-trial","245","1374257","0.0-128.0","battery-v0.2","","""event"",""trial"",""time""
""fullscreenenter"",""1"",""3690""
","
","
","""event"",""trial"",""time""
""fullscreenenter"",""1"",""3690""
","
","","","573.7000000476837","","","18","15460","6149","r","elianto","#3366ff99"," "," ","1","0","[1424.7999999523163]","1","2","","","15460","124","8","1","win","go","1"
"pit-trial","246","1379110","0.0-129.0","battery-v0.2","","""event"",""trial"",""time""
""fullscreenenter"",""1"",""3690""
","
","
","""event"",""trial"",""time""
""fullscreenenter"",""1"",""3690""
","
","","","-1","","","18","15460","6149","y","elianto","#f73b6a7A","-1","-1","1","-10","[]","0","2","","","15460","125","7","4","lose","no-go","1"
"pit-trial","247","1382657","0.0-130.0","battery-v0.2","","""event"",""trial"",""time""
""fullscreenenter"",""1"",""3690""
","
","
","""event"",""trial"",""time""
""fullscreenenter"",""1"",""3690""
","
","","","693.7999999523163","","","18","15460","6149","h","elianto","#f73b6a7A"," "," ","1","0","[1545]","1","2","","","15460","126","6","3","lose","go","0"
"pit-trial","248","1386031","0.0-131.0","battery-v0.2","","""event"",""trial"",""time""
""fullscreenenter"",""1"",""3690""
","
","
","""event"",""trial"",""time""
""fullscreenenter"",""1"",""3690""
","
","","","521.2999999523163","","","18","15460","6149","m","elianto","#3366ff99"," "," ","1","+10","[1371.2999999523163]","1","2","","","15460","127","9","1","win","go","0"
"pit-trial","249","1389542","0.0-132.0","battery-v0.2","","""event"",""trial"",""time""
""fullscreenenter"",""1"",""3690""
","
","
","""event"",""trial"",""time""
""fullscreenenter"",""1"",""3690""
","
","","","658.1000001430511","","","18","15460","6149","r","elianto","#3366ff99"," "," ","1","+10","[1508.5]","1","2","","","15460","128","8","1","win","go","0"
"pit-trial","250","1393088","0.0-133.0","battery-v0.2","","""event"",""trial"",""time""
""fullscreenenter"",""1"",""3690""
","
","
","""event"",""trial"",""time""
""fullscreenenter"",""1"",""3690""
","
","","","693.4000000953674","","","18","15460","6149","h","elianto","#f73b6a7A"," "," ","1","0","[1544.2000000476837]","1","2","","","15460","129","6","3","lose","go","0"
"pit-trial","251","1396709","0.0-134.0","battery-v0.2","","""event"",""trial"",""time""
""fullscreenenter"",""1"",""3690""
","
","
","""event"",""trial"",""time""
""fullscreenenter"",""1"",""3690""
","
","","","768.7999999523163","","","18","15460","6149","m","elianto","#3366ff99"," "," ","1","+10","[1618.7999999523163]","1","2","","","15460","130","9","1","win","go","0"
"pit-trial","252","1400316","0.0-135.0","battery-v0.2","","""event"",""trial"",""time""
""fullscreenenter"",""1"",""3690""
","
","
","""event"",""trial"",""time""
""fullscreenenter"",""1"",""3690""
","
","","","755.0999999046326","","","18","15460","6149","r","elianto","#3366ff99"," "," ","1","+10","[1605.2999999523163]","1","2","","","15460","131","8","1","win","go","0"
"pit-trial","253","1405169","0.0-136.0","battery-v0.2","","""event"",""trial"",""time""
""fullscreenenter"",""1"",""3690""
","
","
","""event"",""trial"",""time""
""fullscreenenter"",""1"",""3690""
","
","","","-1","","","18","15460","6149","y","elianto","#f73b6a7A","-1","-1","1","0","[]","0","2","","","15460","132","7","4","lose","no-go","0"
"pit-trial","254","1408825","0.0-137.0","battery-v0.2","","""event"",""trial"",""time""
""fullscreenenter"",""1"",""3690""
","
","
","""event"",""trial"",""time""
""fullscreenenter"",""1"",""3690""
","
","","","801.7000000476837","","","18","15460","6149","h","elianto","#f73b6a7A"," "," ","1","-10","[1652.9000000953674]","1","2","","","15460","133","6","3","lose","go","1"
"pit-trial","255","1412366","0.0-138.0","battery-v0.2","","""event"",""trial"",""time""
""fullscreenenter"",""1"",""3690""
","
","
","""event"",""trial"",""time""
""fullscreenenter"",""1"",""3690""
","
","","","688.5","","","18","15460","6149","r","elianto","#3366ff99"," "," ","1","+10","[1539.7999999523163]","1","2","","","15460","134","8","1","win","go","0"
"pit-trial","256","1415731","0.0-139.0","battery-v0.2","","""event"",""trial"",""time""
""fullscreenenter"",""1"",""3690""
","
","
","""event"",""trial"",""time""
""fullscreenenter"",""1"",""3690""
","
","","","511.7000000476837","","","18","15460","6149","m","elianto","#3366ff99"," "," ","1","+10","[1362.1000001430511]","1","2","","","15460","135","9","1","win","go","0"
"pit-trial","257","1419320","0.0-140.0","battery-v0.2","","""event"",""trial"",""time""
""fullscreenenter"",""1"",""3690""
","
","
","""event"",""trial"",""time""
""fullscreenenter"",""1"",""3690""
","
","","","735.6000001430511","","","18","15460","6149","y","elianto","#f73b6a7A","-1"," ","0","0","[1586.2999999523163]","1","2","","","15460","136","7","4","lose","no-go","1"
"pit-trial","258","1423132","0.0-141.0","battery-v0.2","","""event"",""trial"",""time""
""fullscreenenter"",""1"",""3690""
","
","
","""event"",""trial"",""time""
""fullscreenenter"",""1"",""3690""
","
","","","960.2000000476837","","","18","15460","6149","m","elianto","#3366ff99"," "," ","1","+10","[1810.7999999523163]","1","2","","","15460","137","9","1","win","go","0"
"pit-trial","259","1426945","0.0-142.0","battery-v0.2","","""event"",""trial"",""time""
""fullscreenenter"",""1"",""3690""
","
","
","""event"",""trial"",""time""
""fullscreenenter"",""1"",""3690""
","
","","","960.2999999523163","","","18","15460","6149","r","elianto","#3366ff99"," "," ","1","0","[1810.7999999523163]","1","2","","","15460","138","8","1","win","go","1"
"pit-trial","260","1431799","0.0-143.0","battery-v0.2","","""event"",""trial"",""time""
""fullscreenenter"",""1"",""3690""
","
","
","""event"",""trial"",""time""
""fullscreenenter"",""1"",""3690""
","
","","","-1","","","18","15460","6149","y","elianto","#f73b6a7A","-1","-1","1","0","[]","0","2","","","15460","139","7","4","lose","no-go","0"
"pit-trial","261","1435266","0.0-144.0","battery-v0.2","","""event"",""trial"",""time""
""fullscreenenter"",""1"",""3690""
""blur"",""262"",""1438270""
""focus"",""262"",""1439057""
","""event"",""trial"",""time""
""blur"",""262"",""1438270""
","""event"",""trial"",""time""
""focus"",""262"",""1439057""
","""event"",""trial"",""time""
""fullscreenenter"",""1"",""3690""
","
","","","614.3999998569489","","","18","15460","6149","h","elianto","#f73b6a7A"," "," ","1","0","[1464.8999998569489]","1","2","","","15460","140","6","3","lose","go","0"
"pit-instructions","262","1449531","0.0-145.0","battery-v0.2","","""event"",""trial"",""time""
""fullscreenenter"",""1"",""3690""
""blur"",""262"",""1438270""
""focus"",""262"",""1439057""
","""event"",""trial"",""time""
""blur"",""262"",""1438270""
","""event"",""trial"",""time""
""focus"",""262"",""1439057""
","""event"",""trial"",""time""
""fullscreenenter"",""1"",""3690""
","
","","[{""page_index"":0,""viewing_time"":6164.599999904633},{""page_index"":1,""viewing_time"":8098.900000095367}]","14263.799999952316","","","","","","","","","","","","","","","","","","","","","","","",""
"pit-trial","263","1453759","0.0-146.0","battery-v0.2","","""event"",""trial"",""time""
""fullscreenenter"",""1"",""3690""
""blur"",""262"",""1438270""
""focus"",""262"",""1439057""
","""event"",""trial"",""time""
""blur"",""262"",""1438270""
","""event"",""trial"",""time""
""focus"",""262"",""1439057""
","""event"",""trial"",""time""
""fullscreenenter"",""1"",""3690""
","
","","","1363.5999999046326","","","18","15460","6149","j","elianto","#f73b6a7A","-1"," ","0","-10","[2217.399999856949]","1","3","","","15460","141","0","4","lose","no-go","0"
"pit-trial","264","1457331","0.0-147.0","battery-v0.2","","""event"",""trial"",""time""
""fullscreenenter"",""1"",""3690""
""blur"",""262"",""1438270""
""focus"",""262"",""1439057""
