"trial_type","trial_index","time_elapsed","internal_node_id","task_version","subject_id","interactions","blur_events","focus_events","fullscreenenter_events","fullscreenexit_events","success","view_history","rt","responses","num_errors","age","subject","participantId","rune","rune_set","hex","correct","choice","accuracy","outcome","keys","total_keys","block","practice","value","sub","trial","stimulus","robot","valence","action","sham"
"pavlovia","0","28","0.0-0.0","battery-v0.2","","""event"",""trial"",""time""
""fullscreenenter"",""1"",""3806""
","
","
","""event"",""trial"",""time""
""fullscreenenter"",""1"",""3806""
","
","","","","","","","","","","","","","","","","","","","","","","","","","","",""
"fullscreen","1","4740","0.0-1.0","battery-v0.2","","""event"",""trial"",""time""
""fullscreenenter"",""1"",""3806""
","
","
","""event"",""trial"",""time""
""fullscreenenter"",""1"",""3806""
","
","true","","","","","","","","","","","","","","","","","","","","","","","","","",""
"pit-instructions","2","88129","0.0-2.0-0.0","battery-v0.2","","""event"",""trial"",""time""
""fullscreenenter"",""1"",""3806""
","
","
","""event"",""trial"",""time""
""fullscreenenter"",""1"",""3806""
","
","","[{""page_index"":0,""viewing_time"":83382.29999923706}]","83382.60000228882","","","","","","","","","","","","","","","","","","","","","","","",""
"pit-comprehension","3","91323","0.0-2.0-1.0-0.0","battery-v0.2","","""event"",""trial"",""time""
""fullscreenenter"",""1"",""3806""
","
","
","""event"",""trial"",""time""
""fullscreenenter"",""1"",""3806""
","
","","","3190.5","[""shark""]","0","10","10859","5062","","","","","","","","","","","","","","","","","","",""
"pit-instructions","4","93050","0.0-2.0-1.0-1.0","battery-v0.2","","""event"",""trial"",""time""
""fullscreenenter"",""1"",""3806""
","
","
","""event"",""trial"",""time""
""fullscreenenter"",""1"",""3806""
","
","","[{""page_index"":0,""viewing_time"":1717.6000022888184}]","1717.8000030517578","","","","","","","","","","","","","","","","","","","","","","","",""
"pit-comprehension","5","96307","0.0-2.0-2.0-0.0","battery-v0.2","","""event"",""trial"",""time""
""fullscreenenter"",""1"",""3806""
","
","
","""event"",""trial"",""time""
""fullscreenenter"",""1"",""3806""
","
","","","3254.3999977111816","[""tiger""]","0","10","10859","5062","","","","","","","","","","","","","","","","","","",""
"pit-instructions","6","97483","0.0-2.0-2.0-1.0","battery-v0.2","","""event"",""trial"",""time""
""fullscreenenter"",""1"",""3806""
","
","
","""event"",""trial"",""time""
""fullscreenenter"",""1"",""3806""
","
","","[{""page_index"":0,""viewing_time"":1174.1000022888184}]","1174.400001525879","","","","","","","","","","","","","","","","","","","","","","","",""
"pit-instructions","7","190132","0.0-2.0-3.0","battery-v0.2","","""event"",""trial"",""time""
""fullscreenenter"",""1"",""3806""
","
","
","""event"",""trial"",""time""
""fullscreenenter"",""1"",""3806""
","
","","[{""page_index"":0,""viewing_time"":8991.900001525879},{""page_index"":1,""viewing_time"":5877},{""page_index"":2,""viewing_time"":6679.199996948242},{""page_index"":3,""viewing_time"":5842.800003051758},{""page_index"":4,""viewing_time"":5764.099998474121},{""page_index"":5,""viewing_time"":5036.099998474121},{""page_index"":6,""viewing_time"":6198.100002288818},{""page_index"":7,""viewing_time"":6377.799999237061},{""page_index"":8,""viewing_time"":6156.200000762939},{""page_index"":9,""viewing_time"":8486.899997711182},{""page_index"":10,""viewing_time"":7844.200000762939},{""page_index"":11,""viewing_time"":6822.600002288818},{""page_index"":12,""viewing_time"":6175.199996948242},{""page_index"":13,""viewing_time"":6395.5}]","92647.90000152588","","","","","","","","","","","","","","","","","","","","","","","",""
"pit-trial","8","193831","0.0-2.0-4.0-0.0","battery-v0.2","","""event"",""trial"",""time""
""fullscreenenter"",""1"",""3806""
","
","
","""event"",""trial"",""time""
""fullscreenenter"",""1"",""3806""
","
","","","840.3999977111816","","","10","10859","5062","&#9784;","elianto","#FFFFF080"," "," ","1","&#10004","[1691.7999992370605]","1","0","0","","","","","","","",""
"pit-trial","9","197432","0.0-2.0-4.1-0.1","battery-v0.2","","""event"",""trial"",""time""
""fullscreenenter"",""1"",""3806""
","
","
","""event"",""trial"",""time""
""fullscreenenter"",""1"",""3806""
","
","","","746.8999977111816","","","10","10859","5062","&#9784;","elianto","#FFFFF080"," "," ","1","&#10004","[1598]","1","0","0","","","","","","","",""
"pit-trial","10","200951","0.0-2.0-4.2-0.2","battery-v0.2","","""event"",""trial"",""time""
""fullscreenenter"",""1"",""3806""
","
","
","""event"",""trial"",""time""
""fullscreenenter"",""1"",""3806""
","
","","","646","","","10","10859","5062","&#9784;","elianto","#FFFFF080"," "," ","1","&#10004","[1508.8999977111816]","1","0","0","","","","","","","",""
"pit-trial","11","204016","0.0-2.0-4.3-0.3","battery-v0.2","","""event"",""trial"",""time""
""fullscreenenter"",""1"",""3806""
","
","
","""event"",""trial"",""time""
""fullscreenenter"",""1"",""3806""
","
","","","201.39999771118164","","","10","10859","5062","&#9784;","elianto","#FFFFF080"," "," ","1","&#10004","[1057.599998474121]","1","0","0","","","","","","","",""
"pit-trial","12","207590","0.0-2.0-4.4-0.4","battery-v0.2","","""event"",""trial"",""time""
""fullscreenenter"",""1"",""3806""
","
","
","""event"",""trial"",""time""
""fullscreenenter"",""1"",""3806""
","
","","","704.5","","","10","10859","5062","&#9784;","elianto","#FFFFF080"," "," ","1","&#10004","[1563.2000007629395]","1","0","0","","","","","","","",""
"pit-instructions","13","235378","0.0-2.0-5.0","battery-v0.2","","""event"",""trial"",""time""
""fullscreenenter"",""1"",""3806""
","
","
","""event"",""trial"",""time""
""fullscreenenter"",""1"",""3806""
","
","","[{""page_index"":0,""viewing_time"":9777.099998474121},{""page_index"":1,""viewing_time"":5788.200000762939},{""page_index"":2,""viewing_time"":6957.099998474121},{""page_index"":3,""viewing_time"":5263.900001525879}]","27786.59999847412","","","","","","","","","","","","","","","","","","","","","","","",""
"pit-trial","14","240241","0.0-2.0-6.0-0.0","battery-v0.2","","""event"",""trial"",""time""
""fullscreenenter"",""1"",""3806""
","
","
","""event"",""trial"",""time""
""fullscreenenter"",""1"",""3806""
","
","","","-1","","","10","10859","5062","&#9854;","elianto","#FFFFF080","-1","-1","1","&#10004","[]","0","0","1","","","","","","","",""
"pit-trial","15","245106","0.0-2.0-6.1-0.1","battery-v0.2","","""event"",""trial"",""time""
""fullscreenenter"",""1"",""3806""
","
","
","""event"",""trial"",""time""
""fullscreenenter"",""1"",""3806""
","
","","","-1","","","10","10859","5062","&#9854;","elianto","#FFFFF080","-1","-1","1","&#10004","[]","0","0","1","","","","","","","",""
"pit-trial","16","249967","0.0-2.0-6.2-0.2","battery-v0.2","","""event"",""trial"",""time""
""fullscreenenter"",""1"",""3806""
","
","
","""event"",""trial"",""time""
""fullscreenenter"",""1"",""3806""
","
","","","-1","","","10","10859","5062","&#9854;","elianto","#FFFFF080","-1","-1","1","&#10004","[]","0","0","1","","","","","","","",""
"pit-trial","17","254835","0.0-2.0-6.3-0.3","battery-v0.2","","""event"",""trial"",""time""
""fullscreenenter"",""1"",""3806""
","
","
","""event"",""trial"",""time""
""fullscreenenter"",""1"",""3806""
","
","","","-1","","","10","10859","5062","&#9854;","elianto","#FFFFF080","-1","-1","1","&#10004","[]","0","0","1","","","","","","","",""
"pit-trial","18","259692","0.0-2.0-6.4-0.4","battery-v0.2","","""event"",""trial"",""time""
""fullscreenenter"",""1"",""3806""
","
","
","""event"",""trial"",""time""
""fullscreenenter"",""1"",""3806""
","
","","","-1","","","10","10859","5062","&#9854;","elianto","#FFFFF080","-1","-1","1","&#10004","[]","0","0","1","","","","","","","",""
"pit-instructions","19","380976","0.0-2.0-7.0","battery-v0.2","","""event"",""trial"",""time""
""fullscreenenter"",""1"",""3806""
","
","
","""event"",""trial"",""time""
""fullscreenenter"",""1"",""3806""
","
","","[{""page_index"":0,""viewing_time"":15163.20000076294},{""page_index"":1,""viewing_time"":7393.900001525879},{""page_index"":2,""viewing_time"":5873.299999237061},{""page_index"":3,""viewing_time"":6154.900001525879},{""page_index"":4,""viewing_time"":5083.099998474121},{""page_index"":5,""viewing_time"":5397.099998474121},{""page_index"":6,""viewing_time"":4258.900001525879},{""page_index"":7,""viewing_time"":8396.29999923706},{""page_index"":8,""viewing_time"":6313},{""page_index"":9,""viewing_time"":5851.799999237061},{""page_index"":10,""viewing_time"":6055},{""page_index"":11,""viewing_time"":4874.300003051758},{""page_index"":12,""viewing_time"":7289.799999237061},{""page_index"":13,""viewing_time"":7311.099998474121},{""page_index"":14,""viewing_time"":6313.200000762939},{""page_index"":15,""viewing_time"":6679.900001525879},{""page_index"":16,""viewing_time"":6107.199996948242},{""page_index"":17,""viewing_time"":6765.900001525879}]","121282.10000228882","","","","","","","","","","","","","","","","","","","","","","","",""
"pit-trial","20","384582","0.0-2.0-8.0-0.0","battery-v0.2","","""event"",""trial"",""time""
""fullscreenenter"",""1"",""3806""
","
","
","""event"",""trial"",""time""
""fullscreenenter"",""1"",""3806""
","
","","","727","","","10","10859","5062","&#9776;","elianto","#3366ff99"," "," ","1","+10","[1591]","1","0","1","","","","","","","",""
"pit-trial","21","387849","0.0-2.0-8.0-1.0","battery-v0.2","","""event"",""trial"",""time""
""fullscreenenter"",""1"",""3806""
","
","
","""event"",""trial"",""time""
""fullscreenenter"",""1"",""3806""
","
","","","402","","","10","10859","5062","&#9776;","elianto","#3366ff99"," "," ","1","+10","[1253.7999992370605]","1","0","1","","","","","","","",""
"pit-trial","22","390954","0.0-2.0-8.0-2.0","battery-v0.2","","""event"",""trial"",""time""
""fullscreenenter"",""1"",""3806""
","
","
","""event"",""trial"",""time""
""fullscreenenter"",""1"",""3806""
","
","","","237.5999984741211","","","10","10859","5062","&#9776;","elianto","#3366ff99"," "," ","1","+10","[1091]","1","0","1","","","","","","","",""
"pit-trial","23","394438","0.0-2.0-8.0-3.0","battery-v0.2","","""event"",""trial"",""time""
""fullscreenenter"",""1"",""3806""
","
","
","""event"",""trial"",""time""
""fullscreenenter"",""1"",""3806""
","
","","","614.1999969482422","","","10","10859","5062","&#9776;","elianto","#3366ff99"," "," ","1","0","[1476.599998474121]","1","0","1","","","","","","","",""
"pit-trial","24","397630","0.0-2.0-8.0-4.0","battery-v0.2","","""event"",""trial"",""time""
""fullscreenenter"",""1"",""3806""
","
","
","""event"",""trial"",""time""
""fullscreenenter"",""1"",""3806""
","
","","","320.4000015258789","","","10","10859","5062","&#9776;","elianto","#3366ff99"," "," ","1","+10","[1182.1000022888184]","1","0","1","","","","","","","",""
"pit-trial","25","400868","0.0-2.0-8.1-0.1","battery-v0.2","","""event"",""trial"",""time""
""fullscreenenter"",""1"",""3806""
","
","
","""event"",""trial"",""time""
""fullscreenenter"",""1"",""3806""
","
","","","380","","","10","10859","5062","&#9776;","elianto","#3366ff99"," "," ","1","+10","[1231.5]","1","0","1","","","","","","","",""
"pit-trial","26","404417","0.0-2.0-8.1-1.1","battery-v0.2","","""event"",""trial"",""time""
""fullscreenenter"",""1"",""3806""
","
","
","""event"",""trial"",""time""
""fullscreenenter"",""1"",""3806""
","
","","","678.4000015258789","","","10","10859","5062","&#9776;","elianto","#3366ff99"," "," ","1","+10","[1539]","1","0","1","","","","","","","",""
"pit-trial","27","407974","0.0-2.0-8.1-2.1","battery-v0.2","","""event"",""trial"",""time""
""fullscreenenter"",""1"",""3806""
","
","
","""event"",""trial"",""time""
""fullscreenenter"",""1"",""3806""
","
","","","680.8000030517578","","","10","10859","5062","&#9776;","elianto","#3366ff99"," "," ","1","+10","[1542]","1","0","1","","","","","","","",""
"pit-trial","28","410918","0.0-2.0-8.1-3.1","battery-v0.2","","""event"",""trial"",""time""
""fullscreenenter"",""1"",""3806""
","
","
","""event"",""trial"",""time""
""fullscreenenter"",""1"",""3806""
","
","","","88.79999923706055","","","10","10859","5062","&#9776;","elianto","#3366ff99"," "," ","1","0","[940.5]","1","0","1","","","","","","","",""
"pit-trial","29","414091","0.0-2.0-8.1-4.1","battery-v0.2","","""event"",""trial"",""time""
""fullscreenenter"",""1"",""3806""
","
","
","""event"",""trial"",""time""
""fullscreenenter"",""1"",""3806""
","
","","","321","","","10","10859","5062","&#9776;","elianto","#3366ff99"," "," ","1","+10","[1171.7999992370605]","1","0","1","","","","","","","",""
"pit-trial","30","417538","0.0-2.0-8.2-0.2","battery-v0.2","","""event"",""trial"",""time""
""fullscreenenter"",""1"",""3806""
","
","
","""event"",""trial"",""time""
""fullscreenenter"",""1"",""3806""
","
","","","593","","","10","10859","5062","&#9776;","elianto","#3366ff99"," "," ","1","+10","[1444.2999992370605]","1","0","1","","","","","","","",""
"pit-trial","31","420609","0.0-2.0-8.2-1.2","battery-v0.2","","""event"",""trial"",""time""
""fullscreenenter"",""1"",""3806""
","
","
","""event"",""trial"",""time""
""fullscreenenter"",""1"",""3806""
","
","","","219","","","10","10859","5062","&#9776;","elianto","#3366ff99"," "," ","1","+10","[1069.2999992370605]","1","0","1","","","","","","","",""
"pit-trial","32","424020","0.0-2.0-8.2-2.2","battery-v0.2","","""event"",""trial"",""time""
""fullscreenenter"",""1"",""3806""
","
","
","""event"",""trial"",""time""
""fullscreenenter"",""1"",""3806""
","
","","","559","","","10","10859","5062","&#9776;","elianto","#3366ff99"," "," ","1","+10","[1409.7000007629395]","1","0","1","","","","","","","",""
"pit-trial","33","427331","0.0-2.0-8.2-3.2","battery-v0.2","","""event"",""trial"",""time""
""fullscreenenter"",""1"",""3806""
","
","
","""event"",""trial"",""time""
""fullscreenenter"",""1"",""3806""
","
","","","458.0999984741211","","","10","10859","5062","&#9776;","elianto","#3366ff99"," "," ","1","0","[1308.599998474121]","1","0","1","","","","","","","",""
"pit-trial","34","430865","0.0-2.0-8.2-4.2","battery-v0.2","","""event"",""trial"",""time""
""fullscreenenter"",""1"",""3806""
","
","
","""event"",""trial"",""time""
""fullscreenenter"",""1"",""3806""
","
","","","680.7999992370605","","","10","10859","5062","&#9776;","elianto","#3366ff99"," "," ","1","+10","[1531.7999992370605]","1","0","1","","","","","","","",""
"call-function","35","430866","0.0-2.0-9.0","battery-v0.2","","""event"",""trial"",""time""
""fullscreenenter"",""1"",""3806""
""blur"",""36"",""439424""
""focus"",""36"",""442857""
","""event"",""trial"",""time""
""blur"",""36"",""439424""
","""event"",""trial"",""time""
""focus"",""36"",""442857""
","""event"",""trial"",""time""
""fullscreenenter"",""1"",""3806""
","
","","","","","","","","","","","","","","","","","","","","","","","","","","",""
"pit-instructions","36","480959","0.0-2.0-10.0","battery-v0.2","","""event"",""trial"",""time""
""fullscreenenter"",""1"",""3806""
""blur"",""36"",""439424""
""focus"",""36"",""442857""
","""event"",""trial"",""time""
""blur"",""36"",""439424""
","""event"",""trial"",""time""
""focus"",""36"",""442857""
","""event"",""trial"",""time""
""fullscreenenter"",""1"",""3806""
","
","","[{""page_index"":0,""viewing_time"":12110.5},{""page_index"":1,""viewing_time"":9345.70000076294},{""page_index"":2,""viewing_time"":12401.599998474121},{""page_index"":3,""viewing_time"":8788.099998474121},{""page_index"":4,""viewing_time"":7447}]","50093.09999847412","","","","","","","","","","","","","","","","","","","","","","","",""
"pit-trial","37","485822","0.0-2.0-11.0-0.0","battery-v0.2","","""event"",""trial"",""time""
""fullscreenenter"",""1"",""3806""
""blur"",""36"",""439424""
""focus"",""36"",""442857""
","""event"",""trial"",""time""
""blur"",""36"",""439424""
","""event"",""trial"",""time""
""focus"",""36"",""442857""
","""event"",""trial"",""time""
""fullscreenenter"",""1"",""3806""
","
","","","-1","","","10","10859","5062","&#9761;","elianto","#3366ff99","-1","-1","1","+10","[]","0","0","2","","","","","","","",""
"pit-trial","38","490689","0.0-2.0-11.0-1.0","battery-v0.2","","""event"",""trial"",""time""
""fullscreenenter"",""1"",""3806""
""blur"",""36"",""439424""
""focus"",""36"",""442857""
","""event"",""trial"",""time""
""blur"",""36"",""439424""
","""event"",""trial"",""time""
""focus"",""36"",""442857""
","""event"",""trial"",""time""
""fullscreenenter"",""1"",""3806""
","
","","","-1","","","10","10859","5062","&#9761;","elianto","#3366ff99","-1","-1","1","+10","[]","0","0","2","","","","","","","",""
"pit-trial","39","495545","0.0-2.0-11.0-2.0","battery-v0.2","","""event"",""trial"",""time""
""fullscreenenter"",""1"",""3806""
""blur"",""36"",""439424""
""focus"",""36"",""442857""
","""event"",""trial"",""time""
""blur"",""36"",""439424""
","""event"",""trial"",""time""
""focus"",""36"",""442857""
","""event"",""trial"",""time""
""fullscreenenter"",""1"",""3806""
","
","","","-1","","","10","10859","5062","&#9761;","elianto","#3366ff99","-1","-1","1","+10","[]","0","0","2","","","","","","","",""
"pit-trial","40","500417","0.0-2.0-11.0-3.0","battery-v0.2","","""event"",""trial"",""time""
""fullscreenenter"",""1"",""3806""
""blur"",""36"",""439424""
""focus"",""36"",""442857""
","""event"",""trial"",""time""
""blur"",""36"",""439424""
","""event"",""trial"",""time""
""focus"",""36"",""442857""
","""event"",""trial"",""time""
""fullscreenenter"",""1"",""3806""
","
","","","-1","","","10","10859","5062","&#9761;","elianto","#3366ff99","-1","-1","1","0","[]","0","0","2","","","","","","","",""
"pit-trial","41","505292","0.0-2.0-11.0-4.0","battery-v0.2","","""event"",""trial"",""time""
""fullscreenenter"",""1"",""3806""
""blur"",""36"",""439424""
""focus"",""36"",""442857""
","""event"",""trial"",""time""
""blur"",""36"",""439424""
","""event"",""trial"",""time""
""focus"",""36"",""442857""
","""event"",""trial"",""time""
""fullscreenenter"",""1"",""3806""
","
","","","-1","","","10","10859","5062","&#9761;","elianto","#3366ff99","-1","-1","1","+10","[]","0","0","2","","","","","","","",""
"pit-trial","42","510165","0.0-2.0-11.1-0.1","battery-v0.2","","""event"",""trial"",""time""
""fullscreenenter"",""1"",""3806""
""blur"",""36"",""439424""
""focus"",""36"",""442857""
","""event"",""trial"",""time""
""blur"",""36"",""439424""
","""event"",""trial"",""time""
""focus"",""36"",""442857""
","""event"",""trial"",""time""
""fullscreenenter"",""1"",""3806""
","
","","","-1","","","10","10859","5062","&#9761;","elianto","#3366ff99","-1","-1","1","+10","[]","0","0","2","","","","","","","",""
"pit-trial","43","515017","0.0-2.0-11.1-1.1","battery-v0.2","","""event"",""trial"",""time""
""fullscreenenter"",""1"",""3806""
""blur"",""36"",""439424""
""focus"",""36"",""442857""
","""event"",""trial"",""time""
""blur"",""36"",""439424""
","""event"",""trial"",""time""
""focus"",""36"",""442857""
","""event"",""trial"",""time""
""fullscreenenter"",""1"",""3806""
","
","","","-1","","","10","10859","5062","&#9761;","elianto","#3366ff99","-1","-1","1","+10","[]","0","0","2","","","","","","","",""
"pit-trial","44","519870","0.0-2.0-11.1-2.1","battery-v0.2","","""event"",""trial"",""time""
""fullscreenenter"",""1"",""3806""
""blur"",""36"",""439424""
""focus"",""36"",""442857""
","""event"",""trial"",""time""
""blur"",""36"",""439424""
","""event"",""trial"",""time""
""focus"",""36"",""442857""
","""event"",""trial"",""time""
""fullscreenenter"",""1"",""3806""
","
","","","-1","","","10","10859","5062","&#9761;","elianto","#3366ff99","-1","-1","1","+10","[]","0","0","2","","","","","","","",""
"pit-trial","45","524724","0.0-2.0-11.1-3.1","battery-v0.2","","""event"",""trial"",""time""
""fullscreenenter"",""1"",""3806""
""blur"",""36"",""439424""
""focus"",""36"",""442857""
","""event"",""trial"",""time""
""blur"",""36"",""439424""
","""event"",""trial"",""time""
""focus"",""36"",""442857""
","""event"",""trial"",""time""
""fullscreenenter"",""1"",""3806""
","
","","","-1","","","10","10859","5062","&#9761;","elianto","#3366ff99","-1","-1","1","0","[]","0","0","2","","","","","","","",""
"pit-trial","46","529576","0.0-2.0-11.1-4.1","battery-v0.2","","""event"",""trial"",""time""
""fullscreenenter"",""1"",""3806""
""blur"",""36"",""439424""
""focus"",""36"",""442857""
","""event"",""trial"",""time""
""blur"",""36"",""439424""
","""event"",""trial"",""time""
""focus"",""36"",""442857""
","""event"",""trial"",""time""
""fullscreenenter"",""1"",""3806""
","
","","","-1","","","10","10859","5062","&#9761;","elianto","#3366ff99","-1","-1","1","+10","[]","0","0","2","","","","","","","",""
"pit-trial","47","534430","0.0-2.0-11.2-0.2","battery-v0.2","","""event"",""trial"",""time""
""fullscreenenter"",""1"",""3806""
""blur"",""36"",""439424""
""focus"",""36"",""442857""
","""event"",""trial"",""time""
""blur"",""36"",""439424""
","""event"",""trial"",""time""
""focus"",""36"",""442857""
","""event"",""trial"",""time""
""fullscreenenter"",""1"",""3806""
","
","","","-1","","","10","10859","5062","&#9761;","elianto","#3366ff99","-1","-1","1","+10","[]","0","0","2","","","","","","","",""
"pit-trial","48","539282","0.0-2.0-11.2-1.2","battery-v0.2","","""event"",""trial"",""time""
""fullscreenenter"",""1"",""3806""
""blur"",""36"",""439424""
""focus"",""36"",""442857""
","""event"",""trial"",""time""
""blur"",""36"",""439424""
","""event"",""trial"",""time""
""focus"",""36"",""442857""
","""event"",""trial"",""time""
""fullscreenenter"",""1"",""3806""
","
","","","-1","","","10","10859","5062","&#9761;","elianto","#3366ff99","-1","-1","1","+10","[]","0","0","2","","","","","","","",""
"pit-trial","49","544137","0.0-2.0-11.2-2.2","battery-v0.2","","""event"",""trial"",""time""
""fullscreenenter"",""1"",""3806""
""blur"",""36"",""439424""
""focus"",""36"",""442857""
","""event"",""trial"",""time""
""blur"",""36"",""439424""
","""event"",""trial"",""time""
""focus"",""36"",""442857""
","""event"",""trial"",""time""
""fullscreenenter"",""1"",""3806""
","
","","","-1","","","10","10859","5062","&#9761;","elianto","#3366ff99","-1","-1","1","+10","[]","0","0","2","","","","","","","",""
"pit-trial","50","548989","0.0-2.0-11.2-3.2","battery-v0.2","","""event"",""trial"",""time""
""fullscreenenter"",""1"",""3806""
""blur"",""36"",""439424""
""focus"",""36"",""442857""
","""event"",""trial"",""time""
""blur"",""36"",""439424""
","""event"",""trial"",""time""
""focus"",""36"",""442857""
","""event"",""trial"",""time""
""fullscreenenter"",""1"",""3806""
","
","","","-1","","","10","10859","5062","&#9761;","elianto","#3366ff99","-1","-1","1","0","[]","0","0","2","","","","","","","",""
"pit-trial","51","553842","0.0-2.0-11.2-4.2","battery-v0.2","","""event"",""trial"",""time""
""fullscreenenter"",""1"",""3806""
""blur"",""36"",""439424""
""focus"",""36"",""442857""
","""event"",""trial"",""time""
""blur"",""36"",""439424""
","""event"",""trial"",""time""
""focus"",""36"",""442857""
","""event"",""trial"",""time""
""fullscreenenter"",""1"",""3806""
","
","","","-1","","","10","10859","5062","&#9761;","elianto","#3366ff99","-1","-1","1","+10","[]","0","0","2","","","","","","","",""
"pit-trial","52","558697","0.0-2.0-11.3-0.3","battery-v0.2","","""event"",""trial"",""time""
""fullscreenenter"",""1"",""3806""
""blur"",""36"",""439424""
""focus"",""36"",""442857""
","""event"",""trial"",""time""
""blur"",""36"",""439424""
","""event"",""trial"",""time""
""focus"",""36"",""442857""
","""event"",""trial"",""time""
""fullscreenenter"",""1"",""3806""
","
","","","-1","","","10","10859","5062","&#9761;","elianto","#3366ff99","-1","-1","1","+10","[]","0","0","2","","","","","","","",""
"pit-trial","53","563548","0.0-2.0-11.3-1.3","battery-v0.2","","""event"",""trial"",""time""
""fullscreenenter"",""1"",""3806""
""blur"",""36"",""439424""
""focus"",""36"",""442857""
","""event"",""trial"",""time""
""blur"",""36"",""439424""
","""event"",""trial"",""time""
""focus"",""36"",""442857""
","""event"",""trial"",""time""
""fullscreenenter"",""1"",""3806""
","
","","","-1","","","10","10859","5062","&#9761;","elianto","#3366ff99","-1","-1","1","+10","[]","0","0","2","","","","","","","",""
"pit-trial","54","568401","0.0-2.0-11.3-2.3","battery-v0.2","","""event"",""trial"",""time""
""fullscreenenter"",""1"",""3806""
""blur"",""36"",""439424""
""focus"",""36"",""442857""
","""event"",""trial"",""time""
""blur"",""36"",""439424""
","""event"",""trial"",""time""
""focus"",""36"",""442857""
","""event"",""trial"",""time""
""fullscreenenter"",""1"",""3806""
","
","","","-1","","","10","10859","5062","&#9761;","elianto","#3366ff99","-1","-1","1","+10","[]","0","0","2","","","","","","","",""
"pit-trial","55","573254","0.0-2.0-11.3-3.3","battery-v0.2","","""event"",""trial"",""time""
""fullscreenenter"",""1"",""3806""
""blur"",""36"",""439424""
""focus"",""36"",""442857""
","""event"",""trial"",""time""
""blur"",""36"",""439424""
","""event"",""trial"",""time""
""focus"",""36"",""442857""
","""event"",""trial"",""time""
""fullscreenenter"",""1"",""3806""
","
","","","-1","","","10","10859","5062","&#9761;","elianto","#3366ff99","-1","-1","1","0","[]","0","0","2","","","","","","","",""
"pit-trial","56","578107","0.0-2.0-11.3-4.3","battery-v0.2","","""event"",""trial"",""time""
""fullscreenenter"",""1"",""3806""
""blur"",""36"",""439424""
""focus"",""36"",""442857""
","""event"",""trial"",""time""
""blur"",""36"",""439424""
","""event"",""trial"",""time""
""focus"",""36"",""442857""
","""event"",""trial"",""time""
""fullscreenenter"",""1"",""3806""
","
","","","-1","","","10","10859","5062","&#9761;","elianto","#3366ff99","-1","-1","1","+10","[]","0","0","2","","","","","","","",""
"call-function","57","578108","0.0-2.0-12.0","battery-v0.2","","""event"",""trial"",""time""
""fullscreenenter"",""1"",""3806""
""blur"",""36"",""439424""
""focus"",""36"",""442857""
","""event"",""trial"",""time""
""blur"",""36"",""439424""
","""event"",""trial"",""time""
""focus"",""36"",""442857""
","""event"",""trial"",""time""
""fullscreenenter"",""1"",""3806""
","
","","","","","","","","","","","","","","","","","","","","","","","","","","",""
"pit-instructions","58","610149","0.0-2.0-13.0","battery-v0.2","","""event"",""trial"",""time""
""fullscreenenter"",""1"",""3806""
""blur"",""36"",""439424""
""focus"",""36"",""442857""
","""event"",""trial"",""time""
""blur"",""36"",""439424""
","""event"",""trial"",""time""
""focus"",""36"",""442857""
","""event"",""trial"",""time""
""fullscreenenter"",""1"",""3806""
","
","","[{""page_index"":0,""viewing_time"":5444.199996948242},{""page_index"":1,""viewing_time"":8687.20000076294},{""page_index"":2,""viewing_time"":3130},{""page_index"":3,""viewing_time"":10095.79999923706},{""page_index"":4,""viewing_time"":4683.400001525879}]","32040.79999923706","","","","","","","","","","","","","","","","","","","","","","","",""
"pit-trial","59","613450","0.0-2.0-14.0-0.0","battery-v0.2","","""event"",""trial"",""time""
""fullscreenenter"",""1"",""3806""
""blur"",""36"",""439424""
""focus"",""36"",""442857""
","""event"",""trial"",""time""
""blur"",""36"",""439424""
","""event"",""trial"",""time""
""focus"",""36"",""442857""
","""event"",""trial"",""time""
""fullscreenenter"",""1"",""3806""
","
","","","430.20000076293945","","","10","10859","5062","&#9826;","elianto","#f73b6a7A","-1"," ","0","-10","[1284.7000007629395]","1","0","3","","","","","","","",""
"pit-trial","60","618320","0.0-2.0-14.0-1.0","battery-v0.2","","""event"",""trial"",""time""
""fullscreenenter"",""1"",""3806""
""blur"",""36"",""439424""
""focus"",""36"",""442857""
","""event"",""trial"",""time""
""blur"",""36"",""439424""
","""event"",""trial"",""time""
""focus"",""36"",""442857""
","""event"",""trial"",""time""
""fullscreenenter"",""1"",""3806""
","
","","","-1","","","10","10859","5062","&#9826;","elianto","#f73b6a7A","-1","-1","1","0","[]","0","0","3","","","","","","","",""
"pit-trial","61","623177","0.0-2.0-14.0-2.0","battery-v0.2","","""event"",""trial"",""time""
""fullscreenenter"",""1"",""3806""
""blur"",""36"",""439424""
""focus"",""36"",""442857""
","""event"",""trial"",""time""
""blur"",""36"",""439424""
","""event"",""trial"",""time""
""focus"",""36"",""442857""
","""event"",""trial"",""time""
""fullscreenenter"",""1"",""3806""
","
","","","-1","","","10","10859","5062","&#9826;","elianto","#f73b6a7A","-1","-1","1","0","[]","0","0","3","","","","","","","",""
"pit-trial","62","628050","0.0-2.0-14.0-3.0","battery-v0.2","","""event"",""trial"",""time""
""fullscreenenter"",""1"",""3806""
""blur"",""36"",""439424""
""focus"",""36"",""442857""
","""event"",""trial"",""time""
""blur"",""36"",""439424""
","""event"",""trial"",""time""
""focus"",""36"",""442857""
","""event"",""trial"",""time""
""fullscreenenter"",""1"",""3806""
","
","","","-1","","","10","10859","5062","&#9826;","elianto","#f73b6a7A","-1","-1","1","-10","[]","0","0","3","","","","","","","",""
"pit-trial","63","632930","0.0-2.0-14.0-4.0","battery-v0.2","","""event"",""trial"",""time""
""fullscreenenter"",""1"",""3806""
""blur"",""36"",""439424""
""focus"",""36"",""442857""
","""event"",""trial"",""time""
""blur"",""36"",""439424""
","""event"",""trial"",""time""
""focus"",""36"",""442857""
","""event"",""trial"",""time""
""fullscreenenter"",""1"",""3806""
","
","","","-1","","","10","10859","5062","&#9826;","elianto","#f73b6a7A","-1","-1","1","0","[]","0","0","3","","","","","","","",""
"pit-trial","64","637807","0.0-2.0-14.1-0.1","battery-v0.2","","""event"",""trial"",""time""
""fullscreenenter"",""1"",""3806""
""blur"",""36"",""439424""
""focus"",""36"",""442857""
","""event"",""trial"",""time""
""blur"",""36"",""439424""
","""event"",""trial"",""time""
""focus"",""36"",""442857""
","""event"",""trial"",""time""
""fullscreenenter"",""1"",""3806""
","
","","","-1","","","10","10859","5062","&#9826;","elianto","#f73b6a7A","-1","-1","1","0","[]","0","0","3","","","","","","","",""
"pit-trial","65","642659","0.0-2.0-14.1-1.1","battery-v0.2","","""event"",""trial"",""time""
""fullscreenenter"",""1"",""3806""
""blur"",""36"",""439424""
""focus"",""36"",""442857""
","""event"",""trial"",""time""
""blur"",""36"",""439424""
","""event"",""trial"",""time""
""focus"",""36"",""442857""
","""event"",""trial"",""time""
""fullscreenenter"",""1"",""3806""
","
","","","-1","","","10","10859","5062","&#9826;","elianto","#f73b6a7A","-1","-1","1","0","[]","0","0","3","","","","","","","",""
"pit-trial","66","647512","0.0-2.0-14.1-2.1","battery-v0.2","","""event"",""trial"",""time""
""fullscreenenter"",""1"",""3806""
""blur"",""36"",""439424""
""focus"",""36"",""442857""
","""event"",""trial"",""time""
""blur"",""36"",""439424""
","""event"",""trial"",""time""
""focus"",""36"",""442857""
","""event"",""trial"",""time""
""fullscreenenter"",""1"",""3806""
","
","","","-1","","","10","10859","5062","&#9826;","elianto","#f73b6a7A","-1","-1","1","0","[]","0","0","3","","","","","","","",""
"pit-trial","67","652364","0.0-2.0-14.1-3.1","battery-v0.2","","""event"",""trial"",""time""
""fullscreenenter"",""1"",""3806""
""blur"",""36"",""439424""
""focus"",""36"",""442857""
","""event"",""trial"",""time""
""blur"",""36"",""439424""
","""event"",""trial"",""time""
""focus"",""36"",""442857""
","""event"",""trial"",""time""
""fullscreenenter"",""1"",""3806""
","
","","","-1","","","10","10859","5062","&#9826;","elianto","#f73b6a7A","-1","-1","1","-10","[]","0","0","3","","","","","","","",""
"pit-trial","68","657216","0.0-2.0-14.1-4.1","battery-v0.2","","""event"",""trial"",""time""
""fullscreenenter"",""1"",""3806""
""blur"",""36"",""439424""
""focus"",""36"",""442857""
","""event"",""trial"",""time""
""blur"",""36"",""439424""
","""event"",""trial"",""time""
""focus"",""36"",""442857""
","""event"",""trial"",""time""
""fullscreenenter"",""1"",""3806""
","
","","","-1","","","10","10859","5062","&#9826;","elianto","#f73b6a7A","-1","-1","1","0","[]","0","0","3","","","","","","","",""
"pit-trial","69","662068","0.0-2.0-14.2-0.2","battery-v0.2","","""event"",""trial"",""time""
""fullscreenenter"",""1"",""3806""
""blur"",""36"",""439424""
""focus"",""36"",""442857""
","""event"",""trial"",""time""
""blur"",""36"",""439424""
","""event"",""trial"",""time""
""focus"",""36"",""442857""
","""event"",""trial"",""time""
""fullscreenenter"",""1"",""3806""
","
","","","-1","","","10","10859","5062","&#9826;","elianto","#f73b6a7A","-1","-1","1","0","[]","0","0","3","","","","","","","",""
"pit-trial","70","666921","0.0-2.0-14.2-1.2","battery-v0.2","","""event"",""trial"",""time""
""fullscreenenter"",""1"",""3806""
""blur"",""36"",""439424""
""focus"",""36"",""442857""
","""event"",""trial"",""time""
""blur"",""36"",""439424""
","""event"",""trial"",""time""
""focus"",""36"",""442857""
","""event"",""trial"",""time""
""fullscreenenter"",""1"",""3806""
","
","","","-1","","","10","10859","5062","&#9826;","elianto","#f73b6a7A","-1","-1","1","0","[]","0","0","3","","","","","","","",""
"pit-trial","71","671774","0.0-2.0-14.2-2.2","battery-v0.2","","""event"",""trial"",""time""
""fullscreenenter"",""1"",""3806""
""blur"",""36"",""439424""
""focus"",""36"",""442857""
","""event"",""trial"",""time""
""blur"",""36"",""439424""
","""event"",""trial"",""time""
""focus"",""36"",""442857""
","""event"",""trial"",""time""
""fullscreenenter"",""1"",""3806""
","
","","","-1","","","10","10859","5062","&#9826;","elianto","#f73b6a7A","-1","-1","1","0","[]","0","0","3","","","","","","","",""
"pit-trial","72","676626","0.0-2.0-14.2-3.2","battery-v0.2","","""event"",""trial"",""time""
""fullscreenenter"",""1"",""3806""
""blur"",""36"",""439424""
""focus"",""36"",""442857""
","""event"",""trial"",""time""
""blur"",""36"",""439424""
","""event"",""trial"",""time""
""focus"",""36"",""442857""
","""event"",""trial"",""time""
""fullscreenenter"",""1"",""3806""
","
","","","-1","","","10","10859","5062","&#9826;","elianto","#f73b6a7A","-1","-1","1","-10","[]","0","0","3","","","","","","","",""
"pit-trial","73","681478","0.0-2.0-14.2-4.2","battery-v0.2","","""event"",""trial"",""time""
""fullscreenenter"",""1"",""3806""
""blur"",""36"",""439424""
""focus"",""36"",""442857""
","""event"",""trial"",""time""
""blur"",""36"",""439424""
","""event"",""trial"",""time""
""focus"",""36"",""442857""
","""event"",""trial"",""time""
""fullscreenenter"",""1"",""3806""
","
","","","-1","","","10","10859","5062","&#9826;","elianto","#f73b6a7A","-1","-1","1","0","[]","0","0","3","","","","","","","",""
"pit-trial","74","686331","0.0-2.0-14.3-0.3","battery-v0.2","","""event"",""trial"",""time""
""fullscreenenter"",""1"",""3806""
""blur"",""36"",""439424""
""focus"",""36"",""442857""
","""event"",""trial"",""time""
""blur"",""36"",""439424""
","""event"",""trial"",""time""
""focus"",""36"",""442857""
","""event"",""trial"",""time""
""fullscreenenter"",""1"",""3806""
","
","","","-1","","","10","10859","5062","&#9826;","elianto","#f73b6a7A","-1","-1","1","0","[]","0","0","3","","","","","","","",""
"pit-trial","75","691183","0.0-2.0-14.3-1.3","battery-v0.2","","""event"",""trial"",""time""
""fullscreenenter"",""1"",""3806""
""blur"",""36"",""439424""
""focus"",""36"",""442857""
","""event"",""trial"",""time""
""blur"",""36"",""439424""
","""event"",""trial"",""time""
""focus"",""36"",""442857""
","""event"",""trial"",""time""
""fullscreenenter"",""1"",""3806""
","
","","","-1","","","10","10859","5062","&#9826;","elianto","#f73b6a7A","-1","-1","1","0","[]","0","0","3","","","","","","","",""
"pit-trial","76","696035","0.0-2.0-14.3-2.3","battery-v0.2","","""event"",""trial"",""time""
""fullscreenenter"",""1"",""3806""
""blur"",""36"",""439424""
""focus"",""36"",""442857""
","""event"",""trial"",""time""
""blur"",""36"",""439424""
","""event"",""trial"",""time""
""focus"",""36"",""442857""
","""event"",""trial"",""time""
""fullscreenenter"",""1"",""3806""
","
","","","-1","","","10","10859","5062","&#9826;","elianto","#f73b6a7A","-1","-1","1","0","[]","0","0","3","","","","","","","",""
"pit-trial","77","700888","0.0-2.0-14.3-3.3","battery-v0.2","","""event"",""trial"",""time""
""fullscreenenter"",""1"",""3806""
""blur"",""36"",""439424""
""focus"",""36"",""442857""
","""event"",""trial"",""time""
""blur"",""36"",""439424""
","""event"",""trial"",""time""
""focus"",""36"",""442857""
","""event"",""trial"",""time""
""fullscreenenter"",""1"",""3806""
","
","","","-1","","","10","10859","5062","&#9826;","elianto","#f73b6a7A","-1","-1","1","-10","[]","0","0","3","","","","","","","",""
"pit-trial","78","705741","0.0-2.0-14.3-4.3","battery-v0.2","","""event"",""trial"",""time""
""fullscreenenter"",""1"",""3806""
""blur"",""36"",""439424""
""focus"",""36"",""442857""
","""event"",""trial"",""time""
""blur"",""36"",""439424""
","""event"",""trial"",""time""
""focus"",""36"",""442857""
","""event"",""trial"",""time""
""fullscreenenter"",""1"",""3806""
","
","","","-1","","","10","10859","5062","&#9826;","elianto","#f73b6a7A","-1","-1","1","0","[]","0","0","3","","","","","","","",""
"call-function","79","705742","0.0-2.0-15.0","battery-v0.2","","""event"",""trial"",""time""
""fullscreenenter"",""1"",""3806""
""blur"",""36"",""439424""
""focus"",""36"",""442857""
","""event"",""trial"",""time""
""blur"",""36"",""439424""
","""event"",""trial"",""time""
""focus"",""36"",""442857""
","""event"",""trial"",""time""
""fullscreenenter"",""1"",""3806""
","
","","","","","","","","","","","","","","","","","","","","","","","","","","",""
"pit-instructions","80","736668","0.0-2.0-16.0","battery-v0.2","","""event"",""trial"",""time""
""fullscreenenter"",""1"",""3806""
""blur"",""36"",""439424""
""focus"",""36"",""442857""
","""event"",""trial"",""time""
""blur"",""36"",""439424""
","""event"",""trial"",""time""
""focus"",""36"",""442857""
","""event"",""trial"",""time""
""fullscreenenter"",""1"",""3806""
","
","","[{""page_index"":0,""viewing_time"":13372.900001525879},{""page_index"":1,""viewing_time"":8189.899997711182},{""page_index"":2,""viewing_time"":4621.300003051758},{""page_index"":3,""viewing_time"":4742}]","30926.40000152588","","","","","","","","","","","","","","","","","","","","","","","",""
"pit-trial","81","739978","0.0-2.0-17.0-0.0","battery-v0.2","","""event"",""trial"",""time""
""fullscreenenter"",""1"",""3806""
""blur"",""36"",""439424""
""focus"",""36"",""442857""
","""event"",""trial"",""time""
""blur"",""36"",""439424""
","""event"",""trial"",""time""
""focus"",""36"",""442857""
","""event"",""trial"",""time""
""fullscreenenter"",""1"",""3806""
","
","","","452.9000015258789","","","10","10859","5062","&#9789;","elianto","#f73b6a7A"," "," ","1","0","[1303]","1","0","4","","","","","","","",""
"pit-trial","82","743191","0.0-2.0-17.0-1.0","battery-v0.2","","""event"",""trial"",""time""
""fullscreenenter"",""1"",""3806""
""blur"",""36"",""439424""
""focus"",""36"",""442857""
","""event"",""trial"",""time""
""blur"",""36"",""439424""
","""event"",""trial"",""time""
""focus"",""36"",""442857""
","""event"",""trial"",""time""
""fullscreenenter"",""1"",""3806""
","
","","","356.89999771118164","","","10","10859","5062","&#9789;","elianto","#f73b6a7A"," "," ","1","0","[1209.2999992370605]","1","0","4","","","","","","","",""
"pit-trial","83","746600","0.0-2.0-17.0-2.0","battery-v0.2","","""event"",""trial"",""time""
""fullscreenenter"",""1"",""3806""
""blur"",""36"",""439424""
""focus"",""36"",""442857""
","""event"",""trial"",""time""
""blur"",""36"",""439424""
","""event"",""trial"",""time""
""focus"",""36"",""442857""
","""event"",""trial"",""time""
""fullscreenenter"",""1"",""3806""
","
","","","551.7000007629395","","","10","10859","5062","&#9789;","elianto","#f73b6a7A"," "," ","1","0","[1407]","1","0","4","","","","","","","",""
"pit-trial","84","749663","0.0-2.0-17.0-3.0","battery-v0.2","","""event"",""trial"",""time""
""fullscreenenter"",""1"",""3806""
""blur"",""36"",""439424""
""focus"",""36"",""442857""
","""event"",""trial"",""time""
""blur"",""36"",""439424""
","""event"",""trial"",""time""
""focus"",""36"",""442857""
","""event"",""trial"",""time""
""fullscreenenter"",""1"",""3806""
","
","","","195.5","","","10","10859","5062","&#9789;","elianto","#f73b6a7A"," "," ","1","-10","[1052.400001525879]","1","0","4","","","","","","","",""
"pit-trial","85","752734","0.0-2.0-17.0-4.0","battery-v0.2","","""event"",""trial"",""time""
""fullscreenenter"",""1"",""3806""
""blur"",""36"",""439424""
""focus"",""36"",""442857""
","""event"",""trial"",""time""
""blur"",""36"",""439424""
","""event"",""trial"",""time""
""focus"",""36"",""442857""
","""event"",""trial"",""time""
""fullscreenenter"",""1"",""3806""
","
","","","202.5","","","10","10859","5062","&#9789;","elianto","#f73b6a7A"," "," ","1","0","[1057.400001525879]","1","0","4","","","","","","","",""
"pit-trial","86","755756","0.0-2.0-17.1-0.1","battery-v0.2","","""event"",""trial"",""time""
""fullscreenenter"",""1"",""3806""
""blur"",""36"",""439424""
""focus"",""36"",""442857""
","""event"",""trial"",""time""
""blur"",""36"",""439424""
","""event"",""trial"",""time""
""focus"",""36"",""442857""
","""event"",""trial"",""time""
""fullscreenenter"",""1"",""3806""
","
","","","159.5","","","10","10859","5062","&#9789;","elianto","#f73b6a7A"," "," ","1","0","[1016.5]","1","0","4","","","","","","","",""
"pit-trial","87","759056","0.0-2.0-17.1-1.1","battery-v0.2","","""event"",""trial"",""time""
""fullscreenenter"",""1"",""3806""
""blur"",""36"",""439424""
""focus"",""36"",""442857""
","""event"",""trial"",""time""
""blur"",""36"",""439424""
","""event"",""trial"",""time""
""focus"",""36"",""442857""
","""event"",""trial"",""time""
""fullscreenenter"",""1"",""3806""
","
","","","438.29999923706055","","","10","10859","5062","&#9789;","elianto","#f73b6a7A"," "," ","1","0","[829.6000022888184,1288.400001525879]","2","0","4","","","","","","","",""
"pit-trial","88","762030","0.0-2.0-17.1-2.1","battery-v0.2","","""event"",""trial"",""time""
""fullscreenenter"",""1"",""3806""
""blur"",""36"",""439424""
""focus"",""36"",""442857""
","""event"",""trial"",""time""
""blur"",""36"",""439424""
","""event"",""trial"",""time""
""focus"",""36"",""442857""
","""event"",""trial"",""time""
""fullscreenenter"",""1"",""3806""
","
","","","111.5","","","10","10859","5062","&#9789;","elianto","#f73b6a7A"," "," ","1","0","[419.60000228881836,604.8000030517578,794.2000007629395,969.1000022888184,1157,2912.300003051758]","6","0","4","","","","","","","",""
"pit-trial","89","765656","0.0-2.0-17.1-3.1","battery-v0.2","","""event"",""trial"",""time""
""fullscreenenter"",""1"",""3806""
""blur"",""36"",""439424""
""focus"",""36"",""442857""
","""event"",""trial"",""time""
""blur"",""36"",""439424""
","""event"",""trial"",""time""
""focus"",""36"",""442857""
","""event"",""trial"",""time""
""fullscreenenter"",""1"",""3806""
","
","","","770","","","10","10859","5062","&#9789;","elianto","#f73b6a7A"," "," ","1","-10","[1621.900001525879,1791.7999992370605,1977.7999992370605,2171.7000007629395,2372.7999992370605,2551.7999992370605,2782.5,3160.400001525879,3624.900001525879]","9","0","4","","","","","","","",""
"pit-trial","90","769329","0.0-2.0-17.1-4.1","battery-v0.2","","""event"",""trial"",""time""
""fullscreenenter"",""1"",""3806""
""blur"",""36"",""439424""
""focus"",""36"",""442857""
","""event"",""trial"",""time""
""blur"",""36"",""439424""
","""event"",""trial"",""time""
""focus"",""36"",""442857""
","""event"",""trial"",""time""
""fullscreenenter"",""1"",""3806""
","
","","","810.5","","","10","10859","5062","&#9789;","elianto","#f73b6a7A"," "," ","1","0","[445.70000076293945,847.5999984741211,1670.900001525879,1829.2999992370605,2078.099998474121,2506.2000007629395,2809.7000007629395,3184.7999992370605]","8","0","4","","","","","","","",""
"pit-trial","91","772467","0.0-2.0-17.2-0.2","battery-v0.2","","""event"",""trial"",""time""
""fullscreenenter"",""1"",""3806""
""blur"",""36"",""439424""
""focus"",""36"",""442857""
","""event"",""trial"",""time""
""blur"",""36"",""439424""
","""event"",""trial"",""time""
""focus"",""36"",""442857""
","""event"",""trial"",""time""
""fullscreenenter"",""1"",""3806""
","
","","","285.70000076293945","","","10","10859","5062","&#9789;","elianto","#f73b6a7A"," "," ","1","0","[522.6000022888184,1136.1000022888184,1723.7999992370605,1899.400001525879,2148.400001525879,2431.7000007629395,2647.2000007629395,2915]","8","0","4","","","","","","","",""
"pit-trial","92","775404","0.0-2.0-17.2-1.2","battery-v0.2","","""event"",""trial"",""time""
""fullscreenenter"",""1"",""3806""
""blur"",""36"",""439424""
""focus"",""36"",""442857""
","""event"",""trial"",""time""
""blur"",""36"",""439424""
","""event"",""trial"",""time""
""focus"",""36"",""442857""
","""event"",""trial"",""time""
""fullscreenenter"",""1"",""3806""
","
","","","84.5","","","10","10859","5062","&#9789;","elianto","#f73b6a7A"," "," ","1","0","[27,210.10000228881836,321.70000076293945,934.8000030517578,1193.1000022888184,1422.1000022888184,1688.7000007629395,1879.5,2337]","9","0","4","","","","","","","",""
"pit-trial","93","778333","0.0-2.0-17.2-2.2","battery-v0.2","","""event"",""trial"",""time""
""fullscreenenter"",""1"",""3806""
""blur"",""36"",""439424""
""focus"",""36"",""442857""
","""event"",""trial"",""time""
""blur"",""36"",""439424""
","""event"",""trial"",""time""
""focus"",""36"",""442857""
","""event"",""trial"",""time""
""fullscreenenter"",""1"",""3806""
","
","","","77","","","10","10859","5062","&#9789;","elianto","#f73b6a7A"," "," ","1","0","[95.10000228881836,296.4000015258789,927.9000015258789,1512.1000022888184,2069,2478.900001525879]","6","0","4","","","","","","","",""
"pit-trial","94","781394","0.0-2.0-17.2-3.2","battery-v0.2","","""event"",""trial"",""time""
""fullscreenenter"",""1"",""3806""
""blur"",""36"",""439424""
""focus"",""36"",""442857""
","""event"",""trial"",""time""
""blur"",""36"",""439424""
","""event"",""trial"",""time""
""focus"",""36"",""442857""
","""event"",""trial"",""time""
""fullscreenenter"",""1"",""3806""
","
","","","210","","","10","10859","5062","&#9789;","elianto","#f73b6a7A"," "," ","1","-10","[25.5,614.0999984741211,1060.2999992370605,1908.2999992370605]","4","0","4","","","","","","","",""
"pit-trial","95","784706","0.0-2.0-17.2-4.2","battery-v0.2","","""event"",""trial"",""time""
""fullscreenenter"",""1"",""3806""
""blur"",""36"",""439424""
""focus"",""36"",""442857""
","""event"",""trial"",""time""
""blur"",""36"",""439424""
","""event"",""trial"",""time""
""focus"",""36"",""442857""
","""event"",""trial"",""time""
""fullscreenenter"",""1"",""3806""
","
","","","459.4000015258789","","","10","10859","5062","&#9789;","elianto","#f73b6a7A"," "," ","1","0","[177.39999771118164,784.5,1310,1530.099998474121,1769.099998474121,1947,2179.2999992370605]","7","0","4","","","","","","","",""
"pit-trial","96","787859","0.0-2.0-17.3-0.3","battery-v0.2","","""event"",""trial"",""time""
""fullscreenenter"",""1"",""3806""
""blur"",""36"",""439424""
""focus"",""36"",""442857""
","""event"",""trial"",""time""
""blur"",""36"",""439424""
","""event"",""trial"",""time""
""focus"",""36"",""442857""
","""event"",""trial"",""time""
""fullscreenenter"",""1"",""3806""
","
","","","300.4000015258789","","","10","10859","5062","&#9789;","elianto","#f73b6a7A"," "," ","1","0","[630.5,1150.7000007629395,1357.099998474121,1622.3999977111816,1804.3999977111816,2508.7999992370605,2733.8999977111816,2982.599998474121]","8","0","4","","","","","","","",""
"pit-trial","97","791169","0.0-2.0-17.3-1.3","battery-v0.2","","""event"",""trial"",""time""
""fullscreenenter"",""1"",""3806""
""blur"",""36"",""439424""
""focus"",""36"",""442857""
","""event"",""trial"",""time""
""blur"",""36"",""439424""
","""event"",""trial"",""time""
""focus"",""36"",""442857""
","""event"",""trial"",""time""
""fullscreenenter"",""1"",""3806""
","
","","","458.60000228881836","","","10","10859","5062","&#9789;","elianto","#f73b6a7A"," "," ","1","0","[52.599998474121094,796.7999992370605,1308.8999977111816,2531,2853.599998474121,3122.099998474121]","6","0","4","","","","","","","",""
"pit-trial","98","794553","0.0-2.0-17.3-2.3","battery-v0.2","","""event"",""trial"",""time""
""fullscreenenter"",""1"",""3806""
""blur"",""36"",""439424""
""focus"",""36"",""442857""
","""event"",""trial"",""time""
""blur"",""36"",""439424""
","""event"",""trial"",""time""
""focus"",""36"",""442857""
","""event"",""trial"",""time""
""fullscreenenter"",""1"",""3806""
","
","","","531.7000007629395","","","10","10859","5062","&#9789;","elianto","#f73b6a7A"," "," ","1","0","[50.10000228881836,302.4000015258789,735.5,1381.7000007629395,1743.2999992370605,2220.6000022888184,2676.7999992370605,2908,3104.7000007629395,3330.2999992370605]","10","0","4","","","","","","","",""
"pit-trial","99","797435","0.0-2.0-17.3-3.3","battery-v0.2","","""event"",""trial"",""time""
""fullscreenenter"",""1"",""3806""
""blur"",""36"",""439424""
""focus"",""36"",""442857""
","""event"",""trial"",""time""
""blur"",""36"",""439424""
","""event"",""trial"",""time""
""focus"",""36"",""442857""
","""event"",""trial"",""time""
""fullscreenenter"",""1"",""3806""
","
","","","30.199996948242188","","","10","10859","5062","&#9789;","elianto","#f73b6a7A"," "," ","1","-10","[159.20000076293945,442.60000228881836,648.7999992370605,880.2000007629395,1095.900001525879,1373.7000007629395,1676.2999992370605,2176.7000007629395,2609.2000007629395]","9","0","4","","","","","","","",""
"pit-trial","100","800348","0.0-2.0-17.3-4.3","battery-v0.2","","""event"",""trial"",""time""
""fullscreenenter"",""1"",""3806""
""blur"",""36"",""439424""
""focus"",""36"",""442857""
","""event"",""trial"",""time""
""blur"",""36"",""439424""
","""event"",""trial"",""time""
""focus"",""36"",""442857""
","""event"",""trial"",""time""
""fullscreenenter"",""1"",""3806""
","
","","","59.89999771118164","","","10","10859","5062","&#9789;","elianto","#f73b6a7A"," "," ","1","0","[218.29999923706055,442.70000076293945,676.8999977111816,910.7999992370605,1152.2000007629395,1383.7999992370605,1610.3999977111816,1853.7999992370605,2108.5,2353,2598.7999992370605,2839.7000007629395]","12","0","4","","","","","","","",""
"call-function","101","800349","0.0-2.0-18.0","battery-v0.2","","""event"",""trial"",""time""
""fullscreenenter"",""1"",""3806""
""blur"",""36"",""439424""
""focus"",""36"",""442857""
","""event"",""trial"",""time""
""blur"",""36"",""439424""
","""event"",""trial"",""time""
""focus"",""36"",""442857""
","""event"",""trial"",""time""
""fullscreenenter"",""1"",""3806""
","
","","","","","","","","","","","","","","","","","","","","","","","","","","",""
"pit-instructions","102","873015","0.0-2.0-19.0","battery-v0.2","","""event"",""trial"",""time""
""fullscreenenter"",""1"",""3806""
""blur"",""36"",""439424""
""focus"",""36"",""442857""
","""event"",""trial"",""time""
""blur"",""36"",""439424""
","""event"",""trial"",""time""
""focus"",""36"",""442857""
","""event"",""trial"",""time""
""fullscreenenter"",""1"",""3806""
","
","","[{""page_index"":0,""viewing_time"":6885.700000762939},{""page_index"":1,""viewing_time"":864},{""page_index"":0,""viewing_time"":3165.2000007629395},{""page_index"":1,""viewing_time"":5794.400001525879},{""page_index"":2,""viewing_time"":13165.399997711182},{""page_index"":3,""viewing_time"":7317.5},{""page_index"":4,""viewing_time"":8416.900001525879},{""page_index"":5,""viewing_time"":8369.899997711182},{""page_index"":6,""viewing_time"":7993.900001525879},{""page_index"":7,""viewing_time"":6567.099998474121},{""page_index"":8,""viewing_time"":4126}]","72666.40000152588","","","","","","","","","","","","","","","","","","","","","","","",""
"pit-comprehension","103","877481","0.0-2.0-20.0-0.0","battery-v0.2","","""event"",""trial"",""time""
""fullscreenenter"",""1"",""3806""
""blur"",""36"",""439424""
""focus"",""36"",""442857""
","""event"",""trial"",""time""
""blur"",""36"",""439424""
","""event"",""trial"",""time""
""focus"",""36"",""442857""
","""event"",""trial"",""time""
""fullscreenenter"",""1"",""3806""
","
","","","4464.299999237061","[""SPACE""]","0","10","10859","5062","","","","","","","","","","","","","","","","","","",""
"pit-instructions","104","879886","0.0-2.0-20.0-1.0","battery-v0.2","","""event"",""trial"",""time""
""fullscreenenter"",""1"",""3806""
""blur"",""36"",""439424""
""focus"",""36"",""442857""
","""event"",""trial"",""time""
""blur"",""36"",""439424""
","""event"",""trial"",""time""
""focus"",""36"",""442857""
","""event"",""trial"",""time""
""fullscreenenter"",""1"",""3806""
","
","","[{""page_index"":0,""viewing_time"":2370.2999992370605}]","2370.5","","","","","","","","","","","","","","","","","","","","","","","",""
"pit-comprehension","105","886219","0.0-2.0-21.0-0.0","battery-v0.2","","""event"",""trial"",""time""
""fullscreenenter"",""1"",""3806""
""blur"",""36"",""439424""
""focus"",""36"",""442857""
","""event"",""trial"",""time""
""blur"",""36"",""439424""
","""event"",""trial"",""time""
""focus"",""36"",""442857""
","""event"",""trial"",""time""
""fullscreenenter"",""1"",""3806""
","
","","","6330.700000762939","[""10""]","0","10","10859","5062","","","","","","","","","","","","","","","","","","",""
"pit-instructions","106","887686","0.0-2.0-21.0-1.0","battery-v0.2","","""event"",""trial"",""time""
""fullscreenenter"",""1"",""3806""
""blur"",""36"",""439424""
""focus"",""36"",""442857""
","""event"",""trial"",""time""
""blur"",""36"",""439424""
","""event"",""trial"",""time""
""focus"",""36"",""442857""
","""event"",""trial"",""time""
""fullscreenenter"",""1"",""3806""
","
","","[{""page_index"":0,""viewing_time"":1432.400001525879}]","1432.599998474121","","","","","","","","","","","","","","","","","","","","","","","",""
"pit-comprehension","107","894177","0.0-2.0-22.0-0.0","battery-v0.2","","""event"",""trial"",""time""
""fullscreenenter"",""1"",""3806""
""blur"",""36"",""439424""
""focus"",""36"",""442857""
","""event"",""trial"",""time""
""blur"",""36"",""439424""
","""event"",""trial"",""time""
""focus"",""36"",""442857""
","""event"",""trial"",""time""
""fullscreenenter"",""1"",""3806""
","
","","","6489.400001525879","[""0""]","0","10","10859","5062","","","","","","","","","","","","","","","","","","",""
"pit-instructions","108","895630","0.0-2.0-22.0-1.0","battery-v0.2","","""event"",""trial"",""time""
""fullscreenenter"",""1"",""3806""
""blur"",""36"",""439424""
""focus"",""36"",""442857""
","""event"",""trial"",""time""
""blur"",""36"",""439424""
","""event"",""trial"",""time""
""focus"",""36"",""442857""
","""event"",""trial"",""time""
""fullscreenenter"",""1"",""3806""
","
","","[{""page_index"":0,""viewing_time"":1418.2000007629395}]","1418.400001525879","","","","","","","","","","","","","","","","","","","","","","","",""
"pit-comprehension","109","905829","0.0-2.0-23.0-0.0","battery-v0.2","","""event"",""trial"",""time""
""fullscreenenter"",""1"",""3806""
""blur"",""36"",""439424""
""focus"",""36"",""442857""
","""event"",""trial"",""time""
""blur"",""36"",""439424""
","""event"",""trial"",""time""
""focus"",""36"",""442857""
","""event"",""trial"",""time""
""fullscreenenter"",""1"",""3806""
","
","","","10197.600002288818","[""True""]","0","10","10859","5062","","","","","","","","","","","","","","","","","","",""
"pit-instructions","110","907390","0.0-2.0-23.0-1.0","battery-v0.2","","""event"",""trial"",""time""
""fullscreenenter"",""1"",""3806""
""blur"",""36"",""439424""
""focus"",""36"",""442857""
","""event"",""trial"",""time""
""blur"",""36"",""439424""
","""event"",""trial"",""time""
""focus"",""36"",""442857""
","""event"",""trial"",""time""
""fullscreenenter"",""1"",""3806""
","
","","[{""page_index"":0,""viewing_time"":1526.3000030517578}]","1526.6000022888184","","","","","","","","","","","","","","","","","","","","","","","",""
"pit-comprehension","111","914607","0.0-2.0-24.0-0.0","battery-v0.2","","""event"",""trial"",""time""
""fullscreenenter"",""1"",""3806""
""blur"",""36"",""439424""
""focus"",""36"",""442857""
","""event"",""trial"",""time""
""blur"",""36"",""439424""
","""event"",""trial"",""time""
""focus"",""36"",""442857""
","""event"",""trial"",""time""
""fullscreenenter"",""1"",""3806""
","
","","","7215.299999237061","[""True""]","0","10","10859","5062","","","","","","","","","","","","","","","","","","",""
"pit-instructions","112","916229","0.0-2.0-24.0-1.0","battery-v0.2","","""event"",""trial"",""time""
""fullscreenenter"",""1"",""3806""
""blur"",""36"",""439424""
""focus"",""36"",""442857""
","""event"",""trial"",""time""
""blur"",""36"",""439424""
","""event"",""trial"",""time""
""focus"",""36"",""442857""
","""event"",""trial"",""time""
""fullscreenenter"",""1"",""3806""
","
","","[{""page_index"":0,""viewing_time"":1584.7000007629395}]","1584.900001525879","","","","","","","","","","","","","","","","","","","","","","","",""
"pit-comprehension","113","922629","0.0-2.0-25.0-0.0","battery-v0.2","","""event"",""trial"",""time""
""fullscreenenter"",""1"",""3806""
""blur"",""36"",""439424""
""focus"",""36"",""442857""
","""event"",""trial"",""time""
""blur"",""36"",""439424""
","""event"",""trial"",""time""
""focus"",""36"",""442857""
","""event"",""trial"",""time""
""fullscreenenter"",""1"",""3806""
","
","","","6398.199996948242","[""True""]","0","10","10859","5062","","","","","","","","","","","","","","","","","","",""
"pit-instructions","114","924506","0.0-2.0-25.0-1.0","battery-v0.2","","""event"",""trial"",""time""
""fullscreenenter"",""1"",""3806""
""blur"",""36"",""439424""
""focus"",""36"",""442857""
","""event"",""trial"",""time""
""blur"",""36"",""439424""
","""event"",""trial"",""time""
""focus"",""36"",""442857""
","""event"",""trial"",""time""
""fullscreenenter"",""1"",""3806""
","
","","[{""page_index"":0,""viewing_time"":1841.7000007629395}]","1841.900001525879","","","","","","","","","","","","","","","","","","","","","","","",""
"pit-comprehension","115","929261","0.0-2.0-26.0-0.0","battery-v0.2","","""event"",""trial"",""time""
""fullscreenenter"",""1"",""3806""
""blur"",""36"",""439424""
""focus"",""36"",""442857""
","""event"",""trial"",""time""
""blur"",""36"",""439424""
","""event"",""trial"",""time""
""focus"",""36"",""442857""
","""event"",""trial"",""time""
""fullscreenenter"",""1"",""3806""
","
","","","4753.299999237061","[""False""]","0","10","10859","5062","","","","","","","","","","","","","","","","","","",""
"pit-instructions","116","930730","0.0-2.0-26.0-1.0","battery-v0.2","","""event"",""trial"",""time""
""fullscreenenter"",""1"",""3806""
""blur"",""36"",""439424""
""focus"",""36"",""442857""
","""event"",""trial"",""time""
""blur"",""36"",""439424""
","""event"",""trial"",""time""
""focus"",""36"",""442857""
","""event"",""trial"",""time""
""fullscreenenter"",""1"",""3806""
","
","","[{""page_index"":0,""viewing_time"":1429.3999977111816}]","1429.6999969482422","","","","","","","","","","","","","","","","","","","","","","","",""
"pit-instructions","117","947134","0.0-3.0","battery-v0.2","","""event"",""trial"",""time""
""fullscreenenter"",""1"",""3806""
""blur"",""36"",""439424""
""focus"",""36"",""442857""
","""event"",""trial"",""time""
""blur"",""36"",""439424""
","""event"",""trial"",""time""
""focus"",""36"",""442857""
","""event"",""trial"",""time""
""fullscreenenter"",""1"",""3806""
","
","","[{""page_index"":0,""viewing_time"":3533.7999992370605},{""page_index"":1,""viewing_time"":6515.800003051758},{""page_index"":2,""viewing_time"":6353.099998474121}]","16402.90000152588","","","","","","","","","","","","","","","","","","","","","","","",""
"pit-trial","118","950644","0.0-4.0","battery-v0.2","","""event"",""trial"",""time""
""fullscreenenter"",""1"",""3806""
""blur"",""36"",""439424""
""focus"",""36"",""442857""
","""event"",""trial"",""time""
""blur"",""36"",""439424""
","""event"",""trial"",""time""
""focus"",""36"",""442857""
","""event"",""trial"",""time""
""fullscreenenter"",""1"",""3806""
","
","","","647.3999977111816","","","10","10859","5062","&#9728;","elianto","#f73b6a7A","-1"," ","0","0","[1498.2999992370605]","1","1","","","10859","1","0","4","lose","no-go","1"
"pit-trial","119","954081","0.0-5.0","battery-v0.2","","""event"",""trial"",""time""
""fullscreenenter"",""1"",""3806""
""blur"",""36"",""439424""
""focus"",""36"",""442857""
","""event"",""trial"",""time""
""blur"",""36"",""439424""
","""event"",""trial"",""time""
""focus"",""36"",""442857""
","""event"",""trial"",""time""
""fullscreenenter"",""1"",""3806""
","
","","","578.0999984741211","","","10","10859","5062","&#9752;","elianto","#f73b6a7A"," "," ","1","0","[1428.5]","1","1","","","10859","2","3","3","lose","go","0"
"pit-trial","120","958060","0.0-6.0","battery-v0.2","","""event"",""trial"",""time""
""fullscreenenter"",""1"",""3806""
""blur"",""36"",""439424""
""focus"",""36"",""442857""
","""event"",""trial"",""time""
""blur"",""36"",""439424""
","""event"",""trial"",""time""
""focus"",""36"",""442857""
","""event"",""trial"",""time""
""fullscreenenter"",""1"",""3806""
","
","","","1116.6999969482422","","","10","10859","5062","&#9733;","elianto","#3366ff99","-1"," ","0","0","[1971]","1","1","","","10859","3","2","2","win","no-go","0"
"pit-trial","121","961765","0.0-7.0","battery-v0.2","","""event"",""trial"",""time""
""fullscreenenter"",""1"",""3806""
""blur"",""36"",""439424""
""focus"",""36"",""442857""
","""event"",""trial"",""time""
""blur"",""36"",""439424""
","""event"",""trial"",""time""
""focus"",""36"",""442857""
","""event"",""trial"",""time""
""fullscreenenter"",""1"",""3806""
","
","","","844.9000015258789","","","10","10859","5062","&#9730;","elianto","#3366ff99"," "," ","1","+10","[1695.099998474121]","1","1","","","10859","4","1","1","win","go","0"
"pit-trial","122","966563","0.0-8.0","battery-v0.2","","""event"",""trial"",""time""
""fullscreenenter"",""1"",""3806""
""blur"",""36"",""439424""
""focus"",""36"",""442857""
","""event"",""trial"",""time""
""blur"",""36"",""439424""
","""event"",""trial"",""time""
""focus"",""36"",""442857""
","""event"",""trial"",""time""
""fullscreenenter"",""1"",""3806""
","
","","","1925.599998474121","","","10","10859","5062","&#9728;","elianto","#f73b6a7A","-1"," ","0","-10","[2783.3999977111816]","1","1","","","10859","5","0","4","lose","no-go","0"
"pit-trial","123","971439","0.0-9.0","battery-v0.2","","""event"",""trial"",""time""
""fullscreenenter"",""1"",""3806""
""blur"",""36"",""439424""
""focus"",""36"",""442857""
","""event"",""trial"",""time""
""blur"",""36"",""439424""
","""event"",""trial"",""time""
""focus"",""36"",""442857""
","""event"",""trial"",""time""
""fullscreenenter"",""1"",""3806""
","
","","","-1","","","10","10859","5062","&#9733;","elianto","#3366ff99","-1","-1","1","+10","[]","0","1","","","10859","6","2","2","win","no-go","0"
"pit-trial","124","974921","0.0-10.0","battery-v0.2","","""event"",""trial"",""time""
""fullscreenenter"",""1"",""3806""
""blur"",""36"",""439424""
""focus"",""36"",""442857""
","""event"",""trial"",""time""
""blur"",""36"",""439424""
","""event"",""trial"",""time""
""focus"",""36"",""442857""
","""event"",""trial"",""time""
""fullscreenenter"",""1"",""3806""
","
","","","618","","","10","10859","5062","&#9730;","elianto","#3366ff99"," "," ","1","0","[1475.099998474121]","1","1","","","10859","7","1","1","win","go","1"
"pit-trial","125","979602","0.0-11.0","battery-v0.2","","""event"",""trial"",""time""
""fullscreenenter"",""1"",""3806""
""blur"",""36"",""439424""
""focus"",""36"",""442857""
","""event"",""trial"",""time""
""blur"",""36"",""439424""
","""event"",""trial"",""time""
""focus"",""36"",""442857""
","""event"",""trial"",""time""
""fullscreenenter"",""1"",""3806""
","
","","","1822.1999969482422","","","10","10859","5062","&#9752;","elianto","#f73b6a7A"," "," ","1","0","[2679.8999977111816]","1","1","","","10859","8","3","3","lose","go","0"
"pit-trial","126","984454","0.0-12.0","battery-v0.2","","""event"",""trial"",""time""
""fullscreenenter"",""1"",""3806""
""blur"",""36"",""439424""
""focus"",""36"",""442857""
","""event"",""trial"",""time""
""blur"",""36"",""439424""
","""event"",""trial"",""time""
""focus"",""36"",""442857""
","""event"",""trial"",""time""
""fullscreenenter"",""1"",""3806""
","
","","","-1","","","10","10859","5062","&#9728;","elianto","#f73b6a7A","-1","-1","1","0","[]","0","1","","","10859","9","0","4","lose","no-go","0"
"pit-trial","127","987995","0.0-13.0","battery-v0.2","","""event"",""trial"",""time""
""fullscreenenter"",""1"",""3806""
""blur"",""36"",""439424""
""focus"",""36"",""442857""
","""event"",""trial"",""time""
""blur"",""36"",""439424""
","""event"",""trial"",""time""
""focus"",""36"",""442857""
","""event"",""trial"",""time""
""fullscreenenter"",""1"",""3806""
","
","","","688","","","10","10859","5062","&#9730;","elianto","#3366ff99"," "," ","1","+10","[1538.8999977111816]","1","1","","","10859","10","1","1","win","go","0"
"pit-trial","128","992848","0.0-14.0","battery-v0.2","","""event"",""trial"",""time""
""fullscreenenter"",""1"",""3806""
""blur"",""36"",""439424""
""focus"",""36"",""442857""
","""event"",""trial"",""time""
""blur"",""36"",""439424""
","""event"",""trial"",""time""
""focus"",""36"",""442857""
","""event"",""trial"",""time""
""fullscreenenter"",""1"",""3806""
","
","","","-1","","","10","10859","5062","&#9733;","elianto","#3366ff99","-1","-1","1","0","[]","0","1","","","10859","11","2","2","win","no-go","1"
"pit-trial","129","997361","0.0-15.0","battery-v0.2","","""event"",""trial"",""time""
""fullscreenenter"",""1"",""3806""
""blur"",""36"",""439424""
""focus"",""36"",""442857""
","""event"",""trial"",""time""
""blur"",""36"",""439424""
","""event"",""trial"",""time""
""focus"",""36"",""442857""
","""event"",""trial"",""time""
""fullscreenenter"",""1"",""3806""
","
","","","1661.7999992370605","","","10","10859","5062","&#9752;","elianto","#f73b6a7A"," "," ","1","-10","[2511.8999977111816]","1","1","","","10859","12","3","3","lose","go","1"
"pit-trial","130","1001295","0.0-16.0","battery-v0.2","","""event"",""trial"",""time""
""fullscreenenter"",""1"",""3806""
""blur"",""36"",""439424""
""focus"",""36"",""442857""
","""event"",""trial"",""time""
""blur"",""36"",""439424""
","""event"",""trial"",""time""
""focus"",""36"",""442857""
","""event"",""trial"",""time""
""fullscreenenter"",""1"",""3806""
","
","","","1081.2000007629395","","","10","10859","5062","&#9730;","elianto","#3366ff99"," "," ","1","+10","[1932.7000007629395]","1","1","","","10859","13","1","1","win","go","0"
"pit-trial","131","1005368","0.0-17.0","battery-v0.2","","""event"",""trial"",""time""
""fullscreenenter"",""1"",""3806""
""blur"",""36"",""439424""
""focus"",""36"",""442857""
","""event"",""trial"",""time""
""blur"",""36"",""439424""
","""event"",""trial"",""time""
""focus"",""36"",""442857""
","""event"",""trial"",""time""
""fullscreenenter"",""1"",""3806""
","
","","","1220.599998474121","","","10","10859","5062","&#9733;","elianto","#3366ff99","-1"," ","0","0","[2070.7000007629395]","1","1","","","10859","14","2","2","win","no-go","0"
"pit-trial","132","1010220","0.0-18.0","battery-v0.2","","""event"",""trial"",""time""
""fullscreenenter"",""1"",""3806""
""blur"",""36"",""439424""
""focus"",""36"",""442857""
","""event"",""trial"",""time""
""blur"",""36"",""439424""
","""event"",""trial"",""time""
""focus"",""36"",""442857""
","""event"",""trial"",""time""
""fullscreenenter"",""1"",""3806""
","
","","","-1","","","10","10859","5062","&#9728;","elianto","#f73b6a7A","-1","-1","1","0","[]","0","1","","","10859","15","0","4","lose","no-go","0"
"pit-trial","133","1014819","0.0-19.0","battery-v0.2","","""event"",""trial"",""time""
""fullscreenenter"",""1"",""3806""
""blur"",""36"",""439424""
""focus"",""36"",""442857""
","""event"",""trial"",""time""
""blur"",""36"",""439424""
","""event"",""trial"",""time""
""focus"",""36"",""442857""
","""event"",""trial"",""time""
""fullscreenenter"",""1"",""3806""
","
","","","1747.400001525879","","","10","10859","5062","&#9752;","elianto","#f73b6a7A"," "," ","1","0","[2598.1000022888184]","1","1","","","10859","16","3","3","lose","go","0"
"pit-trial","134","1019039","0.0-20.0","battery-v0.2","","""event"",""trial"",""time""
""fullscreenenter"",""1"",""3806""
""blur"",""36"",""439424""
""focus"",""36"",""442857""
","""event"",""trial"",""time""
""blur"",""36"",""439424""
","""event"",""trial"",""time""
""focus"",""36"",""442857""
","""event"",""trial"",""time""
""fullscreenenter"",""1"",""3806""
","
","","","1366.900001525879","","","10","10859","5062","&#9730;","elianto","#3366ff99"," "," ","1","0","[2217.7999992370605]","1","1","","","10859","17","1","1","win","go","1"
"pit-trial","135","1023892","0.0-21.0","battery-v0.2","","""event"",""trial"",""time""
""fullscreenenter"",""1"",""3806""
""blur"",""36"",""439424""
""focus"",""36"",""442857""
","""event"",""trial"",""time""
""blur"",""36"",""439424""
","""event"",""trial"",""time""
""focus"",""36"",""442857""
","""event"",""trial"",""time""
""fullscreenenter"",""1"",""3806""
","
","","","-1","","","10","10859","5062","&#9728;","elianto","#f73b6a7A","-1","-1","1","-10","[]","0","1","","","10859","18","0","4","lose","no-go","1"
"pit-trial","136","1027246","0.0-22.0","battery-v0.2","","""event"",""trial"",""time""
""fullscreenenter"",""1"",""3806""
""blur"",""36"",""439424""
""focus"",""36"",""442857""
","""event"",""trial"",""time""
""blur"",""36"",""439424""
","""event"",""trial"",""time""
""focus"",""36"",""442857""
","""event"",""trial"",""time""
""fullscreenenter"",""1"",""3806""
","
","","","500.5999984741211","","","10","10859","5062","&#9733;","elianto","#3366ff99","-1"," ","0","0","[1351.2000007629395]","1","1","","","10859","19","2","2","win","no-go","0"
"pit-trial","137","1032098","0.0-23.0","battery-v0.2","","""event"",""trial"",""time""
""fullscreenenter"",""1"",""3806""
""blur"",""36"",""439424""
""focus"",""36"",""442857""
","""event"",""trial"",""time""
""blur"",""36"",""439424""
","""event"",""trial"",""time""
""focus"",""36"",""442857""
","""event"",""trial"",""time""
""fullscreenenter"",""1"",""3806""
","
","","","-1","","","10","10859","5062","&#9752;","elianto","#f73b6a7A"," ","-1","0","-10","[]","0","1","","","10859","20","3","3","lose","go","0"
"pit-instructions","138","1046206","0.0-24.0","battery-v0.2","","""event"",""trial"",""time""
""fullscreenenter"",""1"",""3806""
""blur"",""36"",""439424""
""focus"",""36"",""442857""
","""event"",""trial"",""time""
""blur"",""36"",""439424""
","""event"",""trial"",""time""
""focus"",""36"",""442857""
","""event"",""trial"",""time""
""fullscreenenter"",""1"",""3806""
","
","","[{""page_index"":0,""viewing_time"":6111.799999237061},{""page_index"":1,""viewing_time"":7995.400001525879}]","14107.600002288818","","","","","","","","","","","","","","","","","","","","","","","",""
"pit-trial","139","1050256","0.0-25.0","battery-v0.2","","""event"",""trial"",""time""
""fullscreenenter"",""1"",""3806""
""blur"",""36"",""439424""
""focus"",""36"",""442857""
","""event"",""trial"",""time""
""blur"",""36"",""439424""
","""event"",""trial"",""time""
""focus"",""36"",""442857""
","""event"",""trial"",""time""
""fullscreenenter"",""1"",""3806""
","
","","","1179.5","","","10","10859","5062","y","elianto","#f73b6a7A"," "," ","1","0","[2038.5]","1","2","","","10859","21","2","3","lose","go","0"
"pit-trial","140","1053973","0.0-26.0","battery-v0.2","","""event"",""trial"",""time""
""fullscreenenter"",""1"",""3806""
""blur"",""36"",""439424""
""focus"",""36"",""442857""
","""event"",""trial"",""time""
""blur"",""36"",""439424""
","""event"",""trial"",""time""
""focus"",""36"",""442857""
","""event"",""trial"",""time""
""fullscreenenter"",""1"",""3806""
","
","","","850","","","10","10859","5062","h","elianto","#f73b6a7A","-1"," ","0","-10","[1702.8000030517578]","1","2","","","10859","22","3","4","lose","no-go","0"
"pit-trial","141","1057545","0.0-27.0","battery-v0.2","","""event"",""trial"",""time""
""fullscreenenter"",""1"",""3806""
""blur"",""36"",""439424""
""focus"",""36"",""442857""
","""event"",""trial"",""time""
""blur"",""36"",""439424""
","""event"",""trial"",""time""
""focus"",""36"",""442857""
","""event"",""trial"",""time""
""fullscreenenter"",""1"",""3806""
","
","","","702.5","","","10","10859","5062","m","elianto","#f73b6a7A"," "," ","1","0","[1555.1000022888184]","1","2","","","10859","23","0","3","lose","go","0"
"pit-trial","142","1061897","0.0-28.0","battery-v0.2","","""event"",""trial"",""time""
""fullscreenenter"",""1"",""3806""
""blur"",""36"",""439424""
""focus"",""36"",""442857""
","""event"",""trial"",""time""
""blur"",""36"",""439424""
","""event"",""trial"",""time""
""focus"",""36"",""442857""
","""event"",""trial"",""time""
""fullscreenenter"",""1"",""3806""
","
","","","1491.7000007629395","","","10","10859","5062","r","elianto","#3366ff99","-1"," ","0","0","[2341.900001525879]","1","2","","","10859","24","1","2","win","no-go","0"
"pit-trial","143","1065379","0.0-29.0","battery-v0.2","","""event"",""trial"",""time""
""fullscreenenter"",""1"",""3806""
""blur"",""36"",""439424""
""focus"",""36"",""442857""
","""event"",""trial"",""time""
""blur"",""36"",""439424""
","""event"",""trial"",""time""
""focus"",""36"",""442857""
","""event"",""trial"",""time""
""fullscreenenter"",""1"",""3806""
","
","","","611.6000022888184","","","10","10859","5062","y","elianto","#f73b6a7A"," "," ","1","-10","[1469.5]","1","2","","","10859","25","2","3","lose","go","1"
"pit-trial","144","1069645","0.0-30.0","battery-v0.2","","""event"",""trial"",""time""
""fullscreenenter"",""1"",""3806""
""blur"",""36"",""439424""
""focus"",""36"",""442857""
","""event"",""trial"",""time""
""blur"",""36"",""439424""
","""event"",""trial"",""time""
""focus"",""36"",""442857""
","""event"",""trial"",""time""
""fullscreenenter"",""1"",""3806""
","
","","","1388.099998474121","","","10","10859","5062","r","elianto","#3366ff99","-1"," ","0","0","[2249.400001525879]","1","2","","","10859","26","1","2","win","no-go","0"
"pit-trial","145","1074502","0.0-31.0","battery-v0.2","","""event"",""trial"",""time""
""fullscreenenter"",""1"",""3806""
""blur"",""36"",""439424""
""focus"",""36"",""442857""
","""event"",""trial"",""time""
""blur"",""36"",""439424""
","""event"",""trial"",""time""
""focus"",""36"",""442857""
","""event"",""trial"",""time""
""fullscreenenter"",""1"",""3806""
","
","","","-1","","","10","10859","5062","m","elianto","#f73b6a7A"," ","-1","0","0","[]","0","2","","","10859","27","0","3","lose","go","1"
"pit-trial","146","1079353","0.0-32.0","battery-v0.2","","""event"",""trial"",""time""
""fullscreenenter"",""1"",""3806""
""blur"",""36"",""439424""
""focus"",""36"",""442857""
","""event"",""trial"",""time""
""blur"",""36"",""439424""
","""event"",""trial"",""time""
""focus"",""36"",""442857""
","""event"",""trial"",""time""
""fullscreenenter"",""1"",""3806""
","
","","","-1","","","10","10859","5062","h","elianto","#f73b6a7A","-1","-1","1","-10","[]","0","2","","","10859","28","3","4","lose","no-go","1"
"pit-trial","147","1083253","0.0-33.0","battery-v0.2","","""event"",""trial"",""time""
""fullscreenenter"",""1"",""3806""
""blur"",""36"",""439424""
""focus"",""36"",""442857""
","""event"",""trial"",""time""
""blur"",""36"",""439424""
","""event"",""trial"",""time""
""focus"",""36"",""442857""
","""event"",""trial"",""time""
""fullscreenenter"",""1"",""3806""
","
","","","1047.900001525879","","","10","10859","5062","h","elianto","#f73b6a7A","-1"," ","0","-10","[1897.900001525879]","1","2","","","10859","29","3","4","lose","no-go","0"
"pit-trial","148","1088106","0.0-34.0","battery-v0.2","","""event"",""trial"",""time""
""fullscreenenter"",""1"",""3806""
""blur"",""36"",""439424""
""focus"",""36"",""442857""
","""event"",""trial"",""time""
""blur"",""36"",""439424""
","""event"",""trial"",""time""
""focus"",""36"",""442857""
","""event"",""trial"",""time""
""fullscreenenter"",""1"",""3806""
","
","","","-1","","","10","10859","5062","r","elianto","#3366ff99","-1","-1","1","+10","[]","0","2","","","10859","30","1","2","win","no-go","0"
"pit-trial","149","1092958","0.0-35.0","battery-v0.2","","""event"",""trial"",""time""
""fullscreenenter"",""1"",""3806""
""blur"",""36"",""439424""
""focus"",""36"",""442857""
","""event"",""trial"",""time""
""blur"",""36"",""439424""
","""event"",""trial"",""time""
""focus"",""36"",""442857""
","""event"",""trial"",""time""
""fullscreenenter"",""1"",""3806""
","
","","","-1","","","10","10859","5062","y","elianto","#f73b6a7A"," ","-1","0","-10","[]","0","2","","","10859","31","2","3","lose","go","0"
"pit-trial","150","1097812","0.0-36.0","battery-v0.2","","""event"",""trial"",""time""
""fullscreenenter"",""1"",""3806""
""blur"",""36"",""439424""
""focus"",""36"",""442857""
","""event"",""trial"",""time""
""blur"",""36"",""439424""
","""event"",""trial"",""time""
""focus"",""36"",""442857""
","""event"",""trial"",""time""
""fullscreenenter"",""1"",""3806""
","
","","","-1","","","10","10859","5062","m","elianto","#f73b6a7A"," ","-1","0","-10","[]","0","2","","","10859","32","0","3","lose","go","0"
"pit-trial","151","1102012","0.0-37.0","battery-v0.2","","""event"",""trial"",""time""
""fullscreenenter"",""1"",""3806""
""blur"",""36"",""439424""
""focus"",""36"",""442857""
","""event"",""trial"",""time""
""blur"",""36"",""439424""
","""event"",""trial"",""time""
""focus"",""36"",""442857""
","""event"",""trial"",""time""
""fullscreenenter"",""1"",""3806""
","
","","","1346.2000007629395","","","10","10859","5062","r","elianto","#3366ff99","-1"," ","0","0","[2196.7000007629395]","1","2","","","10859","33","1","2","win","no-go","0"
"pit-trial","152","1105973","0.0-38.0","battery-v0.2","","""event"",""trial"",""time""
""fullscreenenter"",""1"",""3806""
""blur"",""36"",""439424""
""focus"",""36"",""442857""
","""event"",""trial"",""time""
""blur"",""36"",""439424""
","""event"",""trial"",""time""
""focus"",""36"",""442857""
","""event"",""trial"",""time""
""fullscreenenter"",""1"",""3806""
","
","","","1109.8999977111816","","","10","10859","5062","y","elianto","#f73b6a7A"," "," ","1","0","[1960]","1","2","","","10859","34","2","3","lose","go","0"
"pit-trial","153","1110257","0.0-39.0","battery-v0.2","","""event"",""trial"",""time""
""fullscreenenter"",""1"",""3806""
""blur"",""36"",""439424""
""focus"",""36"",""442857""
","""event"",""trial"",""time""
""blur"",""36"",""439424""
","""event"",""trial"",""time""
""focus"",""36"",""442857""
","""event"",""trial"",""time""
""fullscreenenter"",""1"",""3806""
","
","","","1431.2000007629395","","","10","10859","5062","h","elianto","#f73b6a7A","-1"," ","0","-10","[2281.7999992370605]","1","2","","","10859","35","3","4","lose","no-go","0"
"pit-trial","154","1114595","0.0-40.0","battery-v0.2","","""event"",""trial"",""time""
""fullscreenenter"",""1"",""3806""
""blur"",""36"",""439424""
""focus"",""36"",""442857""
","""event"",""trial"",""time""
""blur"",""36"",""439424""
","""event"",""trial"",""time""
""focus"",""36"",""442857""
","""event"",""trial"",""time""
""fullscreenenter"",""1"",""3806""
","
","","","1485.900001525879","","","10","10859","5062","m","elianto","#f73b6a7A"," "," ","1","0","[2336.1000022888184]","1","2","","","10859","36","0","3","lose","go","0"
"pit-trial","155","1118404","0.0-41.0","battery-v0.2","","""event"",""trial"",""time""
""fullscreenenter"",""1"",""3806""
""blur"",""36"",""439424""
""focus"",""36"",""442857""
","""event"",""trial"",""time""
""blur"",""36"",""439424""
","""event"",""trial"",""time""
""focus"",""36"",""442857""
","""event"",""trial"",""time""
""fullscreenenter"",""1"",""3806""
","
","","","957","","","10","10859","5062","m","elianto","#f73b6a7A"," "," ","1","0","[1807.8999977111816]","1","2","","","10859","37","0","3","lose","go","0"
"pit-trial","156","1123058","0.0-42.0","battery-v0.2","","""event"",""trial"",""time""
""fullscreenenter"",""1"",""3806""
""blur"",""36"",""439424""
""focus"",""36"",""442857""
","""event"",""trial"",""time""
""blur"",""36"",""439424""
","""event"",""trial"",""time""
""focus"",""36"",""442857""
","""event"",""trial"",""time""
""fullscreenenter"",""1"",""3806""
","
","","","1801.1000022888184","","","10","10859","5062","r","elianto","#3366ff99","-1"," ","0","0","[2652]","1","2","","","10859","38","1","2","win","no-go","0"
"pit-trial","157","1127204","0.0-43.0","battery-v0.2","","""event"",""trial"",""time""
""fullscreenenter"",""1"",""3806""
""blur"",""36"",""439424""
""focus"",""36"",""442857""
","""event"",""trial"",""time""
""blur"",""36"",""439424""
","""event"",""trial"",""time""
""focus"",""36"",""442857""
","""event"",""trial"",""time""
""fullscreenenter"",""1"",""3806""
","
","","","1293.7999992370605","","","10","10859","5062","y","elianto","#f73b6a7A"," "," ","1","0","[2144.3999977111816]","1","2","","","10859","39","2","3","lose","go","0"
"pit-trial","158","1132056","0.0-44.0","battery-v0.2","","""event"",""trial"",""time""
""fullscreenenter"",""1"",""3806""
""blur"",""36"",""439424""
""focus"",""36"",""442857""
","""event"",""trial"",""time""
""blur"",""36"",""439424""
","""event"",""trial"",""time""
""focus"",""36"",""442857""
","""event"",""trial"",""time""
""fullscreenenter"",""1"",""3806""
","
","","","-1","","","10","10859","5062","h","elianto","#f73b6a7A","-1","-1","1","-10","[]","0","2","","","10859","40","3","4","lose","no-go","1"
"pit-trial","159","1136127","0.0-45.0","battery-v0.2","","""event"",""trial"",""time""
""fullscreenenter"",""1"",""3806""
""blur"",""36"",""439424""
""focus"",""36"",""442857""
","""event"",""trial"",""time""
""blur"",""36"",""439424""
","""event"",""trial"",""time""
""focus"",""36"",""442857""
","""event"",""trial"",""time""
""fullscreenenter"",""1"",""3806""
","
","","","1219.2000007629395","","","10","10859","5062","h","elianto","#f73b6a7A","-1"," ","0","0","[2069.5]","1","2","","","10859","41","3","4","lose","no-go","1"
"pit-trial","160","1139828","0.0-46.0","battery-v0.2","","""event"",""trial"",""time""
""fullscreenenter"",""1"",""3806""
""blur"",""36"",""439424""
""focus"",""36"",""442857""
","""event"",""trial"",""time""
""blur"",""36"",""439424""
","""event"",""trial"",""time""
""focus"",""36"",""442857""
","""event"",""trial"",""time""
""fullscreenenter"",""1"",""3806""
","
","","","847.8000030517578","","","10","10859","5062","m","elianto","#f73b6a7A"," "," ","1","0","[1698.599998474121]","1","2","","","10859","42","0","3","lose","go","0"
"pit-trial","161","1143630","0.0-47.0","battery-v0.2","","""event"",""trial"",""time""
""fullscreenenter"",""1"",""3806""
""blur"",""36"",""439424""
""focus"",""36"",""442857""
","""event"",""trial"",""time""
""blur"",""36"",""439424""
","""event"",""trial"",""time""
""focus"",""36"",""442857""
","""event"",""trial"",""time""
""fullscreenenter"",""1"",""3806""
","
","","","950.4000015258789","","","10","10859","5062","y","elianto","#f73b6a7A"," "," ","1","0","[1800.7000007629395]","1","2","","","10859","43","2","3","lose","go","0"
"pit-trial","162","1148482","0.0-48.0","battery-v0.2","","""event"",""trial"",""time""
""fullscreenenter"",""1"",""3806""
""blur"",""36"",""439424""
""focus"",""36"",""442857""
","""event"",""trial"",""time""
""blur"",""36"",""439424""
","""event"",""trial"",""time""
""focus"",""36"",""442857""
","""event"",""trial"",""time""
""fullscreenenter"",""1"",""3806""
","
","","","-1","","","10","10859","5062","r","elianto","#3366ff99","-1","-1","1","+10","[]","0","2","","","10859","44","1","2","win","no-go","0"
"pit-trial","163","1152725","0.0-49.0","battery-v0.2","","""event"",""trial"",""time""
""fullscreenenter"",""1"",""3806""
""blur"",""36"",""439424""
""focus"",""36"",""442857""
","""event"",""trial"",""time""
""blur"",""36"",""439424""
","""event"",""trial"",""time""
""focus"",""36"",""442857""
","""event"",""trial"",""time""
""fullscreenenter"",""1"",""3806""
","
","","","1389.7000007629395","","","10","10859","5062","h","elianto","#f73b6a7A","-1"," ","0","-10","[2240.900001525879]","1","2","","","10859","45","3","4","lose","no-go","0"
"pit-trial","164","1157577","0.0-50.0","battery-v0.2","","""event"",""trial"",""time""
""fullscreenenter"",""1"",""3806""
""blur"",""36"",""439424""
""focus"",""36"",""442857""
","""event"",""trial"",""time""
""blur"",""36"",""439424""
","""event"",""trial"",""time""
""focus"",""36"",""442857""
","""event"",""trial"",""time""
""fullscreenenter"",""1"",""3806""
","
","","","-1","","","10","10859","5062","r","elianto","#3366ff99","-1","-1","1","+10","[]","0","2","","","10859","46","1","2","win","no-go","0"
"pit-trial","165","1161052","0.0-51.0","battery-v0.2","","""event"",""trial"",""time""
""fullscreenenter"",""1"",""3806""
""blur"",""36"",""439424""
""focus"",""36"",""442857""
","""event"",""trial"",""time""
""blur"",""36"",""439424""
","""event"",""trial"",""time""
""focus"",""36"",""442857""
","""event"",""trial"",""time""
""fullscreenenter"",""1"",""3806""
","
","","","621","","","10","10859","5062","y","elianto","#f73b6a7A"," "," ","1","0","[1471.7999992370605]","1","2","","","10859","47","2","3","lose","go","0"
"pit-trial","166","1164554","0.0-52.0","battery-v0.2","","""event"",""trial"",""time""
""fullscreenenter"",""1"",""3806""
""blur"",""36"",""439424""
""focus"",""36"",""442857""
","""event"",""trial"",""time""
""blur"",""36"",""439424""
","""event"",""trial"",""time""
""focus"",""36"",""442857""
","""event"",""trial"",""time""
""fullscreenenter"",""1"",""3806""
","
","","","649.4000015258789","","","10","10859","5062","m","elianto","#f73b6a7A"," "," ","1","-10","[1499.900001525879]","1","2","","","10859","48","0","3","lose","go","1"
"pit-trial","167","1168243","0.0-53.0","battery-v0.2","","""event"",""trial"",""time""
""fullscreenenter"",""1"",""3806""
""blur"",""36"",""439424""
""focus"",""36"",""442857""
","""event"",""trial"",""time""
""blur"",""36"",""439424""
","""event"",""trial"",""time""
""focus"",""36"",""442857""
","""event"",""trial"",""time""
""fullscreenenter"",""1"",""3806""
","
","","","837.9000015258789","","","10","10859","5062","h","elianto","#f73b6a7A","-1"," ","0","-10","[1687.900001525879]","1","2","","","10859","49","3","4","lose","no-go","0"
"pit-trial","168","1172164","0.0-54.0","battery-v0.2","","""event"",""trial"",""time""
""fullscreenenter"",""1"",""3806""
""blur"",""36"",""439424""
""focus"",""36"",""442857""
","""event"",""trial"",""time""
""blur"",""36"",""439424""
","""event"",""trial"",""time""
""focus"",""36"",""442857""
","""event"",""trial"",""time""
""fullscreenenter"",""1"",""3806""
","
","","","1067.099998474121","","","10","10859","5062","y","elianto","#f73b6a7A"," "," ","1","0","[1918.099998474121]","1","2","","","10859","50","2","3","lose","go","0"
"pit-trial","169","1177016","0.0-55.0","battery-v0.2","","""event"",""trial"",""time""
""fullscreenenter"",""1"",""3806""
""blur"",""36"",""439424""
""focus"",""36"",""442857""
","""event"",""trial"",""time""
""blur"",""36"",""439424""
","""event"",""trial"",""time""
""focus"",""36"",""442857""
","""event"",""trial"",""time""
""fullscreenenter"",""1"",""3806""
","
","","","-1","","","10","10859","5062","m","elianto","#f73b6a7A"," ","-1","0","0","[]","0","2","","","10859","51","0","3","lose","go","1"
"pit-trial","170","1180996","0.0-56.0","battery-v0.2","","""event"",""trial"",""time""
""fullscreenenter"",""1"",""3806""
""blur"",""36"",""439424""
""focus"",""36"",""442857""
","""event"",""trial"",""time""
""blur"",""36"",""439424""
","""event"",""trial"",""time""
""focus"",""36"",""442857""
","""event"",""trial"",""time""
""fullscreenenter"",""1"",""3806""
","
","","","1128.2000007629395","","","10","10859","5062","r","elianto","#3366ff99","-1"," ","0","0","[1978.7999992370605]","1","2","","","10859","52","1","2","win","no-go","0"
"pit-trial","171","1185849","0.0-57.0","battery-v0.2","","""event"",""trial"",""time""
""fullscreenenter"",""1"",""3806""
""blur"",""36"",""439424""
""focus"",""36"",""442857""
","""event"",""trial"",""time""
""blur"",""36"",""439424""
","""event"",""trial"",""time""
""focus"",""36"",""442857""
","""event"",""trial"",""time""
""fullscreenenter"",""1"",""3806""
","
","","","-1","","","10","10859","5062","m","elianto","#f73b6a7A"," ","-1","0","0","[]","0","2","","","10859","53","0","3","lose","go","1"
"pit-trial","172","1189761","0.0-58.0","battery-v0.2","","""event"",""trial"",""time""
""fullscreenenter"",""1"",""3806""
""blur"",""36"",""439424""
""focus"",""36"",""442857""
","""event"",""trial"",""time""
""blur"",""36"",""439424""
","""event"",""trial"",""time""
""focus"",""36"",""442857""
","""event"",""trial"",""time""
""fullscreenenter"",""1"",""3806""
","
","","","1059.2999992370605","","","10","10859","5062","y","elianto","#f73b6a7A"," "," ","1","0","[1909.5]","1","2","","","10859","54","2","3","lose","go","0"
"pit-trial","173","1193777","0.0-59.0","battery-v0.2","","""event"",""trial"",""time""
""fullscreenenter"",""1"",""3806""
""blur"",""36"",""439424""
""focus"",""36"",""442857""
","""event"",""trial"",""time""
""blur"",""36"",""439424""
","""event"",""trial"",""time""
""focus"",""36"",""442857""
","""event"",""trial"",""time""
""fullscreenenter"",""1"",""3806""
","
","","","1164.1999969482422","","","10","10859","5062","r","elianto","#3366ff99","-1"," ","0","0","[2015]","1","2","","","10859","55","1","2","win","no-go","0"
"pit-trial","174","1198629","0.0-60.0","battery-v0.2","","""event"",""trial"",""time""
""fullscreenenter"",""1"",""3806""
""blur"",""36"",""439424""
""focus"",""36"",""442857""
","""event"",""trial"",""time""
""blur"",""36"",""439424""
","""event"",""trial"",""time""
""focus"",""36"",""442857""
","""event"",""trial"",""time""
""fullscreenenter"",""1"",""3806""
","
","","","-1","","","10","10859","5062","h","elianto","#f73b6a7A","-1","-1","1","-10","[]","0","2","","","10859","56","3","4","lose","no-go","1"
"pit-trial","175","1202248","0.0-61.0","battery-v0.2","","""event"",""trial"",""time""
""fullscreenenter"",""1"",""3806""
""blur"",""36"",""439424""
""focus"",""36"",""442857""
","""event"",""trial"",""time""
""blur"",""36"",""439424""
","""event"",""trial"",""time""
""focus"",""36"",""442857""
","""event"",""trial"",""time""
""fullscreenenter"",""1"",""3806""
","
","","","766.5","","","10","10859","5062","h","elianto","#f73b6a7A","-1"," ","0","-10","[1617.599998474121]","1","2","","","10859","57","3","4","lose","no-go","0"
"pit-trial","176","1207101","0.0-62.0","battery-v0.2","","""event"",""trial"",""time""
""fullscreenenter"",""1"",""3806""
""blur"",""36"",""439424""
""focus"",""36"",""442857""
","""event"",""trial"",""time""
""blur"",""36"",""439424""
","""event"",""trial"",""time""
""focus"",""36"",""442857""
","""event"",""trial"",""time""
""fullscreenenter"",""1"",""3806""
","
","","","-1","","","10","10859","5062","m","elianto","#f73b6a7A"," ","-1","0","0","[]","0","2","","","10859","58","0","3","lose","go","1"
"pit-trial","177","1211600","0.0-63.0","battery-v0.2","","""event"",""trial"",""time""
""fullscreenenter"",""1"",""3806""
""blur"",""36"",""439424""
""focus"",""36"",""442857""
","""event"",""trial"",""time""
""blur"",""36"",""439424""
","""event"",""trial"",""time""
""focus"",""36"",""442857""
","""event"",""trial"",""time""
""fullscreenenter"",""1"",""3806""
","
","","","1646.7999992370605","","","10","10859","5062","y","elianto","#f73b6a7A"," "," ","1","0","[2496.8999977111816]","1","2","","","10859","59","2","3","lose","go","0"
"pit-trial","178","1216452","0.0-64.0","battery-v0.2","","""event"",""trial"",""time""
""fullscreenenter"",""1"",""3806""
""blur"",""36"",""439424""
""focus"",""36"",""442857""
","""event"",""trial"",""time""
""blur"",""36"",""439424""
","""event"",""trial"",""time""
""focus"",""36"",""442857""
","""event"",""trial"",""time""
""fullscreenenter"",""1"",""3806""
","
","","","-1","","","10","10859","5062","z","elianto","#3366ff99"," ","-1","0","0","[]","0","2","","","10859","60","4","1","win","go","0"
"pit-trial","179","1220279","0.0-65.0","battery-v0.2","","""event"",""trial"",""time""
""fullscreenenter"",""1"",""3806""
""blur"",""36"",""439424""
""focus"",""36"",""442857""
","""event"",""trial"",""time""
""blur"",""36"",""439424""
","""event"",""trial"",""time""
""focus"",""36"",""442857""
","""event"",""trial"",""time""
""fullscreenenter"",""1"",""3806""
","
","","","974.7000007629395","","","10","10859","5062","z","elianto","#3366ff99"," "," ","1","+10","[1825.900001525879]","1","2","","","10859","61","4","1","win","go","0"
"pit-trial","180","1225131","0.0-66.0","battery-v0.2","","""event"",""trial"",""time""
""fullscreenenter"",""1"",""3806""
""blur"",""36"",""439424""
""focus"",""36"",""442857""
","""event"",""trial"",""time""
""blur"",""36"",""439424""
","""event"",""trial"",""time""
""focus"",""36"",""442857""
","""event"",""trial"",""time""
""fullscreenenter"",""1"",""3806""
","
","","","-1","","","10","10859","5062","y","elianto","#f73b6a7A"," ","-1","0","0","[]","0","2","","","10859","62","2","3","lose","go","1"
"pit-trial","181","1228964","0.0-67.0","battery-v0.2","","""event"",""trial"",""time""
""fullscreenenter"",""1"",""3806""
""blur"",""36"",""439424""
""focus"",""36"",""442857""
","""event"",""trial"",""time""
""blur"",""36"",""439424""
","""event"",""trial"",""time""
""focus"",""36"",""442857""
","""event"",""trial"",""time""
""fullscreenenter"",""1"",""3806""
","
","","","981.3999977111816","","","10","10859","5062","h","elianto","#f73b6a7A","-1"," ","0","-10","[1831.5]","1","2","","","10859","63","3","4","lose","no-go","0"
"pit-trial","182","1232976","0.0-68.0","battery-v0.2","","""event"",""trial"",""time""
""fullscreenenter"",""1"",""3806""
""blur"",""36"",""439424""
""focus"",""36"",""442857""
","""event"",""trial"",""time""
""blur"",""36"",""439424""
","""event"",""trial"",""time""
""focus"",""36"",""442857""
","""event"",""trial"",""time""
""fullscreenenter"",""1"",""3806""
","
","","","1159.5","","","10","10859","5062","r","elianto","#3366ff99","-1"," ","0","0","[2010.099998474121]","1","2","","","10859","64","1","2","win","no-go","0"
"pit-trial","183","1237024","0.0-69.0","battery-v0.2","","""event"",""trial"",""time""
""fullscreenenter"",""1"",""3806""
""blur"",""36"",""439424""
""focus"",""36"",""442857""
","""event"",""trial"",""time""
""blur"",""36"",""439424""
","""event"",""trial"",""time""
""focus"",""36"",""442857""
","""event"",""trial"",""time""
""fullscreenenter"",""1"",""3806""
","
","","","1195.6000022888184","","","10","10859","5062","c","elianto","#3366ff99","-1"," ","0","0","[2045.7000007629395]","1","2","","","10859","65","5","2","win","no-go","0"
"pit-trial","184","1241876","0.0-70.0","battery-v0.2","","""event"",""trial"",""time""
""fullscreenenter"",""1"",""3806""
""blur"",""36"",""439424""
""focus"",""36"",""442857""
","""event"",""trial"",""time""
""blur"",""36"",""439424""
","""event"",""trial"",""time""
""focus"",""36"",""442857""
","""event"",""trial"",""time""
""fullscreenenter"",""1"",""3806""
","
","","","-1","","","10","10859","5062","r","elianto","#3366ff99","-1","-1","1","+10","[]","0","2","","","10859","66","1","2","win","no-go","0"
"pit-trial","185","1246728","0.0-71.0","battery-v0.2","","""event"",""trial"",""time""
""fullscreenenter"",""1"",""3806""
""blur"",""36"",""439424""
""focus"",""36"",""442857""
","""event"",""trial"",""time""
""blur"",""36"",""439424""
","""event"",""trial"",""time""
""focus"",""36"",""442857""
","""event"",""trial"",""time""
""fullscreenenter"",""1"",""3806""
","
","","","-1","","","10","10859","5062","h","elianto","#f73b6a7A","-1","-1","1","-10","[]","0","2","","","10859","67","3","4","lose","no-go","1"
"pit-trial","186","1251581","0.0-72.0","battery-v0.2","","""event"",""trial"",""time""
""fullscreenenter"",""1"",""3806""
""blur"",""36"",""439424""
""focus"",""36"",""442857""
","""event"",""trial"",""time""
""blur"",""36"",""439424""
","""event"",""trial"",""time""
""focus"",""36"",""442857""
","""event"",""trial"",""time""
""fullscreenenter"",""1"",""3806""
","
","","","-1","","","10","10859","5062","z","elianto","#3366ff99"," ","-1","0","0","[]","0","2","","","10859","68","4","1","win","go","0"
"pit-trial","187","1255743","0.0-73.0","battery-v0.2","","""event"",""trial"",""time""
""fullscreenenter"",""1"",""3806""
""blur"",""36"",""439424""
""focus"",""36"",""442857""
","""event"",""trial"",""time""
""blur"",""36"",""439424""
","""event"",""trial"",""time""
""focus"",""36"",""442857""
","""event"",""trial"",""time""
""fullscreenenter"",""1"",""3806""
","
","","","1310","","","10","10859","5062","y","elianto","#f73b6a7A"," "," ","1","0","[2160.199996948242]","1","2","","","10859","69","2","3","lose","go","0"
"pit-trial","188","1259909","0.0-74.0","battery-v0.2","","""event"",""trial"",""time""
""fullscreenenter"",""1"",""3806""
""blur"",""36"",""439424""
""focus"",""36"",""442857""
","""event"",""trial"",""time""
""blur"",""36"",""439424""
","""event"",""trial"",""time""
""focus"",""36"",""442857""
","""event"",""trial"",""time""
""fullscreenenter"",""1"",""3806""
","
","","","1313.599998474121","","","10","10859","5062","z","elianto","#3366ff99"," "," ","1","+10","[2164.2000007629395]","1","2","","","10859","70","4","1","win","go","0"
"pit-trial","189","1264761","0.0-75.0","battery-v0.2","","""event"",""trial"",""time""
""fullscreenenter"",""1"",""3806""
""blur"",""36"",""439424""
""focus"",""36"",""442857""
","""event"",""trial"",""time""
""blur"",""36"",""439424""
","""event"",""trial"",""time""
""focus"",""36"",""442857""
","""event"",""trial"",""time""
""fullscreenenter"",""1"",""3806""
","
","","","-1","","","10","10859","5062","c","elianto","#3366ff99","-1","-1","1","+10","[]","0","2","","","10859","71","5","2","win","no-go","0"
"pit-trial","190","1269613","0.0-76.0","battery-v0.2","","""event"",""trial"",""time""
""fullscreenenter"",""1"",""3806""
""blur"",""36"",""439424""
""focus"",""36"",""442857""
","""event"",""trial"",""time""
""blur"",""36"",""439424""
","""event"",""trial"",""time""
""focus"",""36"",""442857""
","""event"",""trial"",""time""
