"trial_type","trial_index","time_elapsed","internal_node_id","task_version","subject_id","interactions","blur_events","focus_events","fullscreenenter_events","fullscreenexit_events","success","view_history","rt","responses","num_errors","age","subject","participantId","rune","rune_set","hex","correct","choice","accuracy","outcome","keys","total_keys","block","practice","value","sub","trial","stimulus","robot","valence","action","sham"
"pavlovia","0","9","0.0-0.0","battery-v0.2","","""event"",""trial"",""time""
""fullscreenenter"",""1"",""2014""
","
","
","""event"",""trial"",""time""
""fullscreenenter"",""1"",""2014""
","
","","","","","","","","","","","","","","","","","","","","","","","","","","",""
"fullscreen","1","2968","0.0-1.0","battery-v0.2","","""event"",""trial"",""time""
""fullscreenenter"",""1"",""2014""
","
","
","""event"",""trial"",""time""
""fullscreenenter"",""1"",""2014""
","
","true","","","","","","","","","","","","","","","","","","","","","","","","","",""
"pit-instructions","2","6699","0.0-2.0-0.0","battery-v0.2","","""event"",""trial"",""time""
""fullscreenenter"",""1"",""2014""
","
","
","""event"",""trial"",""time""
""fullscreenenter"",""1"",""2014""
","
","","[{""page_index"":0,""viewing_time"":3727.100000023842}]","3727.899999976158","","","","","","","","","","","","","","","","","","","","","","","",""
"pit-comprehension","3","10063","0.0-2.0-1.0-0.0","battery-v0.2","","""event"",""trial"",""time""
""fullscreenenter"",""1"",""2014""
","
","
","""event"",""trial"",""time""
""fullscreenenter"",""1"",""2014""
","
","","","3359.399999976158","[""shark""]","0","23","10108","4771","","","","","","","","","","","","","","","","","","",""
"pit-instructions","4","11665","0.0-2.0-1.0-1.0","battery-v0.2","","""event"",""trial"",""time""
""fullscreenenter"",""1"",""2014""
","
","
","""event"",""trial"",""time""
""fullscreenenter"",""1"",""2014""
","
","","[{""page_index"":0,""viewing_time"":1586.5}]","1586.7999999523163","","","","","","","","","","","","","","","","","","","","","","","",""
"pit-comprehension","5","14644","0.0-2.0-2.0-0.0","battery-v0.2","","""event"",""trial"",""time""
""fullscreenenter"",""1"",""2014""
","
","
","""event"",""trial"",""time""
""fullscreenenter"",""1"",""2014""
","
","","","2976.7000000476837","[""tiger""]","0","23","10108","4771","","","","","","","","","","","","","","","","","","",""
"pit-instructions","6","15908","0.0-2.0-2.0-1.0","battery-v0.2","","""event"",""trial"",""time""
""fullscreenenter"",""1"",""2014""
","
","
","""event"",""trial"",""time""
""fullscreenenter"",""1"",""2014""
","
","","[{""page_index"":0,""viewing_time"":1258.6000000238419}]","1259.1000000238419","","","","","","","","","","","","","","","","","","","","","","","",""
"pit-instructions","7","114509","0.0-2.0-3.0","battery-v0.2","","""event"",""trial"",""time""
""fullscreenenter"",""1"",""2014""
","
","
","""event"",""trial"",""time""
""fullscreenenter"",""1"",""2014""
","
","","[{""page_index"":0,""viewing_time"":9055.100000023842},{""page_index"":1,""viewing_time"":6748.899999976158},{""page_index"":2,""viewing_time"":7506},{""page_index"":3,""viewing_time"":5383.399999976158},{""page_index"":4,""viewing_time"":6319.300000071526},{""page_index"":5,""viewing_time"":5761.600000023842},{""page_index"":6,""viewing_time"":7510.199999928474},{""page_index"":7,""viewing_time"":6758.5},{""page_index"":8,""viewing_time"":7700.200000047684},{""page_index"":9,""viewing_time"":8281.100000023842},{""page_index"":10,""viewing_time"":7165.699999928474},{""page_index"":11,""viewing_time"":8121},{""page_index"":12,""viewing_time"":6135.600000023842},{""page_index"":13,""viewing_time"":6150.5}]","98597.80000007153","","","","","","","","","","","","","","","","","","","","","","","",""
"pit-trial","8","118008","0.0-2.0-4.0-0.0","battery-v0.2","","""event"",""trial"",""time""
""fullscreenenter"",""1"",""2014""
","
","
","""event"",""trial"",""time""
""fullscreenenter"",""1"",""2014""
","
","","","625.7000000476837","","","23","10108","4771","&#9784;","elianto","#FFFFF080"," "," ","1","&#10004","[1481.1999999284744]","1","0","0","","","","","","","",""
"pit-trial","9","121432","0.0-2.0-4.1-0.1","battery-v0.2","","""event"",""trial"",""time""
""fullscreenenter"",""1"",""2014""
","
","
","""event"",""trial"",""time""
""fullscreenenter"",""1"",""2014""
","
","","","561.4000000953674","","","23","10108","4771","&#9784;","elianto","#FFFFF080"," "," ","1","&#10004","[1418]","1","0","0","","","","","","","",""
"pit-trial","10","125018","0.0-2.0-4.2-0.2","battery-v0.2","","""event"",""trial"",""time""
""fullscreenenter"",""1"",""2014""
","
","
","""event"",""trial"",""time""
""fullscreenenter"",""1"",""2014""
","
","","","723.3000000715256","","","23","10108","4771","&#9784;","elianto","#FFFFF080"," "," ","1","&#10004","[1575.6000000238419]","1","0","0","","","","","","","",""
"pit-trial","11","128544","0.0-2.0-4.3-0.3","battery-v0.2","","""event"",""trial"",""time""
""fullscreenenter"",""1"",""2014""
","
","
","""event"",""trial"",""time""
""fullscreenenter"",""1"",""2014""
","
","","","661.1000000238419","","","23","10108","4771","&#9784;","elianto","#FFFFF080"," "," ","1","&#10004","[1512.3999999761581]","1","0","0","","","","","","","",""
"pit-trial","12","131947","0.0-2.0-4.4-0.4","battery-v0.2","","""event"",""trial"",""time""
""fullscreenenter"",""1"",""2014""
","
","
","""event"",""trial"",""time""
""fullscreenenter"",""1"",""2014""
","
","","","537.6000000238419","","","23","10108","4771","&#9784;","elianto","#FFFFF080"," "," ","1","&#10004","[1388.7999999523163]","1","0","0","","","","","","","",""
"pit-instructions","13","153068","0.0-2.0-5.0","battery-v0.2","","""event"",""trial"",""time""
""fullscreenenter"",""1"",""2014""
","
","
","""event"",""trial"",""time""
""fullscreenenter"",""1"",""2014""
","
","","[{""page_index"":0,""viewing_time"":5251.600000023842},{""page_index"":1,""viewing_time"":5393.399999976158},{""page_index"":2,""viewing_time"":4965.5},{""page_index"":3,""viewing_time"":5506.200000047684}]","21117.100000023842","","","","","","","","","","","","","","","","","","","","","","","",""
"pit-trial","14","157942","0.0-2.0-6.0-0.0","battery-v0.2","","""event"",""trial"",""time""
""fullscreenenter"",""1"",""2014""
","
","
","""event"",""trial"",""time""
""fullscreenenter"",""1"",""2014""
","
","","","-1","","","23","10108","4771","&#9854;","elianto","#FFFFF080","-1","-1","1","&#10004","[]","0","0","1","","","","","","","",""
"pit-trial","15","162815","0.0-2.0-6.1-0.1","battery-v0.2","","""event"",""trial"",""time""
""fullscreenenter"",""1"",""2014""
","
","
","""event"",""trial"",""time""
""fullscreenenter"",""1"",""2014""
","
","","","-1","","","23","10108","4771","&#9854;","elianto","#FFFFF080","-1","-1","1","&#10004","[]","0","0","1","","","","","","","",""
"pit-trial","16","167689","0.0-2.0-6.2-0.2","battery-v0.2","","""event"",""trial"",""time""
""fullscreenenter"",""1"",""2014""
","
","
","""event"",""trial"",""time""
""fullscreenenter"",""1"",""2014""
","
","","","-1","","","23","10108","4771","&#9854;","elianto","#FFFFF080","-1","-1","1","&#10004","[]","0","0","1","","","","","","","",""
"pit-trial","17","172557","0.0-2.0-6.3-0.3","battery-v0.2","","""event"",""trial"",""time""
""fullscreenenter"",""1"",""2014""
","
","
","""event"",""trial"",""time""
""fullscreenenter"",""1"",""2014""
","
","","","-1","","","23","10108","4771","&#9854;","elianto","#FFFFF080","-1","-1","1","&#10004","[]","0","0","1","","","","","","","",""
"pit-trial","18","177426","0.0-2.0-6.4-0.4","battery-v0.2","","""event"",""trial"",""time""
""fullscreenenter"",""1"",""2014""
","
","
","""event"",""trial"",""time""
""fullscreenenter"",""1"",""2014""
","
","","","-1","","","23","10108","4771","&#9854;","elianto","#FFFFF080","-1","-1","1","&#10004","[]","0","0","1","","","","","","","",""
"pit-instructions","19","319047","0.0-2.0-7.0","battery-v0.2","","""event"",""trial"",""time""
""fullscreenenter"",""1"",""2014""
","
","
","""event"",""trial"",""time""
""fullscreenenter"",""1"",""2014""
","
","","[{""page_index"":0,""viewing_time"":6114.899999976158},{""page_index"":1,""viewing_time"":6933.399999976158},{""page_index"":2,""viewing_time"":6435.100000023842},{""page_index"":3,""viewing_time"":6434.799999952316},{""page_index"":4,""viewing_time"":5973.800000071526},{""page_index"":5,""viewing_time"":5786.099999904633},{""page_index"":6,""viewing_time"":4363.5},{""page_index"":7,""viewing_time"":7788},{""page_index"":8,""viewing_time"":6799.900000095367},{""page_index"":9,""viewing_time"":7628.5},{""page_index"":10,""viewing_time"":12872.399999976158},{""page_index"":11,""viewing_time"":16677.5},{""page_index"":12,""viewing_time"":7649.699999928474},{""page_index"":13,""viewing_time"":7656.100000023842},{""page_index"":14,""viewing_time"":7744.700000047684},{""page_index"":15,""viewing_time"":8755.199999928474},{""page_index"":16,""viewing_time"":6738.5},{""page_index"":17,""viewing_time"":9264}]","141616.5","","","","","","","","","","","","","","","","","","","","","","","",""
"pit-trial","20","322530","0.0-2.0-8.0-0.0","battery-v0.2","","""event"",""trial"",""time""
""fullscreenenter"",""1"",""2014""
","
","
","""event"",""trial"",""time""
""fullscreenenter"",""1"",""2014""
","
","","","618.6000000238419","","","23","10108","4771","&#9776;","elianto","#3366ff99"," "," ","1","+10","[1472.3000000715256]","1","0","1","","","","","","","",""
"pit-trial","21","326231","0.0-2.0-8.0-1.0","battery-v0.2","","""event"",""trial"",""time""
""fullscreenenter"",""1"",""2014""
","
","
","""event"",""trial"",""time""
""fullscreenenter"",""1"",""2014""
","
","","","831.7000000476837","","","23","10108","4771","&#9776;","elianto","#3366ff99"," "," ","1","+10","[1685]","1","0","1","","","","","","","",""
"pit-trial","22","329780","0.0-2.0-8.0-2.0","battery-v0.2","","""event"",""trial"",""time""
""fullscreenenter"",""1"",""2014""
","
","
","""event"",""trial"",""time""
""fullscreenenter"",""1"",""2014""
","
","","","680.4000000953674","","","23","10108","4771","&#9776;","elianto","#3366ff99"," "," ","1","+10","[1534.6000000238419]","1","0","1","","","","","","","",""
"pit-trial","23","333205","0.0-2.0-8.0-3.0","battery-v0.2","","""event"",""trial"",""time""
""fullscreenenter"",""1"",""2014""
","
","
","""event"",""trial"",""time""
""fullscreenenter"",""1"",""2014""
","
","","","562.7999999523163","","","23","10108","4771","&#9776;","elianto","#3366ff99"," "," ","1","0","[1419.2999999523163]","1","0","1","","","","","","","",""
"pit-trial","24","336755","0.0-2.0-8.0-4.0","battery-v0.2","","""event"",""trial"",""time""
""fullscreenenter"",""1"",""2014""
","
","
","""event"",""trial"",""time""
""fullscreenenter"",""1"",""2014""
","
","","","690","","","23","10108","4771","&#9776;","elianto","#3366ff99"," "," ","1","+10","[1541.6000000238419]","1","0","1","","","","","","","",""
"pit-trial","25","340223","0.0-2.0-8.1-0.1","battery-v0.2","","""event"",""trial"",""time""
""fullscreenenter"",""1"",""2014""
","
","
","""event"",""trial"",""time""
""fullscreenenter"",""1"",""2014""
","
","","","598","","","23","10108","4771","&#9776;","elianto","#3366ff99"," "," ","1","+10","[1449.8999999761581]","1","0","1","","","","","","","",""
"pit-trial","26","343703","0.0-2.0-8.1-1.1","battery-v0.2","","""event"",""trial"",""time""
""fullscreenenter"",""1"",""2014""
","
","
","""event"",""trial"",""time""
""fullscreenenter"",""1"",""2014""
","
","","","621.6999999284744","","","23","10108","4771","&#9776;","elianto","#3366ff99"," "," ","1","+10","[1475.1000000238419]","1","0","1","","","","","","","",""
"pit-trial","27","347263","0.0-2.0-8.1-2.1","battery-v0.2","","""event"",""trial"",""time""
""fullscreenenter"",""1"",""2014""
","
","
","""event"",""trial"",""time""
""fullscreenenter"",""1"",""2014""
","
","","","700.7999999523163","","","23","10108","4771","&#9776;","elianto","#3366ff99"," "," ","1","+10","[1557.3999999761581]","1","0","1","","","","","","","",""
"pit-trial","28","350970","0.0-2.0-8.1-3.1","battery-v0.2","","""event"",""trial"",""time""
""fullscreenenter"",""1"",""2014""
","
","
","""event"",""trial"",""time""
""fullscreenenter"",""1"",""2014""
","
","","","852.5","","","23","10108","4771","&#9776;","elianto","#3366ff99"," "," ","1","0","[1703.3999999761581]","1","0","1","","","","","","","",""
"pit-trial","29","354247","0.0-2.0-8.1-4.1","battery-v0.2","","""event"",""trial"",""time""
""fullscreenenter"",""1"",""2014""
","
","
","""event"",""trial"",""time""
""fullscreenenter"",""1"",""2014""
","
","","","423.8000000715256","","","23","10108","4771","&#9776;","elianto","#3366ff99"," "," ","1","+10","[1274]","1","0","1","","","","","","","",""
"pit-trial","30","357583","0.0-2.0-8.2-0.2","battery-v0.2","","""event"",""trial"",""time""
""fullscreenenter"",""1"",""2014""
","
","
","""event"",""trial"",""time""
""fullscreenenter"",""1"",""2014""
","
","","","481.5","","","23","10108","4771","&#9776;","elianto","#3366ff99"," "," ","1","+10","[1331.8000000715256]","1","0","1","","","","","","","",""
"pit-trial","31","360877","0.0-2.0-8.2-1.2","battery-v0.2","","""event"",""trial"",""time""
""fullscreenenter"",""1"",""2014""
","
","
","""event"",""trial"",""time""
""fullscreenenter"",""1"",""2014""
","
","","","440.2999999523163","","","23","10108","4771","&#9776;","elianto","#3366ff99"," "," ","1","+10","[1290.5]","1","0","1","","","","","","","",""
"pit-trial","32","364263","0.0-2.0-8.2-2.2","battery-v0.2","","""event"",""trial"",""time""
""fullscreenenter"",""1"",""2014""
","
","
","""event"",""trial"",""time""
""fullscreenenter"",""1"",""2014""
","
","","","531.8999999761581","","","23","10108","4771","&#9776;","elianto","#3366ff99"," "," ","1","+10","[1382.1000000238419]","1","0","1","","","","","","","",""
"pit-trial","33","367635","0.0-2.0-8.2-3.2","battery-v0.2","","""event"",""trial"",""time""
""fullscreenenter"",""1"",""2014""
","
","
","""event"",""trial"",""time""
""fullscreenenter"",""1"",""2014""
","
","","","517.7000000476837","","","23","10108","4771","&#9776;","elianto","#3366ff99"," "," ","1","0","[1368.6999999284744]","1","0","1","","","","","","","",""
"pit-trial","34","370950","0.0-2.0-8.2-4.2","battery-v0.2","","""event"",""trial"",""time""
""fullscreenenter"",""1"",""2014""
","
","
","""event"",""trial"",""time""
""fullscreenenter"",""1"",""2014""
","
","","","460.2000000476837","","","23","10108","4771","&#9776;","elianto","#3366ff99"," "," ","1","+10","[1311.9000000953674]","1","0","1","","","","","","","",""
"call-function","35","370953","0.0-2.0-9.0","battery-v0.2","","""event"",""trial"",""time""
""fullscreenenter"",""1"",""2014""
","
","
","""event"",""trial"",""time""
""fullscreenenter"",""1"",""2014""
","
","","","","","","","","","","","","","","","","","","","","","","","","","","",""
"pit-instructions","36","414342","0.0-2.0-10.0","battery-v0.2","","""event"",""trial"",""time""
""fullscreenenter"",""1"",""2014""
","
","
","""event"",""trial"",""time""
""fullscreenenter"",""1"",""2014""
","
","","[{""page_index"":0,""viewing_time"":9670.800000071526},{""page_index"":1,""viewing_time"":7098.299999952316},{""page_index"":2,""viewing_time"":9798.899999976158},{""page_index"":3,""viewing_time"":9416.200000047684},{""page_index"":4,""viewing_time"":7402.5}]","43387.40000009537","","","","","","","","","","","","","","","","","","","","","","","",""
"pit-trial","37","417851","0.0-2.0-11.0-0.0","battery-v0.2","","""event"",""trial"",""time""
""fullscreenenter"",""1"",""2014""
","
","
","""event"",""trial"",""time""
""fullscreenenter"",""1"",""2014""
","
","","","645.3999999761581","","","23","10108","4771","&#9761;","elianto","#3366ff99","-1"," ","0","0","[1503.3000000715256]","1","0","2","","","","","","","",""
"pit-trial","38","421462","0.0-2.0-11.0-1.0","battery-v0.2","","""event"",""trial"",""time""
""fullscreenenter"",""1"",""2014""
","
","
","""event"",""trial"",""time""
""fullscreenenter"",""1"",""2014""
","
","","","744.0999999046326","","","23","10108","4771","&#9761;","elianto","#3366ff99","-1"," ","0","0","[1594.7000000476837]","1","0","2","","","","","","","",""
"pit-trial","39","424823","0.0-2.0-11.0-2.0","battery-v0.2","","""event"",""trial"",""time""
""fullscreenenter"",""1"",""2014""
","
","
","""event"",""trial"",""time""
""fullscreenenter"",""1"",""2014""
","
","","","497.8000000715256","","","23","10108","4771","&#9761;","elianto","#3366ff99","-1"," ","0","0","[1348.6000000238419]","1","0","2","","","","","","","",""
"pit-trial","40","428237","0.0-2.0-11.0-3.0","battery-v0.2","","""event"",""trial"",""time""
""fullscreenenter"",""1"",""2014""
","
","
","""event"",""trial"",""time""
""fullscreenenter"",""1"",""2014""
","
","","","552.5","","","23","10108","4771","&#9761;","elianto","#3366ff99","-1"," ","0","+10","[1405.1000000238419]","1","0","2","","","","","","","",""
"pit-trial","41","431524","0.0-2.0-11.0-4.0","battery-v0.2","","""event"",""trial"",""time""
""fullscreenenter"",""1"",""2014""
","
","
","""event"",""trial"",""time""
""fullscreenenter"",""1"",""2014""
","
","","","429.59999990463257","","","23","10108","4771","&#9761;","elianto","#3366ff99","-1"," ","0","0","[1283.4000000953674]","1","0","2","","","","","","","",""
"pit-trial","42","434826","0.0-2.0-11.1-0.1","battery-v0.2","","""event"",""trial"",""time""
""fullscreenenter"",""1"",""2014""
","
","
","""event"",""trial"",""time""
""fullscreenenter"",""1"",""2014""
","
","","","445.89999997615814","","","23","10108","4771","&#9761;","elianto","#3366ff99","-1"," ","0","0","[1296.2000000476837]","1","0","2","","","","","","","",""
"pit-trial","43","437884","0.0-2.0-11.1-1.1","battery-v0.2","","""event"",""trial"",""time""
""fullscreenenter"",""1"",""2014""
","
","
","""event"",""trial"",""time""
""fullscreenenter"",""1"",""2014""
","
","","","198.89999997615814","","","23","10108","4771","&#9761;","elianto","#3366ff99","-1"," ","0","0","[1049.1000000238419]","1","0","2","","","","","","","",""
"pit-trial","44","441280","0.0-2.0-11.1-2.1","battery-v0.2","","""event"",""trial"",""time""
""fullscreenenter"",""1"",""2014""
","
","
","""event"",""trial"",""time""
""fullscreenenter"",""1"",""2014""
","
","","","535.3000000715256","","","23","10108","4771","&#9761;","elianto","#3366ff99","-1"," ","0","0","[1386.8999999761581]","1","0","2","","","","","","","",""
"pit-trial","45","446136","0.0-2.0-11.1-3.1","battery-v0.2","","""event"",""trial"",""time""
""fullscreenenter"",""1"",""2014""
","
","
","""event"",""trial"",""time""
""fullscreenenter"",""1"",""2014""
","
","","","-1","","","23","10108","4771","&#9761;","elianto","#3366ff99","-1","-1","1","0","[]","0","0","2","","","","","","","",""
"pit-trial","46","449694","0.0-2.0-11.1-4.1","battery-v0.2","","""event"",""trial"",""time""
""fullscreenenter"",""1"",""2014""
","
","
","""event"",""trial"",""time""
""fullscreenenter"",""1"",""2014""
","
","","","704.9000000953674","","","23","10108","4771","&#9761;","elianto","#3366ff99","-1"," ","0","0","[1555]","1","0","2","","","","","","","",""
"pit-trial","47","453119","0.0-2.0-11.2-0.2","battery-v0.2","","""event"",""trial"",""time""
""fullscreenenter"",""1"",""2014""
","
","
","""event"",""trial"",""time""
""fullscreenenter"",""1"",""2014""
","
","","","560.6000000238419","","","23","10108","4771","&#9761;","elianto","#3366ff99","-1"," ","0","0","[1411.2000000476837]","1","0","2","","","","","","","",""
"pit-trial","48","456425","0.0-2.0-11.2-1.2","battery-v0.2","","""event"",""trial"",""time""
""fullscreenenter"",""1"",""2014""
","
","
","""event"",""trial"",""time""
""fullscreenenter"",""1"",""2014""
","
","","","451.7000000476837","","","23","10108","4771","&#9761;","elianto","#3366ff99","-1"," ","0","0","[1302.2000000476837]","1","0","2","","","","","","","",""
"pit-trial","49","459733","0.0-2.0-11.2-2.2","battery-v0.2","","""event"",""trial"",""time""
""fullscreenenter"",""1"",""2014""
","
","
","""event"",""trial"",""time""
""fullscreenenter"",""1"",""2014""
","
","","","453.2999999523163","","","23","10108","4771","&#9761;","elianto","#3366ff99","-1"," ","0","0","[1303.7000000476837]","1","0","2","","","","","","","",""
"pit-trial","50","463176","0.0-2.0-11.2-3.2","battery-v0.2","","""event"",""trial"",""time""
""fullscreenenter"",""1"",""2014""
","
","
","""event"",""trial"",""time""
""fullscreenenter"",""1"",""2014""
","
","","","588.5","","","23","10108","4771","&#9761;","elianto","#3366ff99","-1"," ","0","+10","[1438.8000000715256]","1","0","2","","","","","","","",""
"pit-trial","51","466648","0.0-2.0-11.2-4.2","battery-v0.2","","""event"",""trial"",""time""
""fullscreenenter"",""1"",""2014""
","
","
","""event"",""trial"",""time""
""fullscreenenter"",""1"",""2014""
","
","","","617.5","","","23","10108","4771","&#9761;","elianto","#3366ff99","-1"," ","0","0","[1468.1000000238419]","1","0","2","","","","","","","",""
"pit-trial","52","469987","0.0-2.0-11.3-0.3","battery-v0.2","","""event"",""trial"",""time""
""fullscreenenter"",""1"",""2014""
","
","
","""event"",""trial"",""time""
""fullscreenenter"",""1"",""2014""
","
","","","481.60000002384186","","","23","10108","4771","&#9761;","elianto","#3366ff99","-1"," ","0","0","[1333.2000000476837]","1","0","2","","","","","","","",""
"pit-trial","53","473451","0.0-2.0-11.3-1.3","battery-v0.2","","""event"",""trial"",""time""
""fullscreenenter"",""1"",""2014""
","
","
","""event"",""trial"",""time""
""fullscreenenter"",""1"",""2014""
","
","","","610.1000000238419","","","23","10108","4771","&#9761;","elianto","#3366ff99","-1"," ","0","0","[1460.5999999046326]","1","0","2","","","","","","","",""
"pit-trial","54","476843","0.0-2.0-11.3-2.3","battery-v0.2","","""event"",""trial"",""time""
""fullscreenenter"",""1"",""2014""
","
","
","""event"",""trial"",""time""
""fullscreenenter"",""1"",""2014""
","
","","","538.2000000476837","","","23","10108","4771","&#9761;","elianto","#3366ff99","-1"," ","0","0","[1389.1000000238419]","1","0","2","","","","","","","",""
"pit-trial","55","480127","0.0-2.0-11.3-3.3","battery-v0.2","","""event"",""trial"",""time""
""fullscreenenter"",""1"",""2014""
","
","
","""event"",""trial"",""time""
""fullscreenenter"",""1"",""2014""
","
","","","430.2000000476837","","","23","10108","4771","&#9761;","elianto","#3366ff99","-1"," ","0","+10","[1280.3000000715256]","1","0","2","","","","","","","",""
"pit-trial","56","483577","0.0-2.0-11.3-4.3","battery-v0.2","","""event"",""trial"",""time""
""fullscreenenter"",""1"",""2014""
","
","
","""event"",""trial"",""time""
""fullscreenenter"",""1"",""2014""
","
","","","595.2000000476837","","","23","10108","4771","&#9761;","elianto","#3366ff99","-1"," ","0","0","[1446.3999999761581]","1","0","2","","","","","","","",""
"call-function","57","483580","0.0-2.0-12.0","battery-v0.2","","""event"",""trial"",""time""
""fullscreenenter"",""1"",""2014""
","
","
","""event"",""trial"",""time""
""fullscreenenter"",""1"",""2014""
","
","","","","","","","","","","","","","","","","","","","","","","","","","","",""
"pit-instructions","58","521132","0.0-2.0-13.0","battery-v0.2","","""event"",""trial"",""time""
""fullscreenenter"",""1"",""2014""
","
","
","""event"",""trial"",""time""
""fullscreenenter"",""1"",""2014""
","
","","[{""page_index"":0,""viewing_time"":6557},{""page_index"":1,""viewing_time"":7993.300000071526},{""page_index"":2,""viewing_time"":7617.799999952316},{""page_index"":3,""viewing_time"":11218.200000047684},{""page_index"":4,""viewing_time"":4163.5}]","37550.300000071526","","","","","","","","","","","","","","","","","","","","","","","",""
"pit-trial","59","524486","0.0-2.0-14.0-0.0","battery-v0.2","","""event"",""trial"",""time""
""fullscreenenter"",""1"",""2014""
","
","
","""event"",""trial"",""time""
""fullscreenenter"",""1"",""2014""
","
","","","487","","","23","10108","4771","&#9826;","elianto","#f73b6a7A","-1"," ","0","-10","[1344.3000000715256]","1","0","3","","","","","","","",""
"pit-trial","60","529353","0.0-2.0-14.0-1.0","battery-v0.2","","""event"",""trial"",""time""
""fullscreenenter"",""1"",""2014""
","
","
","""event"",""trial"",""time""
""fullscreenenter"",""1"",""2014""
","
","","","-1","","","23","10108","4771","&#9826;","elianto","#f73b6a7A","-1","-1","1","0","[]","0","0","3","","","","","","","",""
"pit-trial","61","534228","0.0-2.0-14.0-2.0","battery-v0.2","","""event"",""trial"",""time""
""fullscreenenter"",""1"",""2014""
","
","
","""event"",""trial"",""time""
""fullscreenenter"",""1"",""2014""
","
","","","-1","","","23","10108","4771","&#9826;","elianto","#f73b6a7A","-1","-1","1","0","[]","0","0","3","","","","","","","",""
"pit-trial","62","539095","0.0-2.0-14.0-3.0","battery-v0.2","","""event"",""trial"",""time""
""fullscreenenter"",""1"",""2014""
","
","
","""event"",""trial"",""time""
""fullscreenenter"",""1"",""2014""
","
","","","-1","","","23","10108","4771","&#9826;","elianto","#f73b6a7A","-1","-1","1","-10","[]","0","0","3","","","","","","","",""
"pit-trial","63","543967","0.0-2.0-14.0-4.0","battery-v0.2","","""event"",""trial"",""time""
""fullscreenenter"",""1"",""2014""
","
","
","""event"",""trial"",""time""
""fullscreenenter"",""1"",""2014""
","
","","","-1","","","23","10108","4771","&#9826;","elianto","#f73b6a7A","-1","-1","1","0","[]","0","0","3","","","","","","","",""
"pit-trial","64","548849","0.0-2.0-14.1-0.1","battery-v0.2","","""event"",""trial"",""time""
""fullscreenenter"",""1"",""2014""
","
","
","""event"",""trial"",""time""
""fullscreenenter"",""1"",""2014""
","
","","","-1","","","23","10108","4771","&#9826;","elianto","#f73b6a7A","-1","-1","1","0","[]","0","0","3","","","","","","","",""
"pit-trial","65","553703","0.0-2.0-14.1-1.1","battery-v0.2","","""event"",""trial"",""time""
""fullscreenenter"",""1"",""2014""
","
","
","""event"",""trial"",""time""
""fullscreenenter"",""1"",""2014""
","
","","","-1","","","23","10108","4771","&#9826;","elianto","#f73b6a7A","-1","-1","1","0","[]","0","0","3","","","","","","","",""
"pit-trial","66","558556","0.0-2.0-14.1-2.1","battery-v0.2","","""event"",""trial"",""time""
""fullscreenenter"",""1"",""2014""
","
","
","""event"",""trial"",""time""
""fullscreenenter"",""1"",""2014""
","
","","","-1","","","23","10108","4771","&#9826;","elianto","#f73b6a7A","-1","-1","1","0","[]","0","0","3","","","","","","","",""
"pit-trial","67","563410","0.0-2.0-14.1-3.1","battery-v0.2","","""event"",""trial"",""time""
""fullscreenenter"",""1"",""2014""
","
","
","""event"",""trial"",""time""
""fullscreenenter"",""1"",""2014""
","
","","","-1","","","23","10108","4771","&#9826;","elianto","#f73b6a7A","-1","-1","1","-10","[]","0","0","3","","","","","","","",""
"pit-trial","68","568265","0.0-2.0-14.1-4.1","battery-v0.2","","""event"",""trial"",""time""
""fullscreenenter"",""1"",""2014""
","
","
","""event"",""trial"",""time""
""fullscreenenter"",""1"",""2014""
","
","","","-1","","","23","10108","4771","&#9826;","elianto","#f73b6a7A","-1","-1","1","0","[]","0","0","3","","","","","","","",""
"pit-trial","69","573119","0.0-2.0-14.2-0.2","battery-v0.2","","""event"",""trial"",""time""
""fullscreenenter"",""1"",""2014""
","
","
","""event"",""trial"",""time""
""fullscreenenter"",""1"",""2014""
","
","","","-1","","","23","10108","4771","&#9826;","elianto","#f73b6a7A","-1","-1","1","0","[]","0","0","3","","","","","","","",""
"pit-trial","70","577972","0.0-2.0-14.2-1.2","battery-v0.2","","""event"",""trial"",""time""
""fullscreenenter"",""1"",""2014""
","
","
","""event"",""trial"",""time""
""fullscreenenter"",""1"",""2014""
","
","","","-1","","","23","10108","4771","&#9826;","elianto","#f73b6a7A","-1","-1","1","0","[]","0","0","3","","","","","","","",""
"pit-trial","71","582826","0.0-2.0-14.2-2.2","battery-v0.2","","""event"",""trial"",""time""
""fullscreenenter"",""1"",""2014""
","
","
","""event"",""trial"",""time""
""fullscreenenter"",""1"",""2014""
","
","","","-1","","","23","10108","4771","&#9826;","elianto","#f73b6a7A","-1","-1","1","0","[]","0","0","3","","","","","","","",""
"pit-trial","72","587681","0.0-2.0-14.2-3.2","battery-v0.2","","""event"",""trial"",""time""
""fullscreenenter"",""1"",""2014""
","
","
","""event"",""trial"",""time""
""fullscreenenter"",""1"",""2014""
","
","","","-1","","","23","10108","4771","&#9826;","elianto","#f73b6a7A","-1","-1","1","-10","[]","0","0","3","","","","","","","",""
"pit-trial","73","592534","0.0-2.0-14.2-4.2","battery-v0.2","","""event"",""trial"",""time""
""fullscreenenter"",""1"",""2014""
","
","
","""event"",""trial"",""time""
""fullscreenenter"",""1"",""2014""
","
","","","-1","","","23","10108","4771","&#9826;","elianto","#f73b6a7A","-1","-1","1","0","[]","0","0","3","","","","","","","",""
"pit-trial","74","597387","0.0-2.0-14.3-0.3","battery-v0.2","","""event"",""trial"",""time""
""fullscreenenter"",""1"",""2014""
","
","
","""event"",""trial"",""time""
""fullscreenenter"",""1"",""2014""
","
","","","-1","","","23","10108","4771","&#9826;","elianto","#f73b6a7A","-1","-1","1","0","[]","0","0","3","","","","","","","",""
"pit-trial","75","602243","0.0-2.0-14.3-1.3","battery-v0.2","","""event"",""trial"",""time""
""fullscreenenter"",""1"",""2014""
","
","
","""event"",""trial"",""time""
""fullscreenenter"",""1"",""2014""
","
","","","-1","","","23","10108","4771","&#9826;","elianto","#f73b6a7A","-1","-1","1","0","[]","0","0","3","","","","","","","",""
"pit-trial","76","607098","0.0-2.0-14.3-2.3","battery-v0.2","","""event"",""trial"",""time""
""fullscreenenter"",""1"",""2014""
","
","
","""event"",""trial"",""time""
""fullscreenenter"",""1"",""2014""
","
","","","-1","","","23","10108","4771","&#9826;","elianto","#f73b6a7A","-1","-1","1","0","[]","0","0","3","","","","","","","",""
"pit-trial","77","611951","0.0-2.0-14.3-3.3","battery-v0.2","","""event"",""trial"",""time""
""fullscreenenter"",""1"",""2014""
","
","
","""event"",""trial"",""time""
""fullscreenenter"",""1"",""2014""
","
","","","-1","","","23","10108","4771","&#9826;","elianto","#f73b6a7A","-1","-1","1","-10","[]","0","0","3","","","","","","","",""
"pit-trial","78","616805","0.0-2.0-14.3-4.3","battery-v0.2","","""event"",""trial"",""time""
""fullscreenenter"",""1"",""2014""
","
","
","""event"",""trial"",""time""
""fullscreenenter"",""1"",""2014""
","
","","","-1","","","23","10108","4771","&#9826;","elianto","#f73b6a7A","-1","-1","1","0","[]","0","0","3","","","","","","","",""
"call-function","79","616808","0.0-2.0-15.0","battery-v0.2","","""event"",""trial"",""time""
""fullscreenenter"",""1"",""2014""
","
","
","""event"",""trial"",""time""
""fullscreenenter"",""1"",""2014""
","
","","","","","","","","","","","","","","","","","","","","","","","","","","",""
"pit-instructions","80","642441","0.0-2.0-16.0","battery-v0.2","","""event"",""trial"",""time""
""fullscreenenter"",""1"",""2014""
","
","
","""event"",""trial"",""time""
""fullscreenenter"",""1"",""2014""
","
","","[{""page_index"":0,""viewing_time"":7381},{""page_index"":1,""viewing_time"":8514.800000071526},{""page_index"":2,""viewing_time"":4654.600000023842},{""page_index"":3,""viewing_time"":5080.699999928474}]","25631.5","","","","","","","","","","","","","","","","","","","","","","","",""
"pit-trial","81","647320","0.0-2.0-17.0-0.0","battery-v0.2","","""event"",""trial"",""time""
""fullscreenenter"",""1"",""2014""
","
","
","""event"",""trial"",""time""
""fullscreenenter"",""1"",""2014""
","
","","","-1","","","23","10108","4771","&#9789;","elianto","#f73b6a7A"," ","-1","0","-10","[]","0","0","4","","","","","","","",""
"pit-trial","82","650848","0.0-2.0-17.0-1.0","battery-v0.2","","""event"",""trial"",""time""
""fullscreenenter"",""1"",""2014""
","
","
","""event"",""trial"",""time""
""fullscreenenter"",""1"",""2014""
","
","","","662.5","","","23","10108","4771","&#9789;","elianto","#f73b6a7A"," "," ","1","0","[1516.1999999284744]","1","0","4","","","","","","","",""
"pit-trial","83","653895","0.0-2.0-17.0-2.0","battery-v0.2","","""event"",""trial"",""time""
""fullscreenenter"",""1"",""2014""
","
","
","""event"",""trial"",""time""
""fullscreenenter"",""1"",""2014""
","
","","","187.19999992847443","","","23","10108","4771","&#9789;","elianto","#f73b6a7A"," "," ","1","0","[1038.6999999284744]","1","0","4","","","","","","","",""
"pit-trial","84","657673","0.0-2.0-17.0-3.0","battery-v0.2","","""event"",""trial"",""time""
""fullscreenenter"",""1"",""2014""
","
","
","""event"",""trial"",""time""
""fullscreenenter"",""1"",""2014""
","
","","","916.3000000715256","","","23","10108","4771","&#9789;","elianto","#f73b6a7A"," "," ","1","-10","[1768.7000000476837]","1","0","4","","","","","","","",""
"pit-trial","85","660968","0.0-2.0-17.0-4.0","battery-v0.2","","""event"",""trial"",""time""
""fullscreenenter"",""1"",""2014""
","
","
","""event"",""trial"",""time""
""fullscreenenter"",""1"",""2014""
","
","","","429.60000002384186","","","23","10108","4771","&#9789;","elianto","#f73b6a7A"," "," ","1","0","[1280.8000000715256]","1","0","4","","","","","","","",""
"pit-trial","86","664268","0.0-2.0-17.1-0.1","battery-v0.2","","""event"",""trial"",""time""
""fullscreenenter"",""1"",""2014""
","
","
","""event"",""trial"",""time""
""fullscreenenter"",""1"",""2014""
","
","","","431.59999990463257","","","23","10108","4771","&#9789;","elianto","#f73b6a7A"," "," ","1","0","[1281.8999999761581]","1","0","4","","","","","","","",""
"pit-trial","87","667563","0.0-2.0-17.1-1.1","battery-v0.2","","""event"",""trial"",""time""
""fullscreenenter"",""1"",""2014""
","
","
","""event"",""trial"",""time""
""fullscreenenter"",""1"",""2014""
","
","","","430.2000000476837","","","23","10108","4771","&#9789;","elianto","#f73b6a7A"," "," ","1","0","[1281.5]","1","0","4","","","","","","","",""
"pit-trial","88","670816","0.0-2.0-17.1-2.1","battery-v0.2","","""event"",""trial"",""time""
""fullscreenenter"",""1"",""2014""
","
","
","""event"",""trial"",""time""
""fullscreenenter"",""1"",""2014""
","
","","","391.89999997615814","","","23","10108","4771","&#9789;","elianto","#f73b6a7A"," "," ","1","0","[1248.2999999523163]","1","0","4","","","","","","","",""
"pit-trial","89","674095","0.0-2.0-17.1-3.1","battery-v0.2","","""event"",""trial"",""time""
""fullscreenenter"",""1"",""2014""
","
","
","""event"",""trial"",""time""
""fullscreenenter"",""1"",""2014""
","
","","","420.89999997615814","","","23","10108","4771","&#9789;","elianto","#f73b6a7A"," "," ","1","-10","[1275.8999999761581]","1","0","4","","","","","","","",""
"pit-trial","90","677196","0.0-2.0-17.1-4.1","battery-v0.2","","""event"",""trial"",""time""
""fullscreenenter"",""1"",""2014""
","
","
","""event"",""trial"",""time""
""fullscreenenter"",""1"",""2014""
","
","","","246.19999992847443","","","23","10108","4771","&#9789;","elianto","#f73b6a7A"," "," ","1","0","[1097.1000000238419]","1","0","4","","","","","","","",""
"pit-trial","91","680491","0.0-2.0-17.2-0.2","battery-v0.2","","""event"",""trial"",""time""
""fullscreenenter"",""1"",""2014""
","
","
","""event"",""trial"",""time""
""fullscreenenter"",""1"",""2014""
","
","","","439.3000000715256","","","23","10108","4771","&#9789;","elianto","#f73b6a7A"," "," ","1","0","[1289.2999999523163]","1","0","4","","","","","","","",""
"pit-trial","92","683800","0.0-2.0-17.2-1.2","battery-v0.2","","""event"",""trial"",""time""
""fullscreenenter"",""1"",""2014""
","
","
","""event"",""trial"",""time""
""fullscreenenter"",""1"",""2014""
","
","","","455.5","","","23","10108","4771","&#9789;","elianto","#f73b6a7A"," "," ","1","0","[1305.6000000238419]","1","0","4","","","","","","","",""
"pit-trial","93","687119","0.0-2.0-17.2-2.2","battery-v0.2","","""event"",""trial"",""time""
""fullscreenenter"",""1"",""2014""
","
","
","""event"",""trial"",""time""
""fullscreenenter"",""1"",""2014""
","
","","","465.2999999523163","","","23","10108","4771","&#9789;","elianto","#f73b6a7A"," "," ","1","0","[1316.3999999761581]","1","0","4","","","","","","","",""
"pit-trial","94","690477","0.0-2.0-17.2-3.2","battery-v0.2","","""event"",""trial"",""time""
""fullscreenenter"",""1"",""2014""
","
","
","""event"",""trial"",""time""
""fullscreenenter"",""1"",""2014""
","
","","","502.3000000715256","","","23","10108","4771","&#9789;","elianto","#f73b6a7A"," "," ","1","-10","[1352.8000000715256]","1","0","4","","","","","","","",""
"pit-trial","95","694064","0.0-2.0-17.2-4.2","battery-v0.2","","""event"",""trial"",""time""
""fullscreenenter"",""1"",""2014""
","
","
","""event"",""trial"",""time""
""fullscreenenter"",""1"",""2014""
","
","","","733.5","","","23","10108","4771","&#9789;","elianto","#f73b6a7A"," "," ","1","0","[1584.0999999046326]","1","0","4","","","","","","","",""
"pit-trial","96","697609","0.0-2.0-17.3-0.3","battery-v0.2","","""event"",""trial"",""time""
""fullscreenenter"",""1"",""2014""
","
","
","""event"",""trial"",""time""
""fullscreenenter"",""1"",""2014""
","
","","","691.8999999761581","","","23","10108","4771","&#9789;","elianto","#f73b6a7A"," "," ","1","0","[1542.7999999523163]","1","0","4","","","","","","","",""
"pit-trial","97","700914","0.0-2.0-17.3-1.3","battery-v0.2","","""event"",""trial"",""time""
""fullscreenenter"",""1"",""2014""
","
","
","""event"",""trial"",""time""
""fullscreenenter"",""1"",""2014""
","
","","","450.39999997615814","","","23","10108","4771","&#9789;","elianto","#f73b6a7A"," "," ","1","0","[1300.7999999523163]","1","0","4","","","","","","","",""
"pit-trial","98","704179","0.0-2.0-17.3-2.3","battery-v0.2","","""event"",""trial"",""time""
""fullscreenenter"",""1"",""2014""
","
","
","""event"",""trial"",""time""
""fullscreenenter"",""1"",""2014""
","
","","","409.39999997615814","","","23","10108","4771","&#9789;","elianto","#f73b6a7A"," "," ","1","0","[1259.7999999523163]","1","0","4","","","","","","","",""
"pit-trial","99","707513","0.0-2.0-17.3-3.3","battery-v0.2","","""event"",""trial"",""time""
""fullscreenenter"",""1"",""2014""
","
","
","""event"",""trial"",""time""
""fullscreenenter"",""1"",""2014""
","
","","","480.39999997615814","","","23","10108","4771","&#9789;","elianto","#f73b6a7A"," "," ","1","-10","[1330.7000000476837]","1","0","4","","","","","","","",""
"pit-trial","100","710785","0.0-2.0-17.3-4.3","battery-v0.2","","""event"",""trial"",""time""
""fullscreenenter"",""1"",""2014""
","
","
","""event"",""trial"",""time""
""fullscreenenter"",""1"",""2014""
","
","","","417.60000002384186","","","23","10108","4771","&#9789;","elianto","#f73b6a7A"," "," ","1","0","[1268.1000000238419]","1","0","4","","","","","","","",""
"call-function","101","710788","0.0-2.0-18.0","battery-v0.2","","""event"",""trial"",""time""
""fullscreenenter"",""1"",""2014""
","
","
","""event"",""trial"",""time""
""fullscreenenter"",""1"",""2014""
","
","","","","","","","","","","","","","","","","","","","","","","","","","","",""
"pit-instructions","102","782043","0.0-2.0-19.0","battery-v0.2","","""event"",""trial"",""time""
""fullscreenenter"",""1"",""2014""
","
","
","""event"",""trial"",""time""
""fullscreenenter"",""1"",""2014""
","
","","[{""page_index"":0,""viewing_time"":6655.699999928474},{""page_index"":1,""viewing_time"":6263.899999976158},{""page_index"":2,""viewing_time"":15715.900000095367},{""page_index"":3,""viewing_time"":8606.299999952316},{""page_index"":4,""viewing_time"":7678.299999952316},{""page_index"":5,""viewing_time"":8735.5},{""page_index"":6,""viewing_time"":8826},{""page_index"":7,""viewing_time"":4399.800000071526},{""page_index"":8,""viewing_time"":4372.899999976158}]","71255","","","","","","","","","","","","","","","","","","","","","","","",""
"pit-comprehension","103","787399","0.0-2.0-20.0-0.0","battery-v0.2","","""event"",""trial"",""time""
""fullscreenenter"",""1"",""2014""
","
","
","""event"",""trial"",""time""
""fullscreenenter"",""1"",""2014""
","
","","","5352.100000023842","[""SPACE""]","0","23","10108","4771","","","","","","","","","","","","","","","","","","",""
"pit-instructions","104","792684","0.0-2.0-20.0-1.0","battery-v0.2","","""event"",""trial"",""time""
""fullscreenenter"",""1"",""2014""
","
","
","""event"",""trial"",""time""
""fullscreenenter"",""1"",""2014""
","
","","[{""page_index"":0,""viewing_time"":5252.399999976158}]","5252.799999952316","","","","","","","","","","","","","","","","","","","","","","","",""
"pit-comprehension","105","798736","0.0-2.0-21.0-0.0","battery-v0.2","","""event"",""trial"",""time""
""fullscreenenter"",""1"",""2014""
","
","
","""event"",""trial"",""time""
""fullscreenenter"",""1"",""2014""
","
","","","6048.700000047684","[""10""]","0","23","10108","4771","","","","","","","","","","","","","","","","","","",""
"pit-instructions","106","801685","0.0-2.0-21.0-1.0","battery-v0.2","","""event"",""trial"",""time""
""fullscreenenter"",""1"",""2014""
","
","
","""event"",""trial"",""time""
""fullscreenenter"",""1"",""2014""
","
","","[{""page_index"":0,""viewing_time"":2903.2000000476837}]","2903.9000000953674","","","","","","","","","","","","","","","","","","","","","","","",""
"pit-comprehension","107","808305","0.0-2.0-22.0-0.0","battery-v0.2","","""event"",""trial"",""time""
""fullscreenenter"",""1"",""2014""
","
","
","""event"",""trial"",""time""
""fullscreenenter"",""1"",""2014""
","
","","","6614.299999952316","[""0""]","0","23","10108","4771","","","","","","","","","","","","","","","","","","",""
"pit-instructions","108","810520","0.0-2.0-22.0-1.0","battery-v0.2","","""event"",""trial"",""time""
""fullscreenenter"",""1"",""2014""
","
","
","""event"",""trial"",""time""
""fullscreenenter"",""1"",""2014""
","
","","[{""page_index"":0,""viewing_time"":2169.600000023842}]","2170.4000000953674","","","","","","","","","","","","","","","","","","","","","","","",""
"pit-comprehension","109","819104","0.0-2.0-23.0-0.0","battery-v0.2","","""event"",""trial"",""time""
""fullscreenenter"",""1"",""2014""
","
","
","""event"",""trial"",""time""
""fullscreenenter"",""1"",""2014""
","
","","","8579.600000023842","[""True""]","0","23","10108","4771","","","","","","","","","","","","","","","","","","",""
"pit-instructions","110","820963","0.0-2.0-23.0-1.0","battery-v0.2","","""event"",""trial"",""time""
""fullscreenenter"",""1"",""2014""
","
","
","""event"",""trial"",""time""
""fullscreenenter"",""1"",""2014""
","
","","[{""page_index"":0,""viewing_time"":1827.2999999523163}]","1827.7999999523163","","","","","","","","","","","","","","","","","","","","","","","",""
"pit-comprehension","111","828504","0.0-2.0-24.0-0.0","battery-v0.2","","""event"",""trial"",""time""
""fullscreenenter"",""1"",""2014""
","
","
","""event"",""trial"",""time""
""fullscreenenter"",""1"",""2014""
","
","","","7537.799999952316","[""True""]","0","23","10108","4771","","","","","","","","","","","","","","","","","","",""
"pit-instructions","112","830335","0.0-2.0-24.0-1.0","battery-v0.2","","""event"",""trial"",""time""
""fullscreenenter"",""1"",""2014""
","
","
","""event"",""trial"",""time""
""fullscreenenter"",""1"",""2014""
","
","","[{""page_index"":0,""viewing_time"":1778.2999999523163}]","1779","","","","","","","","","","","","","","","","","","","","","","","",""
"pit-comprehension","113","838985","0.0-2.0-25.0-0.0","battery-v0.2","","""event"",""trial"",""time""
""fullscreenenter"",""1"",""2014""
","
","
","""event"",""trial"",""time""
""fullscreenenter"",""1"",""2014""
","
","","","8644.5","[""True""]","0","23","10108","4771","","","","","","","","","","","","","","","","","","",""
"pit-instructions","114","841999","0.0-2.0-25.0-1.0","battery-v0.2","","""event"",""trial"",""time""
""fullscreenenter"",""1"",""2014""
","
","
","""event"",""trial"",""time""
""fullscreenenter"",""1"",""2014""
","
","","[{""page_index"":0,""viewing_time"":2969.7999999523163}]","2970.2999999523163","","","","","","","","","","","","","","","","","","","","","","","",""
"pit-comprehension","115","848454","0.0-2.0-26.0-0.0","battery-v0.2","","""event"",""trial"",""time""
""fullscreenenter"",""1"",""2014""
","
","
","""event"",""trial"",""time""
""fullscreenenter"",""1"",""2014""
","
","","","6452.5","[""False""]","0","23","10108","4771","","","","","","","","","","","","","","","","","","",""
"pit-instructions","116","850468","0.0-2.0-26.0-1.0","battery-v0.2","","""event"",""trial"",""time""
""fullscreenenter"",""1"",""2014""
","
","
","""event"",""trial"",""time""
""fullscreenenter"",""1"",""2014""
","
","","[{""page_index"":0,""viewing_time"":1981.7999999523163}]","1982.5","","","","","","","","","","","","","","","","","","","","","","","",""
"pit-instructions","117","869453","0.0-3.0","battery-v0.2","","""event"",""trial"",""time""
""fullscreenenter"",""1"",""2014""
","
","
","""event"",""trial"",""time""
""fullscreenenter"",""1"",""2014""
","
","","[{""page_index"":0,""viewing_time"":3925.4000000953674},{""page_index"":1,""viewing_time"":5966.699999928474},{""page_index"":2,""viewing_time"":9089.200000047684}]","18981.700000047684","","","","","","","","","","","","","","","","","","","","","","","",""
"pit-trial","118","873086","0.0-4.0","battery-v0.2","","""event"",""trial"",""time""
""fullscreenenter"",""1"",""2014""
","
","
","""event"",""trial"",""time""
""fullscreenenter"",""1"",""2014""
","
","","","771.2999999523163","","","23","10108","4771","&#9728;","elianto","#f73b6a7A","-1"," ","0","-10","[1622.1000000238419]","1","1","","","10108","1","0","4","lose","no-go","0"
"pit-trial","119","876912","0.0-5.0","battery-v0.2","","""event"",""trial"",""time""
""fullscreenenter"",""1"",""2014""
","
","
","""event"",""trial"",""time""
""fullscreenenter"",""1"",""2014""
","
","","","962","","","23","10108","4771","&#9730;","elianto","#3366ff99"," "," ","1","+10","[1815.1999999284744]","1","1","","","10108","2","1","1","win","go","0"
"pit-trial","120","880795","0.0-6.0","battery-v0.2","","""event"",""trial"",""time""
""fullscreenenter"",""1"",""2014""
","
","
","""event"",""trial"",""time""
""fullscreenenter"",""1"",""2014""
","
","","","1010.8000000715256","","","23","10108","4771","&#9733;","elianto","#3366ff99","-1"," ","0","0","[1865.5]","1","1","","","10108","3","2","2","win","no-go","0"
"pit-trial","121","884862","0.0-7.0","battery-v0.2","","""event"",""trial"",""time""
""fullscreenenter"",""1"",""2014""
","
","
","""event"",""trial"",""time""
""fullscreenenter"",""1"",""2014""
","
","","","1195.6999999284744","","","23","10108","4771","&#9752;","elianto","#f73b6a7A"," "," ","1","0","[2058.600000023842]","1","1","","","10108","4","3","3","lose","go","0"
"pit-trial","122","889735","0.0-8.0","battery-v0.2","","""event"",""trial"",""time""
""fullscreenenter"",""1"",""2014""
","
","
","""event"",""trial"",""time""
""fullscreenenter"",""1"",""2014""
","
","","","-1","","","23","10108","4771","&#9728;","elianto","#f73b6a7A","-1","-1","1","-10","[]","0","1","","","10108","5","0","4","lose","no-go","1"
"pit-trial","123","893906","0.0-9.0","battery-v0.2","","""event"",""trial"",""time""
""fullscreenenter"",""1"",""2014""
","
","
","""event"",""trial"",""time""
""fullscreenenter"",""1"",""2014""
","
","","","1296","","","23","10108","4771","&#9730;","elianto","#3366ff99"," "," ","1","+10","[2155.100000023842]","1","1","","","10108","6","1","1","win","go","0"
"pit-trial","124","898770","0.0-10.0","battery-v0.2","","""event"",""trial"",""time""
""fullscreenenter"",""1"",""2014""
","
","
","""event"",""trial"",""time""
""fullscreenenter"",""1"",""2014""
","
","","","-1","","","23","10108","4771","&#9733;","elianto","#3366ff99","-1","-1","1","0","[]","0","1","","","10108","7","2","2","win","no-go","1"
"pit-trial","125","903293","0.0-11.0","battery-v0.2","","""event"",""trial"",""time""
""fullscreenenter"",""1"",""2014""
","
","
","""event"",""trial"",""time""
""fullscreenenter"",""1"",""2014""
","
","","","1668.6000000238419","","","23","10108","4771","&#9752;","elianto","#f73b6a7A"," "," ","1","0","[2518.899999976158]","1","1","","","10108","8","3","3","lose","go","0"
"pit-trial","126","907722","0.0-12.0","battery-v0.2","","""event"",""trial"",""time""
""fullscreenenter"",""1"",""2014""
","
","
","""event"",""trial"",""time""
""fullscreenenter"",""1"",""2014""
","
","","","1576.8000000715256","","","23","10108","4771","&#9733;","elianto","#3366ff99","-1"," ","0","0","[2427.3000000715256]","1","1","","","10108","9","2","2","win","no-go","0"
"pit-trial","127","911831","0.0-13.0","battery-v0.2","","""event"",""trial"",""time""
""fullscreenenter"",""1"",""2014""
","
","
","""event"",""trial"",""time""
""fullscreenenter"",""1"",""2014""
","
","","","1254.5","","","23","10108","4771","&#9730;","elianto","#3366ff99"," "," ","1","+10","[2104.8000000715256]","1","1","","","10108","10","1","1","win","go","0"
"pit-trial","128","916686","0.0-14.0","battery-v0.2","","""event"",""trial"",""time""
""fullscreenenter"",""1"",""2014""
","
","
","""event"",""trial"",""time""
""fullscreenenter"",""1"",""2014""
","
","","","-1","","","23","10108","4771","&#9728;","elianto","#f73b6a7A","-1","-1","1","0","[]","0","1","","","10108","11","0","4","lose","no-go","0"
"pit-trial","129","920540","0.0-15.0","battery-v0.2","","""event"",""trial"",""time""
""fullscreenenter"",""1"",""2014""
","
","
","""event"",""trial"",""time""
""fullscreenenter"",""1"",""2014""
","
","","","1000","","","23","10108","4771","&#9752;","elianto","#f73b6a7A"," "," ","1","-10","[1850.2000000476837]","1","1","","","10108","12","3","3","lose","go","1"
"pit-trial","130","925394","0.0-16.0","battery-v0.2","","""event"",""trial"",""time""
""fullscreenenter"",""1"",""2014""
","
","
","""event"",""trial"",""time""
""fullscreenenter"",""1"",""2014""
","
","","","-1","","","23","10108","4771","&#9733;","elianto","#3366ff99","-1","-1","1","0","[]","0","1","","","10108","13","2","2","win","no-go","1"
"pit-trial","131","930248","0.0-17.0","battery-v0.2","","""event"",""trial"",""time""
""fullscreenenter"",""1"",""2014""
","
","
","""event"",""trial"",""time""
""fullscreenenter"",""1"",""2014""
","
","","","-1","","","23","10108","4771","&#9728;","elianto","#f73b6a7A","-1","-1","1","0","[]","0","1","","","10108","14","0","4","lose","no-go","0"
"pit-trial","132","934095","0.0-18.0","battery-v0.2","","""event"",""trial"",""time""
""fullscreenenter"",""1"",""2014""
","
","
","""event"",""trial"",""time""
""fullscreenenter"",""1"",""2014""
","
","","","992.7000000476837","","","23","10108","4771","&#9752;","elianto","#f73b6a7A"," "," ","1","0","[1843.2000000476837]","1","1","","","10108","15","3","3","lose","go","0"
"pit-trial","133","937938","0.0-19.0","battery-v0.2","","""event"",""trial"",""time""
""fullscreenenter"",""1"",""2014""
","
","
","""event"",""trial"",""time""
""fullscreenenter"",""1"",""2014""
","
","","","989.1000000238419","","","23","10108","4771","&#9730;","elianto","#3366ff99"," "," ","1","+10","[1839.2000000476837]","1","1","","","10108","16","1","1","win","go","0"
"pit-trial","134","942793","0.0-20.0","battery-v0.2","","""event"",""trial"",""time""
""fullscreenenter"",""1"",""2014""
","
","
","""event"",""trial"",""time""
""fullscreenenter"",""1"",""2014""
","
","","","-1","","","23","10108","4771","&#9728;","elianto","#f73b6a7A","-1","-1","1","0","[]","0","1","","","10108","17","0","4","lose","no-go","0"
"pit-trial","135","946850","0.0-21.0","battery-v0.2","","""event"",""trial"",""time""
""fullscreenenter"",""1"",""2014""
","
","
","""event"",""trial"",""time""
""fullscreenenter"",""1"",""2014""
","
","","","1202.6000000238419","","","23","10108","4771","&#9752;","elianto","#f73b6a7A"," "," ","1","0","[2053.5]","1","1","","","10108","18","3","3","lose","go","0"
"pit-trial","136","950739","0.0-22.0","battery-v0.2","","""event"",""trial"",""time""
""fullscreenenter"",""1"",""2014""
","
","
","""event"",""trial"",""time""
""fullscreenenter"",""1"",""2014""
","
","","","1037","","","23","10108","4771","&#9730;","elianto","#3366ff99"," "," ","1","+10","[1887.4000000953674]","1","1","","","10108","19","1","1","win","go","0"
"pit-trial","137","955595","0.0-23.0","battery-v0.2","","""event"",""trial"",""time""
""fullscreenenter"",""1"",""2014""
","
","
","""event"",""trial"",""time""
""fullscreenenter"",""1"",""2014""
","
","","","-1","","","23","10108","4771","&#9733;","elianto","#3366ff99","-1","-1","1","+10","[]","0","1","","","10108","20","2","2","win","no-go","0"
"pit-instructions","138","973236","0.0-24.0","battery-v0.2","","""event"",""trial"",""time""
""fullscreenenter"",""1"",""2014""
","
","
","""event"",""trial"",""time""
""fullscreenenter"",""1"",""2014""
","
","","[{""page_index"":0,""viewing_time"":6562.700000047684},{""page_index"":1,""viewing_time"":11075.299999952316}]","17638.600000023842","","","","","","","","","","","","","","","","","","","","","","","",""
"pit-trial","139","977077","0.0-25.0","battery-v0.2","","""event"",""trial"",""time""
""fullscreenenter"",""1"",""2014""
","
","
","""event"",""trial"",""time""
""fullscreenenter"",""1"",""2014""
","
","","","969.2000000476837","","","23","10108","4771","m","elianto","#f73b6a7A","-1"," ","0","-10","[1824.2000000476837]","1","2","","","10108","21","0","4","lose","no-go","0"
"pit-trial","140","980889","0.0-26.0","battery-v0.2","","""event"",""trial"",""time""
""fullscreenenter"",""1"",""2014""
","
","
","""event"",""trial"",""time""
""fullscreenenter"",""1"",""2014""
","
","","","955.3999999761581","","","23","10108","4771","y","elianto","#f73b6a7A","-1"," ","0","-10","[1805.8999999761581]","1","2","","","10108","22","2","4","lose","no-go","0"
"pit-trial","141","984688","0.0-27.0","battery-v0.2","","""event"",""trial"",""time""
""fullscreenenter"",""1"",""2014""
","
","
","""event"",""trial"",""time""
""fullscreenenter"",""1"",""2014""
","
","","","939.1999999284744","","","23","10108","4771","r","elianto","#3366ff99"," "," ","1","+10","[1793.7999999523163]","1","2","","","10108","23","1","1","win","go","0"
"pit-trial","142","988711","0.0-28.0","battery-v0.2","","""event"",""trial"",""time""
""fullscreenenter"",""1"",""2014""
","
","
","""event"",""trial"",""time""
""fullscreenenter"",""1"",""2014""
","
","","","1148.5","","","23","10108","4771","h","elianto","#f73b6a7A"," "," ","1","0","[2004.7000000476837]","1","2","","","10108","24","3","3","lose","go","0"
"pit-trial","143","993579","0.0-29.0","battery-v0.2","","""event"",""trial"",""time""
""fullscreenenter"",""1"",""2014""
","
","
","""event"",""trial"",""time""
""fullscreenenter"",""1"",""2014""
","
","","","-1","","","23","10108","4771","y","elianto","#f73b6a7A","-1","-1","1","-10","[]","0","2","","","10108","25","2","4","lose","no-go","1"
"pit-trial","144","997751","0.0-30.0","battery-v0.2","","""event"",""trial"",""time""
""fullscreenenter"",""1"",""2014""
","
","
","""event"",""trial"",""time""
""fullscreenenter"",""1"",""2014""
","
","","","1304.7999999523163","","","23","10108","4771","h","elianto","#f73b6a7A"," "," ","1","0","[2156.6999999284744]","1","2","","","10108","26","3","3","lose","go","0"
"pit-trial","145","1002606","0.0-31.0","battery-v0.2","","""event"",""trial"",""time""
""fullscreenenter"",""1"",""2014""
","
","
","""event"",""trial"",""time""
""fullscreenenter"",""1"",""2014""
","
","","","-1","","","23","10108","4771","m","elianto","#f73b6a7A","-1","-1","1","0","[]","0","2","","","10108","27","0","4","lose","no-go","0"
"pit-trial","146","1007462","0.0-32.0","battery-v0.2","","""event"",""trial"",""time""
""fullscreenenter"",""1"",""2014""
","
","
","""event"",""trial"",""time""
""fullscreenenter"",""1"",""2014""
","
","","","-1","","","23","10108","4771","r","elianto","#3366ff99"," ","-1","0","0","[]","0","2","","","10108","28","1","1","win","go","0"
"pit-trial","147","1012317","0.0-33.0","battery-v0.2","","""event"",""trial"",""time""
""fullscreenenter"",""1"",""2014""
","
","
","""event"",""trial"",""time""
""fullscreenenter"",""1"",""2014""
","
","","","-1","","","23","10108","4771","y","elianto","#f73b6a7A","-1","-1","1","0","[]","0","2","","","10108","29","2","4","lose","no-go","0"
"pit-trial","148","1016734","0.0-34.0","battery-v0.2","","""event"",""trial"",""time""
""fullscreenenter"",""1"",""2014""
","
","
","""event"",""trial"",""time""
""fullscreenenter"",""1"",""2014""
","
","","","1561.1999999284744","","","23","10108","4771","h","elianto","#f73b6a7A"," "," ","1","0","[2412.5]","1","2","","","10108","30","3","3","lose","go","0"
"pit-trial","149","1021589","0.0-35.0","battery-v0.2","","""event"",""trial"",""time""
""fullscreenenter"",""1"",""2014""
","
","
","""event"",""trial"",""time""
""fullscreenenter"",""1"",""2014""
","
","","","-1","","","23","10108","4771","m","elianto","#f73b6a7A","-1","-1","1","0","[]","0","2","","","10108","31","0","4","lose","no-go","0"
"pit-trial","150","1025163","0.0-36.0","battery-v0.2","","""event"",""trial"",""time""
""fullscreenenter"",""1"",""2014""
","
","
","""event"",""trial"",""time""
""fullscreenenter"",""1"",""2014""
","
","","","717.8000000715256","","","23","10108","4771","r","elianto","#3366ff99"," "," ","1","+10","[1569.4000000953674]","1","2","","","10108","32","1","1","win","go","0"
"pit-trial","151","1029502","0.0-37.0","battery-v0.2","","""event"",""trial"",""time""
""fullscreenenter"",""1"",""2014""
","
","
","""event"",""trial"",""time""
""fullscreenenter"",""1"",""2014""
","
","","","1483.6999999284744","","","23","10108","4771","h","elianto","#f73b6a7A"," "," ","1","0","[2334.100000023842]","1","2","","","10108","33","3","3","lose","go","0"
"pit-trial","152","1033410","0.0-38.0","battery-v0.2","","""event"",""trial"",""time""
""fullscreenenter"",""1"",""2014""
","
","
","""event"",""trial"",""time""
""fullscreenenter"",""1"",""2014""
","
","","","1053.5","","","23","10108","4771","r","elianto","#3366ff99"," "," ","1","+10","[1903.8999999761581]","1","2","","","10108","34","1","1","win","go","0"
"pit-trial","153","1038278","0.0-39.0","battery-v0.2","","""event"",""trial"",""time""
""fullscreenenter"",""1"",""2014""
","
","
","""event"",""trial"",""time""
""fullscreenenter"",""1"",""2014""
","
","","","-1","","","23","10108","4771","m","elianto","#f73b6a7A","-1","-1","1","0","[]","0","2","","","10108","35","0","4","lose","no-go","0"
"pit-trial","154","1043133","0.0-40.0","battery-v0.2","","""event"",""trial"",""time""
""fullscreenenter"",""1"",""2014""
","
","
","""event"",""trial"",""time""
""fullscreenenter"",""1"",""2014""
","
","","","-1","","","23","10108","4771","y","elianto","#f73b6a7A","-1","-1","1","0","[]","0","2","","","10108","36","2","4","lose","no-go","0"
"pit-trial","155","1047988","0.0-41.0","battery-v0.2","","""event"",""trial"",""time""
""fullscreenenter"",""1"",""2014""
","
","
","""event"",""trial"",""time""
""fullscreenenter"",""1"",""2014""
","
","","","-1","","","23","10108","4771","y","elianto","#f73b6a7A","-1","-1","1","0","[]","0","2","","","10108","37","2","4","lose","no-go","0"
"pit-trial","156","1051665","0.0-42.0","battery-v0.2","","""event"",""trial"",""time""
""fullscreenenter"",""1"",""2014""
","
","
","""event"",""trial"",""time""
""fullscreenenter"",""1"",""2014""
","
","","","822.7000000476837","","","23","10108","4771","r","elianto","#3366ff99"," "," ","1","+10","[1673.7999999523163]","1","2","","","10108","38","1","1","win","go","0"
"pit-trial","157","1056527","0.0-43.0","battery-v0.2","","""event"",""trial"",""time""
""fullscreenenter"",""1"",""2014""
","
","
","""event"",""trial"",""time""
""fullscreenenter"",""1"",""2014""
","
","","","-1","","","23","10108","4771","m","elianto","#f73b6a7A","-1","-1","1","-10","[]","0","2","","","10108","39","0","4","lose","no-go","1"
"pit-trial","158","1060429","0.0-44.0","battery-v0.2","","""event"",""trial"",""time""
""fullscreenenter"",""1"",""2014""
","
","
","""event"",""trial"",""time""
""fullscreenenter"",""1"",""2014""
","
","","","1036.7000000476837","","","23","10108","4771","h","elianto","#f73b6a7A"," "," ","1","0","[1887.1000000238419]","1","2","","","10108","40","3","3","lose","go","0"
"pit-trial","159","1065284","0.0-45.0","battery-v0.2","","""event"",""trial"",""time""
""fullscreenenter"",""1"",""2014""
","
","
","""event"",""trial"",""time""
""fullscreenenter"",""1"",""2014""
","
","","","-1","","","23","10108","4771","m","elianto","#f73b6a7A","-1","-1","1","0","[]","0","2","","","10108","41","0","4","lose","no-go","0"
"pit-trial","160","1068922","0.0-46.0","battery-v0.2","","""event"",""trial"",""time""
""fullscreenenter"",""1"",""2014""
","
","
","""event"",""trial"",""time""
""fullscreenenter"",""1"",""2014""
","
","","","782.8999999761581","","","23","10108","4771","r","elianto","#3366ff99"," "," ","1","+10","[1634.0999999046326]","1","2","","","10108","42","1","1","win","go","0"
"pit-trial","161","1073776","0.0-47.0","battery-v0.2","","""event"",""trial"",""time""
""fullscreenenter"",""1"",""2014""
","
","
","""event"",""trial"",""time""
""fullscreenenter"",""1"",""2014""
","
","","","-1","","","23","10108","4771","y","elianto","#f73b6a7A","-1","-1","1","0","[]","0","2","","","10108","43","2","4","lose","no-go","0"
"pit-trial","162","1077479","0.0-48.0","battery-v0.2","","""event"",""trial"",""time""
""fullscreenenter"",""1"",""2014""
","
","
","""event"",""trial"",""time""
""fullscreenenter"",""1"",""2014""
","
","","","848.1999999284744","","","23","10108","4771","h","elianto","#f73b6a7A"," "," ","1","0","[1699.1999999284744]","1","2","","","10108","44","3","3","lose","go","0"
"pit-trial","163","1081272","0.0-49.0","battery-v0.2","","""event"",""trial"",""time""
""fullscreenenter"",""1"",""2014""
","
","
","""event"",""trial"",""time""
""fullscreenenter"",""1"",""2014""
","
","","","938.1999999284744","","","23","10108","4771","h","elianto","#f73b6a7A"," "," ","1","0","[1788.2000000476837]","1","2","","","10108","45","3","3","lose","go","0"
"pit-trial","164","1086127","0.0-50.0","battery-v0.2","","""event"",""trial"",""time""
""fullscreenenter"",""1"",""2014""
","
","
","""event"",""trial"",""time""
""fullscreenenter"",""1"",""2014""
","
","","","-1","","","23","10108","4771","m","elianto","#f73b6a7A","-1","-1","1","0","[]","0","2","","","10108","46","0","4","lose","no-go","0"
"pit-trial","165","1090305","0.0-51.0","battery-v0.2","","""event"",""trial"",""time""
""fullscreenenter"",""1"",""2014""
","
","
","""event"",""trial"",""time""
""fullscreenenter"",""1"",""2014""
","
","","","1324.8999999761581","","","23","10108","4771","z","elianto","#3366ff99","-1"," ","0","0","[2175.0999999046326]","1","2","","","10108","47","4","2","win","no-go","0"
"pit-trial","166","1095159","0.0-52.0","battery-v0.2","","""event"",""trial"",""time""
""fullscreenenter"",""1"",""2014""
","
","
","""event"",""trial"",""time""
""fullscreenenter"",""1"",""2014""
","
","","","-1","","","23","10108","4771","y","elianto","#f73b6a7A","-1","-1","1","0","[]","0","2","","","10108","48","2","4","lose","no-go","0"
"pit-trial","167","1100014","0.0-53.0","battery-v0.2","","""event"",""trial"",""time""
""fullscreenenter"",""1"",""2014""
","
","
","""event"",""trial"",""time""
""fullscreenenter"",""1"",""2014""
","
","","","-1","","","23","10108","4771","m","elianto","#f73b6a7A","-1","-1","1","0","[]","0","2","","","10108","49","0","4","lose","no-go","0"
"pit-trial","168","1103711","0.0-54.0","battery-v0.2","","""event"",""trial"",""time""
""fullscreenenter"",""1"",""2014""
","
","
","""event"",""trial"",""time""
""fullscreenenter"",""1"",""2014""
","
","","","841.5","","","23","10108","4771","h","elianto","#f73b6a7A"," "," ","1","0","[1692.4000000953674]","1","2","","","10108","50","3","3","lose","go","0"
"pit-trial","169","1107357","0.0-55.0","battery-v0.2","","""event"",""trial"",""time""
""fullscreenenter"",""1"",""2014""
","
","
","""event"",""trial"",""time""
""fullscreenenter"",""1"",""2014""
","
","","","791.5999999046326","","","23","10108","4771","r","elianto","#3366ff99"," "," ","1","+10","[1642.5]","1","2","","","10108","51","1","1","win","go","0"
"pit-trial","170","1112211","0.0-56.0","battery-v0.2","","""event"",""trial"",""time""
""fullscreenenter"",""1"",""2014""
","
","
","""event"",""trial"",""time""
""fullscreenenter"",""1"",""2014""
","
","","","-1","","","23","10108","4771","z","elianto","#3366ff99","-1","-1","1","+10","[]","0","2","","","10108","52","4","2","win","no-go","0"
"pit-trial","171","1117065","0.0-57.0","battery-v0.2","","""event"",""trial"",""time""
""fullscreenenter"",""1"",""2014""
","
","
","""event"",""trial"",""time""
""fullscreenenter"",""1"",""2014""
","
","","","-1","","","23","10108","4771","y","elianto","#f73b6a7A","-1","-1","1","0","[]","0","2","","","10108","53","2","4","lose","no-go","0"
"pit-trial","172","1120851","0.0-58.0","battery-v0.2","","""event"",""trial"",""time""
""fullscreenenter"",""1"",""2014""
","
","
","""event"",""trial"",""time""
""fullscreenenter"",""1"",""2014""
","
","","","930.7000000476837","","","23","10108","4771","r","elianto","#3366ff99"," "," ","1","+10","[1781.2999999523163]","1","2","","","10108","54","1","1","win","go","0"
"pit-trial","173","1125705","0.0-59.0","battery-v0.2","","""event"",""trial"",""time""
""fullscreenenter"",""1"",""2014""
","
","
","""event"",""trial"",""time""
""fullscreenenter"",""1"",""2014""
","
","","","-1","","","23","10108","4771","z","elianto","#3366ff99","-1","-1","1","0","[]","0","2","","","10108","55","4","2","win","no-go","1"
"pit-trial","174","1130561","0.0-60.0","battery-v0.2","","""event"",""trial"",""time""
""fullscreenenter"",""1"",""2014""
","
","
","""event"",""trial"",""time""
""fullscreenenter"",""1"",""2014""
","
","","","-1","","","23","10108","4771","m","elianto","#f73b6a7A","-1","-1","1","0","[]","0","2","","","10108","56","0","4","lose","no-go","0"
"pit-trial","175","1134420","0.0-61.0","battery-v0.2","","""event"",""trial"",""time""
""fullscreenenter"",""1"",""2014""
","
","
","""event"",""trial"",""time""
""fullscreenenter"",""1"",""2014""
","
","","","1005.1999999284744","","","23","10108","4771","r","elianto","#3366ff99"," "," ","1","+10","[1855.3999999761581]","1","2","","","10108","57","1","1","win","go","0"
"pit-trial","176","1139276","0.0-62.0","battery-v0.2","","""event"",""trial"",""time""
""fullscreenenter"",""1"",""2014""
","
","
","""event"",""trial"",""time""
""fullscreenenter"",""1"",""2014""
","
","","","-1","","","23","10108","4771","z","elianto","#3366ff99","-1","-1","1","+10","[]","0","2","","","10108","58","4","2","win","no-go","0"
"pit-trial","177","1144131","0.0-63.0","battery-v0.2","","""event"",""trial"",""time""
""fullscreenenter"",""1"",""2014""
","
","
","""event"",""trial"",""time""
""fullscreenenter"",""1"",""2014""
","
","","","-1","","","23","10108","4771","m","elianto","#f73b6a7A","-1","-1","1","0","[]","0","2","","","10108","59","0","4","lose","no-go","0"
"pit-trial","178","1147796","0.0-64.0","battery-v0.2","","""event"",""trial"",""time""
""fullscreenenter"",""1"",""2014""
","
","
","""event"",""trial"",""time""
""fullscreenenter"",""1"",""2014""
","
","","","811","","","23","10108","4771","h","elianto","#f73b6a7A"," "," ","1","0","[1660.8999999761581]","1","2","","","10108","60","3","3","lose","go","0"
"pit-trial","179","1152653","0.0-65.0","battery-v0.2","","""event"",""trial"",""time""
""fullscreenenter"",""1"",""2014""
","
","
","""event"",""trial"",""time""
""fullscreenenter"",""1"",""2014""
","
","","","-1","","","23","10108","4771","z","elianto","#3366ff99","-1","-1","1","+10","[]","0","2","","","10108","61","4","2","win","no-go","0"
"pit-trial","180","1157507","0.0-66.0","battery-v0.2","","""event"",""trial"",""time""
""fullscreenenter"",""1"",""2014""
","
","
","""event"",""trial"",""time""
""fullscreenenter"",""1"",""2014""
","
","","","-1","","","23","10108","4771","y","elianto","#f73b6a7A","-1","-1","1","0","[]","0","2","","","10108","62","2","4","lose","no-go","0"
"pit-trial","181","1161395","0.0-67.0","battery-v0.2","","""event"",""trial"",""time""
""fullscreenenter"",""1"",""2014""
","
","
","""event"",""trial"",""time""
""fullscreenenter"",""1"",""2014""
","
","","","1033.0999999046326","","","23","10108","4771","r","elianto","#3366ff99"," "," ","1","+10","[1884.1000000238419]","1","2","","","10108","63","1","1","win","go","0"
"pit-trial","182","1165293","0.0-68.0","battery-v0.2","","""event"",""trial"",""time""
""fullscreenenter"",""1"",""2014""
","
","
","""event"",""trial"",""time""
""fullscreenenter"",""1"",""2014""
","
","","","1042.5","","","23","10108","4771","h","elianto","#f73b6a7A"," "," ","1","-10","[1892.7000000476837]","1","2","","","10108","64","3","3","lose","go","1"
"pit-trial","183","1170147","0.0-69.0","battery-v0.2","","""event"",""trial"",""time""
""fullscreenenter"",""1"",""2014""
","
","
","""event"",""trial"",""time""
""fullscreenenter"",""1"",""2014""
","
","","","-1","","","23","10108","4771","y","elianto","#f73b6a7A","-1","-1","1","0","[]","0","2","","","10108","65","2","4","lose","no-go","0"
"pit-trial","184","1175003","0.0-70.0","battery-v0.2","","""event"",""trial"",""time""
""fullscreenenter"",""1"",""2014""
","
","
","""event"",""trial"",""time""
""fullscreenenter"",""1"",""2014""
","
","","","-1","","","23","10108","4771","z","elianto","#3366ff99","-1","-1","1","+10","[]","0","2","","","10108","66","4","2","win","no-go","0"
"pit-trial","185","1179109","0.0-71.0","battery-v0.2","","""event"",""trial"",""time""
""fullscreenenter"",""1"",""2014""
","
","
","""event"",""trial"",""time""
""fullscreenenter"",""1"",""2014""
","
","","","1250.5","","","23","10108","4771","r","elianto","#3366ff99"," "," ","1","+10","[2101.600000023842]","1","2","","","10108","67","1","1","win","go","0"
"pit-trial","186","1182945","0.0-72.0","battery-v0.2","","""event"",""trial"",""time""
""fullscreenenter"",""1"",""2014""
","
","
","""event"",""trial"",""time""
""fullscreenenter"",""1"",""2014""
","
","","","981.5999999046326","","","23","10108","4771","h","elianto","#f73b6a7A"," "," ","1","0","[1832.5]","1","2","","","10108","68","3","3","lose","go","0"
"pit-trial","187","1186676","0.0-73.0","battery-v0.2","","""event"",""trial"",""time""
""fullscreenenter"",""1"",""2014""
","
","
","""event"",""trial"",""time""
""fullscreenenter"",""1"",""2014""
","
","","","876.2999999523163","","","23","10108","4771","r","elianto","#3366ff99"," "," ","1","+10","[1727.2999999523163]","1","2","","","10108","69","1","1","win","go","0"
"pit-trial","188","1191532","0.0-74.0","battery-v0.2","","""event"",""trial"",""time""
""fullscreenenter"",""1"",""2014""
","
","
","""event"",""trial"",""time""
""fullscreenenter"",""1"",""2014""
","
","","","-1","","","23","10108","4771","z","elianto","#3366ff99","-1","-1","1","+10","[]","0","2","","","10108","70","4","2","win","no-go","0"
"pit-trial","189","1195650","0.0-75.0","battery-v0.2","","""event"",""trial"",""time""
""fullscreenenter"",""1"",""2014""
","
","
","""event"",""trial"",""time""
""fullscreenenter"",""1"",""2014""
","
","","","1260.2000000476837","","","23","10108","4771","c","elianto","#3366ff99"," "," ","1","0","[2113.399999976158]","1","2","","","10108","71","5","1","win","go","1"
"pit-trial","190","1199462","0.0-76.0","battery-v0.2","","""event"",""trial"",""time""
""fullscreenenter"",""1"",""2014""
","
","
","""event"",""trial"",""time""
""fullscreenenter"",""1"",""2014""
","
","","","956.2000000476837","","","23","10108","4771","h","elianto","#f73b6a7A"," "," ","1","-10","[1808.1000000238419]","1","2","","","10108","72","3","3","lose","go","1"
"pit-trial","191","1204316","0.0-77.0","battery-v0.2","","""event"",""trial"",""time""
""fullscreenenter"",""1"",""2014""
","
","
","""event"",""trial"",""time""
""fullscreenenter"",""1"",""2014""
","
","","","-1","","","23","10108","4771","c","elianto","#3366ff99"," ","-1","0","0","[]","0","2","","","10108","73","5","1","win","go","0"
"pit-trial","192","1208193","0.0-78.0","battery-v0.2","","""event"",""trial"",""time""
""fullscreenenter"",""1"",""2014""
","
","
","""event"",""trial"",""time""
""fullscreenenter"",""1"",""2014""
","
","","","1023.5","","","23","10108","4771","r","elianto","#3366ff99"," "," ","1","+10","[1873.8999999761581]","1","2","","","10108","74","1","1","win","go","0"
"pit-trial","193","1211912","0.0-79.0","battery-v0.2","","""event"",""trial"",""time""
""fullscreenenter"",""1"",""2014""
","
","
","""event"",""trial"",""time""
""fullscreenenter"",""1"",""2014""
","
","","","864.7000000476837","","","23","10108","4771","h","elianto","#f73b6a7A"," "," ","1","-10","[1714.8999999761581]","1","2","","","10108","75","3","3","lose","go","1"
"pit-trial","194","1216767","0.0-80.0","battery-v0.2","","""event"",""trial"",""time""
""fullscreenenter"",""1"",""2014""
","
","
","""event"",""trial"",""time""
""fullscreenenter"",""1"",""2014""
","
","","","-1","","","23","10108","4771","z","elianto","#3366ff99","-1","-1","1","0","[]","0","2","","","10108","76","4","2","win","no-go","1"
"pit-trial","195","1221622","0.0-81.0","battery-v0.2","","""event"",""trial"",""time""
""fullscreenenter"",""1"",""2014""
","
","
","""event"",""trial"",""time""
""fullscreenenter"",""1"",""2014""
","
","","","-1","","","23","10108","4771","z","elianto","#3366ff99","-1","-1","1","+10","[]","0","2","","","10108","77","4","2","win","no-go","0"
"pit-trial","196","1225447","0.0-82.0","battery-v0.2","","""event"",""trial"",""time""
""fullscreenenter"",""1"",""2014""
","
","
","""event"",""trial"",""time""
""fullscreenenter"",""1"",""2014""
","
","","","969.2999999523163","","","23","10108","4771","h","elianto","#f73b6a7A"," "," ","1","0","[1819.3999999761581]","1","2","","","10108","78","3","3","lose","go","0"
"pit-trial","197","1229823","0.0-83.0","battery-v0.2","","""event"",""trial"",""time""
""fullscreenenter"",""1"",""2014""
","
","
","""event"",""trial"",""time""
""fullscreenenter"",""1"",""2014""
","
","","","1522.2000000476837","","","23","10108","4771","b","elianto","#f73b6a7A","-1"," ","0","-10","[2372.600000023842]","1","2","","","10108","79","6","4","lose","no-go","0"
"pit-trial","198","1234683","0.0-84.0","battery-v0.2","","""event"",""trial"",""time""
""fullscreenenter"",""1"",""2014""
","
","
","""event"",""trial"",""time""
""fullscreenenter"",""1"",""2014""
","
","","","-1","","","23","10108","4771","c","elianto","#3366ff99"," ","-1","0","+10","[]","0","2","","","10108","80","5","1","win","go","1"
"pit-trial","199","1238700","0.0-85.0","battery-v0.2","","""event"",""trial"",""time""
""fullscreenenter"",""1"",""2014""
","
","
","""event"",""trial"",""time""
""fullscreenenter"",""1"",""2014""
","
","","","1161.6999999284744","","","23","10108","4771","t","elianto","#f73b6a7A"," "," ","1","0","[2012.1000000238419]","1","2","","","10108","81","7","3","lose","go","0"
"pit-trial","200","1243554","0.0-86.0","battery-v0.2","","""event"",""trial"",""time""
""fullscreenenter"",""1"",""2014""
","
","
","""event"",""trial"",""time""
""fullscreenenter"",""1"",""2014""
","
","","","-1","","","23","10108","4771","z","elianto","#3366ff99","-1","-1","1","+10","[]","0","2","","","10108","82","4","2","win","no-go","0"
"pit-trial","201","1248422","0.0-87.0","battery-v0.2","","""event"",""trial"",""time""
""fullscreenenter"",""1"",""2014""
","
","
","""event"",""trial"",""time""
""fullscreenenter"",""1"",""2014""
","
","","","-1","","","23","10108","4771","b","elianto","#f73b6a7A","-1","-1","1","0","[]","0","2","","","10108","83","6","4","lose","no-go","0"
"pit-trial","202","1253277","0.0-88.0","battery-v0.2","","""event"",""trial"",""time""
""fullscreenenter"",""1"",""2014""
","
","
","""event"",""trial"",""time""
""fullscreenenter"",""1"",""2014""
","
","","","-1","","","23","10108","4771","c","elianto","#3366ff99"," ","-1","0","0","[]","0","2","","","10108","84","5","1","win","go","0"
"pit-trial","203","1258131","0.0-89.0","battery-v0.2","","""event"",""trial"",""time""
""fullscreenenter"",""1"",""2014""
","
","
","""event"",""trial"",""time""
""fullscreenenter"",""1"",""2014""
","
","","","-1","","","23","10108","4771","c","elianto","#3366ff99"," ","-1","0","0","[]","0","2","","","10108","85","5","1","win","go","0"
"pit-trial","204","1262985","0.0-90.0","battery-v0.2","","""event"",""trial"",""time""
""fullscreenenter"",""1"",""2014""
","
","
","""event"",""trial"",""time""
""fullscreenenter"",""1"",""2014""
","
","","","-1","","","23","10108","4771","b","elianto","#f73b6a7A","-1","-1","1","0","[]","0","2","","","10108","86","6","4","lose","no-go","0"
"pit-trial","205","1267841","0.0-91.0","battery-v0.2","","""event"",""trial"",""time""
""fullscreenenter"",""1"",""2014""
","
","
","""event"",""trial"",""time""
""fullscreenenter"",""1"",""2014""
","
","","","-1","","","23","10108","4771","z","elianto","#3366ff99","-1","-1","1","+10","[]","0","2","","","10108","87","4","2","win","no-go","0"
"pit-trial","206","1271726","0.0-92.0","battery-v0.2","","""event"",""trial"",""time""
""fullscreenenter"",""1"",""2014""
","
","
","""event"",""trial"",""time""
""fullscreenenter"",""1"",""2014""
","
","","","1031.0999999046326","","","23","10108","4771","t","elianto","#f73b6a7A"," "," ","1","0","[1881.5999999046326]","1","2","","","10108","88","7","3","lose","go","0"
"pit-trial","207","1275274","0.0-93.0","battery-v0.2","","""event"",""trial"",""time""
""fullscreenenter"",""1"",""2014""
","
","
","""event"",""trial"",""time""
""fullscreenenter"",""1"",""2014""
","
","","","695.2999999523163","","","23","10108","4771","c","elianto","#3366ff99"," "," ","1","0","[1546.1000000238419]","1","2","","","10108","89","5","1","win","go","1"
"pit-trial","208","1280127","0.0-94.0","battery-v0.2","","""event"",""trial"",""time""
""fullscreenenter"",""1"",""2014""
","
","
","""event"",""trial"",""time""
""fullscreenenter"",""1"",""2014""
","
","","","-1","","","23","10108","4771","b","elianto","#f73b6a7A","-1","-1","1","0","[]","0","2","","","10108","90","6","4","lose","no-go","0"
"pit-trial","209","1283910","0.0-95.0","battery-v0.2","","""event"",""trial"",""time""
""fullscreenenter"",""1"",""2014""
","
","
","""event"",""trial"",""time""
""fullscreenenter"",""1"",""2014""
","
","","","930.1000000238419","","","23","10108","4771","t","elianto","#f73b6a7A"," "," ","1","0","[1780.3999999761581]","1","2","","","10108","91","7","3","lose","go","0"
"pit-trial","210","1288764","0.0-96.0","battery-v0.2","","""event"",""trial"",""time""
""fullscreenenter"",""1"",""2014""
","
","
","""event"",""trial"",""time""
""fullscreenenter"",""1"",""2014""
","
","","","-1","","","23","10108","4771","z","elianto","#3366ff99","-1","-1","1","+10","[]","0","2","","","10108","92","4","2","win","no-go","0"
"pit-trial","211","1292707","0.0-97.0","battery-v0.2","","""event"",""trial"",""time""
""fullscreenenter"",""1"",""2014""
","
","
","""event"",""trial"",""time""
""fullscreenenter"",""1"",""2014""
","
","","","1088.7000000476837","","","23","10108","4771","t","elianto","#f73b6a7A"," "," ","1","0","[1938.8999999761581]","1","2","","","10108","93","7","3","lose","go","0"
"pit-trial","212","1296769","0.0-98.0","battery-v0.2","","""event"",""trial"",""time""
""fullscreenenter"",""1"",""2014""
","
","
","""event"",""trial"",""time""
""fullscreenenter"",""1"",""2014""
","
","","","1208.3999999761581","","","23","10108","4771","f","elianto","#3366ff99","-1"," ","0","+10","[2058.8000000715256]","1","2","","","10108","94","8","2","win","no-go","1"
"pit-trial","213","1301624","0.0-99.0","battery-v0.2","","""event"",""trial"",""time""
""fullscreenenter"",""1"",""2014""
","
","
","""event"",""trial"",""time""
""fullscreenenter"",""1"",""2014""
","
","","","-1","","","23","10108","4771","b","elianto","#f73b6a7A","-1","-1","1","0","[]","0","2","","","10108","95","6","4","lose","no-go","0"
"pit-trial","214","1305104","0.0-100.0","battery-v0.2","","""event"",""trial"",""time""
""fullscreenenter"",""1"",""2014""
","
","
","""event"",""trial"",""time""
""fullscreenenter"",""1"",""2014""
","
","","","624.6000000238419","","","23","10108","4771","c","elianto","#3366ff99"," "," ","1","0","[1475.5]","1","2","","","10108","96","5","1","win","go","1"
"pit-trial","215","1309266","0.0-101.0","battery-v0.2","","""event"",""trial"",""time""
""fullscreenenter"",""1"",""2014""
","
","
","""event"",""trial"",""time""
""fullscreenenter"",""1"",""2014""
","
","","","1306.8999999761581","","","23","10108","4771","f","elianto","#3366ff99","-1"," ","0","+10","[2157.1999999284744]","1","2","","","10108","97","8","2","win","no-go","1"
"pit-trial","216","1314120","0.0-102.0","battery-v0.2","","""event"",""trial"",""time""
""fullscreenenter"",""1"",""2014""
","
","
","""event"",""trial"",""time""
""fullscreenenter"",""1"",""2014""
","
","","","-1","","","23","10108","4771","b","elianto","#f73b6a7A","-1","-1","1","-10","[]","0","2","","","10108","98","6","4","lose","no-go","1"
"pit-trial","217","1317906","0.0-103.0","battery-v0.2","","""event"",""trial"",""time""
""fullscreenenter"",""1"",""2014""
","
","
","""event"",""trial"",""time""
""fullscreenenter"",""1"",""2014""
","
","","","933","","","23","10108","4771","t","elianto","#f73b6a7A"," "," ","1","0","[1783.7000000476837]","1","2","","","10108","99","7","3","lose","go","0"
"pit-trial","218","1322762","0.0-104.0","battery-v0.2","","""event"",""trial"",""time""
""fullscreenenter"",""1"",""2014""
","
","
","""event"",""trial"",""time""
""fullscreenenter"",""1"",""2014""
","
","","","-1","","","23","10108","4771","c","elianto","#3366ff99"," ","-1","0","0","[]","0","2","","","10108","100","5","1","win","go","0"
"pit-trial","219","1327616","0.0-105.0","battery-v0.2","","""event"",""trial"",""time""
""fullscreenenter"",""1"",""2014""
","
","
","""event"",""trial"",""time""
""fullscreenenter"",""1"",""2014""
","
","","","-1","","","23","10108","4771","c","elianto","#3366ff99"," ","-1","0","0","[]","0","2","","","10108","101","5","1","win","go","0"
"pit-trial","220","1332481","0.0-106.0","battery-v0.2","","""event"",""trial"",""time""
""fullscreenenter"",""1"",""2014""
","
","
","""event"",""trial"",""time""
""fullscreenenter"",""1"",""2014""
","
","","","-1","","","23","10108","4771","b","elianto","#f73b6a7A","-1","-1","1","0","[]","0","2","","","10108","102","6","4","lose","no-go","0"
"pit-trial","221","1336581","0.0-107.0","battery-v0.2","","""event"",""trial"",""time""
""fullscreenenter"",""1"",""2014""
","
","
","""event"",""trial"",""time""
""fullscreenenter"",""1"",""2014""
","
","","","1244.6999999284744","","","23","10108","4771","n","elianto","#3366ff99","-1"," ","0","+10","[2096]","1","2","","","10108","103","9","2","win","no-go","1"
"pit-trial","222","1340380","0.0-108.0","battery-v0.2","","""event"",""trial"",""time""
""fullscreenenter"",""1"",""2014""
","
","
","""event"",""trial"",""time""
""fullscreenenter"",""1"",""2014""
","
","","","944.8000000715256","","","23","10108","4771","f","elianto","#3366ff99","-1"," ","0","+10","[1795.7000000476837]","1","2","","","10108","104","8","2","win","no-go","1"
"pit-trial","223","1345234","0.0-109.0","battery-v0.2","","""event"",""trial"",""time""
""fullscreenenter"",""1"",""2014""
","
","
","""event"",""trial"",""time""
""fullscreenenter"",""1"",""2014""
","
","","","-1","","","23","10108","4771","b","elianto","#f73b6a7A","-1","-1","1","0","[]","0","2","","","10108","105","6","4","lose","no-go","0"
"pit-trial","224","1349045","0.0-110.0","battery-v0.2","","""event"",""trial"",""time""
""fullscreenenter"",""1"",""2014""
","
","
","""event"",""trial"",""time""
""fullscreenenter"",""1"",""2014""
","
","","","957.6999999284744","","","23","10108","4771","n","elianto","#3366ff99","-1"," ","0","0","[1808.0999999046326]","1","2","","","10108","106","9","2","win","no-go","0"
"pit-trial","225","1353411","0.0-111.0","battery-v0.2","","""event"",""trial"",""time""
""fullscreenenter"",""1"",""2014""
","
","
","""event"",""trial"",""time""
""fullscreenenter"",""1"",""2014""
","
","","","1509.7999999523163","","","23","10108","4771","c","elianto","#3366ff99"," "," ","1","+10","[2360.6999999284744]","1","2","","","10108","107","5","1","win","go","0"
"pit-trial","226","1357112","0.0-112.0","battery-v0.2","","""event"",""trial"",""time""
""fullscreenenter"",""1"",""2014""
","
","
","""event"",""trial"",""time""
""fullscreenenter"",""1"",""2014""
","
","","","847","","","23","10108","4771","f","elianto","#3366ff99","-1"," ","0","+10","[1697.3000000715256]","1","2","","","10108","108","8","2","win","no-go","1"
"pit-trial","227","1360808","0.0-113.0","battery-v0.2","","""event"",""trial"",""time""
""fullscreenenter"",""1"",""2014""
","
","
","""event"",""trial"",""time""
""fullscreenenter"",""1"",""2014""
","
","","","841.5","","","23","10108","4771","n","elianto","#3366ff99","-1"," ","0","0","[1692]","1","2","","","10108","109","9","2","win","no-go","0"
"pit-trial","228","1364371","0.0-114.0","battery-v0.2","","""event"",""trial"",""time""
""fullscreenenter"",""1"",""2014""
","
","
","""event"",""trial"",""time""
""fullscreenenter"",""1"",""2014""
","
","","","709.2999999523163","","","23","10108","4771","c","elianto","#3366ff99"," "," ","1","0","[1559.6000000238419]","1","2","","","10108","110","5","1","win","go","1"
"pit-trial","229","1368025","0.0-115.0","battery-v0.2","","""event"",""trial"",""time""
""fullscreenenter"",""1"",""2014""
","
","
","""event"",""trial"",""time""
""fullscreenenter"",""1"",""2014""
","
","","","799.9000000953674","","","23","10108","4771","f","elianto","#3366ff99","-1"," ","0","0","[1651]","1","2","","","10108","111","8","2","win","no-go","0"
"pit-trial","230","1372881","0.0-116.0","battery-v0.2","","""event"",""trial"",""time""
""fullscreenenter"",""1"",""2014""
","
","
","""event"",""trial"",""time""
""fullscreenenter"",""1"",""2014""
","
","","","-1","","","23","10108","4771","b","elianto","#f73b6a7A","-1","-1","1","0","[]","0","2","","","10108","112","6","4","lose","no-go","0"
"pit-trial","231","1376593","0.0-117.0","battery-v0.2","","""event"",""trial"",""time""
""fullscreenenter"",""1"",""2014""
","
","
","""event"",""trial"",""time""
""fullscreenenter"",""1"",""2014""
","
","","","845.7000000476837","","","23","10108","4771","f","elianto","#3366ff99","-1"," ","0","+10","[1696.2999999523163]","1","2","","","10108","113","8","2","win","no-go","1"
"pit-trial","232","1380239","0.0-118.0","battery-v0.2","","""event"",""trial"",""time""
""fullscreenenter"",""1"",""2014""
","
","
","""event"",""trial"",""time""
""fullscreenenter"",""1"",""2014""
","
","","","790.5","","","23","10108","4771","t","elianto","#f73b6a7A"," "," ","1","0","[1641.5]","1","2","","","10108","114","7","3","lose","go","0"
"pit-trial","233","1385093","0.0-119.0","battery-v0.2","","""event"",""trial"",""time""
""fullscreenenter"",""1"",""2014""
","
","
","""event"",""trial"",""time""
""fullscreenenter"",""1"",""2014""
","
","","","-1","","","23","10108","4771","c","elianto","#3366ff99"," ","-1","0","0","[]","0","2","","","10108","115","5","1","win","go","0"
"pit-trial","234","1389946","0.0-120.0","battery-v0.2","","""event"",""trial"",""time""
""fullscreenenter"",""1"",""2014""
","
","
","""event"",""trial"",""time""
""fullscreenenter"",""1"",""2014""
","
","","","-1","","","23","10108","4771","n","elianto","#3366ff99","-1","-1","1","+10","[]","0","2","","","10108","116","9","2","win","no-go","0"
"pit-trial","235","1394801","0.0-121.0","battery-v0.2","","""event"",""trial"",""time""
""fullscreenenter"",""1"",""2014""
","
","
","""event"",""trial"",""time""
""fullscreenenter"",""1"",""2014""
","
","","","-1","","","23","10108","4771","b","elianto","#f73b6a7A","-1","-1","1","0","[]","0","2","","","10108","117","6","4","lose","no-go","0"
"pit-trial","236","1398782","0.0-122.0","battery-v0.2","","""event"",""trial"",""time""
""fullscreenenter"",""1"",""2014""
","
","
","""event"",""trial"",""time""
""fullscreenenter"",""1"",""2014""
","
","","","1126.6999999284744","","","23","10108","4771","c","elianto","#3366ff99"," "," ","1","0","[1976.8999999761581]","1","2","","","10108","118","5","1","win","go","1"
"pit-trial","237","1402565","0.0-123.0","battery-v0.2","","""event"",""trial"",""time""
""fullscreenenter"",""1"",""2014""
","
","
","""event"",""trial"",""time""
""fullscreenenter"",""1"",""2014""
","
","","","928.1000000238419","","","23","10108","4771","f","elianto","#3366ff99","-1"," ","0","0","[1778.1000000238419]","1","2","","","10108","119","8","2","win","no-go","0"
"pit-trial","238","1407419","0.0-124.0","battery-v0.2","","""event"",""trial"",""time""
""fullscreenenter"",""1"",""2014""
","
","
","""event"",""trial"",""time""
""fullscreenenter"",""1"",""2014""
","
","","","-1","","","23","10108","4771","n","elianto","#3366ff99","-1","-1","1","+10","[]","0","2","","","10108","120","9","2","win","no-go","0"
"pit-trial","239","1411464","0.0-125.0","battery-v0.2","","""event"",""trial"",""time""
""fullscreenenter"",""1"",""2014""
","
","
","""event"",""trial"",""time""
""fullscreenenter"",""1"",""2014""
","
","","","1191.3999999761581","","","23","10108","4771","f","elianto","#3366ff99","-1"," ","0","0","[2042.5999999046326]","1","2","","","10108","121","8","2","win","no-go","0"
"pit-trial","240","1416328","0.0-126.0","battery-v0.2","","""event"",""trial"",""time""
""fullscreenenter"",""1"",""2014""
","
","
","""event"",""trial"",""time""
""fullscreenenter"",""1"",""2014""
","
","","","-1","","","23","10108","4771","n","elianto","#3366ff99","-1","-1","1","+10","[]","0","2","","","10108","122","9","2","win","no-go","0"
"pit-trial","241","1420197","0.0-127.0","battery-v0.2","","""event"",""trial"",""time""
""fullscreenenter"",""1"",""2014""
","
","
","""event"",""trial"",""time""
""fullscreenenter"",""1"",""2014""
","
","","","1012.6000000238419","","","23","10108","4771","t","elianto","#f73b6a7A"," "," ","1","-10","[1864.6000000238419]","1","2","","","10108","123","7","3","lose","go","1"
"pit-trial","242","1424957","0.0-128.0","battery-v0.2","","""event"",""trial"",""time""
""fullscreenenter"",""1"",""2014""
","
","
","""event"",""trial"",""time""
""fullscreenenter"",""1"",""2014""
","
","","","1895.9000000953674","","","23","10108","4771","c","elianto","#3366ff99"," "," ","1","+10","[2746.3000000715256]","1","2","","","10108","124","5","1","win","go","0"
"pit-trial","243","1429813","0.0-129.0","battery-v0.2","","""event"",""trial"",""time""
""fullscreenenter"",""1"",""2014""
","
","
","""event"",""trial"",""time""
""fullscreenenter"",""1"",""2014""
","
","","","-1","","","23","10108","4771","b","elianto","#f73b6a7A","-1","-1","1","0","[]","0","2","","","10108","125","6","4","lose","no-go","0"
"pit-trial","244","1434671","0.0-130.0","battery-v0.2","","""event"",""trial"",""time""
""fullscreenenter"",""1"",""2014""
","
","
","""event"",""trial"",""time""
""fullscreenenter"",""1"",""2014""
","
","","","-1","","","23","10108","4771","f","elianto","#3366ff99","-1","-1","1","+10","[]","0","2","","","10108","126","8","2","win","no-go","0"
"pit-trial","245","1439524","0.0-131.0","battery-v0.2","","""event"",""trial"",""time""
""fullscreenenter"",""1"",""2014""
","
","
","""event"",""trial"",""time""
""fullscreenenter"",""1"",""2014""
","
","","","-1","","","23","10108","4771","n","elianto","#3366ff99","-1","-1","1","0","[]","0","2","","","10108","127","9","2","win","no-go","1"
"pit-trial","246","1443256","0.0-132.0","battery-v0.2","","""event"",""trial"",""time""
""fullscreenenter"",""1"",""2014""
","
","
","""event"",""trial"",""time""
""fullscreenenter"",""1"",""2014""
","
","","","877.7999999523163","","","23","10108","4771","t","elianto","#f73b6a7A"," "," ","1","0","[1728.1999999284744]","1","2","","","10108","128","7","3","lose","go","0"
"pit-trial","247","1448112","0.0-133.0","battery-v0.2","","""event"",""trial"",""time""
""fullscreenenter"",""1"",""2014""
","
","
","""event"",""trial"",""time""
""fullscreenenter"",""1"",""2014""
","
","","","-1","","","23","10108","4771","b","elianto","#f73b6a7A","-1","-1","1","0","[]","0","2","","","10108","129","6","4","lose","no-go","0"
"pit-trial","248","1452049","0.0-134.0","battery-v0.2","","""event"",""trial"",""time""
""fullscreenenter"",""1"",""2014""
","
","
","""event"",""trial"",""time""
""fullscreenenter"",""1"",""2014""
","
","","","1082.7999999523163","","","23","10108","4771","t","elianto","#f73b6a7A"," "," ","1","0","[1933.2999999523163]","1","2","","","10108","130","7","3","lose","go","0"
"pit-trial","249","1456904","0.0-135.0","battery-v0.2","","""event"",""trial"",""time""
""fullscreenenter"",""1"",""2014""
","
","
","""event"",""trial"",""time""
""fullscreenenter"",""1"",""2014""
","
","","","-1","","","23","10108","4771","n","elianto","#3366ff99","-1","-1","1","+10","[]","0","2","","","10108","131","9","2","win","no-go","0"
"pit-trial","250","1461759","0.0-136.0","battery-v0.2","","""event"",""trial"",""time""
""fullscreenenter"",""1"",""2014""
","
","
","""event"",""trial"",""time""
""fullscreenenter"",""1"",""2014""
","
","","","-1","","","23","10108","4771","f","elianto","#3366ff99","-1","-1","1","+10","[]","0","2","","","10108","132","8","2","win","no-go","0"
"pit-trial","251","1466613","0.0-137.0","battery-v0.2","","""event"",""trial"",""time""
""fullscreenenter"",""1"",""2014""
","
","
","""event"",""trial"",""time""
""fullscreenenter"",""1"",""2014""
","
","","","-1","","","23","10108","4771","f","elianto","#3366ff99","-1","-1","1","+10","[]","0","2","","","10108","133","8","2","win","no-go","0"
"pit-trial","252","1470537","0.0-138.0","battery-v0.2","","""event"",""trial"",""time""
""fullscreenenter"",""1"",""2014""
","
","
","""event"",""trial"",""time""
""fullscreenenter"",""1"",""2014""
","
","","","1067.6000000238419","","","23","10108","4771","t","elianto","#f73b6a7A"," "," ","1","0","[1918.8000000715256]","1","2","","","10108","134","7","3","lose","go","0"
"pit-trial","253","1475392","0.0-139.0","battery-v0.2","","""event"",""trial"",""time""
""fullscreenenter"",""1"",""2014""
","
","
","""event"",""trial"",""time""
""fullscreenenter"",""1"",""2014""
","
","","","-1","","","23","10108","4771","b","elianto","#f73b6a7A","-1","-1","1","0","[]","0","2","","","10108","135","6","4","lose","no-go","0"
"pit-trial","254","1480245","0.0-140.0","battery-v0.2","","""event"",""trial"",""time""
""fullscreenenter"",""1"",""2014""
","
","
","""event"",""trial"",""time""
""fullscreenenter"",""1"",""2014""
","
","","","-1","","","23","10108","4771","n","elianto","#3366ff99","-1","-1","1","+10","[]","0","2","","","10108","136","9","2","win","no-go","0"
"pit-trial","255","1485098","0.0-141.0","battery-v0.2","","""event"",""trial"",""time""
""fullscreenenter"",""1"",""2014""
","
","
","""event"",""trial"",""time""
""fullscreenenter"",""1"",""2014""
","
","","","-1","","","23","10108","4771","b","elianto","#f73b6a7A","-1","-1","1","0","[4046.3000000715256]","1","2","","","10108","137","6","4","lose","no-go","0"
"pit-trial","256","1489307","0.0-142.0","battery-v0.2","","""event"",""trial"",""time""
""fullscreenenter"",""1"",""2014""
","
","
","""event"",""trial"",""time""
""fullscreenenter"",""1"",""2014""
","
","","","1354.6000000238419","","","23","10108","4771","t","elianto","#f73b6a7A"," "," ","1","0","[2205.100000023842]","1","2","","","10108","138","7","3","lose","go","0"
"pit-trial","257","1494162","0.0-143.0","battery-v0.2","","""event"",""trial"",""time""
""fullscreenenter"",""1"",""2014""
","
","
","""event"",""trial"",""time""
""fullscreenenter"",""1"",""2014""
","
","","","-1","","","23","10108","4771","n","elianto","#3366ff99","-1","-1","1","0","[]","0","2","","","10108","139","9","2","win","no-go","1"
"pit-trial","258","1499015","0.0-144.0","battery-v0.2","","""event"",""trial"",""time""
""fullscreenenter"",""1"",""2014""
","
","
","""event"",""trial"",""time""
""fullscreenenter"",""1"",""2014""
","
","","","-1","","","23","10108","4771","f","elianto","#3366ff99","-1","-1","1","+10","[]","0","2","","","10108","140","8","2","win","no-go","0"
"pit-instructions","259","1549421","0.0-145.0","battery-v0.2","","""event"",""trial"",""time""
""fullscreenenter"",""1"",""2014""
","
","
","""event"",""trial"",""time""
""fullscreenenter"",""1"",""2014""
","
","","[{""page_index"":0,""viewing_time"":42041},{""page_index"":1,""viewing_time"":8362.200000047684}]","50403.800000071526","","","","","","","","","","","","","","","","","","","","","","","",""
"pit-trial","260","1553391","0.0-146.0","battery-v0.2","","""event"",""trial"",""time""
""fullscreenenter"",""1"",""2014""
","
","
","""event"",""trial"",""time""
""fullscreenenter"",""1"",""2014""
","
","","","1109.5","","","23","10108","4771","l","elianto","#3366ff99","-1"," ","0","0","[1960.3000000715256]","1","3","","","10108","141","1","2","win","no-go","0"
"pit-trial","261","1556933","0.0-147.0","battery-v0.2","","""event"",""trial"",""time""
""fullscreenenter"",""1"",""2014""
","
","
","""event"",""trial"",""time""
""fullscreenenter"",""1"",""2014""
","
","","","673.7999999523163","","","23","10108","4771","g","elianto","#f73b6a7A","-1"," ","0","0","[1530.7999999523163]","1","3","","","10108","142","3","4","lose","no-go","1"
"pit-trial","262","1560613","0.0-148.0","battery-v0.2","","""event"",""trial"",""time""
""fullscreenenter"",""1"",""2014""
","
","
","""event"",""trial"",""time""
""fullscreenenter"",""1"",""2014""
","
","","","825.8999999761581","","","23","10108","4771","a","elianto","#f73b6a7A"," "," ","1","0","[1676.7999999523163]","1","3","","","10108","143","2","3","lose","go","0"
"pit-trial","263","1565474","0.0-149.0","battery-v0.2","","""event"",""trial"",""time""
""fullscreenenter"",""1"",""2014""
","
","
","""event"",""trial"",""time""
""fullscreenenter"",""1"",""2014""
","
","","","-1","","","23","10108","4771","u","elianto","#f73b6a7A"," ","-1","0","-10","[]","0","3","","","10108","144","0","3","lose","go","0"
"pit-trial","264","1569201","0.0-150.0","battery-v0.2","","""event"",""trial"",""time""
""fullscreenenter"",""1"",""2014""
","
","
","""event"",""trial"",""time""
""fullscreenenter"",""1"",""2014""
","
","","","860.8999999761581","","","23","10108","4771","u","elianto","#f73b6a7A"," "," ","1","0","[1713.5999999046326]","1","3","","","10108","145","0","3","lose","go","0"
"pit-trial","265","1573201","0.0-151.0","battery-v0.2","","""event"",""trial"",""time""
""fullscreenenter"",""1"",""2014""
","
","
","""event"",""trial"",""time""
""fullscreenenter"",""1"",""2014""
","
","","","1136.6999999284744","","","23","10108","4771","a","elianto","#f73b6a7A"," "," ","1","0","[1989.0999999046326]","1","3","","","10108","146","2","3","lose","go","0"
