"trial_type","trial_index","time_elapsed","internal_node_id","task_version","subject_id","interactions","blur_events","focus_events","fullscreenenter_events","fullscreenexit_events","success","view_history","rt","responses","num_errors","age","subject","participantId","rune","rune_set","hex","correct","choice","accuracy","outcome","keys","total_keys","block","practice","value","sub","trial","stimulus","robot","valence","action","sham"
"pavlovia","0","62","0.0-0.0","battery-v0.2","","""event"",""trial"",""time""
""fullscreenenter"",""1"",""4081""
","
","
","""event"",""trial"",""time""
""fullscreenenter"",""1"",""4081""
","
","","","","","","","","","","","","","","","","","","","","","","","","","","",""
"fullscreen","1","5046","0.0-1.0","battery-v0.2","","""event"",""trial"",""time""
""fullscreenenter"",""1"",""4081""
""fullscreenexit"",""2"",""17308""
""blur"",""2"",""18813""
""focus"",""2"",""20420""
","""event"",""trial"",""time""
""blur"",""2"",""18813""
","""event"",""trial"",""time""
""focus"",""2"",""20420""
","""event"",""trial"",""time""
""fullscreenenter"",""1"",""4081""
","""event"",""trial"",""time""
""fullscreenexit"",""2"",""17308""
","true","","","","","","","","","","","","","","","","","","","","","","","","","",""
"pit-instructions","2","24289","0.0-2.0-0.0","battery-v0.2","","""event"",""trial"",""time""
""fullscreenenter"",""1"",""4081""
""fullscreenexit"",""2"",""17308""
""blur"",""2"",""18813""
""focus"",""2"",""20420""
","""event"",""trial"",""time""
""blur"",""2"",""18813""
","""event"",""trial"",""time""
""focus"",""2"",""20420""
","""event"",""trial"",""time""
""fullscreenenter"",""1"",""4081""
","""event"",""trial"",""time""
""fullscreenexit"",""2"",""17308""
","","[{""page_index"":0,""viewing_time"":19216.09999999404}]","19219.19999999553","","","","","","","","","","","","","","","","","","","","","","","",""
"pit-comprehension","3","29309","0.0-2.0-1.0-0.0","battery-v0.2","","""event"",""trial"",""time""
""fullscreenenter"",""1"",""4081""
""fullscreenexit"",""2"",""17308""
""blur"",""2"",""18813""
""focus"",""2"",""20420""
","""event"",""trial"",""time""
""blur"",""2"",""18813""
","""event"",""trial"",""time""
""focus"",""2"",""20420""
","""event"",""trial"",""time""
""fullscreenenter"",""1"",""4081""
","""event"",""trial"",""time""
""fullscreenexit"",""2"",""17308""
","","","4985.89999999851","[""shark""]","0","14","3984","804","","","","","","","","","","","","","","","","","","",""
"pit-instructions","4","31040","0.0-2.0-1.0-1.0","battery-v0.2","","""event"",""trial"",""time""
""fullscreenenter"",""1"",""4081""
""fullscreenexit"",""2"",""17308""
""blur"",""2"",""18813""
""focus"",""2"",""20420""
","""event"",""trial"",""time""
""blur"",""2"",""18813""
","""event"",""trial"",""time""
""focus"",""2"",""20420""
","""event"",""trial"",""time""
""fullscreenenter"",""1"",""4081""
","""event"",""trial"",""time""
""fullscreenexit"",""2"",""17308""
","","[{""page_index"":0,""viewing_time"":1680.7000000029802}]","1683.3000000044703","","","","","","","","","","","","","","","","","","","","","","","",""
"pit-comprehension","5","34153","0.0-2.0-2.0-0.0","battery-v0.2","","""event"",""trial"",""time""
""fullscreenenter"",""1"",""4081""
""fullscreenexit"",""2"",""17308""
""blur"",""2"",""18813""
""focus"",""2"",""20420""
","""event"",""trial"",""time""
""blur"",""2"",""18813""
","""event"",""trial"",""time""
""focus"",""2"",""20420""
","""event"",""trial"",""time""
""fullscreenenter"",""1"",""4081""
","""event"",""trial"",""time""
""fullscreenexit"",""2"",""17308""
","","","3078.7999999970198","[""tiger""]","0","14","3984","804","","","","","","","","","","","","","","","","","","",""
"pit-instructions","6","35819","0.0-2.0-2.0-1.0","battery-v0.2","","""event"",""trial"",""time""
""fullscreenenter"",""1"",""4081""
""fullscreenexit"",""2"",""17308""
""blur"",""2"",""18813""
""focus"",""2"",""20420""
","""event"",""trial"",""time""
""blur"",""2"",""18813""
","""event"",""trial"",""time""
""focus"",""2"",""20420""
","""event"",""trial"",""time""
""fullscreenenter"",""1"",""4081""
","""event"",""trial"",""time""
""fullscreenexit"",""2"",""17308""
","","[{""page_index"":0,""viewing_time"":1639.7999999970198}]","1642.7999999970198","","","","","","","","","","","","","","","","","","","","","","","",""
"pit-instructions","7","151724","0.0-2.0-3.0","battery-v0.2","","""event"",""trial"",""time""
""fullscreenenter"",""1"",""4081""
""fullscreenexit"",""2"",""17308""
""blur"",""2"",""18813""
""focus"",""2"",""20420""
","""event"",""trial"",""time""
""blur"",""2"",""18813""
","""event"",""trial"",""time""
""focus"",""2"",""20420""
","""event"",""trial"",""time""
""fullscreenenter"",""1"",""4081""
","""event"",""trial"",""time""
""fullscreenexit"",""2"",""17308""
","","[{""page_index"":0,""viewing_time"":21613.60000000149},{""page_index"":1,""viewing_time"":6352.70000000298},{""page_index"":2,""viewing_time"":6701.39999999851},{""page_index"":3,""viewing_time"":5402.60000000149},{""page_index"":4,""viewing_time"":6474.5},{""page_index"":5,""viewing_time"":6252},{""page_index"":6,""viewing_time"":6761.79999999702},{""page_index"":7,""viewing_time"":7961.60000000149},{""page_index"":8,""viewing_time"":6502.29999999702},{""page_index"":9,""viewing_time"":10973.89999999851},{""page_index"":10,""viewing_time"":7872},{""page_index"":11,""viewing_time"":11331.40000000596},{""page_index"":12,""viewing_time"":6328.0999999940395},{""page_index"":13,""viewing_time"":5349.4000000059605}]","115880.5","","","","","","","","","","","","","","","","","","","","","","","",""
"pit-trial","8","155402","0.0-2.0-4.0-0.0","battery-v0.2","","""event"",""trial"",""time""
""fullscreenenter"",""1"",""4081""
""fullscreenexit"",""2"",""17308""
""blur"",""2"",""18813""
""focus"",""2"",""20420""
","""event"",""trial"",""time""
""blur"",""2"",""18813""
","""event"",""trial"",""time""
""focus"",""2"",""20420""
","""event"",""trial"",""time""
""fullscreenenter"",""1"",""4081""
","""event"",""trial"",""time""
""fullscreenexit"",""2"",""17308""
","","","797.5999999940395","","","14","3984","804","&#9784;","elianto","#FFFFF080"," "," ","1","&#10004","[1647.3999999985099]","1","0","0","","","","","","","",""
"pit-trial","9","158853","0.0-2.0-4.1-0.1","battery-v0.2","","""event"",""trial"",""time""
""fullscreenenter"",""1"",""4081""
""fullscreenexit"",""2"",""17308""
""blur"",""2"",""18813""
""focus"",""2"",""20420""
","""event"",""trial"",""time""
""blur"",""2"",""18813""
","""event"",""trial"",""time""
""focus"",""2"",""20420""
","""event"",""trial"",""time""
""fullscreenenter"",""1"",""4081""
","""event"",""trial"",""time""
""fullscreenexit"",""2"",""17308""
","","","570","","","14","3984","804","&#9784;","elianto","#FFFFF080"," "," ","1","&#10004","[71.89999999850988,1420.1000000014901]","2","0","0","","","","","","","",""
"pit-trial","10","162235","0.0-2.0-4.2-0.2","battery-v0.2","","""event"",""trial"",""time""
""fullscreenenter"",""1"",""4081""
""fullscreenexit"",""2"",""17308""
""blur"",""2"",""18813""
""focus"",""2"",""20420""
","""event"",""trial"",""time""
""blur"",""2"",""18813""
","""event"",""trial"",""time""
""focus"",""2"",""20420""
","""event"",""trial"",""time""
""fullscreenenter"",""1"",""4081""
","""event"",""trial"",""time""
""fullscreenexit"",""2"",""17308""
","","","507.30000000447035","","","14","3984","804","&#9784;","elianto","#FFFFF080"," "," ","1","&#10004","[1357.3999999985099]","1","0","0","","","","","","","",""
"pit-trial","11","165764","0.0-2.0-4.3-0.3","battery-v0.2","","""event"",""trial"",""time""
""fullscreenenter"",""1"",""4081""
""fullscreenexit"",""2"",""17308""
""blur"",""2"",""18813""
""focus"",""2"",""20420""
","""event"",""trial"",""time""
""blur"",""2"",""18813""
","""event"",""trial"",""time""
""focus"",""2"",""20420""
","""event"",""trial"",""time""
""fullscreenenter"",""1"",""4081""
","""event"",""trial"",""time""
""fullscreenexit"",""2"",""17308""
","","","646.8999999985099","","","14","3984","804","&#9784;","elianto","#FFFFF080"," "," ","1","&#10004","[1500]","1","0","0","","","","","","","",""
"pit-trial","12","169211","0.0-2.0-4.4-0.4","battery-v0.2","","""event"",""trial"",""time""
""fullscreenenter"",""1"",""4081""
""fullscreenexit"",""2"",""17308""
""blur"",""2"",""18813""
""focus"",""2"",""20420""
","""event"",""trial"",""time""
""blur"",""2"",""18813""
","""event"",""trial"",""time""
""focus"",""2"",""20420""
","""event"",""trial"",""time""
""fullscreenenter"",""1"",""4081""
","""event"",""trial"",""time""
""fullscreenexit"",""2"",""17308""
","","","571.2000000029802","","","14","3984","804","&#9784;","elianto","#FFFFF080"," "," ","1","&#10004","[1421.3000000044703]","1","0","0","","","","","","","",""
"pit-instructions","13","191996","0.0-2.0-5.0","battery-v0.2","","""event"",""trial"",""time""
""fullscreenenter"",""1"",""4081""
""fullscreenexit"",""2"",""17308""
""blur"",""2"",""18813""
""focus"",""2"",""20420""
","""event"",""trial"",""time""
""blur"",""2"",""18813""
","""event"",""trial"",""time""
""focus"",""2"",""20420""
","""event"",""trial"",""time""
""fullscreenenter"",""1"",""4081""
","""event"",""trial"",""time""
""fullscreenexit"",""2"",""17308""
","","[{""page_index"":0,""viewing_time"":6341.69999999553},{""page_index"":1,""viewing_time"":6211.20000000298},{""page_index"":2,""viewing_time"":4831.5},{""page_index"":3,""viewing_time"":5364}]","22755.79999999702","","","","","","","","","","","","","","","","","","","","","","","",""
"pit-trial","14","196868","0.0-2.0-6.0-0.0","battery-v0.2","","""event"",""trial"",""time""
""fullscreenenter"",""1"",""4081""
""fullscreenexit"",""2"",""17308""
""blur"",""2"",""18813""
""focus"",""2"",""20420""
","""event"",""trial"",""time""
""blur"",""2"",""18813""
","""event"",""trial"",""time""
""focus"",""2"",""20420""
","""event"",""trial"",""time""
""fullscreenenter"",""1"",""4081""
","""event"",""trial"",""time""
""fullscreenexit"",""2"",""17308""
","","","-1","","","14","3984","804","&#9854;","elianto","#FFFFF080","-1","-1","1","&#10004","[]","0","0","1","","","","","","","",""
"pit-trial","15","201741","0.0-2.0-6.1-0.1","battery-v0.2","","""event"",""trial"",""time""
""fullscreenenter"",""1"",""4081""
""fullscreenexit"",""2"",""17308""
""blur"",""2"",""18813""
""focus"",""2"",""20420""
","""event"",""trial"",""time""
""blur"",""2"",""18813""
","""event"",""trial"",""time""
""focus"",""2"",""20420""
","""event"",""trial"",""time""
""fullscreenenter"",""1"",""4081""
","""event"",""trial"",""time""
""fullscreenexit"",""2"",""17308""
","","","-1","","","14","3984","804","&#9854;","elianto","#FFFFF080","-1","-1","1","&#10004","[]","0","0","1","","","","","","","",""
"pit-trial","16","206614","0.0-2.0-6.2-0.2","battery-v0.2","","""event"",""trial"",""time""
""fullscreenenter"",""1"",""4081""
""fullscreenexit"",""2"",""17308""
""blur"",""2"",""18813""
""focus"",""2"",""20420""
","""event"",""trial"",""time""
""blur"",""2"",""18813""
","""event"",""trial"",""time""
""focus"",""2"",""20420""
","""event"",""trial"",""time""
""fullscreenenter"",""1"",""4081""
","""event"",""trial"",""time""
""fullscreenexit"",""2"",""17308""
","","","-1","","","14","3984","804","&#9854;","elianto","#FFFFF080","-1","-1","1","&#10004","[]","0","0","1","","","","","","","",""
"pit-trial","17","211486","0.0-2.0-6.3-0.3","battery-v0.2","","""event"",""trial"",""time""
""fullscreenenter"",""1"",""4081""
""fullscreenexit"",""2"",""17308""
""blur"",""2"",""18813""
""focus"",""2"",""20420""
","""event"",""trial"",""time""
""blur"",""2"",""18813""
","""event"",""trial"",""time""
""focus"",""2"",""20420""
","""event"",""trial"",""time""
""fullscreenenter"",""1"",""4081""
","""event"",""trial"",""time""
""fullscreenexit"",""2"",""17308""
","","","-1","","","14","3984","804","&#9854;","elianto","#FFFFF080","-1","-1","1","&#10004","[]","0","0","1","","","","","","","",""
"pit-trial","18","216360","0.0-2.0-6.4-0.4","battery-v0.2","","""event"",""trial"",""time""
""fullscreenenter"",""1"",""4081""
""fullscreenexit"",""2"",""17308""
""blur"",""2"",""18813""
""focus"",""2"",""20420""
","""event"",""trial"",""time""
""blur"",""2"",""18813""
","""event"",""trial"",""time""
""focus"",""2"",""20420""
","""event"",""trial"",""time""
""fullscreenenter"",""1"",""4081""
","""event"",""trial"",""time""
""fullscreenexit"",""2"",""17308""
","","","-1","","","14","3984","804","&#9854;","elianto","#FFFFF080","-1","-1","1","&#10004","[]","0","0","1","","","","","","","",""
"pit-instructions","19","341227","0.0-2.0-7.0","battery-v0.2","","""event"",""trial"",""time""
""fullscreenenter"",""1"",""4081""
""fullscreenexit"",""2"",""17308""
""blur"",""2"",""18813""
""focus"",""2"",""20420""
","""event"",""trial"",""time""
""blur"",""2"",""18813""
","""event"",""trial"",""time""
""focus"",""2"",""20420""
","""event"",""trial"",""time""
""fullscreenenter"",""1"",""4081""
","""event"",""trial"",""time""
""fullscreenexit"",""2"",""17308""
","","[{""page_index"":0,""viewing_time"":8507.80000000447},{""page_index"":1,""viewing_time"":6055.60000000149},{""page_index"":2,""viewing_time"":7525.89999999851},{""page_index"":3,""viewing_time"":7187.79999999702},{""page_index"":4,""viewing_time"":5850.5},{""page_index"":5,""viewing_time"":6669.20000000298},{""page_index"":6,""viewing_time"":4798.5},{""page_index"":7,""viewing_time"":10847.10000000149},{""page_index"":8,""viewing_time"":6293.79999999702},{""page_index"":9,""viewing_time"":6758.39999999851},{""page_index"":10,""viewing_time"":6103.39999999851},{""page_index"":11,""viewing_time"":4201.4000000059605},{""page_index"":12,""viewing_time"":9149.19999999553},{""page_index"":13,""viewing_time"":6599.39999999851},{""page_index"":14,""viewing_time"":6506.60000000149},{""page_index"":15,""viewing_time"":7561.60000000149},{""page_index"":16,""viewing_time"":6380.60000000149},{""page_index"":17,""viewing_time"":7832.39999999851}]","124832.70000000298","","","","","","","","","","","","","","","","","","","","","","","",""
"pit-trial","20","344630","0.0-2.0-8.0-0.0","battery-v0.2","","""event"",""trial"",""time""
""fullscreenenter"",""1"",""4081""
""fullscreenexit"",""2"",""17308""
""blur"",""2"",""18813""
""focus"",""2"",""20420""
","""event"",""trial"",""time""
""blur"",""2"",""18813""
","""event"",""trial"",""time""
""focus"",""2"",""20420""
","""event"",""trial"",""time""
""fullscreenenter"",""1"",""4081""
","""event"",""trial"",""time""
""fullscreenexit"",""2"",""17308""
","","","529.8000000044703","","","14","3984","804","&#9776;","elianto","#3366ff99"," "," ","1","+10","[1379.7000000029802]","1","0","1","","","","","","","",""
"pit-trial","21","348002","0.0-2.0-8.0-1.0","battery-v0.2","","""event"",""trial"",""time""
""fullscreenenter"",""1"",""4081""
""fullscreenexit"",""2"",""17308""
""blur"",""2"",""18813""
""focus"",""2"",""20420""
","""event"",""trial"",""time""
""blur"",""2"",""18813""
","""event"",""trial"",""time""
""focus"",""2"",""20420""
","""event"",""trial"",""time""
""fullscreenenter"",""1"",""4081""
","""event"",""trial"",""time""
""fullscreenexit"",""2"",""17308""
","","","500.3999999985099","","","14","3984","804","&#9776;","elianto","#3366ff99"," "," ","1","+10","[1352.1000000014901]","1","0","1","","","","","","","",""
"pit-trial","22","351277","0.0-2.0-8.0-2.0","battery-v0.2","","""event"",""trial"",""time""
""fullscreenenter"",""1"",""4081""
""fullscreenexit"",""2"",""17308""
""blur"",""2"",""18813""
""focus"",""2"",""20420""
","""event"",""trial"",""time""
""blur"",""2"",""18813""
","""event"",""trial"",""time""
""focus"",""2"",""20420""
","""event"",""trial"",""time""
""fullscreenenter"",""1"",""4081""
","""event"",""trial"",""time""
""fullscreenexit"",""2"",""17308""
","","","401.8999999985099","","","14","3984","804","&#9776;","elianto","#3366ff99"," "," ","1","+10","[1251.4000000059605]","1","0","1","","","","","","","",""
"pit-trial","23","354467","0.0-2.0-8.0-3.0","battery-v0.2","","""event"",""trial"",""time""
""fullscreenenter"",""1"",""4081""
""fullscreenexit"",""2"",""17308""
""blur"",""2"",""18813""
""focus"",""2"",""20420""
","""event"",""trial"",""time""
""blur"",""2"",""18813""
","""event"",""trial"",""time""
""focus"",""2"",""20420""
","""event"",""trial"",""time""
""fullscreenenter"",""1"",""4081""
","""event"",""trial"",""time""
""fullscreenexit"",""2"",""17308""
","","","316.5","","","14","3984","804","&#9776;","elianto","#3366ff99"," "," ","1","0","[1166.1000000014901]","1","0","1","","","","","","","",""
"pit-trial","24","357578","0.0-2.0-8.0-4.0","battery-v0.2","","""event"",""trial"",""time""
""fullscreenenter"",""1"",""4081""
""fullscreenexit"",""2"",""17308""
""blur"",""2"",""18813""
""focus"",""2"",""20420""
","""event"",""trial"",""time""
""blur"",""2"",""18813""
","""event"",""trial"",""time""
""focus"",""2"",""20420""
","""event"",""trial"",""time""
""fullscreenenter"",""1"",""4081""
","""event"",""trial"",""time""
""fullscreenexit"",""2"",""17308""
","","","240.39999999850988","","","14","3984","804","&#9776;","elianto","#3366ff99"," "," ","1","+10","[1090.7000000029802]","1","0","1","","","","","","","",""
"pit-trial","25","361013","0.0-2.0-8.1-0.1","battery-v0.2","","""event"",""trial"",""time""
""fullscreenenter"",""1"",""4081""
""fullscreenexit"",""2"",""17308""
""blur"",""2"",""18813""
""focus"",""2"",""20420""
","""event"",""trial"",""time""
""blur"",""2"",""18813""
","""event"",""trial"",""time""
""focus"",""2"",""20420""
","""event"",""trial"",""time""
""fullscreenenter"",""1"",""4081""
","""event"",""trial"",""time""
""fullscreenexit"",""2"",""17308""
","","","559.3999999985099","","","14","3984","804","&#9776;","elianto","#3366ff99"," "," ","1","+10","[1409.7999999970198]","1","0","1","","","","","","","",""
"pit-trial","26","364277","0.0-2.0-8.1-1.1","battery-v0.2","","""event"",""trial"",""time""
""fullscreenenter"",""1"",""4081""
""fullscreenexit"",""2"",""17308""
""blur"",""2"",""18813""
""focus"",""2"",""20420""
","""event"",""trial"",""time""
""blur"",""2"",""18813""
","""event"",""trial"",""time""
""focus"",""2"",""20420""
","""event"",""trial"",""time""
""fullscreenenter"",""1"",""4081""
","""event"",""trial"",""time""
""fullscreenexit"",""2"",""17308""
","","","388.29999999701977","","","14","3984","804","&#9776;","elianto","#3366ff99"," "," ","1","+10","[1241.5]","1","0","1","","","","","","","",""
"pit-trial","27","367694","0.0-2.0-8.1-2.1","battery-v0.2","","""event"",""trial"",""time""
""fullscreenenter"",""1"",""4081""
""fullscreenexit"",""2"",""17308""
""blur"",""2"",""18813""
""focus"",""2"",""20420""
","""event"",""trial"",""time""
""blur"",""2"",""18813""
","""event"",""trial"",""time""
""focus"",""2"",""20420""
","""event"",""trial"",""time""
""fullscreenenter"",""1"",""4081""
","""event"",""trial"",""time""
""fullscreenexit"",""2"",""17308""
","","","541.2000000029802","","","14","3984","804","&#9776;","elianto","#3366ff99"," "," ","1","+10","[1394.5]","1","0","1","","","","","","","",""
"pit-trial","28","371058","0.0-2.0-8.1-3.1","battery-v0.2","","""event"",""trial"",""time""
""fullscreenenter"",""1"",""4081""
""fullscreenexit"",""2"",""17308""
""blur"",""2"",""18813""
""focus"",""2"",""20420""
","""event"",""trial"",""time""
""blur"",""2"",""18813""
","""event"",""trial"",""time""
""focus"",""2"",""20420""
","""event"",""trial"",""time""
""fullscreenenter"",""1"",""4081""
","""event"",""trial"",""time""
""fullscreenexit"",""2"",""17308""
","","","493.29999999701977","","","14","3984","804","&#9776;","elianto","#3366ff99"," "," ","1","0","[1343.7000000029802]","1","0","1","","","","","","","",""
"pit-trial","29","374404","0.0-2.0-8.1-4.1","battery-v0.2","","""event"",""trial"",""time""
""fullscreenenter"",""1"",""4081""
""fullscreenexit"",""2"",""17308""
""blur"",""2"",""18813""
""focus"",""2"",""20420""
","""event"",""trial"",""time""
""blur"",""2"",""18813""
","""event"",""trial"",""time""
""focus"",""2"",""20420""
","""event"",""trial"",""time""
""fullscreenenter"",""1"",""4081""
","""event"",""trial"",""time""
""fullscreenexit"",""2"",""17308""
","","","469.5","","","14","3984","804","&#9776;","elianto","#3366ff99"," "," ","1","+10","[1319.6000000014901]","1","0","1","","","","","","","",""
"pit-trial","30","377648","0.0-2.0-8.2-0.2","battery-v0.2","","""event"",""trial"",""time""
""fullscreenenter"",""1"",""4081""
""fullscreenexit"",""2"",""17308""
""blur"",""2"",""18813""
""focus"",""2"",""20420""
","""event"",""trial"",""time""
""blur"",""2"",""18813""
","""event"",""trial"",""time""
""focus"",""2"",""20420""
","""event"",""trial"",""time""
""fullscreenenter"",""1"",""4081""
","""event"",""trial"",""time""
""fullscreenexit"",""2"",""17308""
","","","371.1000000014901","","","14","3984","804","&#9776;","elianto","#3366ff99"," "," ","1","+10","[1220.7000000029802]","1","0","1","","","","","","","",""
"pit-trial","31","380955","0.0-2.0-8.2-1.2","battery-v0.2","","""event"",""trial"",""time""
""fullscreenenter"",""1"",""4081""
""fullscreenexit"",""2"",""17308""
""blur"",""2"",""18813""
""focus"",""2"",""20420""
","""event"",""trial"",""time""
""blur"",""2"",""18813""
","""event"",""trial"",""time""
""focus"",""2"",""20420""
","""event"",""trial"",""time""
""fullscreenenter"",""1"",""4081""
","""event"",""trial"",""time""
""fullscreenexit"",""2"",""17308""
","","","433.30000000447035","","","14","3984","804","&#9776;","elianto","#3366ff99"," "," ","1","+10","[1283.3999999985099]","1","0","1","","","","","","","",""
"pit-trial","32","384251","0.0-2.0-8.2-2.2","battery-v0.2","","""event"",""trial"",""time""
""fullscreenenter"",""1"",""4081""
""fullscreenexit"",""2"",""17308""
""blur"",""2"",""18813""
""focus"",""2"",""20420""
","""event"",""trial"",""time""
""blur"",""2"",""18813""
","""event"",""trial"",""time""
""focus"",""2"",""20420""
","""event"",""trial"",""time""
""fullscreenenter"",""1"",""4081""
","""event"",""trial"",""time""
""fullscreenexit"",""2"",""17308""
","","","424.6000000014901","","","14","3984","804","&#9776;","elianto","#3366ff99"," "," ","1","+10","[1274.5999999940395]","1","0","1","","","","","","","",""
"pit-trial","33","387556","0.0-2.0-8.2-3.2","battery-v0.2","","""event"",""trial"",""time""
""fullscreenenter"",""1"",""4081""
""fullscreenexit"",""2"",""17308""
""blur"",""2"",""18813""
""focus"",""2"",""20420""
","""event"",""trial"",""time""
""blur"",""2"",""18813""
","""event"",""trial"",""time""
""focus"",""2"",""20420""
","""event"",""trial"",""time""
""fullscreenenter"",""1"",""4081""
","""event"",""trial"",""time""
""fullscreenexit"",""2"",""17308""
","","","421.8999999985099","","","14","3984","804","&#9776;","elianto","#3366ff99"," "," ","1","0","[1275.5]","1","0","1","","","","","","","",""
"pit-trial","34","390625","0.0-2.0-8.2-4.2","battery-v0.2","","""event"",""trial"",""time""
""fullscreenenter"",""1"",""4081""
""fullscreenexit"",""2"",""17308""
""blur"",""2"",""18813""
""focus"",""2"",""20420""
","""event"",""trial"",""time""
""blur"",""2"",""18813""
","""event"",""trial"",""time""
""focus"",""2"",""20420""
","""event"",""trial"",""time""
""fullscreenenter"",""1"",""4081""
","""event"",""trial"",""time""
""fullscreenexit"",""2"",""17308""
","","","196.30000000447035","","","14","3984","804","&#9776;","elianto","#3366ff99"," "," ","1","+10","[1051.3000000044703]","1","0","1","","","","","","","",""
"call-function","35","390641","0.0-2.0-9.0","battery-v0.2","","""event"",""trial"",""time""
""fullscreenenter"",""1"",""4081""
""fullscreenexit"",""2"",""17308""
""blur"",""2"",""18813""
""focus"",""2"",""20420""
","""event"",""trial"",""time""
""blur"",""2"",""18813""
","""event"",""trial"",""time""
""focus"",""2"",""20420""
","""event"",""trial"",""time""
""fullscreenenter"",""1"",""4081""
","""event"",""trial"",""time""
""fullscreenexit"",""2"",""17308""
","","","","","","","","","","","","","","","","","","","","","","","","","","",""
"pit-instructions","36","432568","0.0-2.0-10.0","battery-v0.2","","""event"",""trial"",""time""
""fullscreenenter"",""1"",""4081""
""fullscreenexit"",""2"",""17308""
""blur"",""2"",""18813""
""focus"",""2"",""20420""
","""event"",""trial"",""time""
""blur"",""2"",""18813""
","""event"",""trial"",""time""
""focus"",""2"",""20420""
","""event"",""trial"",""time""
""fullscreenenter"",""1"",""4081""
","""event"",""trial"",""time""
""fullscreenexit"",""2"",""17308""
","","[{""page_index"":0,""viewing_time"":7576.20000000298},{""page_index"":1,""viewing_time"":7920.5},{""page_index"":2,""viewing_time"":9642.89999999851},{""page_index"":3,""viewing_time"":9173.80000000447},{""page_index"":4,""viewing_time"":7608}]","41924.70000000298","","","","","","","","","","","","","","","","","","","","","","","",""
"pit-trial","37","437441","0.0-2.0-11.0-0.0","battery-v0.2","","""event"",""trial"",""time""
""fullscreenenter"",""1"",""4081""
""fullscreenexit"",""2"",""17308""
""blur"",""2"",""18813""
""focus"",""2"",""20420""
","""event"",""trial"",""time""
""blur"",""2"",""18813""
","""event"",""trial"",""time""
""focus"",""2"",""20420""
","""event"",""trial"",""time""
""fullscreenenter"",""1"",""4081""
","""event"",""trial"",""time""
""fullscreenexit"",""2"",""17308""
","","","-1","","","14","3984","804","&#9761;","elianto","#3366ff99","-1","-1","1","+10","[]","0","0","2","","","","","","","",""
"pit-trial","38","442314","0.0-2.0-11.0-1.0","battery-v0.2","","""event"",""trial"",""time""
""fullscreenenter"",""1"",""4081""
""fullscreenexit"",""2"",""17308""
""blur"",""2"",""18813""
""focus"",""2"",""20420""
","""event"",""trial"",""time""
""blur"",""2"",""18813""
","""event"",""trial"",""time""
""focus"",""2"",""20420""
","""event"",""trial"",""time""
""fullscreenenter"",""1"",""4081""
","""event"",""trial"",""time""
""fullscreenexit"",""2"",""17308""
","","","-1","","","14","3984","804","&#9761;","elianto","#3366ff99","-1","-1","1","+10","[]","0","0","2","","","","","","","",""
"pit-trial","39","447187","0.0-2.0-11.0-2.0","battery-v0.2","","""event"",""trial"",""time""
""fullscreenenter"",""1"",""4081""
""fullscreenexit"",""2"",""17308""
""blur"",""2"",""18813""
""focus"",""2"",""20420""
","""event"",""trial"",""time""
""blur"",""2"",""18813""
","""event"",""trial"",""time""
""focus"",""2"",""20420""
","""event"",""trial"",""time""
""fullscreenenter"",""1"",""4081""
","""event"",""trial"",""time""
""fullscreenexit"",""2"",""17308""
","","","-1","","","14","3984","804","&#9761;","elianto","#3366ff99","-1","-1","1","+10","[]","0","0","2","","","","","","","",""
"pit-trial","40","452058","0.0-2.0-11.0-3.0","battery-v0.2","","""event"",""trial"",""time""
""fullscreenenter"",""1"",""4081""
""fullscreenexit"",""2"",""17308""
""blur"",""2"",""18813""
""focus"",""2"",""20420""
","""event"",""trial"",""time""
""blur"",""2"",""18813""
","""event"",""trial"",""time""
""focus"",""2"",""20420""
","""event"",""trial"",""time""
""fullscreenenter"",""1"",""4081""
","""event"",""trial"",""time""
""fullscreenexit"",""2"",""17308""
","","","-1","","","14","3984","804","&#9761;","elianto","#3366ff99","-1","-1","1","0","[]","0","0","2","","","","","","","",""
"pit-trial","41","456928","0.0-2.0-11.0-4.0","battery-v0.2","","""event"",""trial"",""time""
""fullscreenenter"",""1"",""4081""
""fullscreenexit"",""2"",""17308""
""blur"",""2"",""18813""
""focus"",""2"",""20420""
","""event"",""trial"",""time""
""blur"",""2"",""18813""
","""event"",""trial"",""time""
""focus"",""2"",""20420""
","""event"",""trial"",""time""
""fullscreenenter"",""1"",""4081""
","""event"",""trial"",""time""
""fullscreenexit"",""2"",""17308""
","","","-1","","","14","3984","804","&#9761;","elianto","#3366ff99","-1","-1","1","+10","[]","0","0","2","","","","","","","",""
"pit-trial","42","461806","0.0-2.0-11.1-0.1","battery-v0.2","","""event"",""trial"",""time""
""fullscreenenter"",""1"",""4081""
""fullscreenexit"",""2"",""17308""
""blur"",""2"",""18813""
""focus"",""2"",""20420""
","""event"",""trial"",""time""
""blur"",""2"",""18813""
","""event"",""trial"",""time""
""focus"",""2"",""20420""
","""event"",""trial"",""time""
""fullscreenenter"",""1"",""4081""
","""event"",""trial"",""time""
""fullscreenexit"",""2"",""17308""
","","","-1","","","14","3984","804","&#9761;","elianto","#3366ff99","-1","-1","1","+10","[]","0","0","2","","","","","","","",""
"pit-trial","43","466681","0.0-2.0-11.1-1.1","battery-v0.2","","""event"",""trial"",""time""
""fullscreenenter"",""1"",""4081""
""fullscreenexit"",""2"",""17308""
""blur"",""2"",""18813""
""focus"",""2"",""20420""
","""event"",""trial"",""time""
""blur"",""2"",""18813""
","""event"",""trial"",""time""
""focus"",""2"",""20420""
","""event"",""trial"",""time""
""fullscreenenter"",""1"",""4081""
","""event"",""trial"",""time""
""fullscreenexit"",""2"",""17308""
","","","-1","","","14","3984","804","&#9761;","elianto","#3366ff99","-1","-1","1","+10","[]","0","0","2","","","","","","","",""
"pit-trial","44","471553","0.0-2.0-11.1-2.1","battery-v0.2","","""event"",""trial"",""time""
""fullscreenenter"",""1"",""4081""
""fullscreenexit"",""2"",""17308""
""blur"",""2"",""18813""
""focus"",""2"",""20420""
","""event"",""trial"",""time""
""blur"",""2"",""18813""
","""event"",""trial"",""time""
""focus"",""2"",""20420""
","""event"",""trial"",""time""
""fullscreenenter"",""1"",""4081""
","""event"",""trial"",""time""
""fullscreenexit"",""2"",""17308""
","","","-1","","","14","3984","804","&#9761;","elianto","#3366ff99","-1","-1","1","+10","[]","0","0","2","","","","","","","",""
"pit-trial","45","476427","0.0-2.0-11.1-3.1","battery-v0.2","","""event"",""trial"",""time""
""fullscreenenter"",""1"",""4081""
""fullscreenexit"",""2"",""17308""
""blur"",""2"",""18813""
""focus"",""2"",""20420""
","""event"",""trial"",""time""
""blur"",""2"",""18813""
","""event"",""trial"",""time""
""focus"",""2"",""20420""
","""event"",""trial"",""time""
""fullscreenenter"",""1"",""4081""
","""event"",""trial"",""time""
""fullscreenexit"",""2"",""17308""
","","","-1","","","14","3984","804","&#9761;","elianto","#3366ff99","-1","-1","1","0","[]","0","0","2","","","","","","","",""
"pit-trial","46","481301","0.0-2.0-11.1-4.1","battery-v0.2","","""event"",""trial"",""time""
""fullscreenenter"",""1"",""4081""
""fullscreenexit"",""2"",""17308""
""blur"",""2"",""18813""
""focus"",""2"",""20420""
","""event"",""trial"",""time""
""blur"",""2"",""18813""
","""event"",""trial"",""time""
""focus"",""2"",""20420""
","""event"",""trial"",""time""
""fullscreenenter"",""1"",""4081""
","""event"",""trial"",""time""
""fullscreenexit"",""2"",""17308""
","","","-1","","","14","3984","804","&#9761;","elianto","#3366ff99","-1","-1","1","+10","[]","0","0","2","","","","","","","",""
"pit-trial","47","486173","0.0-2.0-11.2-0.2","battery-v0.2","","""event"",""trial"",""time""
""fullscreenenter"",""1"",""4081""
""fullscreenexit"",""2"",""17308""
""blur"",""2"",""18813""
""focus"",""2"",""20420""
","""event"",""trial"",""time""
""blur"",""2"",""18813""
","""event"",""trial"",""time""
""focus"",""2"",""20420""
","""event"",""trial"",""time""
""fullscreenenter"",""1"",""4081""
","""event"",""trial"",""time""
""fullscreenexit"",""2"",""17308""
","","","-1","","","14","3984","804","&#9761;","elianto","#3366ff99","-1","-1","1","+10","[]","0","0","2","","","","","","","",""
"pit-trial","48","491051","0.0-2.0-11.2-1.2","battery-v0.2","","""event"",""trial"",""time""
""fullscreenenter"",""1"",""4081""
""fullscreenexit"",""2"",""17308""
""blur"",""2"",""18813""
""focus"",""2"",""20420""
","""event"",""trial"",""time""
""blur"",""2"",""18813""
","""event"",""trial"",""time""
""focus"",""2"",""20420""
","""event"",""trial"",""time""
""fullscreenenter"",""1"",""4081""
","""event"",""trial"",""time""
""fullscreenexit"",""2"",""17308""
","","","-1","","","14","3984","804","&#9761;","elianto","#3366ff99","-1","-1","1","+10","[]","0","0","2","","","","","","","",""
"pit-trial","49","495922","0.0-2.0-11.2-2.2","battery-v0.2","","""event"",""trial"",""time""
""fullscreenenter"",""1"",""4081""
""fullscreenexit"",""2"",""17308""
""blur"",""2"",""18813""
""focus"",""2"",""20420""
","""event"",""trial"",""time""
""blur"",""2"",""18813""
","""event"",""trial"",""time""
""focus"",""2"",""20420""
","""event"",""trial"",""time""
""fullscreenenter"",""1"",""4081""
","""event"",""trial"",""time""
""fullscreenexit"",""2"",""17308""
","","","-1","","","14","3984","804","&#9761;","elianto","#3366ff99","-1","-1","1","+10","[]","0","0","2","","","","","","","",""
"pit-trial","50","500795","0.0-2.0-11.2-3.2","battery-v0.2","","""event"",""trial"",""time""
""fullscreenenter"",""1"",""4081""
""fullscreenexit"",""2"",""17308""
""blur"",""2"",""18813""
""focus"",""2"",""20420""
","""event"",""trial"",""time""
""blur"",""2"",""18813""
","""event"",""trial"",""time""
""focus"",""2"",""20420""
","""event"",""trial"",""time""
""fullscreenenter"",""1"",""4081""
","""event"",""trial"",""time""
""fullscreenexit"",""2"",""17308""
","","","-1","","","14","3984","804","&#9761;","elianto","#3366ff99","-1","-1","1","0","[]","0","0","2","","","","","","","",""
"pit-trial","51","505670","0.0-2.0-11.2-4.2","battery-v0.2","","""event"",""trial"",""time""
""fullscreenenter"",""1"",""4081""
""fullscreenexit"",""2"",""17308""
""blur"",""2"",""18813""
""focus"",""2"",""20420""
","""event"",""trial"",""time""
""blur"",""2"",""18813""
","""event"",""trial"",""time""
""focus"",""2"",""20420""
","""event"",""trial"",""time""
""fullscreenenter"",""1"",""4081""
","""event"",""trial"",""time""
""fullscreenexit"",""2"",""17308""
","","","-1","","","14","3984","804","&#9761;","elianto","#3366ff99","-1","-1","1","+10","[]","0","0","2","","","","","","","",""
"pit-trial","52","510539","0.0-2.0-11.3-0.3","battery-v0.2","","""event"",""trial"",""time""
""fullscreenenter"",""1"",""4081""
""fullscreenexit"",""2"",""17308""
""blur"",""2"",""18813""
""focus"",""2"",""20420""
","""event"",""trial"",""time""
""blur"",""2"",""18813""
","""event"",""trial"",""time""
""focus"",""2"",""20420""
","""event"",""trial"",""time""
""fullscreenenter"",""1"",""4081""
","""event"",""trial"",""time""
""fullscreenexit"",""2"",""17308""
","","","-1","","","14","3984","804","&#9761;","elianto","#3366ff99","-1","-1","1","+10","[]","0","0","2","","","","","","","",""
"pit-trial","53","515414","0.0-2.0-11.3-1.3","battery-v0.2","","""event"",""trial"",""time""
""fullscreenenter"",""1"",""4081""
""fullscreenexit"",""2"",""17308""
""blur"",""2"",""18813""
""focus"",""2"",""20420""
","""event"",""trial"",""time""
""blur"",""2"",""18813""
","""event"",""trial"",""time""
""focus"",""2"",""20420""
","""event"",""trial"",""time""
""fullscreenenter"",""1"",""4081""
","""event"",""trial"",""time""
""fullscreenexit"",""2"",""17308""
","","","-1","","","14","3984","804","&#9761;","elianto","#3366ff99","-1","-1","1","+10","[]","0","0","2","","","","","","","",""
"pit-trial","54","520290","0.0-2.0-11.3-2.3","battery-v0.2","","""event"",""trial"",""time""
""fullscreenenter"",""1"",""4081""
""fullscreenexit"",""2"",""17308""
""blur"",""2"",""18813""
""focus"",""2"",""20420""
","""event"",""trial"",""time""
""blur"",""2"",""18813""
","""event"",""trial"",""time""
""focus"",""2"",""20420""
","""event"",""trial"",""time""
""fullscreenenter"",""1"",""4081""
","""event"",""trial"",""time""
""fullscreenexit"",""2"",""17308""
","","","-1","","","14","3984","804","&#9761;","elianto","#3366ff99","-1","-1","1","+10","[]","0","0","2","","","","","","","",""
"pit-trial","55","525159","0.0-2.0-11.3-3.3","battery-v0.2","","""event"",""trial"",""time""
""fullscreenenter"",""1"",""4081""
""fullscreenexit"",""2"",""17308""
""blur"",""2"",""18813""
""focus"",""2"",""20420""
","""event"",""trial"",""time""
""blur"",""2"",""18813""
","""event"",""trial"",""time""
""focus"",""2"",""20420""
","""event"",""trial"",""time""
""fullscreenenter"",""1"",""4081""
","""event"",""trial"",""time""
""fullscreenexit"",""2"",""17308""
","","","-1","","","14","3984","804","&#9761;","elianto","#3366ff99","-1","-1","1","0","[]","0","0","2","","","","","","","",""
"pit-trial","56","530030","0.0-2.0-11.3-4.3","battery-v0.2","","""event"",""trial"",""time""
""fullscreenenter"",""1"",""4081""
""fullscreenexit"",""2"",""17308""
""blur"",""2"",""18813""
""focus"",""2"",""20420""
","""event"",""trial"",""time""
""blur"",""2"",""18813""
","""event"",""trial"",""time""
""focus"",""2"",""20420""
","""event"",""trial"",""time""
""fullscreenenter"",""1"",""4081""
","""event"",""trial"",""time""
""fullscreenexit"",""2"",""17308""
","","","-1","","","14","3984","804","&#9761;","elianto","#3366ff99","-1","-1","1","+10","[]","0","0","2","","","","","","","",""
"call-function","57","530051","0.0-2.0-12.0","battery-v0.2","","""event"",""trial"",""time""
""fullscreenenter"",""1"",""4081""
""fullscreenexit"",""2"",""17308""
""blur"",""2"",""18813""
""focus"",""2"",""20420""
","""event"",""trial"",""time""
""blur"",""2"",""18813""
","""event"",""trial"",""time""
""focus"",""2"",""20420""
","""event"",""trial"",""time""
""fullscreenenter"",""1"",""4081""
","""event"",""trial"",""time""
""fullscreenexit"",""2"",""17308""
","","","","","","","","","","","","","","","","","","","","","","","","","","",""
"pit-instructions","58","566299","0.0-2.0-13.0","battery-v0.2","","""event"",""trial"",""time""
""fullscreenenter"",""1"",""4081""
""fullscreenexit"",""2"",""17308""
""blur"",""2"",""18813""
""focus"",""2"",""20420""
","""event"",""trial"",""time""
""blur"",""2"",""18813""
","""event"",""trial"",""time""
""focus"",""2"",""20420""
","""event"",""trial"",""time""
""fullscreenenter"",""1"",""4081""
","""event"",""trial"",""time""
""fullscreenexit"",""2"",""17308""
","","[{""page_index"":0,""viewing_time"":9336.30000000447},{""page_index"":1,""viewing_time"":7300.5},{""page_index"":2,""viewing_time"":3380},{""page_index"":3,""viewing_time"":10931.69999999553},{""page_index"":4,""viewing_time"":5292.20000000298}]","36245.10000000149","","","","","","","","","","","","","","","","","","","","","","","",""
"pit-trial","59","569647","0.0-2.0-14.0-0.0","battery-v0.2","","""event"",""trial"",""time""
""fullscreenenter"",""1"",""4081""
""fullscreenexit"",""2"",""17308""
""blur"",""2"",""18813""
""focus"",""2"",""20420""
","""event"",""trial"",""time""
""blur"",""2"",""18813""
","""event"",""trial"",""time""
""focus"",""2"",""20420""
","""event"",""trial"",""time""
""fullscreenenter"",""1"",""4081""
","""event"",""trial"",""time""
""fullscreenexit"",""2"",""17308""
","","","475.29999999701977","","","14","3984","804","&#9826;","elianto","#f73b6a7A","-1"," ","0","-10","[1325.4000000059605]","1","0","3","","","","","","","",""
"pit-trial","60","574520","0.0-2.0-14.0-1.0","battery-v0.2","","""event"",""trial"",""time""
""fullscreenenter"",""1"",""4081""
""fullscreenexit"",""2"",""17308""
""blur"",""2"",""18813""
""focus"",""2"",""20420""
","""event"",""trial"",""time""
""blur"",""2"",""18813""
","""event"",""trial"",""time""
""focus"",""2"",""20420""
","""event"",""trial"",""time""
""fullscreenenter"",""1"",""4081""
","""event"",""trial"",""time""
""fullscreenexit"",""2"",""17308""
","","","-1","","","14","3984","804","&#9826;","elianto","#f73b6a7A","-1","-1","1","0","[]","0","0","3","","","","","","","",""
"pit-trial","61","579391","0.0-2.0-14.0-2.0","battery-v0.2","","""event"",""trial"",""time""
""fullscreenenter"",""1"",""4081""
""fullscreenexit"",""2"",""17308""
""blur"",""2"",""18813""
""focus"",""2"",""20420""
","""event"",""trial"",""time""
""blur"",""2"",""18813""
","""event"",""trial"",""time""
""focus"",""2"",""20420""
","""event"",""trial"",""time""
""fullscreenenter"",""1"",""4081""
","""event"",""trial"",""time""
""fullscreenexit"",""2"",""17308""
","","","-1","","","14","3984","804","&#9826;","elianto","#f73b6a7A","-1","-1","1","0","[]","0","0","3","","","","","","","",""
"pit-trial","62","584263","0.0-2.0-14.0-3.0","battery-v0.2","","""event"",""trial"",""time""
""fullscreenenter"",""1"",""4081""
""fullscreenexit"",""2"",""17308""
""blur"",""2"",""18813""
""focus"",""2"",""20420""
","""event"",""trial"",""time""
""blur"",""2"",""18813""
","""event"",""trial"",""time""
""focus"",""2"",""20420""
","""event"",""trial"",""time""
""fullscreenenter"",""1"",""4081""
","""event"",""trial"",""time""
""fullscreenexit"",""2"",""17308""
","","","-1","","","14","3984","804","&#9826;","elianto","#f73b6a7A","-1","-1","1","-10","[]","0","0","3","","","","","","","",""
"pit-trial","63","589136","0.0-2.0-14.0-4.0","battery-v0.2","","""event"",""trial"",""time""
""fullscreenenter"",""1"",""4081""
""fullscreenexit"",""2"",""17308""
""blur"",""2"",""18813""
""focus"",""2"",""20420""
","""event"",""trial"",""time""
""blur"",""2"",""18813""
","""event"",""trial"",""time""
""focus"",""2"",""20420""
","""event"",""trial"",""time""
""fullscreenenter"",""1"",""4081""
","""event"",""trial"",""time""
""fullscreenexit"",""2"",""17308""
","","","-1","","","14","3984","804","&#9826;","elianto","#f73b6a7A","-1","-1","1","0","[]","0","0","3","","","","","","","",""
"pit-trial","64","594010","0.0-2.0-14.1-0.1","battery-v0.2","","""event"",""trial"",""time""
""fullscreenenter"",""1"",""4081""
""fullscreenexit"",""2"",""17308""
""blur"",""2"",""18813""
""focus"",""2"",""20420""
","""event"",""trial"",""time""
""blur"",""2"",""18813""
","""event"",""trial"",""time""
""focus"",""2"",""20420""
","""event"",""trial"",""time""
""fullscreenenter"",""1"",""4081""
","""event"",""trial"",""time""
""fullscreenexit"",""2"",""17308""
","","","-1","","","14","3984","804","&#9826;","elianto","#f73b6a7A","-1","-1","1","0","[]","0","0","3","","","","","","","",""
"pit-trial","65","598884","0.0-2.0-14.1-1.1","battery-v0.2","","""event"",""trial"",""time""
""fullscreenenter"",""1"",""4081""
""fullscreenexit"",""2"",""17308""
""blur"",""2"",""18813""
""focus"",""2"",""20420""
","""event"",""trial"",""time""
""blur"",""2"",""18813""
","""event"",""trial"",""time""
""focus"",""2"",""20420""
","""event"",""trial"",""time""
""fullscreenenter"",""1"",""4081""
","""event"",""trial"",""time""
""fullscreenexit"",""2"",""17308""
","","","-1","","","14","3984","804","&#9826;","elianto","#f73b6a7A","-1","-1","1","0","[]","0","0","3","","","","","","","",""
"pit-trial","66","603753","0.0-2.0-14.1-2.1","battery-v0.2","","""event"",""trial"",""time""
""fullscreenenter"",""1"",""4081""
""fullscreenexit"",""2"",""17308""
""blur"",""2"",""18813""
""focus"",""2"",""20420""
","""event"",""trial"",""time""
""blur"",""2"",""18813""
","""event"",""trial"",""time""
""focus"",""2"",""20420""
","""event"",""trial"",""time""
""fullscreenenter"",""1"",""4081""
","""event"",""trial"",""time""
""fullscreenexit"",""2"",""17308""
","","","-1","","","14","3984","804","&#9826;","elianto","#f73b6a7A","-1","-1","1","0","[]","0","0","3","","","","","","","",""
"pit-trial","67","608624","0.0-2.0-14.1-3.1","battery-v0.2","","""event"",""trial"",""time""
""fullscreenenter"",""1"",""4081""
""fullscreenexit"",""2"",""17308""
""blur"",""2"",""18813""
""focus"",""2"",""20420""
","""event"",""trial"",""time""
""blur"",""2"",""18813""
","""event"",""trial"",""time""
""focus"",""2"",""20420""
","""event"",""trial"",""time""
""fullscreenenter"",""1"",""4081""
","""event"",""trial"",""time""
""fullscreenexit"",""2"",""17308""
","","","-1","","","14","3984","804","&#9826;","elianto","#f73b6a7A","-1","-1","1","-10","[]","0","0","3","","","","","","","",""
"pit-trial","68","613494","0.0-2.0-14.1-4.1","battery-v0.2","","""event"",""trial"",""time""
""fullscreenenter"",""1"",""4081""
""fullscreenexit"",""2"",""17308""
""blur"",""2"",""18813""
""focus"",""2"",""20420""
","""event"",""trial"",""time""
""blur"",""2"",""18813""
","""event"",""trial"",""time""
""focus"",""2"",""20420""
","""event"",""trial"",""time""
""fullscreenenter"",""1"",""4081""
","""event"",""trial"",""time""
""fullscreenexit"",""2"",""17308""
","","","-1","","","14","3984","804","&#9826;","elianto","#f73b6a7A","-1","-1","1","0","[]","0","0","3","","","","","","","",""
"pit-trial","69","618370","0.0-2.0-14.2-0.2","battery-v0.2","","""event"",""trial"",""time""
""fullscreenenter"",""1"",""4081""
""fullscreenexit"",""2"",""17308""
""blur"",""2"",""18813""
""focus"",""2"",""20420""
","""event"",""trial"",""time""
""blur"",""2"",""18813""
","""event"",""trial"",""time""
""focus"",""2"",""20420""
","""event"",""trial"",""time""
""fullscreenenter"",""1"",""4081""
","""event"",""trial"",""time""
""fullscreenexit"",""2"",""17308""
","","","-1","","","14","3984","804","&#9826;","elianto","#f73b6a7A","-1","-1","1","0","[]","0","0","3","","","","","","","",""
"pit-trial","70","623246","0.0-2.0-14.2-1.2","battery-v0.2","","""event"",""trial"",""time""
""fullscreenenter"",""1"",""4081""
""fullscreenexit"",""2"",""17308""
""blur"",""2"",""18813""
""focus"",""2"",""20420""
","""event"",""trial"",""time""
""blur"",""2"",""18813""
","""event"",""trial"",""time""
""focus"",""2"",""20420""
","""event"",""trial"",""time""
""fullscreenenter"",""1"",""4081""
","""event"",""trial"",""time""
""fullscreenexit"",""2"",""17308""
","","","-1","","","14","3984","804","&#9826;","elianto","#f73b6a7A","-1","-1","1","0","[]","0","0","3","","","","","","","",""
"pit-trial","71","628115","0.0-2.0-14.2-2.2","battery-v0.2","","""event"",""trial"",""time""
""fullscreenenter"",""1"",""4081""
""fullscreenexit"",""2"",""17308""
""blur"",""2"",""18813""
""focus"",""2"",""20420""
","""event"",""trial"",""time""
""blur"",""2"",""18813""
","""event"",""trial"",""time""
""focus"",""2"",""20420""
","""event"",""trial"",""time""
""fullscreenenter"",""1"",""4081""
","""event"",""trial"",""time""
""fullscreenexit"",""2"",""17308""
","","","-1","","","14","3984","804","&#9826;","elianto","#f73b6a7A","-1","-1","1","0","[]","0","0","3","","","","","","","",""
"pit-trial","72","632987","0.0-2.0-14.2-3.2","battery-v0.2","","""event"",""trial"",""time""
""fullscreenenter"",""1"",""4081""
""fullscreenexit"",""2"",""17308""
""blur"",""2"",""18813""
""focus"",""2"",""20420""
","""event"",""trial"",""time""
""blur"",""2"",""18813""
","""event"",""trial"",""time""
""focus"",""2"",""20420""
","""event"",""trial"",""time""
""fullscreenenter"",""1"",""4081""
","""event"",""trial"",""time""
""fullscreenexit"",""2"",""17308""
","","","-1","","","14","3984","804","&#9826;","elianto","#f73b6a7A","-1","-1","1","-10","[]","0","0","3","","","","","","","",""
"pit-trial","73","637860","0.0-2.0-14.2-4.2","battery-v0.2","","""event"",""trial"",""time""
""fullscreenenter"",""1"",""4081""
""fullscreenexit"",""2"",""17308""
""blur"",""2"",""18813""
""focus"",""2"",""20420""
","""event"",""trial"",""time""
""blur"",""2"",""18813""
","""event"",""trial"",""time""
""focus"",""2"",""20420""
","""event"",""trial"",""time""
""fullscreenenter"",""1"",""4081""
","""event"",""trial"",""time""
""fullscreenexit"",""2"",""17308""
","","","-1","","","14","3984","804","&#9826;","elianto","#f73b6a7A","-1","-1","1","0","[]","0","0","3","","","","","","","",""
"pit-trial","74","642733","0.0-2.0-14.3-0.3","battery-v0.2","","""event"",""trial"",""time""
""fullscreenenter"",""1"",""4081""
""fullscreenexit"",""2"",""17308""
""blur"",""2"",""18813""
""focus"",""2"",""20420""
","""event"",""trial"",""time""
""blur"",""2"",""18813""
","""event"",""trial"",""time""
""focus"",""2"",""20420""
","""event"",""trial"",""time""
""fullscreenenter"",""1"",""4081""
","""event"",""trial"",""time""
""fullscreenexit"",""2"",""17308""
","","","-1","","","14","3984","804","&#9826;","elianto","#f73b6a7A","-1","-1","1","0","[]","0","0","3","","","","","","","",""
"pit-trial","75","647605","0.0-2.0-14.3-1.3","battery-v0.2","","""event"",""trial"",""time""
""fullscreenenter"",""1"",""4081""
""fullscreenexit"",""2"",""17308""
""blur"",""2"",""18813""
""focus"",""2"",""20420""
","""event"",""trial"",""time""
""blur"",""2"",""18813""
","""event"",""trial"",""time""
""focus"",""2"",""20420""
","""event"",""trial"",""time""
""fullscreenenter"",""1"",""4081""
","""event"",""trial"",""time""
""fullscreenexit"",""2"",""17308""
","","","-1","","","14","3984","804","&#9826;","elianto","#f73b6a7A","-1","-1","1","0","[]","0","0","3","","","","","","","",""
"pit-trial","76","652473","0.0-2.0-14.3-2.3","battery-v0.2","","""event"",""trial"",""time""
""fullscreenenter"",""1"",""4081""
""fullscreenexit"",""2"",""17308""
""blur"",""2"",""18813""
""focus"",""2"",""20420""
","""event"",""trial"",""time""
""blur"",""2"",""18813""
","""event"",""trial"",""time""
""focus"",""2"",""20420""
","""event"",""trial"",""time""
""fullscreenenter"",""1"",""4081""
","""event"",""trial"",""time""
""fullscreenexit"",""2"",""17308""
","","","-1","","","14","3984","804","&#9826;","elianto","#f73b6a7A","-1","-1","1","0","[]","0","0","3","","","","","","","",""
"pit-trial","77","657348","0.0-2.0-14.3-3.3","battery-v0.2","","""event"",""trial"",""time""
""fullscreenenter"",""1"",""4081""
""fullscreenexit"",""2"",""17308""
""blur"",""2"",""18813""
""focus"",""2"",""20420""
","""event"",""trial"",""time""
""blur"",""2"",""18813""
","""event"",""trial"",""time""
""focus"",""2"",""20420""
","""event"",""trial"",""time""
""fullscreenenter"",""1"",""4081""
","""event"",""trial"",""time""
""fullscreenexit"",""2"",""17308""
","","","-1","","","14","3984","804","&#9826;","elianto","#f73b6a7A","-1","-1","1","-10","[]","0","0","3","","","","","","","",""
"pit-trial","78","662214","0.0-2.0-14.3-4.3","battery-v0.2","","""event"",""trial"",""time""
""fullscreenenter"",""1"",""4081""
""fullscreenexit"",""2"",""17308""
""blur"",""2"",""18813""
""focus"",""2"",""20420""
","""event"",""trial"",""time""
""blur"",""2"",""18813""
","""event"",""trial"",""time""
""focus"",""2"",""20420""
","""event"",""trial"",""time""
""fullscreenenter"",""1"",""4081""
","""event"",""trial"",""time""
""fullscreenexit"",""2"",""17308""
","","","-1","","","14","3984","804","&#9826;","elianto","#f73b6a7A","-1","-1","1","0","[]","0","0","3","","","","","","","",""
"call-function","79","662229","0.0-2.0-15.0","battery-v0.2","","""event"",""trial"",""time""
""fullscreenenter"",""1"",""4081""
""fullscreenexit"",""2"",""17308""
""blur"",""2"",""18813""
""focus"",""2"",""20420""
","""event"",""trial"",""time""
""blur"",""2"",""18813""
","""event"",""trial"",""time""
""focus"",""2"",""20420""
","""event"",""trial"",""time""
""fullscreenenter"",""1"",""4081""
","""event"",""trial"",""time""
""fullscreenexit"",""2"",""17308""
","","","","","","","","","","","","","","","","","","","","","","","","","","",""
"pit-instructions","80","691734","0.0-2.0-16.0","battery-v0.2","","""event"",""trial"",""time""
""fullscreenenter"",""1"",""4081""
""fullscreenexit"",""2"",""17308""
""blur"",""2"",""18813""
""focus"",""2"",""20420""
","""event"",""trial"",""time""
""blur"",""2"",""18813""
","""event"",""trial"",""time""
""focus"",""2"",""20420""
","""event"",""trial"",""time""
""fullscreenenter"",""1"",""4081""
","""event"",""trial"",""time""
""fullscreenexit"",""2"",""17308""
","","[{""page_index"":0,""viewing_time"":11159.10000000149},{""page_index"":1,""viewing_time"":8276},{""page_index"":2,""viewing_time"":5755.5},{""page_index"":3,""viewing_time"":4308.19999999553}]","29502.60000000149","","","","","","","","","","","","","","","","","","","","","","","",""
"pit-trial","81","695528","0.0-2.0-17.0-0.0","battery-v0.2","","""event"",""trial"",""time""
""fullscreenenter"",""1"",""4081""
""fullscreenexit"",""2"",""17308""
""blur"",""2"",""18813""
""focus"",""2"",""20420""
","""event"",""trial"",""time""
""blur"",""2"",""18813""
","""event"",""trial"",""time""
""focus"",""2"",""20420""
","""event"",""trial"",""time""
""fullscreenenter"",""1"",""4081""
","""event"",""trial"",""time""
""fullscreenexit"",""2"",""17308""
","","","924.0999999940395","","","14","3984","804","&#9789;","elianto","#f73b6a7A"," "," ","1","0","[1774.1000000014901]","1","0","4","","","","","","","",""
"pit-trial","82","698841","0.0-2.0-17.0-1.0","battery-v0.2","","""event"",""trial"",""time""
""fullscreenenter"",""1"",""4081""
""fullscreenexit"",""2"",""17308""
""blur"",""2"",""18813""
""focus"",""2"",""20420""
","""event"",""trial"",""time""
""blur"",""2"",""18813""
","""event"",""trial"",""time""
""focus"",""2"",""20420""
","""event"",""trial"",""time""
""fullscreenenter"",""1"",""4081""
","""event"",""trial"",""time""
""fullscreenexit"",""2"",""17308""
","","","442.5","","","14","3984","804","&#9789;","elianto","#f73b6a7A"," "," ","1","0","[1292.6000000014901]","1","0","4","","","","","","","",""
"pit-trial","83","702173","0.0-2.0-17.0-2.0","battery-v0.2","","""event"",""trial"",""time""
""fullscreenenter"",""1"",""4081""
""fullscreenexit"",""2"",""17308""
""blur"",""2"",""18813""
""focus"",""2"",""20420""
","""event"",""trial"",""time""
""blur"",""2"",""18813""
","""event"",""trial"",""time""
""focus"",""2"",""20420""
","""event"",""trial"",""time""
""fullscreenenter"",""1"",""4081""
","""event"",""trial"",""time""
""fullscreenexit"",""2"",""17308""
","","","457.5","","","14","3984","804","&#9789;","elianto","#f73b6a7A"," "," ","1","0","[1306.7000000029802]","1","0","4","","","","","","","",""
"pit-trial","84","705611","0.0-2.0-17.0-3.0","battery-v0.2","","""event"",""trial"",""time""
""fullscreenenter"",""1"",""4081""
""fullscreenexit"",""2"",""17308""
""blur"",""2"",""18813""
""focus"",""2"",""20420""
","""event"",""trial"",""time""
""blur"",""2"",""18813""
","""event"",""trial"",""time""
""focus"",""2"",""20420""
","""event"",""trial"",""time""
""fullscreenenter"",""1"",""4081""
","""event"",""trial"",""time""
""fullscreenexit"",""2"",""17308""
","","","563.5","","","14","3984","804","&#9789;","elianto","#f73b6a7A"," "," ","1","-10","[1413.5]","1","0","4","","","","","","","",""
"pit-trial","85","708981","0.0-2.0-17.0-4.0","battery-v0.2","","""event"",""trial"",""time""
""fullscreenenter"",""1"",""4081""
""fullscreenexit"",""2"",""17308""
""blur"",""2"",""18813""
""focus"",""2"",""20420""
","""event"",""trial"",""time""
""blur"",""2"",""18813""
","""event"",""trial"",""time""
""focus"",""2"",""20420""
","""event"",""trial"",""time""
""fullscreenenter"",""1"",""4081""
","""event"",""trial"",""time""
""fullscreenexit"",""2"",""17308""
","","","497.80000000447035","","","14","3984","804","&#9789;","elianto","#f73b6a7A"," "," ","1","0","[1348.6000000014901]","1","0","4","","","","","","","",""
"pit-trial","86","712309","0.0-2.0-17.1-0.1","battery-v0.2","","""event"",""trial"",""time""
""fullscreenenter"",""1"",""4081""
""fullscreenexit"",""2"",""17308""
""blur"",""2"",""18813""
""focus"",""2"",""20420""
","""event"",""trial"",""time""
""blur"",""2"",""18813""
","""event"",""trial"",""time""
""focus"",""2"",""20420""
","""event"",""trial"",""time""
""fullscreenenter"",""1"",""4081""
","""event"",""trial"",""time""
""fullscreenexit"",""2"",""17308""
","","","444.1000000014901","","","14","3984","804","&#9789;","elianto","#f73b6a7A"," "," ","1","0","[1298.2999999970198]","1","0","4","","","","","","","",""
"pit-trial","87","715468","0.0-2.0-17.1-1.1","battery-v0.2","","""event"",""trial"",""time""
""fullscreenenter"",""1"",""4081""
""fullscreenexit"",""2"",""17308""
""blur"",""2"",""18813""
""focus"",""2"",""20420""
","""event"",""trial"",""time""
""blur"",""2"",""18813""
","""event"",""trial"",""time""
""focus"",""2"",""20420""
","""event"",""trial"",""time""
""fullscreenenter"",""1"",""4081""
","""event"",""trial"",""time""
""fullscreenexit"",""2"",""17308""
","","","285.59999999403954","","","14","3984","804","&#9789;","elianto","#f73b6a7A"," "," ","1","0","[1135.7000000029802]","1","0","4","","","","","","","",""
"pit-trial","88","718730","0.0-2.0-17.1-2.1","battery-v0.2","","""event"",""trial"",""time""
""fullscreenenter"",""1"",""4081""
""fullscreenexit"",""2"",""17308""
""blur"",""2"",""18813""
""focus"",""2"",""20420""
","""event"",""trial"",""time""
""blur"",""2"",""18813""
","""event"",""trial"",""time""
""focus"",""2"",""20420""
","""event"",""trial"",""time""
""fullscreenenter"",""1"",""4081""
","""event"",""trial"",""time""
""fullscreenexit"",""2"",""17308""
","","","383.6000000014901","","","14","3984","804","&#9789;","elianto","#f73b6a7A"," "," ","1","0","[1240.2000000029802]","1","0","4","","","","","","","",""
"pit-trial","89","721881","0.0-2.0-17.1-3.1","battery-v0.2","","""event"",""trial"",""time""
""fullscreenenter"",""1"",""4081""
""fullscreenexit"",""2"",""17308""
""blur"",""2"",""18813""
""focus"",""2"",""20420""
","""event"",""trial"",""time""
""blur"",""2"",""18813""
","""event"",""trial"",""time""
""focus"",""2"",""20420""
","""event"",""trial"",""time""
""fullscreenenter"",""1"",""4081""
","""event"",""trial"",""time""
""fullscreenexit"",""2"",""17308""
","","","274.70000000298023","","","14","3984","804","&#9789;","elianto","#f73b6a7A"," "," ","1","-10","[1131]","1","0","4","","","","","","","",""
"pit-trial","90","725147","0.0-2.0-17.1-4.1","battery-v0.2","","""event"",""trial"",""time""
""fullscreenenter"",""1"",""4081""
""fullscreenexit"",""2"",""17308""
""blur"",""2"",""18813""
""focus"",""2"",""20420""
","""event"",""trial"",""time""
""blur"",""2"",""18813""
","""event"",""trial"",""time""
""focus"",""2"",""20420""
","""event"",""trial"",""time""
""fullscreenenter"",""1"",""4081""
","""event"",""trial"",""time""
""fullscreenexit"",""2"",""17308""
","","","392.1000000014901","","","14","3984","804","&#9789;","elianto","#f73b6a7A"," "," ","1","0","[1241.5]","1","0","4","","","","","","","",""
"pit-trial","91","728456","0.0-2.0-17.2-0.2","battery-v0.2","","""event"",""trial"",""time""
""fullscreenenter"",""1"",""4081""
""fullscreenexit"",""2"",""17308""
""blur"",""2"",""18813""
""focus"",""2"",""20420""
","""event"",""trial"",""time""
""blur"",""2"",""18813""
","""event"",""trial"",""time""
""focus"",""2"",""20420""
","""event"",""trial"",""time""
""fullscreenenter"",""1"",""4081""
","""event"",""trial"",""time""
""fullscreenexit"",""2"",""17308""
","","","439.6000000014901","","","14","3984","804","&#9789;","elianto","#f73b6a7A"," "," ","1","0","[1289.3999999985099]","1","0","4","","","","","","","",""
"pit-trial","92","731740","0.0-2.0-17.2-1.2","battery-v0.2","","""event"",""trial"",""time""
""fullscreenenter"",""1"",""4081""
""fullscreenexit"",""2"",""17308""
""blur"",""2"",""18813""
""focus"",""2"",""20420""
","""event"",""trial"",""time""
""blur"",""2"",""18813""
","""event"",""trial"",""time""
""focus"",""2"",""20420""
","""event"",""trial"",""time""
""fullscreenenter"",""1"",""4081""
","""event"",""trial"",""time""
""fullscreenexit"",""2"",""17308""
","","","412.79999999701977","","","14","3984","804","&#9789;","elianto","#f73b6a7A"," "," ","1","0","[1262.7000000029802]","1","0","4","","","","","","","",""
"pit-trial","93","734933","0.0-2.0-17.2-2.2","battery-v0.2","","""event"",""trial"",""time""
""fullscreenenter"",""1"",""4081""
""fullscreenexit"",""2"",""17308""
""blur"",""2"",""18813""
""focus"",""2"",""20420""
","""event"",""trial"",""time""
""blur"",""2"",""18813""
","""event"",""trial"",""time""
""focus"",""2"",""20420""
","""event"",""trial"",""time""
""fullscreenenter"",""1"",""4081""
","""event"",""trial"",""time""
""fullscreenexit"",""2"",""17308""
","","","324.29999999701977","","","14","3984","804","&#9789;","elianto","#f73b6a7A"," "," ","1","0","[1174.6000000014901]","1","0","4","","","","","","","",""
"pit-trial","94","738350","0.0-2.0-17.2-3.2","battery-v0.2","","""event"",""trial"",""time""
""fullscreenenter"",""1"",""4081""
""fullscreenexit"",""2"",""17308""
""blur"",""2"",""18813""
""focus"",""2"",""20420""
","""event"",""trial"",""time""
""blur"",""2"",""18813""
","""event"",""trial"",""time""
""focus"",""2"",""20420""
","""event"",""trial"",""time""
""fullscreenenter"",""1"",""4081""
","""event"",""trial"",""time""
""fullscreenexit"",""2"",""17308""
","","","543.6999999955297","","","14","3984","804","&#9789;","elianto","#f73b6a7A"," "," ","1","-10","[1394.1000000014901]","1","0","4","","","","","","","",""
"pit-trial","95","741728","0.0-2.0-17.2-4.2","battery-v0.2","","""event"",""trial"",""time""
""fullscreenenter"",""1"",""4081""
""fullscreenexit"",""2"",""17308""
""blur"",""2"",""18813""
""focus"",""2"",""20420""
","""event"",""trial"",""time""
""blur"",""2"",""18813""
","""event"",""trial"",""time""
""focus"",""2"",""20420""
","""event"",""trial"",""time""
""fullscreenenter"",""1"",""4081""
","""event"",""trial"",""time""
""fullscreenexit"",""2"",""17308""
","","","506.70000000298023","","","14","3984","804","&#9789;","elianto","#f73b6a7A"," "," ","1","0","[1356.7000000029802]","1","0","4","","","","","","","",""
"pit-trial","96","745001","0.0-2.0-17.3-0.3","battery-v0.2","","""event"",""trial"",""time""
""fullscreenenter"",""1"",""4081""
""fullscreenexit"",""2"",""17308""
""blur"",""2"",""18813""
""focus"",""2"",""20420""
","""event"",""trial"",""time""
""blur"",""2"",""18813""
","""event"",""trial"",""time""
""focus"",""2"",""20420""
","""event"",""trial"",""time""
""fullscreenenter"",""1"",""4081""
","""event"",""trial"",""time""
""fullscreenexit"",""2"",""17308""
","","","398.79999999701977","","","14","3984","804","&#9789;","elianto","#f73b6a7A"," "," ","1","0","[1248.8999999985099]","1","0","4","","","","","","","",""
"pit-trial","97","748285","0.0-2.0-17.3-1.3","battery-v0.2","","""event"",""trial"",""time""
""fullscreenenter"",""1"",""4081""
""fullscreenexit"",""2"",""17308""
""blur"",""2"",""18813""
""focus"",""2"",""20420""
","""event"",""trial"",""time""
""blur"",""2"",""18813""
","""event"",""trial"",""time""
""focus"",""2"",""20420""
","""event"",""trial"",""time""
""fullscreenenter"",""1"",""4081""
","""event"",""trial"",""time""
""fullscreenexit"",""2"",""17308""
","","","413.8999999985099","","","14","3984","804","&#9789;","elianto","#f73b6a7A"," "," ","1","0","[1264]","1","0","4","","","","","","","",""
"pit-trial","98","751707","0.0-2.0-17.3-2.3","battery-v0.2","","""event"",""trial"",""time""
""fullscreenenter"",""1"",""4081""
""fullscreenexit"",""2"",""17308""
""blur"",""2"",""18813""
""focus"",""2"",""20420""
","""event"",""trial"",""time""
""blur"",""2"",""18813""
","""event"",""trial"",""time""
""focus"",""2"",""20420""
","""event"",""trial"",""time""
""fullscreenenter"",""1"",""4081""
","""event"",""trial"",""time""
""fullscreenexit"",""2"",""17308""
","","","549.5","","","14","3984","804","&#9789;","elianto","#f73b6a7A"," "," ","1","0","[1401.9000000059605]","1","0","4","","","","","","","",""
"pit-trial","99","755011","0.0-2.0-17.3-3.3","battery-v0.2","","""event"",""trial"",""time""
""fullscreenenter"",""1"",""4081""
""fullscreenexit"",""2"",""17308""
""blur"",""2"",""18813""
""focus"",""2"",""20420""
","""event"",""trial"",""time""
""blur"",""2"",""18813""
","""event"",""trial"",""time""
""focus"",""2"",""20420""
","""event"",""trial"",""time""
""fullscreenenter"",""1"",""4081""
","""event"",""trial"",""time""
""fullscreenexit"",""2"",""17308""
","","","431.8999999985099","","","14","3984","804","&#9789;","elianto","#f73b6a7A"," "," ","1","-10","[1282]","1","0","4","","","","","","","",""
"pit-trial","100","758429","0.0-2.0-17.3-4.3","battery-v0.2","","""event"",""trial"",""time""
""fullscreenenter"",""1"",""4081""
""fullscreenexit"",""2"",""17308""
""blur"",""2"",""18813""
""focus"",""2"",""20420""
","""event"",""trial"",""time""
""blur"",""2"",""18813""
","""event"",""trial"",""time""
""focus"",""2"",""20420""
","""event"",""trial"",""time""
""fullscreenenter"",""1"",""4081""
","""event"",""trial"",""time""
""fullscreenexit"",""2"",""17308""
","","","541.5","","","14","3984","804","&#9789;","elianto","#f73b6a7A"," "," ","1","0","[1395.9000000059605]","1","0","4","","","","","","","",""
"call-function","101","758445","0.0-2.0-18.0","battery-v0.2","","""event"",""trial"",""time""
""fullscreenenter"",""1"",""4081""
""fullscreenexit"",""2"",""17308""
""blur"",""2"",""18813""
""focus"",""2"",""20420""
","""event"",""trial"",""time""
""blur"",""2"",""18813""
","""event"",""trial"",""time""
""focus"",""2"",""20420""
","""event"",""trial"",""time""
""fullscreenenter"",""1"",""4081""
","""event"",""trial"",""time""
""fullscreenexit"",""2"",""17308""
","","","","","","","","","","","","","","","","","","","","","","","","","","",""
"pit-instructions","102","835821","0.0-2.0-19.0","battery-v0.2","","""event"",""trial"",""time""
""fullscreenenter"",""1"",""4081""
""fullscreenexit"",""2"",""17308""
""blur"",""2"",""18813""
""focus"",""2"",""20420""
","""event"",""trial"",""time""
""blur"",""2"",""18813""
","""event"",""trial"",""time""
""focus"",""2"",""20420""
","""event"",""trial"",""time""
""fullscreenenter"",""1"",""4081""
","""event"",""trial"",""time""
""fullscreenexit"",""2"",""17308""
","","[{""page_index"":0,""viewing_time"":11044.89999999851},{""page_index"":1,""viewing_time"":6179.9000000059605},{""page_index"":2,""viewing_time"":15328},{""page_index"":3,""viewing_time"":7803.0999999940395},{""page_index"":4,""viewing_time"":8643},{""page_index"":5,""viewing_time"":8645.40000000596},{""page_index"":6,""viewing_time"":8880.79999999702},{""page_index"":7,""viewing_time"":6444.60000000149},{""page_index"":8,""viewing_time"":4401}]","77373.80000000447","","","","","","","","","","","","","","","","","","","","","","","",""
"pit-comprehension","103","840645","0.0-2.0-20.0-0.0","battery-v0.2","","""event"",""trial"",""time""
""fullscreenenter"",""1"",""4081""
""fullscreenexit"",""2"",""17308""
""blur"",""2"",""18813""
""focus"",""2"",""20420""
","""event"",""trial"",""time""
""blur"",""2"",""18813""
","""event"",""trial"",""time""
""focus"",""2"",""20420""
","""event"",""trial"",""time""
""fullscreenenter"",""1"",""4081""
","""event"",""trial"",""time""
""fullscreenexit"",""2"",""17308""
","","","4786.79999999702","[""SPACE""]","0","14","3984","804","","","","","","","","","","","","","","","","","","",""
"pit-instructions","104","843783","0.0-2.0-20.0-1.0","battery-v0.2","","""event"",""trial"",""time""
""fullscreenenter"",""1"",""4081""
""fullscreenexit"",""2"",""17308""
""blur"",""2"",""18813""
""focus"",""2"",""20420""
","""event"",""trial"",""time""
""blur"",""2"",""18813""
","""event"",""trial"",""time""
""focus"",""2"",""20420""
","""event"",""trial"",""time""
""fullscreenenter"",""1"",""4081""
","""event"",""trial"",""time""
""fullscreenexit"",""2"",""17308""
","","[{""page_index"":0,""viewing_time"":2990.1999999955297}]","2993.0999999940395","","","","","","","","","","","","","","","","","","","","","","","",""
"pit-comprehension","105","850438","0.0-2.0-21.0-0.0","battery-v0.2","","""event"",""trial"",""time""
""fullscreenenter"",""1"",""4081""
""fullscreenexit"",""2"",""17308""
""blur"",""2"",""18813""
""focus"",""2"",""20420""
","""event"",""trial"",""time""
""blur"",""2"",""18813""
","""event"",""trial"",""time""
""focus"",""2"",""20420""
","""event"",""trial"",""time""
""fullscreenenter"",""1"",""4081""
","""event"",""trial"",""time""
""fullscreenexit"",""2"",""17308""
","","","6621.20000000298","[""10""]","0","14","3984","804","","","","","","","","","","","","","","","","","","",""
"pit-instructions","106","853177","0.0-2.0-21.0-1.0","battery-v0.2","","""event"",""trial"",""time""
""fullscreenenter"",""1"",""4081""
""fullscreenexit"",""2"",""17308""
""blur"",""2"",""18813""
""focus"",""2"",""20420""
","""event"",""trial"",""time""
""blur"",""2"",""18813""
","""event"",""trial"",""time""
""focus"",""2"",""20420""
","""event"",""trial"",""time""
""fullscreenenter"",""1"",""4081""
","""event"",""trial"",""time""
""fullscreenexit"",""2"",""17308""
","","[{""page_index"":0,""viewing_time"":2611.8000000044703}]","2613.8000000044703","","","","","","","","","","","","","","","","","","","","","","","",""
"pit-comprehension","107","859654","0.0-2.0-22.0-0.0","battery-v0.2","","""event"",""trial"",""time""
""fullscreenenter"",""1"",""4081""
""fullscreenexit"",""2"",""17308""
""blur"",""2"",""18813""
""focus"",""2"",""20420""
","""event"",""trial"",""time""
""blur"",""2"",""18813""
","""event"",""trial"",""time""
""focus"",""2"",""20420""
","""event"",""trial"",""time""
""fullscreenenter"",""1"",""4081""
","""event"",""trial"",""time""
""fullscreenexit"",""2"",""17308""
","","","6455.20000000298","[""0""]","0","14","3984","804","","","","","","","","","","","","","","","","","","",""
"pit-instructions","108","861377","0.0-2.0-22.0-1.0","battery-v0.2","","""event"",""trial"",""time""
""fullscreenenter"",""1"",""4081""
""fullscreenexit"",""2"",""17308""
""blur"",""2"",""18813""
""focus"",""2"",""20420""
","""event"",""trial"",""time""
""blur"",""2"",""18813""
","""event"",""trial"",""time""
""focus"",""2"",""20420""
","""event"",""trial"",""time""
""fullscreenenter"",""1"",""4081""
","""event"",""trial"",""time""
""fullscreenexit"",""2"",""17308""
","","[{""page_index"":0,""viewing_time"":1596.6000000014901}]","1599.3000000044703","","","","","","","","","","","","","","","","","","","","","","","",""
"pit-comprehension","109","871254","0.0-2.0-23.0-0.0","battery-v0.2","","""event"",""trial"",""time""
""fullscreenenter"",""1"",""4081""
""fullscreenexit"",""2"",""17308""
""blur"",""2"",""18813""
""focus"",""2"",""20420""
","""event"",""trial"",""time""
""blur"",""2"",""18813""
","""event"",""trial"",""time""
""focus"",""2"",""20420""
","""event"",""trial"",""time""
""fullscreenenter"",""1"",""4081""
","""event"",""trial"",""time""
""fullscreenexit"",""2"",""17308""
","","","9846.5","[""True""]","0","14","3984","804","","","","","","","","","","","","","","","","","","",""
"pit-instructions","110","872835","0.0-2.0-23.0-1.0","battery-v0.2","","""event"",""trial"",""time""
""fullscreenenter"",""1"",""4081""
""fullscreenexit"",""2"",""17308""
""blur"",""2"",""18813""
""focus"",""2"",""20420""
","""event"",""trial"",""time""
""blur"",""2"",""18813""
","""event"",""trial"",""time""
""focus"",""2"",""20420""
","""event"",""trial"",""time""
""fullscreenenter"",""1"",""4081""
","""event"",""trial"",""time""
""fullscreenexit"",""2"",""17308""
","","[{""page_index"":0,""viewing_time"":1463.1000000014901}]","1465.8000000044703","","","","","","","","","","","","","","","","","","","","","","","",""
"pit-comprehension","111","880314","0.0-2.0-24.0-0.0","battery-v0.2","","""event"",""trial"",""time""
""fullscreenenter"",""1"",""4081""
""fullscreenexit"",""2"",""17308""
""blur"",""2"",""18813""
""focus"",""2"",""20420""
","""event"",""trial"",""time""
""blur"",""2"",""18813""
","""event"",""trial"",""time""
""focus"",""2"",""20420""
","""event"",""trial"",""time""
""fullscreenenter"",""1"",""4081""
","""event"",""trial"",""time""
""fullscreenexit"",""2"",""17308""
","","","7455.5","[""True""]","0","14","3984","804","","","","","","","","","","","","","","","","","","",""
"pit-instructions","112","882038","0.0-2.0-24.0-1.0","battery-v0.2","","""event"",""trial"",""time""
""fullscreenenter"",""1"",""4081""
""fullscreenexit"",""2"",""17308""
""blur"",""2"",""18813""
""focus"",""2"",""20420""
","""event"",""trial"",""time""
""blur"",""2"",""18813""
","""event"",""trial"",""time""
""focus"",""2"",""20420""
","""event"",""trial"",""time""
""fullscreenenter"",""1"",""4081""
","""event"",""trial"",""time""
""fullscreenexit"",""2"",""17308""
","","[{""page_index"":0,""viewing_time"":1582}]","1585.5999999940395","","","","","","","","","","","","","","","","","","","","","","","",""
"pit-comprehension","113","888567","0.0-2.0-25.0-0.0","battery-v0.2","","""event"",""trial"",""time""
""fullscreenenter"",""1"",""4081""
""fullscreenexit"",""2"",""17308""
""blur"",""2"",""18813""
""focus"",""2"",""20420""
","""event"",""trial"",""time""
""blur"",""2"",""18813""
","""event"",""trial"",""time""
""focus"",""2"",""20420""
","""event"",""trial"",""time""
""fullscreenenter"",""1"",""4081""
","""event"",""trial"",""time""
""fullscreenexit"",""2"",""17308""
","","","6502.89999999851","[""True""]","0","14","3984","804","","","","","","","","","","","","","","","","","","",""
"pit-instructions","114","890562","0.0-2.0-25.0-1.0","battery-v0.2","","""event"",""trial"",""time""
""fullscreenenter"",""1"",""4081""
""fullscreenexit"",""2"",""17308""
""blur"",""2"",""18813""
""focus"",""2"",""20420""
","""event"",""trial"",""time""
""blur"",""2"",""18813""
","""event"",""trial"",""time""
""focus"",""2"",""20420""
","""event"",""trial"",""time""
""fullscreenenter"",""1"",""4081""
","""event"",""trial"",""time""
""fullscreenexit"",""2"",""17308""
","","[{""page_index"":0,""viewing_time"":1829.2000000029802}]","1830.2000000029802","","","","","","","","","","","","","","","","","","","","","","","",""
"pit-comprehension","115","895290","0.0-2.0-26.0-0.0","battery-v0.2","","""event"",""trial"",""time""
""fullscreenenter"",""1"",""4081""
""fullscreenexit"",""2"",""17308""
""blur"",""2"",""18813""
""focus"",""2"",""20420""
","""event"",""trial"",""time""
""blur"",""2"",""18813""
","""event"",""trial"",""time""
""focus"",""2"",""20420""
","""event"",""trial"",""time""
""fullscreenenter"",""1"",""4081""
","""event"",""trial"",""time""
""fullscreenexit"",""2"",""17308""
","","","4697.39999999851","[""False""]","0","14","3984","804","","","","","","","","","","","","","","","","","","",""
"pit-instructions","116","896993","0.0-2.0-26.0-1.0","battery-v0.2","","""event"",""trial"",""time""
""fullscreenenter"",""1"",""4081""
""fullscreenexit"",""2"",""17308""
""blur"",""2"",""18813""
""focus"",""2"",""20420""
","""event"",""trial"",""time""
""blur"",""2"",""18813""
","""event"",""trial"",""time""
""focus"",""2"",""20420""
","""event"",""trial"",""time""
""fullscreenenter"",""1"",""4081""
","""event"",""trial"",""time""
""fullscreenexit"",""2"",""17308""
","","[{""page_index"":0,""viewing_time"":1562.8999999985099}]","1566.7000000029802","","","","","","","","","","","","","","","","","","","","","","","",""
"pit-instructions","117","913342","0.0-3.0","battery-v0.2","","""event"",""trial"",""time""
""fullscreenenter"",""1"",""4081""
""fullscreenexit"",""2"",""17308""
""blur"",""2"",""18813""
""focus"",""2"",""20420""
","""event"",""trial"",""time""
""blur"",""2"",""18813""
","""event"",""trial"",""time""
""focus"",""2"",""20420""
","""event"",""trial"",""time""
""fullscreenenter"",""1"",""4081""
","""event"",""trial"",""time""
""fullscreenexit"",""2"",""17308""
","","[{""page_index"":0,""viewing_time"":3668.7000000029802},{""page_index"":1,""viewing_time"":5235.69999999553},{""page_index"":2,""viewing_time"":7425.70000000298}]","16333.60000000149","","","","","","","","","","","","","","","","","","","","","","","",""
"pit-trial","118","916716","0.0-4.0","battery-v0.2","","""event"",""trial"",""time""
""fullscreenenter"",""1"",""4081""
""fullscreenexit"",""2"",""17308""
""blur"",""2"",""18813""
""focus"",""2"",""20420""
","""event"",""trial"",""time""
""blur"",""2"",""18813""
","""event"",""trial"",""time""
""focus"",""2"",""20420""
","""event"",""trial"",""time""
""fullscreenenter"",""1"",""4081""
","""event"",""trial"",""time""
""fullscreenexit"",""2"",""17308""
","","","497","","","14","3984","804","&#9733;","elianto","#3366ff99","-1"," ","0","0","[1347.1000000014901]","1","1","","","3984","1","2","2","win","no-go","0"
"pit-trial","119","920301","0.0-5.0","battery-v0.2","","""event"",""trial"",""time""
""fullscreenenter"",""1"",""4081""
""fullscreenexit"",""2"",""17308""
""blur"",""2"",""18813""
""focus"",""2"",""20420""
","""event"",""trial"",""time""
""blur"",""2"",""18813""
","""event"",""trial"",""time""
""focus"",""2"",""20420""
","""event"",""trial"",""time""
""fullscreenenter"",""1"",""4081""
","""event"",""trial"",""time""
""fullscreenexit"",""2"",""17308""
","","","704.8999999985099","","","14","3984","804","&#9728;","elianto","#f73b6a7A","-1"," ","0","-10","[1560]","1","1","","","3984","2","0","4","lose","no-go","0"
"pit-trial","120","923867","0.0-6.0","battery-v0.2","","""event"",""trial"",""time""
""fullscreenenter"",""1"",""4081""
""fullscreenexit"",""2"",""17308""
""blur"",""2"",""18813""
""focus"",""2"",""20420""
","""event"",""trial"",""time""
""blur"",""2"",""18813""
","""event"",""trial"",""time""
""focus"",""2"",""20420""
","""event"",""trial"",""time""
""fullscreenenter"",""1"",""4081""
","""event"",""trial"",""time""
""fullscreenexit"",""2"",""17308""
","","","692.6000000014901","","","14","3984","804","&#9752;","elianto","#f73b6a7A"," "," ","1","-10","[1547.3000000044703]","1","1","","","3984","3","3","3","lose","go","1"
"pit-trial","121","927104","0.0-7.0","battery-v0.2","","""event"",""trial"",""time""
""fullscreenenter"",""1"",""4081""
""fullscreenexit"",""2"",""17308""
""blur"",""2"",""18813""
""focus"",""2"",""20420""
","""event"",""trial"",""time""
""blur"",""2"",""18813""
","""event"",""trial"",""time""
""focus"",""2"",""20420""
","""event"",""trial"",""time""
""fullscreenenter"",""1"",""4081""
","""event"",""trial"",""time""
""fullscreenexit"",""2"",""17308""
","","","365.70000000298023","","","14","3984","804","&#9730;","elianto","#3366ff99"," "," ","1","+10","[1215.1000000014901]","1","1","","","3984","4","1","1","win","go","0"
"pit-trial","122","931977","0.0-8.0","battery-v0.2","","""event"",""trial"",""time""
""fullscreenenter"",""1"",""4081""
""fullscreenexit"",""2"",""17308""
""blur"",""2"",""18813""
""focus"",""2"",""20420""
","""event"",""trial"",""time""
""blur"",""2"",""18813""
","""event"",""trial"",""time""
""focus"",""2"",""20420""
","""event"",""trial"",""time""
""fullscreenenter"",""1"",""4081""
","""event"",""trial"",""time""
""fullscreenexit"",""2"",""17308""
","","","-1","","","14","3984","804","&#9728;","elianto","#f73b6a7A","-1","-1","1","0","[]","0","1","","","3984","5","0","4","lose","no-go","0"
"pit-trial","123","936849","0.0-9.0","battery-v0.2","","""event"",""trial"",""time""
""fullscreenenter"",""1"",""4081""
""fullscreenexit"",""2"",""17308""
""blur"",""2"",""18813""
""focus"",""2"",""20420""
","""event"",""trial"",""time""
""blur"",""2"",""18813""
","""event"",""trial"",""time""
""focus"",""2"",""20420""
","""event"",""trial"",""time""
""fullscreenenter"",""1"",""4081""
","""event"",""trial"",""time""
""fullscreenexit"",""2"",""17308""
","","","-1","","","14","3984","804","&#9733;","elianto","#3366ff99","-1","-1","1","+10","[]","0","1","","","3984","6","2","2","win","no-go","0"
"pit-trial","124","940399","0.0-10.0","battery-v0.2","","""event"",""trial"",""time""
""fullscreenenter"",""1"",""4081""
""fullscreenexit"",""2"",""17308""
""blur"",""2"",""18813""
""focus"",""2"",""20420""
","""event"",""trial"",""time""
""blur"",""2"",""18813""
","""event"",""trial"",""time""
""focus"",""2"",""20420""
","""event"",""trial"",""time""
""fullscreenenter"",""1"",""4081""
","""event"",""trial"",""time""
""fullscreenexit"",""2"",""17308""
","","","673","","","14","3984","804","&#9730;","elianto","#3366ff99"," "," ","1","+10","[1526.5]","1","1","","","3984","7","1","1","win","go","0"
"pit-trial","125","945271","0.0-11.0","battery-v0.2","","""event"",""trial"",""time""
""fullscreenenter"",""1"",""4081""
""fullscreenexit"",""2"",""17308""
""blur"",""2"",""18813""
""focus"",""2"",""20420""
","""event"",""trial"",""time""
""blur"",""2"",""18813""
","""event"",""trial"",""time""
""focus"",""2"",""20420""
","""event"",""trial"",""time""
""fullscreenenter"",""1"",""4081""
","""event"",""trial"",""time""
""fullscreenexit"",""2"",""17308""
","","","-1","","","14","3984","804","&#9752;","elianto","#f73b6a7A"," ","-1","0","0","[]","0","1","","","3984","8","3","3","lose","go","1"
"pit-trial","126","948702","0.0-12.0","battery-v0.2","","""event"",""trial"",""time""
""fullscreenenter"",""1"",""4081""
""fullscreenexit"",""2"",""17308""
""blur"",""2"",""18813""
""focus"",""2"",""20420""
","""event"",""trial"",""time""
""blur"",""2"",""18813""
","""event"",""trial"",""time""
""focus"",""2"",""20420""
","""event"",""trial"",""time""
""fullscreenenter"",""1"",""4081""
","""event"",""trial"",""time""
""fullscreenexit"",""2"",""17308""
","","","560.5","","","14","3984","804","&#9730;","elianto","#3366ff99"," "," ","1","+10","[1410.5]","1","1","","","3984","9","1","1","win","go","0"
"pit-trial","127","953574","0.0-13.0","battery-v0.2","","""event"",""trial"",""time""
""fullscreenenter"",""1"",""4081""
""fullscreenexit"",""2"",""17308""
""blur"",""2"",""18813""
""focus"",""2"",""20420""
","""event"",""trial"",""time""
""blur"",""2"",""18813""
","""event"",""trial"",""time""
""focus"",""2"",""20420""
","""event"",""trial"",""time""
""fullscreenenter"",""1"",""4081""
","""event"",""trial"",""time""
""fullscreenexit"",""2"",""17308""
","","","-1","","","14","3984","804","&#9733;","elianto","#3366ff99","-1","-1","1","+10","[]","0","1","","","3984","10","2","2","win","no-go","0"
"pit-trial","128","958447","0.0-14.0","battery-v0.2","","""event"",""trial"",""time""
""fullscreenenter"",""1"",""4081""
""fullscreenexit"",""2"",""17308""
""blur"",""2"",""18813""
""focus"",""2"",""20420""
","""event"",""trial"",""time""
""blur"",""2"",""18813""
","""event"",""trial"",""time""
""focus"",""2"",""20420""
","""event"",""trial"",""time""
""fullscreenenter"",""1"",""4081""
","""event"",""trial"",""time""
""fullscreenexit"",""2"",""17308""
","","","-1","","","14","3984","804","&#9752;","elianto","#f73b6a7A"," ","-1","0","-10","[]","0","1","","","3984","11","3","3","lose","go","0"
"pit-trial","129","963316","0.0-15.0","battery-v0.2","","""event"",""trial"",""time""
""fullscreenenter"",""1"",""4081""
""fullscreenexit"",""2"",""17308""
""blur"",""2"",""18813""
""focus"",""2"",""20420""
","""event"",""trial"",""time""
""blur"",""2"",""18813""
","""event"",""trial"",""time""
""focus"",""2"",""20420""
","""event"",""trial"",""time""
""fullscreenenter"",""1"",""4081""
","""event"",""trial"",""time""
""fullscreenexit"",""2"",""17308""
","","","-1","","","14","3984","804","&#9728;","elianto","#f73b6a7A","-1","-1","1","0","[]","0","1","","","3984","12","0","4","lose","no-go","0"
"pit-trial","130","968186","0.0-16.0","battery-v0.2","","""event"",""trial"",""time""
""fullscreenenter"",""1"",""4081""
""fullscreenexit"",""2"",""17308""
""blur"",""2"",""18813""
""focus"",""2"",""20420""
","""event"",""trial"",""time""
""blur"",""2"",""18813""
","""event"",""trial"",""time""
""focus"",""2"",""20420""
","""event"",""trial"",""time""
""fullscreenenter"",""1"",""4081""
","""event"",""trial"",""time""
""fullscreenexit"",""2"",""17308""
","","","-1","","","14","3984","804","&#9728;","elianto","#f73b6a7A","-1","-1","1","0","[]","0","1","","","3984","13","0","4","lose","no-go","0"
"pit-trial","131","973059","0.0-17.0","battery-v0.2","","""event"",""trial"",""time""
""fullscreenenter"",""1"",""4081""
""fullscreenexit"",""2"",""17308""
""blur"",""2"",""18813""
""focus"",""2"",""20420""
","""event"",""trial"",""time""
""blur"",""2"",""18813""
","""event"",""trial"",""time""
""focus"",""2"",""20420""
","""event"",""trial"",""time""
""fullscreenenter"",""1"",""4081""
","""event"",""trial"",""time""
""fullscreenexit"",""2"",""17308""
","","","-1","","","14","3984","804","&#9752;","elianto","#f73b6a7A"," ","-1","0","-10","[]","0","1","","","3984","14","3","3","lose","go","0"
"pit-trial","132","976692","0.0-18.0","battery-v0.2","","""event"",""trial"",""time""
""fullscreenenter"",""1"",""4081""
""fullscreenexit"",""2"",""17308""
""blur"",""2"",""18813""
""focus"",""2"",""20420""
","""event"",""trial"",""time""
""blur"",""2"",""18813""
","""event"",""trial"",""time""
""focus"",""2"",""20420""
","""event"",""trial"",""time""
""fullscreenenter"",""1"",""4081""
","""event"",""trial"",""time""
""fullscreenexit"",""2"",""17308""
","","","762.1999999955297","","","14","3984","804","&#9730;","elianto","#3366ff99"," "," ","1","+10","[1612.3999999985099]","1","1","","","3984","15","1","1","win","go","0"
"pit-trial","133","981565","0.0-19.0","battery-v0.2","","""event"",""trial"",""time""
""fullscreenenter"",""1"",""4081""
""fullscreenexit"",""2"",""17308""
""blur"",""2"",""18813""
""focus"",""2"",""20420""
","""event"",""trial"",""time""
""blur"",""2"",""18813""
","""event"",""trial"",""time""
""focus"",""2"",""20420""
","""event"",""trial"",""time""
""fullscreenenter"",""1"",""4081""
","""event"",""trial"",""time""
""fullscreenexit"",""2"",""17308""
","","","-1","","","14","3984","804","&#9733;","elianto","#3366ff99","-1","-1","1","+10","[]","0","1","","","3984","16","2","2","win","no-go","0"
"pit-trial","134","985167","0.0-20.0","battery-v0.2","","""event"",""trial"",""time""
""fullscreenenter"",""1"",""4081""
""fullscreenexit"",""2"",""17308""
""blur"",""2"",""18813""
""focus"",""2"",""20420""
","""event"",""trial"",""time""
""blur"",""2"",""18813""
","""event"",""trial"",""time""
""focus"",""2"",""20420""
","""event"",""trial"",""time""
""fullscreenenter"",""1"",""4081""
","""event"",""trial"",""time""
""fullscreenexit"",""2"",""17308""
","","","732.8000000044703","","","14","3984","804","&#9752;","elianto","#f73b6a7A"," "," ","1","0","[1582.8999999985099]","1","1","","","3984","17","3","3","lose","go","0"
"pit-trial","135","988884","0.0-21.0","battery-v0.2","","""event"",""trial"",""time""
""fullscreenenter"",""1"",""4081""
""fullscreenexit"",""2"",""17308""
""blur"",""2"",""18813""
""focus"",""2"",""20420""
","""event"",""trial"",""time""
""blur"",""2"",""18813""
","""event"",""trial"",""time""
""focus"",""2"",""20420""
","""event"",""trial"",""time""
""fullscreenenter"",""1"",""4081""
","""event"",""trial"",""time""
""fullscreenexit"",""2"",""17308""
","","","837.6000000014901","","","14","3984","804","&#9730;","elianto","#3366ff99"," "," ","1","+10","[1692.3999999985099]","1","1","","","3984","18","1","1","win","go","0"
"pit-trial","136","993753","0.0-22.0","battery-v0.2","","""event"",""trial"",""time""
""fullscreenenter"",""1"",""4081""
""fullscreenexit"",""2"",""17308""
""blur"",""2"",""18813""
""focus"",""2"",""20420""
","""event"",""trial"",""time""
""blur"",""2"",""18813""
","""event"",""trial"",""time""
""focus"",""2"",""20420""
","""event"",""trial"",""time""
""fullscreenenter"",""1"",""4081""
","""event"",""trial"",""time""
""fullscreenexit"",""2"",""17308""
","","","-1","","","14","3984","804","&#9728;","elianto","#f73b6a7A","-1","-1","1","0","[]","0","1","","","3984","19","0","4","lose","no-go","0"
"pit-trial","137","998627","0.0-23.0","battery-v0.2","","""event"",""trial"",""time""
""fullscreenenter"",""1"",""4081""
""fullscreenexit"",""2"",""17308""
""blur"",""2"",""18813""
""focus"",""2"",""20420""
","""event"",""trial"",""time""
""blur"",""2"",""18813""
","""event"",""trial"",""time""
""focus"",""2"",""20420""
","""event"",""trial"",""time""
""fullscreenenter"",""1"",""4081""
","""event"",""trial"",""time""
""fullscreenexit"",""2"",""17308""
","","","-1","","","14","3984","804","&#9733;","elianto","#3366ff99","-1","-1","1","0","[]","0","1","","","3984","20","2","2","win","no-go","1"
"pit-instructions","138","1014669","0.0-24.0","battery-v0.2","","""event"",""trial"",""time""
""fullscreenenter"",""1"",""4081""
""fullscreenexit"",""2"",""17308""
""blur"",""2"",""18813""
""focus"",""2"",""20420""
","""event"",""trial"",""time""
""blur"",""2"",""18813""
","""event"",""trial"",""time""
""focus"",""2"",""20420""
","""event"",""trial"",""time""
""fullscreenenter"",""1"",""4081""
","""event"",""trial"",""time""
""fullscreenexit"",""2"",""17308""
","","[{""page_index"":0,""viewing_time"":7953.39999999851},{""page_index"":1,""viewing_time"":8067}]","16022.79999999702","","","","","","","","","","","","","","","","","","","","","","","",""
"pit-trial","139","1018513","0.0-25.0","battery-v0.2","","""event"",""trial"",""time""
""fullscreenenter"",""1"",""4081""
""fullscreenexit"",""2"",""17308""
""blur"",""2"",""18813""
""focus"",""2"",""20420""
","""event"",""trial"",""time""
""blur"",""2"",""18813""
","""event"",""trial"",""time""
""focus"",""2"",""20420""
","""event"",""trial"",""time""
""fullscreenenter"",""1"",""4081""
","""event"",""trial"",""time""
""fullscreenexit"",""2"",""17308""
","","","963","","","14","3984","804","a","elianto","#f73b6a7A","-1"," ","0","-10","[1821.1000000014901]","1","2","","","3984","21","2","4","lose","no-go","0"
"pit-trial","140","1022219","0.0-26.0","battery-v0.2","","""event"",""trial"",""time""
""fullscreenenter"",""1"",""4081""
""fullscreenexit"",""2"",""17308""
""blur"",""2"",""18813""
""focus"",""2"",""20420""
","""event"",""trial"",""time""
""blur"",""2"",""18813""
","""event"",""trial"",""time""
""focus"",""2"",""20420""
","""event"",""trial"",""time""
""fullscreenenter"",""1"",""4081""
","""event"",""trial"",""time""
""fullscreenexit"",""2"",""17308""
","","","834.2000000029802","","","14","3984","804","g","elianto","#f73b6a7A"," "," ","1","0","[1683.9000000059605]","1","2","","","3984","22","3","3","lose","go","0"
"pit-trial","141","1025907","0.0-27.0","battery-v0.2","","""event"",""trial"",""time""
""fullscreenenter"",""1"",""4081""
""fullscreenexit"",""2"",""17308""
""blur"",""2"",""18813""
""focus"",""2"",""20420""
","""event"",""trial"",""time""
""blur"",""2"",""18813""
","""event"",""trial"",""time""
""focus"",""2"",""20420""
","""event"",""trial"",""time""
""fullscreenenter"",""1"",""4081""
","""event"",""trial"",""time""
""fullscreenexit"",""2"",""17308""
","","","818.5","","","14","3984","804","u","elianto","#f73b6a7A","-1"," ","0","0","[1670.2000000029802]","1","2","","","3984","23","0","4","lose","no-go","1"
"pit-trial","142","1029640","0.0-28.0","battery-v0.2","","""event"",""trial"",""time""
""fullscreenenter"",""1"",""4081""
""fullscreenexit"",""2"",""17308""
""blur"",""2"",""18813""
""focus"",""2"",""20420""
","""event"",""trial"",""time""
""blur"",""2"",""18813""
","""event"",""trial"",""time""
""focus"",""2"",""20420""
","""event"",""trial"",""time""
""fullscreenenter"",""1"",""4081""
","""event"",""trial"",""time""
""fullscreenexit"",""2"",""17308""
","","","862.9000000059605","","","14","3984","804","l","elianto","#3366ff99"," "," ","1","+10","[1713]","1","2","","","3984","24","1","1","win","go","0"
"pit-trial","143","1033344","0.0-29.0","battery-v0.2","","""event"",""trial"",""time""
""fullscreenenter"",""1"",""4081""
""fullscreenexit"",""2"",""17308""
""blur"",""2"",""18813""
""focus"",""2"",""20420""
","""event"",""trial"",""time""
""blur"",""2"",""18813""
","""event"",""trial"",""time""
""focus"",""2"",""20420""
","""event"",""trial"",""time""
""fullscreenenter"",""1"",""4081""
","""event"",""trial"",""time""
""fullscreenexit"",""2"",""17308""
","","","832.6000000014901","","","14","3984","804","l","elianto","#3366ff99"," "," ","1","+10","[1682.6000000014901]","1","2","","","3984","25","1","1","win","go","0"
"pit-trial","144","1038219","0.0-30.0","battery-v0.2","","""event"",""trial"",""time""
""fullscreenenter"",""1"",""4081""
""fullscreenexit"",""2"",""17308""
""blur"",""2"",""18813""
""focus"",""2"",""20420""
","""event"",""trial"",""time""
""blur"",""2"",""18813""
","""event"",""trial"",""time""
""focus"",""2"",""20420""
","""event"",""trial"",""time""
""fullscreenenter"",""1"",""4081""
","""event"",""trial"",""time""
""fullscreenexit"",""2"",""17308""
","","","-1","","","14","3984","804","a","elianto","#f73b6a7A","-1","-1","1","0","[]","0","2","","","3984","26","2","4","lose","no-go","0"
"pit-trial","145","1041836","0.0-31.0","battery-v0.2","","""event"",""trial"",""time""
""fullscreenenter"",""1"",""4081""
""fullscreenexit"",""2"",""17308""
""blur"",""2"",""18813""
""focus"",""2"",""20420""
","""event"",""trial"",""time""
""blur"",""2"",""18813""
","""event"",""trial"",""time""
""focus"",""2"",""20420""
","""event"",""trial"",""time""
""fullscreenenter"",""1"",""4081""
","""event"",""trial"",""time""
""fullscreenexit"",""2"",""17308""
","","","743.5","","","14","3984","804","g","elianto","#f73b6a7A"," "," ","1","0","[1595.8999999985099]","1","2","","","3984","27","3","3","lose","go","0"
"pit-trial","146","1045217","0.0-32.0","battery-v0.2","","""event"",""trial"",""time""
""fullscreenenter"",""1"",""4081""
""fullscreenexit"",""2"",""17308""
""blur"",""2"",""18813""
""focus"",""2"",""20420""
","""event"",""trial"",""time""
""blur"",""2"",""18813""
","""event"",""trial"",""time""
""focus"",""2"",""20420""
","""event"",""trial"",""time""
""fullscreenenter"",""1"",""4081""
","""event"",""trial"",""time""
""fullscreenexit"",""2"",""17308""
","","","511.1000000014901","","","14","3984","804","u","elianto","#f73b6a7A","-1"," ","0","0","[1361]","1","2","","","3984","28","0","4","lose","no-go","1"
"pit-trial","147","1048847","0.0-33.0","battery-v0.2","","""event"",""trial"",""time""
""fullscreenenter"",""1"",""4081""
""fullscreenexit"",""2"",""17308""
""blur"",""2"",""18813""
""focus"",""2"",""20420""
","""event"",""trial"",""time""
""blur"",""2"",""18813""
","""event"",""trial"",""time""
""focus"",""2"",""20420""
","""event"",""trial"",""time""
""fullscreenenter"",""1"",""4081""
","""event"",""trial"",""time""
""fullscreenexit"",""2"",""17308""
","","","754.2000000029802","","","14","3984","804","u","elianto","#f73b6a7A","-1"," ","0","-10","[1603.6999999955297]","1","2","","","3984","29","0","4","lose","no-go","0"
"pit-trial","148","1052523","0.0-34.0","battery-v0.2","","""event"",""trial"",""time""
""fullscreenenter"",""1"",""4081""
""fullscreenexit"",""2"",""17308""
""blur"",""2"",""18813""
""focus"",""2"",""20420""
","""event"",""trial"",""time""
""blur"",""2"",""18813""
","""event"",""trial"",""time""
""focus"",""2"",""20420""
","""event"",""trial"",""time""
""fullscreenenter"",""1"",""4081""
","""event"",""trial"",""time""
""fullscreenexit"",""2"",""17308""
","","","801.2000000029802","","","14","3984","804","g","elianto","#f73b6a7A"," "," ","1","0","[1650.5]","1","2","","","3984","30","3","3","lose","go","0"
"pit-trial","149","1056120","0.0-35.0","battery-v0.2","","""event"",""trial"",""time""
""fullscreenenter"",""1"",""4081""
""fullscreenexit"",""2"",""17308""
""blur"",""2"",""18813""
""focus"",""2"",""20420""
","""event"",""trial"",""time""
""blur"",""2"",""18813""
","""event"",""trial"",""time""
""focus"",""2"",""20420""
","""event"",""trial"",""time""
""fullscreenenter"",""1"",""4081""
","""event"",""trial"",""time""
""fullscreenexit"",""2"",""17308""
","","","724.5","","","14","3984","804","l","elianto","#3366ff99"," "," ","1","+10","[1576.7999999970198]","1","2","","","3984","31","1","1","win","go","0"
"pit-trial","150","1060997","0.0-36.0","battery-v0.2","","""event"",""trial"",""time""
""fullscreenenter"",""1"",""4081""
""fullscreenexit"",""2"",""17308""
""blur"",""2"",""18813""
""focus"",""2"",""20420""
","""event"",""trial"",""time""
""blur"",""2"",""18813""
","""event"",""trial"",""time""
""focus"",""2"",""20420""
","""event"",""trial"",""time""
""fullscreenenter"",""1"",""4081""
","""event"",""trial"",""time""
""fullscreenexit"",""2"",""17308""
","","","-1","","","14","3984","804","a","elianto","#f73b6a7A","-1","-1","1","-10","[]","0","2","","","3984","32","2","4","lose","no-go","1"
"pit-trial","151","1065867","0.0-37.0","battery-v0.2","","""event"",""trial"",""time""
""fullscreenenter"",""1"",""4081""
""fullscreenexit"",""2"",""17308""
""blur"",""2"",""18813""
""focus"",""2"",""20420""
","""event"",""trial"",""time""
""blur"",""2"",""18813""
","""event"",""trial"",""time""
""focus"",""2"",""20420""
","""event"",""trial"",""time""
""fullscreenenter"",""1"",""4081""
","""event"",""trial"",""time""
""fullscreenexit"",""2"",""17308""
","","","-1","","","14","3984","804","a","elianto","#f73b6a7A","-1","-1","1","-10","[]","0","2","","","3984","33","2","4","lose","no-go","1"
"pit-trial","152","1069611","0.0-38.0","battery-v0.2","","""event"",""trial"",""time""
""fullscreenenter"",""1"",""4081""
""fullscreenexit"",""2"",""17308""
""blur"",""2"",""18813""
""focus"",""2"",""20420""
","""event"",""trial"",""time""
""blur"",""2"",""18813""
","""event"",""trial"",""time""
""focus"",""2"",""20420""
","""event"",""trial"",""time""
""fullscreenenter"",""1"",""4081""
","""event"",""trial"",""time""
""fullscreenexit"",""2"",""17308""
","","","865.2000000029802","","","14","3984","804","g","elianto","#f73b6a7A"," "," ","1","0","[1719.1000000014901]","1","2","","","3984","34","3","3","lose","go","0"
"pit-trial","153","1073291","0.0-39.0","battery-v0.2","","""event"",""trial"",""time""
""fullscreenenter"",""1"",""4081""
""fullscreenexit"",""2"",""17308""
""blur"",""2"",""18813""
""focus"",""2"",""20420""
","""event"",""trial"",""time""
""blur"",""2"",""18813""
","""event"",""trial"",""time""
""focus"",""2"",""20420""
","""event"",""trial"",""time""
""fullscreenenter"",""1"",""4081""
","""event"",""trial"",""time""
""fullscreenexit"",""2"",""17308""
","","","805.7000000029802","","","14","3984","804","l","elianto","#3366ff99"," "," ","1","+10","[1655.6000000014901]","1","2","","","3984","35","1","1","win","go","0"
"pit-trial","154","1078161","0.0-40.0","battery-v0.2","","""event"",""trial"",""time""
""fullscreenenter"",""1"",""4081""
""fullscreenexit"",""2"",""17308""
""blur"",""2"",""18813""
""focus"",""2"",""20420""
","""event"",""trial"",""time""
""blur"",""2"",""18813""
","""event"",""trial"",""time""
""focus"",""2"",""20420""
","""event"",""trial"",""time""
""fullscreenenter"",""1"",""4081""
","""event"",""trial"",""time""
""fullscreenexit"",""2"",""17308""
","","","-1","","","14","3984","804","u","elianto","#f73b6a7A","-1","-1","1","0","[]","0","2","","","3984","36","0","4","lose","no-go","0"
"pit-trial","155","1083034","0.0-41.0","battery-v0.2","","""event"",""trial"",""time""
""fullscreenenter"",""1"",""4081""
""fullscreenexit"",""2"",""17308""
""blur"",""2"",""18813""
""focus"",""2"",""20420""
","""event"",""trial"",""time""
""blur"",""2"",""18813""
","""event"",""trial"",""time""
""focus"",""2"",""20420""
","""event"",""trial"",""time""
""fullscreenenter"",""1"",""4081""
","""event"",""trial"",""time""
""fullscreenexit"",""2"",""17308""
","","","-1","","","14","3984","804","u","elianto","#f73b6a7A","-1","-1","1","0","[]","0","2","","","3984","37","0","4","lose","no-go","0"
"pit-trial","156","1086776","0.0-42.0","battery-v0.2","","""event"",""trial"",""time""
""fullscreenenter"",""1"",""4081""
""fullscreenexit"",""2"",""17308""
""blur"",""2"",""18813""
""focus"",""2"",""20420""
","""event"",""trial"",""time""
""blur"",""2"",""18813""
","""event"",""trial"",""time""
""focus"",""2"",""20420""
","""event"",""trial"",""time""
""fullscreenenter"",""1"",""4081""
","""event"",""trial"",""time""
""fullscreenexit"",""2"",""17308""
