"trial_type","trial_index","time_elapsed","internal_node_id","task_version","subject_id","interactions","blur_events","focus_events","fullscreenenter_events","fullscreenexit_events","success","view_history","rt","responses","num_errors","age","subject","participantId","rune","rune_set","hex","correct","choice","accuracy","outcome","keys","total_keys","block","practice","value","sub","trial","stimulus","robot","valence","action","sham"
"pavlovia","0","7","0.0-0.0","battery-v0.2","","""event"",""trial"",""time""
""fullscreenenter"",""1"",""2311""
","
","
","""event"",""trial"",""time""
""fullscreenenter"",""1"",""2311""
","
","","","","","","","","","","","","","","","","","","","","","","","","","","",""
"fullscreen","1","3291","0.0-1.0","battery-v0.2","","""event"",""trial"",""time""
""fullscreenenter"",""1"",""2311""
""blur"",""2"",""6270""
""focus"",""2"",""7198""
","""event"",""trial"",""time""
""blur"",""2"",""6270""
","""event"",""trial"",""time""
""focus"",""2"",""7198""
","""event"",""trial"",""time""
""fullscreenenter"",""1"",""2311""
","
","true","","","","","","","","","","","","","","","","","","","","","","","","","",""
"pit-instructions","2","18736","0.0-2.0-0.0","battery-v0.2","","""event"",""trial"",""time""
""fullscreenenter"",""1"",""2311""
""blur"",""2"",""6270""
""focus"",""2"",""7198""
","""event"",""trial"",""time""
""blur"",""2"",""6270""
","""event"",""trial"",""time""
""focus"",""2"",""7198""
","""event"",""trial"",""time""
""fullscreenenter"",""1"",""2311""
","
","","[{""page_index"":0,""viewing_time"":15438}]","15438.699999809265","","","","","","","","","","","","","","","","","","","","","","","",""
"pit-comprehension","3","21731","0.0-2.0-1.0-0.0","battery-v0.2","","""event"",""trial"",""time""
""fullscreenenter"",""1"",""2311""
""blur"",""2"",""6270""
""focus"",""2"",""7198""
","""event"",""trial"",""time""
""blur"",""2"",""6270""
","""event"",""trial"",""time""
""focus"",""2"",""7198""
","""event"",""trial"",""time""
""fullscreenenter"",""1"",""2311""
","
","","","2987.600000143051","[""shark""]","0","14","7235","2708","","","","","","","","","","","","","","","","","","",""
"pit-instructions","4","22881","0.0-2.0-1.0-1.0","battery-v0.2","","""event"",""trial"",""time""
""fullscreenenter"",""1"",""2311""
""blur"",""2"",""6270""
""focus"",""2"",""7198""
","""event"",""trial"",""time""
""blur"",""2"",""6270""
","""event"",""trial"",""time""
""focus"",""2"",""7198""
","""event"",""trial"",""time""
""fullscreenenter"",""1"",""2311""
","
","","[{""page_index"":0,""viewing_time"":1142.8999998569489}]","1143.0999999046326","","","","","","","","","","","","","","","","","","","","","","","",""
"pit-comprehension","5","25599","0.0-2.0-2.0-0.0","battery-v0.2","","""event"",""trial"",""time""
""fullscreenenter"",""1"",""2311""
""blur"",""2"",""6270""
""focus"",""2"",""7198""
","""event"",""trial"",""time""
""blur"",""2"",""6270""
","""event"",""trial"",""time""
""focus"",""2"",""7198""
","""event"",""trial"",""time""
""fullscreenenter"",""1"",""2311""
","
","","","2714.5","[""tiger""]","0","14","7235","2708","","","","","","","","","","","","","","","","","","",""
"pit-instructions","6","28546","0.0-2.0-2.0-1.0","battery-v0.2","","""event"",""trial"",""time""
""fullscreenenter"",""1"",""2311""
""blur"",""2"",""6270""
""focus"",""2"",""7198""
","""event"",""trial"",""time""
""blur"",""2"",""6270""
","""event"",""trial"",""time""
""focus"",""2"",""7198""
","""event"",""trial"",""time""
""fullscreenenter"",""1"",""2311""
","
","","[{""page_index"":0,""viewing_time"":2941.899999856949}]","2942.2999999523163","","","","","","","","","","","","","","","","","","","","","","","",""
"pit-instructions","7","131380","0.0-2.0-3.0","battery-v0.2","","""event"",""trial"",""time""
""fullscreenenter"",""1"",""2311""
""blur"",""2"",""6270""
""focus"",""2"",""7198""
","""event"",""trial"",""time""
""blur"",""2"",""6270""
","""event"",""trial"",""time""
""focus"",""2"",""7198""
","""event"",""trial"",""time""
""fullscreenenter"",""1"",""2311""
","
","","[{""page_index"":0,""viewing_time"":9784.200000047684},{""page_index"":1,""viewing_time"":5976.5},{""page_index"":2,""viewing_time"":6463.900000095367},{""page_index"":3,""viewing_time"":6456.200000047684},{""page_index"":4,""viewing_time"":6923.699999809265},{""page_index"":5,""viewing_time"":7439.800000190735},{""page_index"":6,""viewing_time"":6620},{""page_index"":7,""viewing_time"":8504.199999809265},{""page_index"":8,""viewing_time"":7932.900000095367},{""page_index"":9,""viewing_time"":8999.299999952316},{""page_index"":10,""viewing_time"":7847.299999952316},{""page_index"":11,""viewing_time"":8077},{""page_index"":12,""viewing_time"":6967.200000047684},{""page_index"":13,""viewing_time"":4832}]","102824.40000009537","","","","","","","","","","","","","","","","","","","","","","","",""
"pit-trial","8","134920","0.0-2.0-4.0-0.0","battery-v0.2","","""event"",""trial"",""time""
""fullscreenenter"",""1"",""2311""
""blur"",""2"",""6270""
""focus"",""2"",""7198""
","""event"",""trial"",""time""
""blur"",""2"",""6270""
","""event"",""trial"",""time""
""focus"",""2"",""7198""
","""event"",""trial"",""time""
""fullscreenenter"",""1"",""2311""
","
","","","680.5","","","14","7235","2708","&#9784;","elianto","#FFFFF080"," "," ","1","&#10004","[1532.7999999523163]","1","0","0","","","","","","","",""
"pit-trial","9","138485","0.0-2.0-4.1-0.1","battery-v0.2","","""event"",""trial"",""time""
""fullscreenenter"",""1"",""2311""
""blur"",""2"",""6270""
""focus"",""2"",""7198""
","""event"",""trial"",""time""
""blur"",""2"",""6270""
","""event"",""trial"",""time""
""focus"",""2"",""7198""
","""event"",""trial"",""time""
""fullscreenenter"",""1"",""2311""
","
","","","699.6999998092651","","","14","7235","2708","&#9784;","elianto","#FFFFF080"," "," ","1","&#10004","[1551.2999999523163]","1","0","0","","","","","","","",""
"pit-trial","10","141884","0.0-2.0-4.2-0.2","battery-v0.2","","""event"",""trial"",""time""
""fullscreenenter"",""1"",""2311""
""blur"",""2"",""6270""
""focus"",""2"",""7198""
","""event"",""trial"",""time""
""blur"",""2"",""6270""
","""event"",""trial"",""time""
""focus"",""2"",""7198""
","""event"",""trial"",""time""
""fullscreenenter"",""1"",""2311""
","
","","","534.2999999523163","","","14","7235","2708","&#9784;","elianto","#FFFFF080"," "," ","1","&#10004","[1387.0999999046326]","1","0","0","","","","","","","",""
"pit-trial","11","145268","0.0-2.0-4.3-0.3","battery-v0.2","","""event"",""trial"",""time""
""fullscreenenter"",""1"",""2311""
""blur"",""2"",""6270""
""focus"",""2"",""7198""
","""event"",""trial"",""time""
""blur"",""2"",""6270""
","""event"",""trial"",""time""
""focus"",""2"",""7198""
","""event"",""trial"",""time""
""fullscreenenter"",""1"",""2311""
","
","","","517.9000000953674","","","14","7235","2708","&#9784;","elianto","#FFFFF080"," "," ","1","&#10004","[1370.3999998569489]","1","0","0","","","","","","","",""
"pit-trial","12","148635","0.0-2.0-4.4-0.4","battery-v0.2","","""event"",""trial"",""time""
""fullscreenenter"",""1"",""2311""
""blur"",""2"",""6270""
""focus"",""2"",""7198""
","""event"",""trial"",""time""
""blur"",""2"",""6270""
","""event"",""trial"",""time""
""focus"",""2"",""7198""
","""event"",""trial"",""time""
""fullscreenenter"",""1"",""2311""
","
","","","511.09999990463257","","","14","7235","2708","&#9784;","elianto","#FFFFF080"," "," ","1","&#10004","[1362.2999999523163]","1","0","0","","","","","","","",""
"pit-instructions","13","173067","0.0-2.0-5.0","battery-v0.2","","""event"",""trial"",""time""
""fullscreenenter"",""1"",""2311""
""blur"",""2"",""6270""
""focus"",""2"",""7198""
","""event"",""trial"",""time""
""blur"",""2"",""6270""
","""event"",""trial"",""time""
""focus"",""2"",""7198""
","""event"",""trial"",""time""
""fullscreenenter"",""1"",""2311""
","
","","[{""page_index"":0,""viewing_time"":6113.099999904633},{""page_index"":1,""viewing_time"":6822.299999952316},{""page_index"":2,""viewing_time"":5956.600000143051},{""page_index"":3,""viewing_time"":5537.099999904633}]","24429.599999904633","","","","","","","","","","","","","","","","","","","","","","","",""
"pit-trial","14","177937","0.0-2.0-6.0-0.0","battery-v0.2","","""event"",""trial"",""time""
""fullscreenenter"",""1"",""2311""
""blur"",""2"",""6270""
""focus"",""2"",""7198""
","""event"",""trial"",""time""
""blur"",""2"",""6270""
","""event"",""trial"",""time""
""focus"",""2"",""7198""
","""event"",""trial"",""time""
""fullscreenenter"",""1"",""2311""
","
","","","-1","","","14","7235","2708","&#9854;","elianto","#FFFFF080","-1","-1","1","&#10004","[]","0","0","1","","","","","","","",""
"pit-trial","15","182822","0.0-2.0-6.1-0.1","battery-v0.2","","""event"",""trial"",""time""
""fullscreenenter"",""1"",""2311""
""blur"",""2"",""6270""
""focus"",""2"",""7198""
","""event"",""trial"",""time""
""blur"",""2"",""6270""
","""event"",""trial"",""time""
""focus"",""2"",""7198""
","""event"",""trial"",""time""
""fullscreenenter"",""1"",""2311""
","
","","","-1","","","14","7235","2708","&#9854;","elianto","#FFFFF080","-1","-1","1","&#10004","[]","0","0","1","","","","","","","",""
"pit-trial","16","187695","0.0-2.0-6.2-0.2","battery-v0.2","","""event"",""trial"",""time""
""fullscreenenter"",""1"",""2311""
""blur"",""2"",""6270""
""focus"",""2"",""7198""
","""event"",""trial"",""time""
""blur"",""2"",""6270""
","""event"",""trial"",""time""
""focus"",""2"",""7198""
","""event"",""trial"",""time""
""fullscreenenter"",""1"",""2311""
","
","","","-1","","","14","7235","2708","&#9854;","elianto","#FFFFF080","-1","-1","1","&#10004","[]","0","0","1","","","","","","","",""
"pit-trial","17","192581","0.0-2.0-6.3-0.3","battery-v0.2","","""event"",""trial"",""time""
""fullscreenenter"",""1"",""2311""
""blur"",""2"",""6270""
""focus"",""2"",""7198""
","""event"",""trial"",""time""
""blur"",""2"",""6270""
","""event"",""trial"",""time""
""focus"",""2"",""7198""
","""event"",""trial"",""time""
""fullscreenenter"",""1"",""2311""
","
","","","-1","","","14","7235","2708","&#9854;","elianto","#FFFFF080","-1","-1","1","&#10004","[]","0","0","1","","","","","","","",""
"pit-trial","18","197469","0.0-2.0-6.4-0.4","battery-v0.2","","""event"",""trial"",""time""
""fullscreenenter"",""1"",""2311""
""blur"",""2"",""6270""
""focus"",""2"",""7198""
""blur"",""19"",""293536""
""focus"",""19"",""294738""
""blur"",""19"",""294779""
""focus"",""19"",""297154""
","""event"",""trial"",""time""
""blur"",""2"",""6270""
""blur"",""19"",""293536""
""blur"",""19"",""294779""
","""event"",""trial"",""time""
""focus"",""2"",""7198""
""focus"",""19"",""294738""
""focus"",""19"",""297154""
","""event"",""trial"",""time""
""fullscreenenter"",""1"",""2311""
","
","","","-1","","","14","7235","2708","&#9854;","elianto","#FFFFF080","-1","-1","1","&#10004","[]","0","0","1","","","","","","","",""
"pit-instructions","19","312545","0.0-2.0-7.0","battery-v0.2","","""event"",""trial"",""time""
""fullscreenenter"",""1"",""2311""
""blur"",""2"",""6270""
""focus"",""2"",""7198""
""blur"",""19"",""293536""
""focus"",""19"",""294738""
""blur"",""19"",""294779""
""focus"",""19"",""297154""
","""event"",""trial"",""time""
""blur"",""2"",""6270""
""blur"",""19"",""293536""
""blur"",""19"",""294779""
","""event"",""trial"",""time""
""focus"",""2"",""7198""
""focus"",""19"",""294738""
""focus"",""19"",""297154""
","""event"",""trial"",""time""
""fullscreenenter"",""1"",""2311""
","
","","[{""page_index"":0,""viewing_time"":5101.5},{""page_index"":1,""viewing_time"":6942.700000047684},{""page_index"":2,""viewing_time"":5370.599999904633},{""page_index"":3,""viewing_time"":7535.299999952316},{""page_index"":4,""viewing_time"":5020.400000095367},{""page_index"":5,""viewing_time"":5085.400000095367},{""page_index"":6,""viewing_time"":4156.899999856949},{""page_index"":7,""viewing_time"":7680.100000143051},{""page_index"":8,""viewing_time"":7148},{""page_index"":9,""viewing_time"":5558.899999856949},{""page_index"":10,""viewing_time"":6524.299999952316},{""page_index"":11,""viewing_time"":4812.200000047684},{""page_index"":12,""viewing_time"":6464.700000047684},{""page_index"":13,""viewing_time"":9781.799999952316},{""page_index"":14,""viewing_time"":6293.100000143051},{""page_index"":15,""viewing_time"":8120.299999952316},{""page_index"":16,""viewing_time"":6644.5},{""page_index"":17,""viewing_time"":6828.299999952316}]","115069.5","","","","","","","","","","","","","","","","","","","","","","","",""
"pit-trial","20","315967","0.0-2.0-8.0-0.0","battery-v0.2","","""event"",""trial"",""time""
""fullscreenenter"",""1"",""2311""
""blur"",""2"",""6270""
""focus"",""2"",""7198""
""blur"",""19"",""293536""
""focus"",""19"",""294738""
""blur"",""19"",""294779""
""focus"",""19"",""297154""
","""event"",""trial"",""time""
""blur"",""2"",""6270""
""blur"",""19"",""293536""
""blur"",""19"",""294779""
","""event"",""trial"",""time""
""focus"",""2"",""7198""
""focus"",""19"",""294738""
""focus"",""19"",""297154""
","""event"",""trial"",""time""
""fullscreenenter"",""1"",""2311""
","
","","","552.9000000953674","","","14","7235","2708","&#9776;","elianto","#3366ff99"," "," ","1","+10","[1405.8000001907349]","1","0","1","","","","","","","",""
"pit-trial","21","319328","0.0-2.0-8.0-1.0","battery-v0.2","","""event"",""trial"",""time""
""fullscreenenter"",""1"",""2311""
""blur"",""2"",""6270""
""focus"",""2"",""7198""
""blur"",""19"",""293536""
""focus"",""19"",""294738""
""blur"",""19"",""294779""
""focus"",""19"",""297154""
","""event"",""trial"",""time""
""blur"",""2"",""6270""
""blur"",""19"",""293536""
""blur"",""19"",""294779""
","""event"",""trial"",""time""
""focus"",""2"",""7198""
""focus"",""19"",""294738""
""focus"",""19"",""297154""
","""event"",""trial"",""time""
""fullscreenenter"",""1"",""2311""
","
","","","504.7999999523163","","","14","7235","2708","&#9776;","elianto","#3366ff99"," "," ","1","+10","[1356.5]","1","0","1","","","","","","","",""
"pit-trial","22","322833","0.0-2.0-8.0-2.0","battery-v0.2","","""event"",""trial"",""time""
""fullscreenenter"",""1"",""2311""
""blur"",""2"",""6270""
""focus"",""2"",""7198""
""blur"",""19"",""293536""
""focus"",""19"",""294738""
""blur"",""19"",""294779""
""focus"",""19"",""297154""
","""event"",""trial"",""time""
""blur"",""2"",""6270""
""blur"",""19"",""293536""
""blur"",""19"",""294779""
","""event"",""trial"",""time""
""focus"",""2"",""7198""
""focus"",""19"",""294738""
""focus"",""19"",""297154""
","""event"",""trial"",""time""
""fullscreenenter"",""1"",""2311""
","
","","","649.6000001430511","","","14","7235","2708","&#9776;","elianto","#3366ff99"," "," ","1","+10","[1500.4000000953674]","1","0","1","","","","","","","",""
"pit-trial","23","326177","0.0-2.0-8.0-3.0","battery-v0.2","","""event"",""trial"",""time""
""fullscreenenter"",""1"",""2311""
""blur"",""2"",""6270""
""focus"",""2"",""7198""
""blur"",""19"",""293536""
""focus"",""19"",""294738""
""blur"",""19"",""294779""
""focus"",""19"",""297154""
","""event"",""trial"",""time""
""blur"",""2"",""6270""
""blur"",""19"",""293536""
""blur"",""19"",""294779""
","""event"",""trial"",""time""
""focus"",""2"",""7198""
""focus"",""19"",""294738""
""focus"",""19"",""297154""
","""event"",""trial"",""time""
""fullscreenenter"",""1"",""2311""
","
","","","474.09999990463257","","","14","7235","2708","&#9776;","elianto","#3366ff99"," "," ","1","0","[1326.9000000953674]","1","0","1","","","","","","","",""
"pit-trial","24","329405","0.0-2.0-8.0-4.0","battery-v0.2","","""event"",""trial"",""time""
""fullscreenenter"",""1"",""2311""
""blur"",""2"",""6270""
""focus"",""2"",""7198""
""blur"",""19"",""293536""
""focus"",""19"",""294738""
""blur"",""19"",""294779""
""focus"",""19"",""297154""
","""event"",""trial"",""time""
""blur"",""2"",""6270""
""blur"",""19"",""293536""
""blur"",""19"",""294779""
","""event"",""trial"",""time""
""focus"",""2"",""7198""
""focus"",""19"",""294738""
""focus"",""19"",""297154""
","""event"",""trial"",""time""
""fullscreenenter"",""1"",""2311""
","
","","","362.90000009536743","","","14","7235","2708","&#9776;","elianto","#3366ff99"," "," ","1","+10","[1214.9000000953674]","1","0","1","","","","","","","",""
"pit-trial","25","333475","0.0-2.0-8.1-0.1","battery-v0.2","","""event"",""trial"",""time""
""fullscreenenter"",""1"",""2311""
""blur"",""2"",""6270""
""focus"",""2"",""7198""
""blur"",""19"",""293536""
""focus"",""19"",""294738""
""blur"",""19"",""294779""
""focus"",""19"",""297154""
","""event"",""trial"",""time""
""blur"",""2"",""6270""
""blur"",""19"",""293536""
""blur"",""19"",""294779""
","""event"",""trial"",""time""
""focus"",""2"",""7198""
""focus"",""19"",""294738""
""focus"",""19"",""297154""
","""event"",""trial"",""time""
""fullscreenenter"",""1"",""2311""
","
","","","1208.7999999523163","","","14","7235","2708","&#9776;","elianto","#3366ff99"," "," ","1","+10","[2060.7999999523163]","1","0","1","","","","","","","",""
"pit-trial","26","338347","0.0-2.0-8.1-1.1","battery-v0.2","","""event"",""trial"",""time""
""fullscreenenter"",""1"",""2311""
""blur"",""2"",""6270""
""focus"",""2"",""7198""
""blur"",""19"",""293536""
""focus"",""19"",""294738""
""blur"",""19"",""294779""
""focus"",""19"",""297154""
","""event"",""trial"",""time""
""blur"",""2"",""6270""
""blur"",""19"",""293536""
""blur"",""19"",""294779""
","""event"",""trial"",""time""
""focus"",""2"",""7198""
""focus"",""19"",""294738""
""focus"",""19"",""297154""
","""event"",""trial"",""time""
""fullscreenenter"",""1"",""2311""
","
","","","-1","","","14","7235","2708","&#9776;","elianto","#3366ff99"," ","-1","0","0","[]","0","0","1","","","","","","","",""
"pit-trial","27","341653","0.0-2.0-8.1-2.1","battery-v0.2","","""event"",""trial"",""time""
""fullscreenenter"",""1"",""2311""
""blur"",""2"",""6270""
""focus"",""2"",""7198""
""blur"",""19"",""293536""
""focus"",""19"",""294738""
""blur"",""19"",""294779""
""focus"",""19"",""297154""
","""event"",""trial"",""time""
""blur"",""2"",""6270""
""blur"",""19"",""293536""
""blur"",""19"",""294779""
","""event"",""trial"",""time""
""focus"",""2"",""7198""
""focus"",""19"",""294738""
""focus"",""19"",""297154""
","""event"",""trial"",""time""
""fullscreenenter"",""1"",""2311""
","
","","","446.40000009536743","","","14","7235","2708","&#9776;","elianto","#3366ff99"," "," ","1","+10","[1298.4000000953674]","1","0","1","","","","","","","",""
"pit-trial","28","344878","0.0-2.0-8.1-3.1","battery-v0.2","","""event"",""trial"",""time""
""fullscreenenter"",""1"",""2311""
""blur"",""2"",""6270""
""focus"",""2"",""7198""
""blur"",""19"",""293536""
""focus"",""19"",""294738""
""blur"",""19"",""294779""
""focus"",""19"",""297154""
","""event"",""trial"",""time""
""blur"",""2"",""6270""
""blur"",""19"",""293536""
""blur"",""19"",""294779""
","""event"",""trial"",""time""
""focus"",""2"",""7198""
""focus"",""19"",""294738""
""focus"",""19"",""297154""
","""event"",""trial"",""time""
""fullscreenenter"",""1"",""2311""
","
","","","362.30000019073486","","","14","7235","2708","&#9776;","elianto","#3366ff99"," "," ","1","0","[1215]","1","0","1","","","","","","","",""
"pit-trial","29","347955","0.0-2.0-8.1-4.1","battery-v0.2","","""event"",""trial"",""time""
""fullscreenenter"",""1"",""2311""
""blur"",""2"",""6270""
""focus"",""2"",""7198""
""blur"",""19"",""293536""
""focus"",""19"",""294738""
""blur"",""19"",""294779""
""focus"",""19"",""297154""
","""event"",""trial"",""time""
""blur"",""2"",""6270""
""blur"",""19"",""293536""
""blur"",""19"",""294779""
","""event"",""trial"",""time""
""focus"",""2"",""7198""
""focus"",""19"",""294738""
""focus"",""19"",""297154""
","""event"",""trial"",""time""
""fullscreenenter"",""1"",""2311""
","
","","","222.10000014305115","","","14","7235","2708","&#9776;","elianto","#3366ff99"," "," ","1","+10","[1072.6000001430511]","1","0","1","","","","","","","",""
"pit-trial","30","352821","0.0-2.0-8.2-0.2","battery-v0.2","","""event"",""trial"",""time""
""fullscreenenter"",""1"",""2311""
""blur"",""2"",""6270""
""focus"",""2"",""7198""
""blur"",""19"",""293536""
""focus"",""19"",""294738""
""blur"",""19"",""294779""
""focus"",""19"",""297154""
","""event"",""trial"",""time""
""blur"",""2"",""6270""
""blur"",""19"",""293536""
""blur"",""19"",""294779""
","""event"",""trial"",""time""
""focus"",""2"",""7198""
""focus"",""19"",""294738""
""focus"",""19"",""297154""
","""event"",""trial"",""time""
""fullscreenenter"",""1"",""2311""
","
","","","-1","","","14","7235","2708","&#9776;","elianto","#3366ff99"," ","-1","0","0","[]","0","0","1","","","","","","","",""
"pit-trial","31","357688","0.0-2.0-8.2-1.2","battery-v0.2","","""event"",""trial"",""time""
""fullscreenenter"",""1"",""2311""
""blur"",""2"",""6270""
""focus"",""2"",""7198""
""blur"",""19"",""293536""
""focus"",""19"",""294738""
""blur"",""19"",""294779""
""focus"",""19"",""297154""
","""event"",""trial"",""time""
""blur"",""2"",""6270""
""blur"",""19"",""293536""
""blur"",""19"",""294779""
","""event"",""trial"",""time""
""focus"",""2"",""7198""
""focus"",""19"",""294738""
""focus"",""19"",""297154""
","""event"",""trial"",""time""
""fullscreenenter"",""1"",""2311""
","
","","","-1","","","14","7235","2708","&#9776;","elianto","#3366ff99"," ","-1","0","0","[]","0","0","1","","","","","","","",""
"pit-trial","32","360922","0.0-2.0-8.2-2.2","battery-v0.2","","""event"",""trial"",""time""
""fullscreenenter"",""1"",""2311""
""blur"",""2"",""6270""
""focus"",""2"",""7198""
""blur"",""19"",""293536""
""focus"",""19"",""294738""
""blur"",""19"",""294779""
""focus"",""19"",""297154""
","""event"",""trial"",""time""
""blur"",""2"",""6270""
""blur"",""19"",""293536""
""blur"",""19"",""294779""
","""event"",""trial"",""time""
""focus"",""2"",""7198""
""focus"",""19"",""294738""
""focus"",""19"",""297154""
","""event"",""trial"",""time""
""fullscreenenter"",""1"",""2311""
","
","","","371.7000000476837","","","14","7235","2708","&#9776;","elianto","#3366ff99"," "," ","1","+10","[1224.9000000953674]","1","0","1","","","","","","","",""
"pit-trial","33","365790","0.0-2.0-8.2-3.2","battery-v0.2","","""event"",""trial"",""time""
""fullscreenenter"",""1"",""2311""
""blur"",""2"",""6270""
""focus"",""2"",""7198""
""blur"",""19"",""293536""
""focus"",""19"",""294738""
""blur"",""19"",""294779""
""focus"",""19"",""297154""
","""event"",""trial"",""time""
""blur"",""2"",""6270""
""blur"",""19"",""293536""
""blur"",""19"",""294779""
","""event"",""trial"",""time""
""focus"",""2"",""7198""
""focus"",""19"",""294738""
""focus"",""19"",""297154""
","""event"",""trial"",""time""
""fullscreenenter"",""1"",""2311""
","
","","","-1","","","14","7235","2708","&#9776;","elianto","#3366ff99"," ","-1","0","+10","[]","0","0","1","","","","","","","",""
"pit-trial","34","369589","0.0-2.0-8.2-4.2","battery-v0.2","","""event"",""trial"",""time""
""fullscreenenter"",""1"",""2311""
""blur"",""2"",""6270""
""focus"",""2"",""7198""
""blur"",""19"",""293536""
""focus"",""19"",""294738""
""blur"",""19"",""294779""
""focus"",""19"",""297154""
","""event"",""trial"",""time""
""blur"",""2"",""6270""
""blur"",""19"",""293536""
""blur"",""19"",""294779""
","""event"",""trial"",""time""
""focus"",""2"",""7198""
""focus"",""19"",""294738""
""focus"",""19"",""297154""
","""event"",""trial"",""time""
""fullscreenenter"",""1"",""2311""
","
","","","937.2000000476837","","","14","7235","2708","&#9776;","elianto","#3366ff99"," "," ","1","+10","[1789.7999999523163]","1","0","1","","","","","","","",""
"call-function","35","369594","0.0-2.0-9.0","battery-v0.2","","""event"",""trial"",""time""
""fullscreenenter"",""1"",""2311""
""blur"",""2"",""6270""
""focus"",""2"",""7198""
""blur"",""19"",""293536""
""focus"",""19"",""294738""
""blur"",""19"",""294779""
""focus"",""19"",""297154""
","""event"",""trial"",""time""
""blur"",""2"",""6270""
""blur"",""19"",""293536""
""blur"",""19"",""294779""
","""event"",""trial"",""time""
""focus"",""2"",""7198""
""focus"",""19"",""294738""
""focus"",""19"",""297154""
","""event"",""trial"",""time""
""fullscreenenter"",""1"",""2311""
","
","","","","","","","","","","","","","","","","","","","","","","","","","","",""
"pit-instructions","36","407172","0.0-2.0-10.0","battery-v0.2","","""event"",""trial"",""time""
""fullscreenenter"",""1"",""2311""
""blur"",""2"",""6270""
""focus"",""2"",""7198""
""blur"",""19"",""293536""
""focus"",""19"",""294738""
""blur"",""19"",""294779""
""focus"",""19"",""297154""
","""event"",""trial"",""time""
""blur"",""2"",""6270""
""blur"",""19"",""293536""
""blur"",""19"",""294779""
","""event"",""trial"",""time""
""focus"",""2"",""7198""
""focus"",""19"",""294738""
""focus"",""19"",""297154""
","""event"",""trial"",""time""
""fullscreenenter"",""1"",""2311""
","
","","[{""page_index"":0,""viewing_time"":5755.799999952316},{""page_index"":1,""viewing_time"":6095.400000095367},{""page_index"":2,""viewing_time"":9143.399999856949},{""page_index"":3,""viewing_time"":9526.100000143051},{""page_index"":4,""viewing_time"":7056.5}]","37577.799999952316","","","","","","","","","","","","","","","","","","","","","","","",""
"pit-trial","37","412055","0.0-2.0-11.0-0.0","battery-v0.2","","""event"",""trial"",""time""
""fullscreenenter"",""1"",""2311""
""blur"",""2"",""6270""
""focus"",""2"",""7198""
""blur"",""19"",""293536""
""focus"",""19"",""294738""
""blur"",""19"",""294779""
""focus"",""19"",""297154""
","""event"",""trial"",""time""
""blur"",""2"",""6270""
""blur"",""19"",""293536""
""blur"",""19"",""294779""
","""event"",""trial"",""time""
""focus"",""2"",""7198""
""focus"",""19"",""294738""
""focus"",""19"",""297154""
","""event"",""trial"",""time""
""fullscreenenter"",""1"",""2311""
","
","","","-1","","","14","7235","2708","&#9761;","elianto","#3366ff99","-1","-1","1","+10","[]","0","0","2","","","","","","","",""
"pit-trial","38","415618","0.0-2.0-11.0-1.0","battery-v0.2","","""event"",""trial"",""time""
""fullscreenenter"",""1"",""2311""
""blur"",""2"",""6270""
""focus"",""2"",""7198""
""blur"",""19"",""293536""
""focus"",""19"",""294738""
""blur"",""19"",""294779""
""focus"",""19"",""297154""
","""event"",""trial"",""time""
""blur"",""2"",""6270""
""blur"",""19"",""293536""
""blur"",""19"",""294779""
","""event"",""trial"",""time""
""focus"",""2"",""7198""
""focus"",""19"",""294738""
""focus"",""19"",""297154""
","""event"",""trial"",""time""
""fullscreenenter"",""1"",""2311""
","
","","","703.5","","","14","7235","2708","&#9761;","elianto","#3366ff99","-1"," ","0","0","[1554.4000000953674]","1","0","2","","","","","","","",""
"pit-trial","39","418549","0.0-2.0-11.0-2.0","battery-v0.2","","""event"",""trial"",""time""
""fullscreenenter"",""1"",""2311""
""blur"",""2"",""6270""
""focus"",""2"",""7198""
""blur"",""19"",""293536""
""focus"",""19"",""294738""
""blur"",""19"",""294779""
""focus"",""19"",""297154""
","""event"",""trial"",""time""
""blur"",""2"",""6270""
""blur"",""19"",""293536""
""blur"",""19"",""294779""
","""event"",""trial"",""time""
""focus"",""2"",""7198""
""focus"",""19"",""294738""
""focus"",""19"",""297154""
","""event"",""trial"",""time""
""fullscreenenter"",""1"",""2311""
","
","","","72.59999990463257","","","14","7235","2708","&#9761;","elianto","#3366ff99","-1"," ","0","0","[923.0999999046326]","1","0","2","","","","","","","",""
"pit-trial","40","423417","0.0-2.0-11.0-3.0","battery-v0.2","","""event"",""trial"",""time""
""fullscreenenter"",""1"",""2311""
""blur"",""2"",""6270""
""focus"",""2"",""7198""
""blur"",""19"",""293536""
""focus"",""19"",""294738""
""blur"",""19"",""294779""
""focus"",""19"",""297154""
","""event"",""trial"",""time""
""blur"",""2"",""6270""
""blur"",""19"",""293536""
""blur"",""19"",""294779""
","""event"",""trial"",""time""
""focus"",""2"",""7198""
""focus"",""19"",""294738""
""focus"",""19"",""297154""
","""event"",""trial"",""time""
""fullscreenenter"",""1"",""2311""
","
","","","-1","","","14","7235","2708","&#9761;","elianto","#3366ff99","-1","-1","1","0","[]","0","0","2","","","","","","","",""
"pit-trial","41","427126","0.0-2.0-11.0-4.0","battery-v0.2","","""event"",""trial"",""time""
""fullscreenenter"",""1"",""2311""
""blur"",""2"",""6270""
""focus"",""2"",""7198""
""blur"",""19"",""293536""
""focus"",""19"",""294738""
""blur"",""19"",""294779""
""focus"",""19"",""297154""
","""event"",""trial"",""time""
""blur"",""2"",""6270""
""blur"",""19"",""293536""
""blur"",""19"",""294779""
","""event"",""trial"",""time""
""focus"",""2"",""7198""
""focus"",""19"",""294738""
""focus"",""19"",""297154""
","""event"",""trial"",""time""
""fullscreenenter"",""1"",""2311""
","
","","","847.6999998092651","","","14","7235","2708","&#9761;","elianto","#3366ff99","-1"," ","0","0","[1697.7999999523163]","1","0","2","","","","","","","",""
"pit-trial","42","431994","0.0-2.0-11.1-0.1","battery-v0.2","","""event"",""trial"",""time""
""fullscreenenter"",""1"",""2311""
""blur"",""2"",""6270""
""focus"",""2"",""7198""
""blur"",""19"",""293536""
""focus"",""19"",""294738""
""blur"",""19"",""294779""
""focus"",""19"",""297154""
","""event"",""trial"",""time""
""blur"",""2"",""6270""
""blur"",""19"",""293536""
""blur"",""19"",""294779""
","""event"",""trial"",""time""
""focus"",""2"",""7198""
""focus"",""19"",""294738""
""focus"",""19"",""297154""
","""event"",""trial"",""time""
""fullscreenenter"",""1"",""2311""
","
","","","-1","","","14","7235","2708","&#9761;","elianto","#3366ff99","-1","-1","1","+10","[]","0","0","2","","","","","","","",""
"pit-trial","43","436876","0.0-2.0-11.1-1.1","battery-v0.2","","""event"",""trial"",""time""
""fullscreenenter"",""1"",""2311""
""blur"",""2"",""6270""
""focus"",""2"",""7198""
""blur"",""19"",""293536""
""focus"",""19"",""294738""
""blur"",""19"",""294779""
""focus"",""19"",""297154""
","""event"",""trial"",""time""
""blur"",""2"",""6270""
""blur"",""19"",""293536""
""blur"",""19"",""294779""
","""event"",""trial"",""time""
""focus"",""2"",""7198""
""focus"",""19"",""294738""
""focus"",""19"",""297154""
","""event"",""trial"",""time""
""fullscreenenter"",""1"",""2311""
","
","","","-1","","","14","7235","2708","&#9761;","elianto","#3366ff99","-1","-1","1","+10","[]","0","0","2","","","","","","","",""
"pit-trial","44","440279","0.0-2.0-11.1-2.1","battery-v0.2","","""event"",""trial"",""time""
""fullscreenenter"",""1"",""2311""
""blur"",""2"",""6270""
""focus"",""2"",""7198""
""blur"",""19"",""293536""
""focus"",""19"",""294738""
""blur"",""19"",""294779""
""focus"",""19"",""297154""
","""event"",""trial"",""time""
""blur"",""2"",""6270""
""blur"",""19"",""293536""
""blur"",""19"",""294779""
","""event"",""trial"",""time""
""focus"",""2"",""7198""
""focus"",""19"",""294738""
""focus"",""19"",""297154""
","""event"",""trial"",""time""
""fullscreenenter"",""1"",""2311""
","
","","","536.1000001430511","","","14","7235","2708","&#9761;","elianto","#3366ff99","-1"," ","0","0","[1388.1000001430511]","1","0","2","","","","","","","",""
"pit-trial","45","444096","0.0-2.0-11.1-3.1","battery-v0.2","","""event"",""trial"",""time""
""fullscreenenter"",""1"",""2311""
""blur"",""2"",""6270""
""focus"",""2"",""7198""
""blur"",""19"",""293536""
""focus"",""19"",""294738""
""blur"",""19"",""294779""
""focus"",""19"",""297154""
","""event"",""trial"",""time""
""blur"",""2"",""6270""
""blur"",""19"",""293536""
""blur"",""19"",""294779""
","""event"",""trial"",""time""
""focus"",""2"",""7198""
""focus"",""19"",""294738""
""focus"",""19"",""297154""
","""event"",""trial"",""time""
""fullscreenenter"",""1"",""2311""
","
","","","956","","","14","7235","2708","&#9761;","elianto","#3366ff99","-1"," ","0","+10","[1809.3999998569489]","1","0","2","","","","","","","",""
"pit-trial","46","447308","0.0-2.0-11.1-4.1","battery-v0.2","","""event"",""trial"",""time""
""fullscreenenter"",""1"",""2311""
""blur"",""2"",""6270""
""focus"",""2"",""7198""
""blur"",""19"",""293536""
""focus"",""19"",""294738""
""blur"",""19"",""294779""
""focus"",""19"",""297154""
","""event"",""trial"",""time""
""blur"",""2"",""6270""
""blur"",""19"",""293536""
""blur"",""19"",""294779""
","""event"",""trial"",""time""
""focus"",""2"",""7198""
""focus"",""19"",""294738""
""focus"",""19"",""297154""
","""event"",""trial"",""time""
""fullscreenenter"",""1"",""2311""
","
","","","354.5","","","14","7235","2708","&#9761;","elianto","#3366ff99","-1"," ","0","0","[1205.1999998092651]","1","0","2","","","","","","","",""
"pit-trial","47","451209","0.0-2.0-11.2-0.2","battery-v0.2","","""event"",""trial"",""time""
""fullscreenenter"",""1"",""2311""
""blur"",""2"",""6270""
""focus"",""2"",""7198""
""blur"",""19"",""293536""
""focus"",""19"",""294738""
""blur"",""19"",""294779""
""focus"",""19"",""297154""
","""event"",""trial"",""time""
""blur"",""2"",""6270""
""blur"",""19"",""293536""
""blur"",""19"",""294779""
","""event"",""trial"",""time""
""focus"",""2"",""7198""
""focus"",""19"",""294738""
""focus"",""19"",""297154""
","""event"",""trial"",""time""
""fullscreenenter"",""1"",""2311""
","
","","","1040.9000000953674","","","14","7235","2708","&#9761;","elianto","#3366ff99","-1"," ","0","0","[1892.2000000476837]","1","0","2","","","","","","","",""
"pit-trial","48","456081","0.0-2.0-11.2-1.2","battery-v0.2","","""event"",""trial"",""time""
""fullscreenenter"",""1"",""2311""
""blur"",""2"",""6270""
""focus"",""2"",""7198""
""blur"",""19"",""293536""
""focus"",""19"",""294738""
""blur"",""19"",""294779""
""focus"",""19"",""297154""
","""event"",""trial"",""time""
""blur"",""2"",""6270""
""blur"",""19"",""293536""
""blur"",""19"",""294779""
","""event"",""trial"",""time""
""focus"",""2"",""7198""
""focus"",""19"",""294738""
""focus"",""19"",""297154""
","""event"",""trial"",""time""
""fullscreenenter"",""1"",""2311""
","
","","","-1","","","14","7235","2708","&#9761;","elianto","#3366ff99","-1","-1","1","+10","[3776.100000143051]","1","0","2","","","","","","","",""
"pit-trial","49","460940","0.0-2.0-11.2-2.2","battery-v0.2","","""event"",""trial"",""time""
""fullscreenenter"",""1"",""2311""
""blur"",""2"",""6270""
""focus"",""2"",""7198""
""blur"",""19"",""293536""
""focus"",""19"",""294738""
""blur"",""19"",""294779""
""focus"",""19"",""297154""
","""event"",""trial"",""time""
""blur"",""2"",""6270""
""blur"",""19"",""293536""
""blur"",""19"",""294779""
","""event"",""trial"",""time""
""focus"",""2"",""7198""
""focus"",""19"",""294738""
""focus"",""19"",""297154""
","""event"",""trial"",""time""
""fullscreenenter"",""1"",""2311""
","
","","","-1","","","14","7235","2708","&#9761;","elianto","#3366ff99","-1","-1","1","+10","[]","0","0","2","","","","","","","",""
"pit-trial","50","464368","0.0-2.0-11.2-3.2","battery-v0.2","","""event"",""trial"",""time""
""fullscreenenter"",""1"",""2311""
""blur"",""2"",""6270""
""focus"",""2"",""7198""
""blur"",""19"",""293536""
""focus"",""19"",""294738""
""blur"",""19"",""294779""
""focus"",""19"",""297154""
","""event"",""trial"",""time""
""blur"",""2"",""6270""
""blur"",""19"",""293536""
""blur"",""19"",""294779""
","""event"",""trial"",""time""
""focus"",""2"",""7198""
""focus"",""19"",""294738""
""focus"",""19"",""297154""
","""event"",""trial"",""time""
""fullscreenenter"",""1"",""2311""
","
","","","565.7999999523163","","","14","7235","2708","&#9761;","elianto","#3366ff99","-1"," ","0","+10","[1416.5999999046326]","1","0","2","","","","","","","",""
"pit-trial","51","469246","0.0-2.0-11.2-4.2","battery-v0.2","","""event"",""trial"",""time""
""fullscreenenter"",""1"",""2311""
""blur"",""2"",""6270""
""focus"",""2"",""7198""
""blur"",""19"",""293536""
""focus"",""19"",""294738""
""blur"",""19"",""294779""
""focus"",""19"",""297154""
","""event"",""trial"",""time""
""blur"",""2"",""6270""
""blur"",""19"",""293536""
""blur"",""19"",""294779""
","""event"",""trial"",""time""
""focus"",""2"",""7198""
""focus"",""19"",""294738""
""focus"",""19"",""297154""
","""event"",""trial"",""time""
""fullscreenenter"",""1"",""2311""
","
","","","-1","","","14","7235","2708","&#9761;","elianto","#3366ff99","-1","-1","1","+10","[]","0","0","2","","","","","","","",""
"pit-trial","52","472531","0.0-2.0-11.3-0.3","battery-v0.2","","""event"",""trial"",""time""
""fullscreenenter"",""1"",""2311""
""blur"",""2"",""6270""
""focus"",""2"",""7198""
""blur"",""19"",""293536""
""focus"",""19"",""294738""
""blur"",""19"",""294779""
""focus"",""19"",""297154""
","""event"",""trial"",""time""
""blur"",""2"",""6270""
""blur"",""19"",""293536""
""blur"",""19"",""294779""
","""event"",""trial"",""time""
""focus"",""2"",""7198""
""focus"",""19"",""294738""
""focus"",""19"",""297154""
","""event"",""trial"",""time""
""fullscreenenter"",""1"",""2311""
","
","","","428.09999990463257","","","14","7235","2708","&#9761;","elianto","#3366ff99","-1"," ","0","0","[1279.2000000476837]","1","0","2","","","","","","","",""
"pit-trial","53","476820","0.0-2.0-11.3-1.3","battery-v0.2","","""event"",""trial"",""time""
""fullscreenenter"",""1"",""2311""
""blur"",""2"",""6270""
""focus"",""2"",""7198""
""blur"",""19"",""293536""
""focus"",""19"",""294738""
""blur"",""19"",""294779""
""focus"",""19"",""297154""
","""event"",""trial"",""time""
""blur"",""2"",""6270""
""blur"",""19"",""293536""
""blur"",""19"",""294779""
","""event"",""trial"",""time""
""focus"",""2"",""7198""
""focus"",""19"",""294738""
""focus"",""19"",""297154""
","""event"",""trial"",""time""
""fullscreenenter"",""1"",""2311""
","
","","","1430.6999998092651","","","14","7235","2708","&#9761;","elianto","#3366ff99","-1"," ","0","0","[2281.5]","1","0","2","","","","","","","",""
"pit-trial","54","481691","0.0-2.0-11.3-2.3","battery-v0.2","","""event"",""trial"",""time""
""fullscreenenter"",""1"",""2311""
""blur"",""2"",""6270""
""focus"",""2"",""7198""
""blur"",""19"",""293536""
""focus"",""19"",""294738""
""blur"",""19"",""294779""
""focus"",""19"",""297154""
","""event"",""trial"",""time""
""blur"",""2"",""6270""
""blur"",""19"",""293536""
""blur"",""19"",""294779""
","""event"",""trial"",""time""
""focus"",""2"",""7198""
""focus"",""19"",""294738""
""focus"",""19"",""297154""
","""event"",""trial"",""time""
""fullscreenenter"",""1"",""2311""
","
","","","-1","","","14","7235","2708","&#9761;","elianto","#3366ff99","-1","-1","1","+10","[]","0","0","2","","","","","","","",""
"pit-trial","55","485028","0.0-2.0-11.3-3.3","battery-v0.2","","""event"",""trial"",""time""
""fullscreenenter"",""1"",""2311""
""blur"",""2"",""6270""
""focus"",""2"",""7198""
""blur"",""19"",""293536""
""focus"",""19"",""294738""
""blur"",""19"",""294779""
""focus"",""19"",""297154""
","""event"",""trial"",""time""
""blur"",""2"",""6270""
""blur"",""19"",""293536""
""blur"",""19"",""294779""
","""event"",""trial"",""time""
""focus"",""2"",""7198""
""focus"",""19"",""294738""
""focus"",""19"",""297154""
","""event"",""trial"",""time""
""fullscreenenter"",""1"",""2311""
","
","","","474.89999985694885","","","14","7235","2708","&#9761;","elianto","#3366ff99","-1"," ","0","+10","[1326.3999998569489]","1","0","2","","","","","","","",""
"pit-trial","56","488391","0.0-2.0-11.3-4.3","battery-v0.2","","""event"",""trial"",""time""
""fullscreenenter"",""1"",""2311""
""blur"",""2"",""6270""
""focus"",""2"",""7198""
""blur"",""19"",""293536""
""focus"",""19"",""294738""
""blur"",""19"",""294779""
""focus"",""19"",""297154""
","""event"",""trial"",""time""
""blur"",""2"",""6270""
""blur"",""19"",""293536""
""blur"",""19"",""294779""
","""event"",""trial"",""time""
""focus"",""2"",""7198""
""focus"",""19"",""294738""
""focus"",""19"",""297154""
","""event"",""trial"",""time""
""fullscreenenter"",""1"",""2311""
","
","","","502.7999999523163","","","14","7235","2708","&#9761;","elianto","#3366ff99","-1"," ","0","0","[1355.5]","1","0","2","","","","","","","",""
"call-function","57","488396","0.0-2.0-12.0","battery-v0.2","","""event"",""trial"",""time""
""fullscreenenter"",""1"",""2311""
""blur"",""2"",""6270""
""focus"",""2"",""7198""
""blur"",""19"",""293536""
""focus"",""19"",""294738""
""blur"",""19"",""294779""
""focus"",""19"",""297154""
","""event"",""trial"",""time""
""blur"",""2"",""6270""
""blur"",""19"",""293536""
""blur"",""19"",""294779""
","""event"",""trial"",""time""
""focus"",""2"",""7198""
""focus"",""19"",""294738""
""focus"",""19"",""297154""
","""event"",""trial"",""time""
""fullscreenenter"",""1"",""2311""
","
","","","","","","","","","","","","","","","","","","","","","","","","","","",""
"pit-instructions","58","520895","0.0-2.0-13.0","battery-v0.2","","""event"",""trial"",""time""
""fullscreenenter"",""1"",""2311""
""blur"",""2"",""6270""
""focus"",""2"",""7198""
""blur"",""19"",""293536""
""focus"",""19"",""294738""
""blur"",""19"",""294779""
""focus"",""19"",""297154""
","""event"",""trial"",""time""
""blur"",""2"",""6270""
""blur"",""19"",""293536""
""blur"",""19"",""294779""
","""event"",""trial"",""time""
""focus"",""2"",""7198""
""focus"",""19"",""294738""
""focus"",""19"",""297154""
","""event"",""trial"",""time""
""fullscreenenter"",""1"",""2311""
","
","","[{""page_index"":0,""viewing_time"":5439.899999856949},{""page_index"":1,""viewing_time"":6013.600000143051},{""page_index"":2,""viewing_time"":3183.7999999523163},{""page_index"":3,""viewing_time"":11514.799999952316},{""page_index"":4,""viewing_time"":6346.700000047684}]","32499","","","","","","","","","","","","","","","","","","","","","","","",""
"pit-trial","59","525336","0.0-2.0-14.0-0.0","battery-v0.2","","""event"",""trial"",""time""
""fullscreenenter"",""1"",""2311""
""blur"",""2"",""6270""
""focus"",""2"",""7198""
""blur"",""19"",""293536""
""focus"",""19"",""294738""
""blur"",""19"",""294779""
""focus"",""19"",""297154""
","""event"",""trial"",""time""
""blur"",""2"",""6270""
""blur"",""19"",""293536""
""blur"",""19"",""294779""
","""event"",""trial"",""time""
""focus"",""2"",""7198""
""focus"",""19"",""294738""
""focus"",""19"",""297154""
","""event"",""trial"",""time""
""fullscreenenter"",""1"",""2311""
","
","","","1572.0999999046326","","","14","7235","2708","&#9826;","elianto","#f73b6a7A","-1"," ","0","-10","[2423.5999999046326]","1","0","3","","","","","","","",""
"pit-trial","60","528495","0.0-2.0-14.0-1.0","battery-v0.2","","""event"",""trial"",""time""
""fullscreenenter"",""1"",""2311""
""blur"",""2"",""6270""
""focus"",""2"",""7198""
""blur"",""19"",""293536""
""focus"",""19"",""294738""
""blur"",""19"",""294779""
""focus"",""19"",""297154""
","""event"",""trial"",""time""
""blur"",""2"",""6270""
""blur"",""19"",""293536""
""blur"",""19"",""294779""
","""event"",""trial"",""time""
""focus"",""2"",""7198""
""focus"",""19"",""294738""
""focus"",""19"",""297154""
","""event"",""trial"",""time""
""fullscreenenter"",""1"",""2311""
","
","","","291.2000000476837","","","14","7235","2708","&#9826;","elianto","#f73b6a7A","-1"," ","0","-10","[1146]","1","0","3","","","","","","","",""
"pit-trial","61","531740","0.0-2.0-14.0-2.0","battery-v0.2","","""event"",""trial"",""time""
""fullscreenenter"",""1"",""2311""
""blur"",""2"",""6270""
""focus"",""2"",""7198""
""blur"",""19"",""293536""
""focus"",""19"",""294738""
""blur"",""19"",""294779""
""focus"",""19"",""297154""
","""event"",""trial"",""time""
""blur"",""2"",""6270""
""blur"",""19"",""293536""
""blur"",""19"",""294779""
","""event"",""trial"",""time""
""focus"",""2"",""7198""
""focus"",""19"",""294738""
""focus"",""19"",""297154""
","""event"",""trial"",""time""
""fullscreenenter"",""1"",""2311""
","
","","","381.59999990463257","","","14","7235","2708","&#9826;","elianto","#f73b6a7A","-1"," ","0","-10","[1232.7999999523163]","1","0","3","","","","","","","",""
"pit-trial","62","535738","0.0-2.0-14.0-3.0","battery-v0.2","","""event"",""trial"",""time""
""fullscreenenter"",""1"",""2311""
""blur"",""2"",""6270""
""focus"",""2"",""7198""
""blur"",""19"",""293536""
""focus"",""19"",""294738""
""blur"",""19"",""294779""
""focus"",""19"",""297154""
","""event"",""trial"",""time""
""blur"",""2"",""6270""
""blur"",""19"",""293536""
""blur"",""19"",""294779""
","""event"",""trial"",""time""
""focus"",""2"",""7198""
""focus"",""19"",""294738""
""focus"",""19"",""297154""
","""event"",""trial"",""time""
""fullscreenenter"",""1"",""2311""
","
","","","1122.7999999523163","","","14","7235","2708","&#9826;","elianto","#f73b6a7A","-1"," ","0","0","[1977]","1","0","3","","","","","","","",""
"pit-trial","63","540615","0.0-2.0-14.0-4.0","battery-v0.2","","""event"",""trial"",""time""
""fullscreenenter"",""1"",""2311""
""blur"",""2"",""6270""
""focus"",""2"",""7198""
""blur"",""19"",""293536""
""focus"",""19"",""294738""
""blur"",""19"",""294779""
""focus"",""19"",""297154""
","""event"",""trial"",""time""
""blur"",""2"",""6270""
""blur"",""19"",""293536""
""blur"",""19"",""294779""
","""event"",""trial"",""time""
""focus"",""2"",""7198""
""focus"",""19"",""294738""
""focus"",""19"",""297154""
","""event"",""trial"",""time""
""fullscreenenter"",""1"",""2311""
","
","","","-1","","","14","7235","2708","&#9826;","elianto","#f73b6a7A","-1","-1","1","0","[]","0","0","3","","","","","","","",""
"pit-trial","64","545489","0.0-2.0-14.1-0.1","battery-v0.2","","""event"",""trial"",""time""
""fullscreenenter"",""1"",""2311""
""blur"",""2"",""6270""
""focus"",""2"",""7198""
""blur"",""19"",""293536""
""focus"",""19"",""294738""
""blur"",""19"",""294779""
""focus"",""19"",""297154""
","""event"",""trial"",""time""
""blur"",""2"",""6270""
""blur"",""19"",""293536""
""blur"",""19"",""294779""
","""event"",""trial"",""time""
""focus"",""2"",""7198""
""focus"",""19"",""294738""
""focus"",""19"",""297154""
","""event"",""trial"",""time""
""fullscreenenter"",""1"",""2311""
","
","","","-1","","","14","7235","2708","&#9826;","elianto","#f73b6a7A","-1","-1","1","0","[]","0","0","3","","","","","","","",""
"pit-trial","65","550360","0.0-2.0-14.1-1.1","battery-v0.2","","""event"",""trial"",""time""
""fullscreenenter"",""1"",""2311""
""blur"",""2"",""6270""
""focus"",""2"",""7198""
""blur"",""19"",""293536""
""focus"",""19"",""294738""
""blur"",""19"",""294779""
""focus"",""19"",""297154""
","""event"",""trial"",""time""
""blur"",""2"",""6270""
""blur"",""19"",""293536""
""blur"",""19"",""294779""
","""event"",""trial"",""time""
""focus"",""2"",""7198""
""focus"",""19"",""294738""
""focus"",""19"",""297154""
","""event"",""trial"",""time""
""fullscreenenter"",""1"",""2311""
","
","","","-1","","","14","7235","2708","&#9826;","elianto","#f73b6a7A","-1","-1","1","0","[]","0","0","3","","","","","","","",""
"pit-trial","66","555227","0.0-2.0-14.1-2.1","battery-v0.2","","""event"",""trial"",""time""
""fullscreenenter"",""1"",""2311""
""blur"",""2"",""6270""
""focus"",""2"",""7198""
""blur"",""19"",""293536""
""focus"",""19"",""294738""
""blur"",""19"",""294779""
""focus"",""19"",""297154""
","""event"",""trial"",""time""
""blur"",""2"",""6270""
""blur"",""19"",""293536""
""blur"",""19"",""294779""
","""event"",""trial"",""time""
""focus"",""2"",""7198""
""focus"",""19"",""294738""
""focus"",""19"",""297154""
","""event"",""trial"",""time""
""fullscreenenter"",""1"",""2311""
","
","","","-1","","","14","7235","2708","&#9826;","elianto","#f73b6a7A","-1","-1","1","0","[]","0","0","3","","","","","","","",""
"pit-trial","67","560097","0.0-2.0-14.1-3.1","battery-v0.2","","""event"",""trial"",""time""
""fullscreenenter"",""1"",""2311""
""blur"",""2"",""6270""
""focus"",""2"",""7198""
""blur"",""19"",""293536""
""focus"",""19"",""294738""
""blur"",""19"",""294779""
""focus"",""19"",""297154""
","""event"",""trial"",""time""
""blur"",""2"",""6270""
""blur"",""19"",""293536""
""blur"",""19"",""294779""
","""event"",""trial"",""time""
""focus"",""2"",""7198""
""focus"",""19"",""294738""
""focus"",""19"",""297154""
","""event"",""trial"",""time""
""fullscreenenter"",""1"",""2311""
","
","","","-1","","","14","7235","2708","&#9826;","elianto","#f73b6a7A","-1","-1","1","-10","[]","0","0","3","","","","","","","",""
"pit-trial","68","564966","0.0-2.0-14.1-4.1","battery-v0.2","","""event"",""trial"",""time""
""fullscreenenter"",""1"",""2311""
""blur"",""2"",""6270""
""focus"",""2"",""7198""
""blur"",""19"",""293536""
""focus"",""19"",""294738""
""blur"",""19"",""294779""
""focus"",""19"",""297154""
","""event"",""trial"",""time""
""blur"",""2"",""6270""
""blur"",""19"",""293536""
""blur"",""19"",""294779""
","""event"",""trial"",""time""
""focus"",""2"",""7198""
""focus"",""19"",""294738""
""focus"",""19"",""297154""
","""event"",""trial"",""time""
""fullscreenenter"",""1"",""2311""
","
","","","-1","","","14","7235","2708","&#9826;","elianto","#f73b6a7A","-1","-1","1","0","[]","0","0","3","","","","","","","",""
"pit-trial","69","569825","0.0-2.0-14.2-0.2","battery-v0.2","","""event"",""trial"",""time""
""fullscreenenter"",""1"",""2311""
""blur"",""2"",""6270""
""focus"",""2"",""7198""
""blur"",""19"",""293536""
""focus"",""19"",""294738""
""blur"",""19"",""294779""
""focus"",""19"",""297154""
","""event"",""trial"",""time""
""blur"",""2"",""6270""
""blur"",""19"",""293536""
""blur"",""19"",""294779""
","""event"",""trial"",""time""
""focus"",""2"",""7198""
""focus"",""19"",""294738""
""focus"",""19"",""297154""
","""event"",""trial"",""time""
""fullscreenenter"",""1"",""2311""
","
","","","-1","","","14","7235","2708","&#9826;","elianto","#f73b6a7A","-1","-1","1","0","[]","0","0","3","","","","","","","",""
"pit-trial","70","574703","0.0-2.0-14.2-1.2","battery-v0.2","","""event"",""trial"",""time""
""fullscreenenter"",""1"",""2311""
""blur"",""2"",""6270""
""focus"",""2"",""7198""
""blur"",""19"",""293536""
""focus"",""19"",""294738""
""blur"",""19"",""294779""
""focus"",""19"",""297154""
","""event"",""trial"",""time""
""blur"",""2"",""6270""
""blur"",""19"",""293536""
""blur"",""19"",""294779""
","""event"",""trial"",""time""
""focus"",""2"",""7198""
""focus"",""19"",""294738""
""focus"",""19"",""297154""
","""event"",""trial"",""time""
""fullscreenenter"",""1"",""2311""
","
","","","-1","","","14","7235","2708","&#9826;","elianto","#f73b6a7A","-1","-1","1","0","[]","0","0","3","","","","","","","",""
"pit-trial","71","579569","0.0-2.0-14.2-2.2","battery-v0.2","","""event"",""trial"",""time""
""fullscreenenter"",""1"",""2311""
""blur"",""2"",""6270""
""focus"",""2"",""7198""
""blur"",""19"",""293536""
""focus"",""19"",""294738""
""blur"",""19"",""294779""
""focus"",""19"",""297154""
","""event"",""trial"",""time""
""blur"",""2"",""6270""
""blur"",""19"",""293536""
""blur"",""19"",""294779""
","""event"",""trial"",""time""
""focus"",""2"",""7198""
""focus"",""19"",""294738""
""focus"",""19"",""297154""
","""event"",""trial"",""time""
""fullscreenenter"",""1"",""2311""
","
","","","-1","","","14","7235","2708","&#9826;","elianto","#f73b6a7A","-1","-1","1","0","[]","0","0","3","","","","","","","",""
"pit-trial","72","584453","0.0-2.0-14.2-3.2","battery-v0.2","","""event"",""trial"",""time""
""fullscreenenter"",""1"",""2311""
""blur"",""2"",""6270""
""focus"",""2"",""7198""
""blur"",""19"",""293536""
""focus"",""19"",""294738""
""blur"",""19"",""294779""
""focus"",""19"",""297154""
","""event"",""trial"",""time""
""blur"",""2"",""6270""
""blur"",""19"",""293536""
""blur"",""19"",""294779""
","""event"",""trial"",""time""
""focus"",""2"",""7198""
""focus"",""19"",""294738""
""focus"",""19"",""297154""
","""event"",""trial"",""time""
""fullscreenenter"",""1"",""2311""
","
","","","-1","","","14","7235","2708","&#9826;","elianto","#f73b6a7A","-1","-1","1","-10","[]","0","0","3","","","","","","","",""
"pit-trial","73","589329","0.0-2.0-14.2-4.2","battery-v0.2","","""event"",""trial"",""time""
""fullscreenenter"",""1"",""2311""
""blur"",""2"",""6270""
""focus"",""2"",""7198""
""blur"",""19"",""293536""
""focus"",""19"",""294738""
""blur"",""19"",""294779""
""focus"",""19"",""297154""
","""event"",""trial"",""time""
""blur"",""2"",""6270""
""blur"",""19"",""293536""
""blur"",""19"",""294779""
","""event"",""trial"",""time""
""focus"",""2"",""7198""
""focus"",""19"",""294738""
""focus"",""19"",""297154""
","""event"",""trial"",""time""
""fullscreenenter"",""1"",""2311""
","
","","","-1","","","14","7235","2708","&#9826;","elianto","#f73b6a7A","-1","-1","1","0","[]","0","0","3","","","","","","","",""
"pit-trial","74","592742","0.0-2.0-14.3-0.3","battery-v0.2","","""event"",""trial"",""time""
""fullscreenenter"",""1"",""2311""
""blur"",""2"",""6270""
""focus"",""2"",""7198""
""blur"",""19"",""293536""
""focus"",""19"",""294738""
""blur"",""19"",""294779""
""focus"",""19"",""297154""
","""event"",""trial"",""time""
""blur"",""2"",""6270""
""blur"",""19"",""293536""
""blur"",""19"",""294779""
","""event"",""trial"",""time""
""focus"",""2"",""7198""
""focus"",""19"",""294738""
""focus"",""19"",""297154""
","""event"",""trial"",""time""
""fullscreenenter"",""1"",""2311""
","
","","","550.2000000476837","","","14","7235","2708","&#9826;","elianto","#f73b6a7A","-1"," ","0","-10","[1403.7000000476837]","1","0","3","","","","","","","",""
"pit-trial","75","597608","0.0-2.0-14.3-1.3","battery-v0.2","","""event"",""trial"",""time""
""fullscreenenter"",""1"",""2311""
""blur"",""2"",""6270""
""focus"",""2"",""7198""
""blur"",""19"",""293536""
""focus"",""19"",""294738""
""blur"",""19"",""294779""
""focus"",""19"",""297154""
","""event"",""trial"",""time""
""blur"",""2"",""6270""
""blur"",""19"",""293536""
""blur"",""19"",""294779""
","""event"",""trial"",""time""
""focus"",""2"",""7198""
""focus"",""19"",""294738""
""focus"",""19"",""297154""
","""event"",""trial"",""time""
""fullscreenenter"",""1"",""2311""
","
","","","-1","","","14","7235","2708","&#9826;","elianto","#f73b6a7A","-1","-1","1","0","[]","0","0","3","","","","","","","",""
"pit-trial","76","602472","0.0-2.0-14.3-2.3","battery-v0.2","","""event"",""trial"",""time""
""fullscreenenter"",""1"",""2311""
""blur"",""2"",""6270""
""focus"",""2"",""7198""
""blur"",""19"",""293536""
""focus"",""19"",""294738""
""blur"",""19"",""294779""
""focus"",""19"",""297154""
","""event"",""trial"",""time""
""blur"",""2"",""6270""
""blur"",""19"",""293536""
""blur"",""19"",""294779""
","""event"",""trial"",""time""
""focus"",""2"",""7198""
""focus"",""19"",""294738""
""focus"",""19"",""297154""
","""event"",""trial"",""time""
""fullscreenenter"",""1"",""2311""
","
","","","-1","","","14","7235","2708","&#9826;","elianto","#f73b6a7A","-1","-1","1","0","[]","0","0","3","","","","","","","",""
"pit-trial","77","607342","0.0-2.0-14.3-3.3","battery-v0.2","","""event"",""trial"",""time""
""fullscreenenter"",""1"",""2311""
""blur"",""2"",""6270""
""focus"",""2"",""7198""
""blur"",""19"",""293536""
""focus"",""19"",""294738""
""blur"",""19"",""294779""
""focus"",""19"",""297154""
","""event"",""trial"",""time""
""blur"",""2"",""6270""
""blur"",""19"",""293536""
""blur"",""19"",""294779""
","""event"",""trial"",""time""
""focus"",""2"",""7198""
""focus"",""19"",""294738""
""focus"",""19"",""297154""
","""event"",""trial"",""time""
""fullscreenenter"",""1"",""2311""
","
","","","-1","","","14","7235","2708","&#9826;","elianto","#f73b6a7A","-1","-1","1","-10","[]","0","0","3","","","","","","","",""
"pit-trial","78","612202","0.0-2.0-14.3-4.3","battery-v0.2","","""event"",""trial"",""time""
""fullscreenenter"",""1"",""2311""
""blur"",""2"",""6270""
""focus"",""2"",""7198""
""blur"",""19"",""293536""
""focus"",""19"",""294738""
""blur"",""19"",""294779""
""focus"",""19"",""297154""
","""event"",""trial"",""time""
""blur"",""2"",""6270""
""blur"",""19"",""293536""
""blur"",""19"",""294779""
","""event"",""trial"",""time""
""focus"",""2"",""7198""
""focus"",""19"",""294738""
""focus"",""19"",""297154""
","""event"",""trial"",""time""
""fullscreenenter"",""1"",""2311""
","
","","","-1","","","14","7235","2708","&#9826;","elianto","#f73b6a7A","-1","-1","1","0","[]","0","0","3","","","","","","","",""
"call-function","79","612204","0.0-2.0-15.0","battery-v0.2","","""event"",""trial"",""time""
""fullscreenenter"",""1"",""2311""
""blur"",""2"",""6270""
""focus"",""2"",""7198""
""blur"",""19"",""293536""
""focus"",""19"",""294738""
""blur"",""19"",""294779""
""focus"",""19"",""297154""
""blur"",""80"",""623805""
""focus"",""80"",""625607""
""blur"",""80"",""628661""
""focus"",""80"",""633353""
""blur"",""80"",""635424""
""focus"",""80"",""639492""
","""event"",""trial"",""time""
""blur"",""2"",""6270""
""blur"",""19"",""293536""
""blur"",""19"",""294779""
""blur"",""80"",""623805""
""blur"",""80"",""628661""
""blur"",""80"",""635424""
","""event"",""trial"",""time""
""focus"",""2"",""7198""
""focus"",""19"",""294738""
""focus"",""19"",""297154""
""focus"",""80"",""625607""
""focus"",""80"",""633353""
""focus"",""80"",""639492""
","""event"",""trial"",""time""
""fullscreenenter"",""1"",""2311""
","
","","","","","","","","","","","","","","","","","","","","","","","","","","",""
"pit-instructions","80","640655","0.0-2.0-16.0","battery-v0.2","","""event"",""trial"",""time""
""fullscreenenter"",""1"",""2311""
""blur"",""2"",""6270""
""focus"",""2"",""7198""
""blur"",""19"",""293536""
""focus"",""19"",""294738""
""blur"",""19"",""294779""
""focus"",""19"",""297154""
""blur"",""80"",""623805""
""focus"",""80"",""625607""
""blur"",""80"",""628661""
""focus"",""80"",""633353""
""blur"",""80"",""635424""
""focus"",""80"",""639492""
","""event"",""trial"",""time""
""blur"",""2"",""6270""
""blur"",""19"",""293536""
""blur"",""19"",""294779""
""blur"",""80"",""623805""
""blur"",""80"",""628661""
""blur"",""80"",""635424""
","""event"",""trial"",""time""
""focus"",""2"",""7198""
""focus"",""19"",""294738""
""focus"",""19"",""297154""
""focus"",""80"",""625607""
""focus"",""80"",""633353""
""focus"",""80"",""639492""
","""event"",""trial"",""time""
""fullscreenenter"",""1"",""2311""
","
","","[{""page_index"":0,""viewing_time"":6013.200000047684},{""page_index"":1,""viewing_time"":8630.299999952316},{""page_index"":2,""viewing_time"":7640.299999952316},{""page_index"":3,""viewing_time"":6166.800000190735}]","28451","","","","","","","","","","","","","","","","","","","","","","","",""
"pit-trial","81","644636","0.0-2.0-17.0-0.0","battery-v0.2","","""event"",""trial"",""time""
""fullscreenenter"",""1"",""2311""
""blur"",""2"",""6270""
""focus"",""2"",""7198""
""blur"",""19"",""293536""
""focus"",""19"",""294738""
""blur"",""19"",""294779""
""focus"",""19"",""297154""
""blur"",""80"",""623805""
""focus"",""80"",""625607""
""blur"",""80"",""628661""
""focus"",""80"",""633353""
""blur"",""80"",""635424""
""focus"",""80"",""639492""
","""event"",""trial"",""time""
""blur"",""2"",""6270""
""blur"",""19"",""293536""
""blur"",""19"",""294779""
""blur"",""80"",""623805""
""blur"",""80"",""628661""
""blur"",""80"",""635424""
","""event"",""trial"",""time""
""focus"",""2"",""7198""
""focus"",""19"",""294738""
""focus"",""19"",""297154""
""focus"",""80"",""625607""
""focus"",""80"",""633353""
""focus"",""80"",""639492""
","""event"",""trial"",""time""
""fullscreenenter"",""1"",""2311""
","
","","","1124.1000001430511","","","14","7235","2708","&#9789;","elianto","#f73b6a7A"," "," ","1","0","[1975.9000000953674]","1","0","4","","","","","","","",""
"pit-trial","82","647678","0.0-2.0-17.0-1.0","battery-v0.2","","""event"",""trial"",""time""
""fullscreenenter"",""1"",""2311""
""blur"",""2"",""6270""
""focus"",""2"",""7198""
""blur"",""19"",""293536""
""focus"",""19"",""294738""
""blur"",""19"",""294779""
""focus"",""19"",""297154""
""blur"",""80"",""623805""
""focus"",""80"",""625607""
""blur"",""80"",""628661""
""focus"",""80"",""633353""
""blur"",""80"",""635424""
""focus"",""80"",""639492""
","""event"",""trial"",""time""
""blur"",""2"",""6270""
""blur"",""19"",""293536""
""blur"",""19"",""294779""
""blur"",""80"",""623805""
""blur"",""80"",""628661""
""blur"",""80"",""635424""
","""event"",""trial"",""time""
""focus"",""2"",""7198""
""focus"",""19"",""294738""
""focus"",""19"",""297154""
""focus"",""80"",""625607""
""focus"",""80"",""633353""
""focus"",""80"",""639492""
","""event"",""trial"",""time""
""fullscreenenter"",""1"",""2311""
","
","","","180.29999995231628","","","14","7235","2708","&#9789;","elianto","#f73b6a7A"," "," ","1","0","[1033.2999999523163]","1","0","4","","","","","","","",""
"pit-trial","83","652548","0.0-2.0-17.0-2.0","battery-v0.2","","""event"",""trial"",""time""
""fullscreenenter"",""1"",""2311""
""blur"",""2"",""6270""
""focus"",""2"",""7198""
""blur"",""19"",""293536""
""focus"",""19"",""294738""
""blur"",""19"",""294779""
""focus"",""19"",""297154""
""blur"",""80"",""623805""
""focus"",""80"",""625607""
""blur"",""80"",""628661""
""focus"",""80"",""633353""
""blur"",""80"",""635424""
""focus"",""80"",""639492""
""blur"",""84"",""654369""
","""event"",""trial"",""time""
""blur"",""2"",""6270""
""blur"",""19"",""293536""
""blur"",""19"",""294779""
""blur"",""80"",""623805""
""blur"",""80"",""628661""
""blur"",""80"",""635424""
""blur"",""84"",""654369""
","""event"",""trial"",""time""
""focus"",""2"",""7198""
""focus"",""19"",""294738""
""focus"",""19"",""297154""
""focus"",""80"",""625607""
""focus"",""80"",""633353""
""focus"",""80"",""639492""
","""event"",""trial"",""time""
""fullscreenenter"",""1"",""2311""
","
","","","-1","","","14","7235","2708","&#9789;","elianto","#f73b6a7A"," ","-1","0","-10","[]","0","0","4","","","","","","","",""
"pit-trial","84","655656","0.0-2.0-17.0-3.0","battery-v0.2","","""event"",""trial"",""time""
""fullscreenenter"",""1"",""2311""
""blur"",""2"",""6270""
""focus"",""2"",""7198""
""blur"",""19"",""293536""
""focus"",""19"",""294738""
""blur"",""19"",""294779""
""focus"",""19"",""297154""
""blur"",""80"",""623805""
""focus"",""80"",""625607""
""blur"",""80"",""628661""
""focus"",""80"",""633353""
""blur"",""80"",""635424""
""focus"",""80"",""639492""
""blur"",""84"",""654369""
""focus"",""85"",""659625""
","""event"",""trial"",""time""
""blur"",""2"",""6270""
""blur"",""19"",""293536""
""blur"",""19"",""294779""
""blur"",""80"",""623805""
""blur"",""80"",""628661""
""blur"",""80"",""635424""
""blur"",""84"",""654369""
","""event"",""trial"",""time""
""focus"",""2"",""7198""
""focus"",""19"",""294738""
""focus"",""19"",""297154""
""focus"",""80"",""625607""
""focus"",""80"",""633353""
""focus"",""80"",""639492""
""focus"",""85"",""659625""
","""event"",""trial"",""time""
""fullscreenenter"",""1"",""2311""
","
","","","245","","","14","7235","2708","&#9789;","elianto","#f73b6a7A"," "," ","1","-10","[1095.9000000953674]","1","0","4","","","","","","","",""
"pit-trial","85","660529","0.0-2.0-17.0-4.0","battery-v0.2","","""event"",""trial"",""time""
""fullscreenenter"",""1"",""2311""
""blur"",""2"",""6270""
""focus"",""2"",""7198""
""blur"",""19"",""293536""
""focus"",""19"",""294738""
""blur"",""19"",""294779""
""focus"",""19"",""297154""
""blur"",""80"",""623805""
""focus"",""80"",""625607""
""blur"",""80"",""628661""
""focus"",""80"",""633353""
""blur"",""80"",""635424""
""focus"",""80"",""639492""
""blur"",""84"",""654369""
""focus"",""85"",""659625""
","""event"",""trial"",""time""
""blur"",""2"",""6270""
""blur"",""19"",""293536""
""blur"",""19"",""294779""
""blur"",""80"",""623805""
""blur"",""80"",""628661""
""blur"",""80"",""635424""
""blur"",""84"",""654369""
","""event"",""trial"",""time""
""focus"",""2"",""7198""
""focus"",""19"",""294738""
""focus"",""19"",""297154""
""focus"",""80"",""625607""
""focus"",""80"",""633353""
""focus"",""80"",""639492""
""focus"",""85"",""659625""
","""event"",""trial"",""time""
""fullscreenenter"",""1"",""2311""
","
","","","-1","","","14","7235","2708","&#9789;","elianto","#f73b6a7A"," ","-1","0","-10","[]","0","0","4","","","","","","","",""
"pit-trial","86","663758","0.0-2.0-17.1-0.1","battery-v0.2","","""event"",""trial"",""time""
""fullscreenenter"",""1"",""2311""
""blur"",""2"",""6270""
""focus"",""2"",""7198""
""blur"",""19"",""293536""
""focus"",""19"",""294738""
""blur"",""19"",""294779""
""focus"",""19"",""297154""
""blur"",""80"",""623805""
""focus"",""80"",""625607""
""blur"",""80"",""628661""
""focus"",""80"",""633353""
""blur"",""80"",""635424""
""focus"",""80"",""639492""
""blur"",""84"",""654369""
""focus"",""85"",""659625""
","""event"",""trial"",""time""
""blur"",""2"",""6270""
""blur"",""19"",""293536""
""blur"",""19"",""294779""
""blur"",""80"",""623805""
""blur"",""80"",""628661""
""blur"",""80"",""635424""
""blur"",""84"",""654369""
","""event"",""trial"",""time""
""focus"",""2"",""7198""
""focus"",""19"",""294738""
""focus"",""19"",""297154""
""focus"",""80"",""625607""
""focus"",""80"",""633353""
""focus"",""80"",""639492""
""focus"",""85"",""659625""
","""event"",""trial"",""time""
""fullscreenenter"",""1"",""2311""
","
","","","366.5","","","14","7235","2708","&#9789;","elianto","#f73b6a7A"," "," ","1","0","[1219.2999999523163]","1","0","4","","","","","","","",""
"pit-trial","87","667915","0.0-2.0-17.1-1.1","battery-v0.2","","""event"",""trial"",""time""
""fullscreenenter"",""1"",""2311""
""blur"",""2"",""6270""
""focus"",""2"",""7198""
""blur"",""19"",""293536""
""focus"",""19"",""294738""
""blur"",""19"",""294779""
""focus"",""19"",""297154""
""blur"",""80"",""623805""
""focus"",""80"",""625607""
""blur"",""80"",""628661""
""focus"",""80"",""633353""
""blur"",""80"",""635424""
""focus"",""80"",""639492""
""blur"",""84"",""654369""
""focus"",""85"",""659625""
","""event"",""trial"",""time""
""blur"",""2"",""6270""
""blur"",""19"",""293536""
""blur"",""19"",""294779""
""blur"",""80"",""623805""
""blur"",""80"",""628661""
""blur"",""80"",""635424""
""blur"",""84"",""654369""
","""event"",""trial"",""time""
""focus"",""2"",""7198""
""focus"",""19"",""294738""
""focus"",""19"",""297154""
""focus"",""80"",""625607""
""focus"",""80"",""633353""
""focus"",""80"",""639492""
""focus"",""85"",""659625""
","""event"",""trial"",""time""
""fullscreenenter"",""1"",""2311""
","
","","","1301","","","14","7235","2708","&#9789;","elianto","#f73b6a7A"," "," ","1","0","[2154.2000000476837]","1","0","4","","","","","","","",""
"pit-trial","88","672774","0.0-2.0-17.1-2.1","battery-v0.2","","""event"",""trial"",""time""
""fullscreenenter"",""1"",""2311""
""blur"",""2"",""6270""
""focus"",""2"",""7198""
""blur"",""19"",""293536""
""focus"",""19"",""294738""
""blur"",""19"",""294779""
""focus"",""19"",""297154""
""blur"",""80"",""623805""
""focus"",""80"",""625607""
""blur"",""80"",""628661""
""focus"",""80"",""633353""
""blur"",""80"",""635424""
""focus"",""80"",""639492""
""blur"",""84"",""654369""
""focus"",""85"",""659625""
","""event"",""trial"",""time""
""blur"",""2"",""6270""
""blur"",""19"",""293536""
""blur"",""19"",""294779""
""blur"",""80"",""623805""
""blur"",""80"",""628661""
""blur"",""80"",""635424""
""blur"",""84"",""654369""
","""event"",""trial"",""time""
""focus"",""2"",""7198""
""focus"",""19"",""294738""
""focus"",""19"",""297154""
""focus"",""80"",""625607""
""focus"",""80"",""633353""
""focus"",""80"",""639492""
""focus"",""85"",""659625""
","""event"",""trial"",""time""
""fullscreenenter"",""1"",""2311""
","
","","","-1","","","14","7235","2708","&#9789;","elianto","#f73b6a7A"," ","-1","0","-10","[]","0","0","4","","","","","","","",""
"pit-trial","89","676050","0.0-2.0-17.1-3.1","battery-v0.2","","""event"",""trial"",""time""
""fullscreenenter"",""1"",""2311""
""blur"",""2"",""6270""
""focus"",""2"",""7198""
""blur"",""19"",""293536""
""focus"",""19"",""294738""
""blur"",""19"",""294779""
""focus"",""19"",""297154""
""blur"",""80"",""623805""
""focus"",""80"",""625607""
""blur"",""80"",""628661""
""focus"",""80"",""633353""
""blur"",""80"",""635424""
""focus"",""80"",""639492""
""blur"",""84"",""654369""
""focus"",""85"",""659625""
","""event"",""trial"",""time""
""blur"",""2"",""6270""
""blur"",""19"",""293536""
""blur"",""19"",""294779""
""blur"",""80"",""623805""
""blur"",""80"",""628661""
""blur"",""80"",""635424""
""blur"",""84"",""654369""
","""event"",""trial"",""time""
""focus"",""2"",""7198""
""focus"",""19"",""294738""
""focus"",""19"",""297154""
""focus"",""80"",""625607""
""focus"",""80"",""633353""
""focus"",""80"",""639492""
""focus"",""85"",""659625""
","""event"",""trial"",""time""
""fullscreenenter"",""1"",""2311""
","
","","","414.10000014305115","","","14","7235","2708","&#9789;","elianto","#f73b6a7A"," "," ","1","-10","[1265.7999999523163]","1","0","4","","","","","","","",""
"pit-trial","90","679115","0.0-2.0-17.1-4.1","battery-v0.2","","""event"",""trial"",""time""
""fullscreenenter"",""1"",""2311""
""blur"",""2"",""6270""
""focus"",""2"",""7198""
""blur"",""19"",""293536""
""focus"",""19"",""294738""
""blur"",""19"",""294779""
""focus"",""19"",""297154""
""blur"",""80"",""623805""
""focus"",""80"",""625607""
""blur"",""80"",""628661""
""focus"",""80"",""633353""
""blur"",""80"",""635424""
""focus"",""80"",""639492""
""blur"",""84"",""654369""
""focus"",""85"",""659625""
","""event"",""trial"",""time""
""blur"",""2"",""6270""
""blur"",""19"",""293536""
""blur"",""19"",""294779""
""blur"",""80"",""623805""
""blur"",""80"",""628661""
""blur"",""80"",""635424""
""blur"",""84"",""654369""
","""event"",""trial"",""time""
""focus"",""2"",""7198""
""focus"",""19"",""294738""
""focus"",""19"",""297154""
""focus"",""80"",""625607""
""focus"",""80"",""633353""
""focus"",""80"",""639492""
""focus"",""85"",""659625""
","""event"",""trial"",""time""
""fullscreenenter"",""1"",""2311""
","
","","","205.40000009536743","","","14","7235","2708","&#9789;","elianto","#f73b6a7A"," "," ","1","0","[1056.2000000476837]","1","0","4","","","","","","","",""
"pit-trial","91","683982","0.0-2.0-17.2-0.2","battery-v0.2","","""event"",""trial"",""time""
""fullscreenenter"",""1"",""2311""
""blur"",""2"",""6270""
""focus"",""2"",""7198""
""blur"",""19"",""293536""
""focus"",""19"",""294738""
""blur"",""19"",""294779""
""focus"",""19"",""297154""
""blur"",""80"",""623805""
""focus"",""80"",""625607""
""blur"",""80"",""628661""
""focus"",""80"",""633353""
""blur"",""80"",""635424""
""focus"",""80"",""639492""
""blur"",""84"",""654369""
""focus"",""85"",""659625""
","""event"",""trial"",""time""
""blur"",""2"",""6270""
""blur"",""19"",""293536""
""blur"",""19"",""294779""
""blur"",""80"",""623805""
""blur"",""80"",""628661""
""blur"",""80"",""635424""
""blur"",""84"",""654369""
","""event"",""trial"",""time""
""focus"",""2"",""7198""
""focus"",""19"",""294738""
""focus"",""19"",""297154""
""focus"",""80"",""625607""
""focus"",""80"",""633353""
""focus"",""80"",""639492""
""focus"",""85"",""659625""
","""event"",""trial"",""time""
""fullscreenenter"",""1"",""2311""
","
","","","-1","","","14","7235","2708","&#9789;","elianto","#f73b6a7A"," ","-1","0","-10","[]","0","0","4","","","","","","","",""
"pit-trial","92","687849","0.0-2.0-17.2-1.2","battery-v0.2","","""event"",""trial"",""time""
""fullscreenenter"",""1"",""2311""
""blur"",""2"",""6270""
""focus"",""2"",""7198""
""blur"",""19"",""293536""
""focus"",""19"",""294738""
""blur"",""19"",""294779""
""focus"",""19"",""297154""
""blur"",""80"",""623805""
""focus"",""80"",""625607""
""blur"",""80"",""628661""
""focus"",""80"",""633353""
""blur"",""80"",""635424""
""focus"",""80"",""639492""
""blur"",""84"",""654369""
""focus"",""85"",""659625""
","""event"",""trial"",""time""
""blur"",""2"",""6270""
""blur"",""19"",""293536""
""blur"",""19"",""294779""
""blur"",""80"",""623805""
""blur"",""80"",""628661""
""blur"",""80"",""635424""
""blur"",""84"",""654369""
","""event"",""trial"",""time""
""focus"",""2"",""7198""
""focus"",""19"",""294738""
""focus"",""19"",""297154""
""focus"",""80"",""625607""
""focus"",""80"",""633353""
""focus"",""80"",""639492""
""focus"",""85"",""659625""
","""event"",""trial"",""time""
""fullscreenenter"",""1"",""2311""
","
","","","1013.2999999523163","","","14","7235","2708","&#9789;","elianto","#f73b6a7A"," "," ","1","0","[1863.3999998569489]","1","0","4","","","","","","","",""
"pit-trial","93","692116","0.0-2.0-17.2-2.2","battery-v0.2","","""event"",""trial"",""time""
""fullscreenenter"",""1"",""2311""
""blur"",""2"",""6270""
""focus"",""2"",""7198""
""blur"",""19"",""293536""
""focus"",""19"",""294738""
""blur"",""19"",""294779""
""focus"",""19"",""297154""
""blur"",""80"",""623805""
""focus"",""80"",""625607""
""blur"",""80"",""628661""
""focus"",""80"",""633353""
""blur"",""80"",""635424""
""focus"",""80"",""639492""
""blur"",""84"",""654369""
""focus"",""85"",""659625""
","""event"",""trial"",""time""
""blur"",""2"",""6270""
""blur"",""19"",""293536""
""blur"",""19"",""294779""
""blur"",""80"",""623805""
""blur"",""80"",""628661""
""blur"",""80"",""635424""
""blur"",""84"",""654369""
","""event"",""trial"",""time""
""focus"",""2"",""7198""
""focus"",""19"",""294738""
""focus"",""19"",""297154""
""focus"",""80"",""625607""
""focus"",""80"",""633353""
""focus"",""80"",""639492""
""focus"",""85"",""659625""
","""event"",""trial"",""time""
""fullscreenenter"",""1"",""2311""
","
","","","1405.8000001907349","","","14","7235","2708","&#9789;","elianto","#f73b6a7A"," "," ","1","0","[2256.9000000953674]","1","0","4","","","","","","","",""
"pit-trial","94","696977","0.0-2.0-17.2-3.2","battery-v0.2","","""event"",""trial"",""time""
""fullscreenenter"",""1"",""2311""
""blur"",""2"",""6270""
""focus"",""2"",""7198""
""blur"",""19"",""293536""
""focus"",""19"",""294738""
""blur"",""19"",""294779""
""focus"",""19"",""297154""
""blur"",""80"",""623805""
""focus"",""80"",""625607""
""blur"",""80"",""628661""
""focus"",""80"",""633353""
""blur"",""80"",""635424""
""focus"",""80"",""639492""
""blur"",""84"",""654369""
""focus"",""85"",""659625""
","""event"",""trial"",""time""
""blur"",""2"",""6270""
""blur"",""19"",""293536""
""blur"",""19"",""294779""
""blur"",""80"",""623805""
""blur"",""80"",""628661""
""blur"",""80"",""635424""
""blur"",""84"",""654369""
","""event"",""trial"",""time""
""focus"",""2"",""7198""
""focus"",""19"",""294738""
""focus"",""19"",""297154""
""focus"",""80"",""625607""
""focus"",""80"",""633353""
""focus"",""80"",""639492""
""focus"",""85"",""659625""
","""event"",""trial"",""time""
""fullscreenenter"",""1"",""2311""
","
","","","-1","","","14","7235","2708","&#9789;","elianto","#f73b6a7A"," ","-1","0","0","[]","0","0","4","","","","","","","",""
"pit-trial","95","700249","0.0-2.0-17.2-4.2","battery-v0.2","","""event"",""trial"",""time""
""fullscreenenter"",""1"",""2311""
""blur"",""2"",""6270""
""focus"",""2"",""7198""
""blur"",""19"",""293536""
""focus"",""19"",""294738""
""blur"",""19"",""294779""
""focus"",""19"",""297154""
""blur"",""80"",""623805""
""focus"",""80"",""625607""
""blur"",""80"",""628661""
""focus"",""80"",""633353""
""blur"",""80"",""635424""
""focus"",""80"",""639492""
""blur"",""84"",""654369""
""focus"",""85"",""659625""
","""event"",""trial"",""time""
""blur"",""2"",""6270""
""blur"",""19"",""293536""
""blur"",""19"",""294779""
""blur"",""80"",""623805""
""blur"",""80"",""628661""
""blur"",""80"",""635424""
""blur"",""84"",""654369""
","""event"",""trial"",""time""
""focus"",""2"",""7198""
""focus"",""19"",""294738""
""focus"",""19"",""297154""
""focus"",""80"",""625607""
""focus"",""80"",""633353""
""focus"",""80"",""639492""
""focus"",""85"",""659625""
","""event"",""trial"",""time""
""fullscreenenter"",""1"",""2311""
","
","","","413.60000014305115","","","14","7235","2708","&#9789;","elianto","#f73b6a7A"," "," ","1","0","[1263.6000001430511]","1","0","4","","","","","","","",""
"pit-trial","96","705114","0.0-2.0-17.3-0.3","battery-v0.2","","""event"",""trial"",""time""
""fullscreenenter"",""1"",""2311""
""blur"",""2"",""6270""
""focus"",""2"",""7198""
""blur"",""19"",""293536""
""focus"",""19"",""294738""
""blur"",""19"",""294779""
""focus"",""19"",""297154""
""blur"",""80"",""623805""
""focus"",""80"",""625607""
""blur"",""80"",""628661""
""focus"",""80"",""633353""
""blur"",""80"",""635424""
""focus"",""80"",""639492""
""blur"",""84"",""654369""
""focus"",""85"",""659625""
","""event"",""trial"",""time""
""blur"",""2"",""6270""
""blur"",""19"",""293536""
""blur"",""19"",""294779""
""blur"",""80"",""623805""
""blur"",""80"",""628661""
""blur"",""80"",""635424""
""blur"",""84"",""654369""
","""event"",""trial"",""time""
""focus"",""2"",""7198""
""focus"",""19"",""294738""
""focus"",""19"",""297154""
""focus"",""80"",""625607""
""focus"",""80"",""633353""
""focus"",""80"",""639492""
""focus"",""85"",""659625""
","""event"",""trial"",""time""
""fullscreenenter"",""1"",""2311""
","
","","","-1","","","14","7235","2708","&#9789;","elianto","#f73b6a7A"," ","-1","0","-10","[]","0","0","4","","","","","","","",""
"pit-trial","97","708123","0.0-2.0-17.3-1.3","battery-v0.2","","""event"",""trial"",""time""
""fullscreenenter"",""1"",""2311""
""blur"",""2"",""6270""
""focus"",""2"",""7198""
""blur"",""19"",""293536""
""focus"",""19"",""294738""
""blur"",""19"",""294779""
""focus"",""19"",""297154""
""blur"",""80"",""623805""
""focus"",""80"",""625607""
""blur"",""80"",""628661""
""focus"",""80"",""633353""
""blur"",""80"",""635424""
""focus"",""80"",""639492""
""blur"",""84"",""654369""
""focus"",""85"",""659625""
","""event"",""trial"",""time""
""blur"",""2"",""6270""
""blur"",""19"",""293536""
""blur"",""19"",""294779""
""blur"",""80"",""623805""
""blur"",""80"",""628661""
""blur"",""80"",""635424""
""blur"",""84"",""654369""
","""event"",""trial"",""time""
""focus"",""2"",""7198""
""focus"",""19"",""294738""
""focus"",""19"",""297154""
""focus"",""80"",""625607""
""focus"",""80"",""633353""
""focus"",""80"",""639492""
""focus"",""85"",""659625""
","""event"",""trial"",""time""
""fullscreenenter"",""1"",""2311""
","
","","","145.90000009536743","","","14","7235","2708","&#9789;","elianto","#f73b6a7A"," "," ","1","0","[997]","1","0","4","","","","","","","",""
"pit-trial","98","711430","0.0-2.0-17.3-2.3","battery-v0.2","","""event"",""trial"",""time""
""fullscreenenter"",""1"",""2311""
""blur"",""2"",""6270""
""focus"",""2"",""7198""
""blur"",""19"",""293536""
""focus"",""19"",""294738""
""blur"",""19"",""294779""
""focus"",""19"",""297154""
""blur"",""80"",""623805""
""focus"",""80"",""625607""
""blur"",""80"",""628661""
""focus"",""80"",""633353""
""blur"",""80"",""635424""
""focus"",""80"",""639492""
""blur"",""84"",""654369""
""focus"",""85"",""659625""
","""event"",""trial"",""time""
""blur"",""2"",""6270""
""blur"",""19"",""293536""
""blur"",""19"",""294779""
""blur"",""80"",""623805""
""blur"",""80"",""628661""
""blur"",""80"",""635424""
""blur"",""84"",""654369""
","""event"",""trial"",""time""
""focus"",""2"",""7198""
""focus"",""19"",""294738""
""focus"",""19"",""297154""
""focus"",""80"",""625607""
""focus"",""80"",""633353""
""focus"",""80"",""639492""
""focus"",""85"",""659625""
","""event"",""trial"",""time""
""fullscreenenter"",""1"",""2311""
","
","","","445.39999985694885","","","14","7235","2708","&#9789;","elianto","#f73b6a7A"," "," ","1","0","[1300]","1","0","4","","","","","","","",""
"pit-trial","99","714954","0.0-2.0-17.3-3.3","battery-v0.2","","""event"",""trial"",""time""
""fullscreenenter"",""1"",""2311""
""blur"",""2"",""6270""
""focus"",""2"",""7198""
""blur"",""19"",""293536""
""focus"",""19"",""294738""
""blur"",""19"",""294779""
""focus"",""19"",""297154""
""blur"",""80"",""623805""
""focus"",""80"",""625607""
""blur"",""80"",""628661""
""focus"",""80"",""633353""
""blur"",""80"",""635424""
""focus"",""80"",""639492""
""blur"",""84"",""654369""
""focus"",""85"",""659625""
","""event"",""trial"",""time""
""blur"",""2"",""6270""
""blur"",""19"",""293536""
""blur"",""19"",""294779""
""blur"",""80"",""623805""
""blur"",""80"",""628661""
""blur"",""80"",""635424""
""blur"",""84"",""654369""
","""event"",""trial"",""time""
""focus"",""2"",""7198""
""focus"",""19"",""294738""
""focus"",""19"",""297154""
""focus"",""80"",""625607""
""focus"",""80"",""633353""
""focus"",""80"",""639492""
""focus"",""85"",""659625""
","""event"",""trial"",""time""
""fullscreenenter"",""1"",""2311""
","
","","","663.7999999523163","","","14","7235","2708","&#9789;","elianto","#f73b6a7A"," "," ","1","-10","[1515.5]","1","0","4","","","","","","","",""
"pit-trial","100","717967","0.0-2.0-17.3-4.3","battery-v0.2","","""event"",""trial"",""time""
""fullscreenenter"",""1"",""2311""
""blur"",""2"",""6270""
""focus"",""2"",""7198""
""blur"",""19"",""293536""
""focus"",""19"",""294738""
""blur"",""19"",""294779""
""focus"",""19"",""297154""
""blur"",""80"",""623805""
""focus"",""80"",""625607""
""blur"",""80"",""628661""
""focus"",""80"",""633353""
""blur"",""80"",""635424""
""focus"",""80"",""639492""
""blur"",""84"",""654369""
""focus"",""85"",""659625""
","""event"",""trial"",""time""
""blur"",""2"",""6270""
""blur"",""19"",""293536""
""blur"",""19"",""294779""
""blur"",""80"",""623805""
""blur"",""80"",""628661""
""blur"",""80"",""635424""
""blur"",""84"",""654369""
","""event"",""trial"",""time""
""focus"",""2"",""7198""
""focus"",""19"",""294738""
""focus"",""19"",""297154""
""focus"",""80"",""625607""
""focus"",""80"",""633353""
""focus"",""80"",""639492""
""focus"",""85"",""659625""
","""event"",""trial"",""time""
""fullscreenenter"",""1"",""2311""
","
","","","155","","","14","7235","2708","&#9789;","elianto","#f73b6a7A"," "," ","1","0","[1005.5]","1","0","4","","","","","","","",""
"call-function","101","717972","0.0-2.0-18.0","battery-v0.2","","""event"",""trial"",""time""
""fullscreenenter"",""1"",""2311""
""blur"",""2"",""6270""
""focus"",""2"",""7198""
""blur"",""19"",""293536""
""focus"",""19"",""294738""
""blur"",""19"",""294779""
""focus"",""19"",""297154""
""blur"",""80"",""623805""
""focus"",""80"",""625607""
""blur"",""80"",""628661""
""focus"",""80"",""633353""
""blur"",""80"",""635424""
""focus"",""80"",""639492""
""blur"",""84"",""654369""
""focus"",""85"",""659625""
""blur"",""102"",""719076""
""focus"",""102"",""724551""
""blur"",""102"",""755850""
""focus"",""102"",""761121""
""blur"",""102"",""762781""
""focus"",""102"",""763261""
""blur"",""102"",""763482""
""focus"",""102"",""766952""
""blur"",""102"",""771453""
""focus"",""102"",""780304""
","""event"",""trial"",""time""
""blur"",""2"",""6270""
""blur"",""19"",""293536""
""blur"",""19"",""294779""
""blur"",""80"",""623805""
""blur"",""80"",""628661""
""blur"",""80"",""635424""
""blur"",""84"",""654369""
""blur"",""102"",""719076""
""blur"",""102"",""755850""
""blur"",""102"",""762781""
""blur"",""102"",""763482""
""blur"",""102"",""771453""
","""event"",""trial"",""time""
""focus"",""2"",""7198""
""focus"",""19"",""294738""
""focus"",""19"",""297154""
""focus"",""80"",""625607""
""focus"",""80"",""633353""
""focus"",""80"",""639492""
""focus"",""85"",""659625""
""focus"",""102"",""724551""
""focus"",""102"",""761121""
""focus"",""102"",""763261""
""focus"",""102"",""766952""
""focus"",""102"",""780304""
","""event"",""trial"",""time""
""fullscreenenter"",""1"",""2311""
","
","","","","","","","","","","","","","","","","","","","","","","","","","","",""
"pit-instructions","102","791867","0.0-2.0-19.0","battery-v0.2","","""event"",""trial"",""time""
""fullscreenenter"",""1"",""2311""
""blur"",""2"",""6270""
""focus"",""2"",""7198""
""blur"",""19"",""293536""
""focus"",""19"",""294738""
""blur"",""19"",""294779""
""focus"",""19"",""297154""
""blur"",""80"",""623805""
""focus"",""80"",""625607""
""blur"",""80"",""628661""
""focus"",""80"",""633353""
""blur"",""80"",""635424""
""focus"",""80"",""639492""
""blur"",""84"",""654369""
""focus"",""85"",""659625""
""blur"",""102"",""719076""
""focus"",""102"",""724551""
""blur"",""102"",""755850""
""focus"",""102"",""761121""
""blur"",""102"",""762781""
""focus"",""102"",""763261""
""blur"",""102"",""763482""
""focus"",""102"",""766952""
""blur"",""102"",""771453""
""focus"",""102"",""780304""
","""event"",""trial"",""time""
""blur"",""2"",""6270""
""blur"",""19"",""293536""
""blur"",""19"",""294779""
""blur"",""80"",""623805""
""blur"",""80"",""628661""
""blur"",""80"",""635424""
""blur"",""84"",""654369""
""blur"",""102"",""719076""
""blur"",""102"",""755850""
""blur"",""102"",""762781""
""blur"",""102"",""763482""
""blur"",""102"",""771453""
","""event"",""trial"",""time""
""focus"",""2"",""7198""
""focus"",""19"",""294738""
""focus"",""19"",""297154""
""focus"",""80"",""625607""
""focus"",""80"",""633353""
""focus"",""80"",""639492""
""focus"",""85"",""659625""
""focus"",""102"",""724551""
""focus"",""102"",""761121""
""focus"",""102"",""763261""
""focus"",""102"",""766952""
""focus"",""102"",""780304""
","""event"",""trial"",""time""
""fullscreenenter"",""1"",""2311""
","
","","[{""page_index"":0,""viewing_time"":7534.099999904633},{""page_index"":1,""viewing_time"":6092},{""page_index"":2,""viewing_time"":14676.5},{""page_index"":3,""viewing_time"":6955.700000047684},{""page_index"":4,""viewing_time"":8707.700000047684},{""page_index"":5,""viewing_time"":8619.799999952316},{""page_index"":6,""viewing_time"":10684.599999904633},{""page_index"":7,""viewing_time"":6630.400000095367},{""page_index"":8,""viewing_time"":3988.0999999046326}]","73889.5","","","","","","","","","","","","","","","","","","","","","","","",""
"pit-comprehension","103","796308","0.0-2.0-20.0-0.0","battery-v0.2","","""event"",""trial"",""time""
""fullscreenenter"",""1"",""2311""
""blur"",""2"",""6270""
""focus"",""2"",""7198""
""blur"",""19"",""293536""
""focus"",""19"",""294738""
""blur"",""19"",""294779""
""focus"",""19"",""297154""
""blur"",""80"",""623805""
""focus"",""80"",""625607""
""blur"",""80"",""628661""
""focus"",""80"",""633353""
""blur"",""80"",""635424""
""focus"",""80"",""639492""
""blur"",""84"",""654369""
""focus"",""85"",""659625""
""blur"",""102"",""719076""
""focus"",""102"",""724551""
""blur"",""102"",""755850""
""focus"",""102"",""761121""
""blur"",""102"",""762781""
""focus"",""102"",""763261""
""blur"",""102"",""763482""
""focus"",""102"",""766952""
""blur"",""102"",""771453""
""focus"",""102"",""780304""
","""event"",""trial"",""time""
""blur"",""2"",""6270""
""blur"",""19"",""293536""
""blur"",""19"",""294779""
""blur"",""80"",""623805""
""blur"",""80"",""628661""
""blur"",""80"",""635424""
""blur"",""84"",""654369""
""blur"",""102"",""719076""
""blur"",""102"",""755850""
""blur"",""102"",""762781""
""blur"",""102"",""763482""
""blur"",""102"",""771453""
","""event"",""trial"",""time""
""focus"",""2"",""7198""
""focus"",""19"",""294738""
""focus"",""19"",""297154""
""focus"",""80"",""625607""
""focus"",""80"",""633353""
""focus"",""80"",""639492""
""focus"",""85"",""659625""
""focus"",""102"",""724551""
""focus"",""102"",""761121""
""focus"",""102"",""763261""
""focus"",""102"",""766952""
""focus"",""102"",""780304""
","""event"",""trial"",""time""
""fullscreenenter"",""1"",""2311""
","
","","","4429.899999856949","[""SPACE""]","0","14","7235","2708","","","","","","","","","","","","","","","","","","",""
"pit-instructions","104","798403","0.0-2.0-20.0-1.0","battery-v0.2","","""event"",""trial"",""time""
""fullscreenenter"",""1"",""2311""
""blur"",""2"",""6270""
""focus"",""2"",""7198""
""blur"",""19"",""293536""
""focus"",""19"",""294738""
""blur"",""19"",""294779""
""focus"",""19"",""297154""
""blur"",""80"",""623805""
""focus"",""80"",""625607""
""blur"",""80"",""628661""
""focus"",""80"",""633353""
""blur"",""80"",""635424""
""focus"",""80"",""639492""
""blur"",""84"",""654369""
""focus"",""85"",""659625""
""blur"",""102"",""719076""
""focus"",""102"",""724551""
""blur"",""102"",""755850""
""focus"",""102"",""761121""
""blur"",""102"",""762781""
""focus"",""102"",""763261""
""blur"",""102"",""763482""
""focus"",""102"",""766952""
""blur"",""102"",""771453""
""focus"",""102"",""780304""
","""event"",""trial"",""time""
""blur"",""2"",""6270""
""blur"",""19"",""293536""
""blur"",""19"",""294779""
""blur"",""80"",""623805""
""blur"",""80"",""628661""
""blur"",""80"",""635424""
""blur"",""84"",""654369""
""blur"",""102"",""719076""
""blur"",""102"",""755850""
""blur"",""102"",""762781""
""blur"",""102"",""763482""
""blur"",""102"",""771453""
","""event"",""trial"",""time""
""focus"",""2"",""7198""
""focus"",""19"",""294738""
""focus"",""19"",""297154""
""focus"",""80"",""625607""
""focus"",""80"",""633353""
""focus"",""80"",""639492""
""focus"",""85"",""659625""
""focus"",""102"",""724551""
""focus"",""102"",""761121""
""focus"",""102"",""763261""
""focus"",""102"",""766952""
""focus"",""102"",""780304""
","""event"",""trial"",""time""
""fullscreenenter"",""1"",""2311""
","
","","[{""page_index"":0,""viewing_time"":2030.3999998569489}]","2030.5","","","","","","","","","","","","","","","","","","","","","","","",""
"pit-comprehension","105","804717","0.0-2.0-21.0-0.0","battery-v0.2","","""event"",""trial"",""time""
""fullscreenenter"",""1"",""2311""
""blur"",""2"",""6270""
""focus"",""2"",""7198""
""blur"",""19"",""293536""
""focus"",""19"",""294738""
""blur"",""19"",""294779""
""focus"",""19"",""297154""
""blur"",""80"",""623805""
""focus"",""80"",""625607""
""blur"",""80"",""628661""
""focus"",""80"",""633353""
""blur"",""80"",""635424""
""focus"",""80"",""639492""
""blur"",""84"",""654369""
""focus"",""85"",""659625""
""blur"",""102"",""719076""
""focus"",""102"",""724551""
""blur"",""102"",""755850""
""focus"",""102"",""761121""
""blur"",""102"",""762781""
""focus"",""102"",""763261""
""blur"",""102"",""763482""
""focus"",""102"",""766952""
""blur"",""102"",""771453""
""focus"",""102"",""780304""
","""event"",""trial"",""time""
""blur"",""2"",""6270""
""blur"",""19"",""293536""
""blur"",""19"",""294779""
""blur"",""80"",""623805""
""blur"",""80"",""628661""
""blur"",""80"",""635424""
""blur"",""84"",""654369""
""blur"",""102"",""719076""
""blur"",""102"",""755850""
""blur"",""102"",""762781""
""blur"",""102"",""763482""
""blur"",""102"",""771453""
","""event"",""trial"",""time""
""focus"",""2"",""7198""
""focus"",""19"",""294738""
""focus"",""19"",""297154""
""focus"",""80"",""625607""
""focus"",""80"",""633353""
""focus"",""80"",""639492""
""focus"",""85"",""659625""
""focus"",""102"",""724551""
""focus"",""102"",""761121""
""focus"",""102"",""763261""
""focus"",""102"",""766952""
""focus"",""102"",""780304""
","""event"",""trial"",""time""
""fullscreenenter"",""1"",""2311""
","
","","","6309.299999952316","[""10""]","0","14","7235","2708","","","","","","","","","","","","","","","","","","",""
"pit-instructions","106","805996","0.0-2.0-21.0-1.0","battery-v0.2","","""event"",""trial"",""time""
""fullscreenenter"",""1"",""2311""
""blur"",""2"",""6270""
""focus"",""2"",""7198""
""blur"",""19"",""293536""
""focus"",""19"",""294738""
""blur"",""19"",""294779""
""focus"",""19"",""297154""
""blur"",""80"",""623805""
""focus"",""80"",""625607""
""blur"",""80"",""628661""
""focus"",""80"",""633353""
""blur"",""80"",""635424""
""focus"",""80"",""639492""
""blur"",""84"",""654369""
""focus"",""85"",""659625""
""blur"",""102"",""719076""
""focus"",""102"",""724551""
""blur"",""102"",""755850""
""focus"",""102"",""761121""
""blur"",""102"",""762781""
""focus"",""102"",""763261""
""blur"",""102"",""763482""
""focus"",""102"",""766952""
""blur"",""102"",""771453""
""focus"",""102"",""780304""
","""event"",""trial"",""time""
""blur"",""2"",""6270""
""blur"",""19"",""293536""
""blur"",""19"",""294779""
""blur"",""80"",""623805""
""blur"",""80"",""628661""
""blur"",""80"",""635424""
""blur"",""84"",""654369""
""blur"",""102"",""719076""
""blur"",""102"",""755850""
""blur"",""102"",""762781""
""blur"",""102"",""763482""
""blur"",""102"",""771453""
","""event"",""trial"",""time""
""focus"",""2"",""7198""
""focus"",""19"",""294738""
""focus"",""19"",""297154""
""focus"",""80"",""625607""
""focus"",""80"",""633353""
""focus"",""80"",""639492""
""focus"",""85"",""659625""
""focus"",""102"",""724551""
""focus"",""102"",""761121""
""focus"",""102"",""763261""
""focus"",""102"",""766952""
""focus"",""102"",""780304""
","""event"",""trial"",""time""
""fullscreenenter"",""1"",""2311""
","
","","[{""page_index"":0,""viewing_time"":1241.5999999046326}]","1241.7999999523163","","","","","","","","","","","","","","","","","","","","","","","",""
"pit-comprehension","107","814460","0.0-2.0-22.0-0.0","battery-v0.2","","""event"",""trial"",""time""
""fullscreenenter"",""1"",""2311""
""blur"",""2"",""6270""
""focus"",""2"",""7198""
""blur"",""19"",""293536""
""focus"",""19"",""294738""
""blur"",""19"",""294779""
""focus"",""19"",""297154""
""blur"",""80"",""623805""
""focus"",""80"",""625607""
""blur"",""80"",""628661""
""focus"",""80"",""633353""
""blur"",""80"",""635424""
""focus"",""80"",""639492""
""blur"",""84"",""654369""
""focus"",""85"",""659625""
""blur"",""102"",""719076""
""focus"",""102"",""724551""
""blur"",""102"",""755850""
""focus"",""102"",""761121""
""blur"",""102"",""762781""
""focus"",""102"",""763261""
""blur"",""102"",""763482""
""focus"",""102"",""766952""
""blur"",""102"",""771453""
""focus"",""102"",""780304""
","""event"",""trial"",""time""
""blur"",""2"",""6270""
""blur"",""19"",""293536""
""blur"",""19"",""294779""
""blur"",""80"",""623805""
""blur"",""80"",""628661""
""blur"",""80"",""635424""
""blur"",""84"",""654369""
""blur"",""102"",""719076""
""blur"",""102"",""755850""
""blur"",""102"",""762781""
""blur"",""102"",""763482""
""blur"",""102"",""771453""
","""event"",""trial"",""time""
""focus"",""2"",""7198""
""focus"",""19"",""294738""
""focus"",""19"",""297154""
""focus"",""80"",""625607""
""focus"",""80"",""633353""
""focus"",""80"",""639492""
""focus"",""85"",""659625""
""focus"",""102"",""724551""
""focus"",""102"",""761121""
""focus"",""102"",""763261""
""focus"",""102"",""766952""
""focus"",""102"",""780304""
","""event"",""trial"",""time""
""fullscreenenter"",""1"",""2311""
","
","","","8460.299999952316","[""-10""]","1","14","7235","2708","","","","","","","","","","","","","","","","","","",""
"pit-instructions","108","817451","0.0-2.0-22.0-1.0","battery-v0.2","","""event"",""trial"",""time""
""fullscreenenter"",""1"",""2311""
""blur"",""2"",""6270""
""focus"",""2"",""7198""
""blur"",""19"",""293536""
""focus"",""19"",""294738""
""blur"",""19"",""294779""
""focus"",""19"",""297154""
""blur"",""80"",""623805""
""focus"",""80"",""625607""
""blur"",""80"",""628661""
""focus"",""80"",""633353""
""blur"",""80"",""635424""
""focus"",""80"",""639492""
""blur"",""84"",""654369""
""focus"",""85"",""659625""
""blur"",""102"",""719076""
""focus"",""102"",""724551""
""blur"",""102"",""755850""
""focus"",""102"",""761121""
""blur"",""102"",""762781""
""focus"",""102"",""763261""
""blur"",""102"",""763482""
""focus"",""102"",""766952""
""blur"",""102"",""771453""
""focus"",""102"",""780304""
","""event"",""trial"",""time""
""blur"",""2"",""6270""
""blur"",""19"",""293536""
""blur"",""19"",""294779""
""blur"",""80"",""623805""
""blur"",""80"",""628661""
""blur"",""80"",""635424""
""blur"",""84"",""654369""
""blur"",""102"",""719076""
""blur"",""102"",""755850""
""blur"",""102"",""762781""
""blur"",""102"",""763482""
""blur"",""102"",""771453""
","""event"",""trial"",""time""
""focus"",""2"",""7198""
""focus"",""19"",""294738""
""focus"",""19"",""297154""
""focus"",""80"",""625607""
""focus"",""80"",""633353""
""focus"",""80"",""639492""
""focus"",""85"",""659625""
""focus"",""102"",""724551""
""focus"",""102"",""761121""
""focus"",""102"",""763261""
""focus"",""102"",""766952""
""focus"",""102"",""780304""
","""event"",""trial"",""time""
""fullscreenenter"",""1"",""2311""
","
","","[{""page_index"":0,""viewing_time"":2946}]","2946.2999999523163","","","","","","","","","","","","","","","","","","","","","","","",""
"pit-instructions","109","818123","0.0-2.0-22.0-2.0-0.0","battery-v0.2","","""event"",""trial"",""time""
""fullscreenenter"",""1"",""2311""
""blur"",""2"",""6270""
""focus"",""2"",""7198""
""blur"",""19"",""293536""
""focus"",""19"",""294738""
""blur"",""19"",""294779""
""focus"",""19"",""297154""
""blur"",""80"",""623805""
""focus"",""80"",""625607""
""blur"",""80"",""628661""
""focus"",""80"",""633353""
""blur"",""80"",""635424""
""focus"",""80"",""639492""
""blur"",""84"",""654369""
""focus"",""85"",""659625""
""blur"",""102"",""719076""
""focus"",""102"",""724551""
""blur"",""102"",""755850""
""focus"",""102"",""761121""
""blur"",""102"",""762781""
""focus"",""102"",""763261""
""blur"",""102"",""763482""
""focus"",""102"",""766952""
""blur"",""102"",""771453""
""focus"",""102"",""780304""
","""event"",""trial"",""time""
""blur"",""2"",""6270""
""blur"",""19"",""293536""
""blur"",""19"",""294779""
""blur"",""80"",""623805""
""blur"",""80"",""628661""
""blur"",""80"",""635424""
""blur"",""84"",""654369""
""blur"",""102"",""719076""
""blur"",""102"",""755850""
""blur"",""102"",""762781""
""blur"",""102"",""763482""
""blur"",""102"",""771453""
","""event"",""trial"",""time""
""focus"",""2"",""7198""
""focus"",""19"",""294738""
""focus"",""19"",""297154""
""focus"",""80"",""625607""
""focus"",""80"",""633353""
""focus"",""80"",""639492""
""focus"",""85"",""659625""
""focus"",""102"",""724551""
""focus"",""102"",""761121""
""focus"",""102"",""763261""
""focus"",""102"",""766952""
""focus"",""102"",""780304""
","""event"",""trial"",""time""
""fullscreenenter"",""1"",""2311""
","
","","[{""page_index"":0,""viewing_time"":669.2999999523163}]","669.5","","","","","","","","","","","","","","","","","","","","","","","",""
"pit-comprehension","110","824171","0.0-2.0-22.1-0.1","battery-v0.2","","""event"",""trial"",""time""
""fullscreenenter"",""1"",""2311""
""blur"",""2"",""6270""
""focus"",""2"",""7198""
""blur"",""19"",""293536""
""focus"",""19"",""294738""
""blur"",""19"",""294779""
""focus"",""19"",""297154""
""blur"",""80"",""623805""
""focus"",""80"",""625607""
""blur"",""80"",""628661""
""focus"",""80"",""633353""
""blur"",""80"",""635424""
""focus"",""80"",""639492""
