"trial_type","trial_index","time_elapsed","internal_node_id","task_version","subject_id","interactions","blur_events","focus_events","fullscreenenter_events","fullscreenexit_events","success","view_history","rt","responses","num_errors","age","subject","participantId","rune","rune_set","hex","correct","choice","accuracy","outcome","keys","total_keys","block","practice","value","sub","trial","stimulus","robot","valence","action","sham"
"pavlovia","0","12","0.0-0.0","battery-v0.2","","""event"",""trial"",""time""
""blur"",""1"",""141""
""focus"",""1"",""4678""
""fullscreenenter"",""1"",""5859""
","""event"",""trial"",""time""
""blur"",""1"",""141""
","""event"",""trial"",""time""
""focus"",""1"",""4678""
","""event"",""trial"",""time""
""fullscreenenter"",""1"",""5859""
","
","","","","","","","","","","","","","","","","","","","","","","","","","","",""
"fullscreen","1","6831","0.0-1.0","battery-v0.2","","""event"",""trial"",""time""
""blur"",""1"",""141""
""focus"",""1"",""4678""
""fullscreenenter"",""1"",""5859""
","""event"",""trial"",""time""
""blur"",""1"",""141""
","""event"",""trial"",""time""
""focus"",""1"",""4678""
","""event"",""trial"",""time""
""fullscreenenter"",""1"",""5859""
","
","true","","","","","","","","","","","","","","","","","","","","","","","","","",""
"pit-instructions","2","11227","0.0-2.0-0.0","battery-v0.2","","""event"",""trial"",""time""
""blur"",""1"",""141""
""focus"",""1"",""4678""
""fullscreenenter"",""1"",""5859""
","""event"",""trial"",""time""
""blur"",""1"",""141""
","""event"",""trial"",""time""
""focus"",""1"",""4678""
","""event"",""trial"",""time""
""fullscreenenter"",""1"",""5859""
","
","","[{""page_index"":0,""viewing_time"":4391.0999999940395}]","4391.5999999940395","","","","","","","","","","","","","","","","","","","","","","","",""
"pit-comprehension","3","14036","0.0-2.0-1.0-0.0","battery-v0.2","","""event"",""trial"",""time""
""blur"",""1"",""141""
""focus"",""1"",""4678""
""fullscreenenter"",""1"",""5859""
","""event"",""trial"",""time""
""blur"",""1"",""141""
","""event"",""trial"",""time""
""focus"",""1"",""4678""
","""event"",""trial"",""time""
""fullscreenenter"",""1"",""5859""
","
","","","2802.7000000029802","[""shark""]","0","20","4447","3197","","","","","","","","","","","","","","","","","","",""
"pit-instructions","4","17509","0.0-2.0-1.0-1.0","battery-v0.2","","""event"",""trial"",""time""
""blur"",""1"",""141""
""focus"",""1"",""4678""
""fullscreenenter"",""1"",""5859""
","""event"",""trial"",""time""
""blur"",""1"",""141""
","""event"",""trial"",""time""
""focus"",""1"",""4678""
","""event"",""trial"",""time""
""fullscreenenter"",""1"",""5859""
","
","","[{""page_index"":0,""viewing_time"":3462.7999999970198}]","3463.0999999940395","","","","","","","","","","","","","","","","","","","","","","","",""
"pit-comprehension","5","20695","0.0-2.0-2.0-0.0","battery-v0.2","","""event"",""trial"",""time""
""blur"",""1"",""141""
""focus"",""1"",""4678""
""fullscreenenter"",""1"",""5859""
","""event"",""trial"",""time""
""blur"",""1"",""141""
","""event"",""trial"",""time""
""focus"",""1"",""4678""
","""event"",""trial"",""time""
""fullscreenenter"",""1"",""5859""
","
","","","3179.4000000059605","[""tiger""]","0","20","4447","3197","","","","","","","","","","","","","","","","","","",""
"pit-instructions","6","21394","0.0-2.0-2.0-1.0","battery-v0.2","","""event"",""trial"",""time""
""blur"",""1"",""141""
""focus"",""1"",""4678""
""fullscreenenter"",""1"",""5859""
","""event"",""trial"",""time""
""blur"",""1"",""141""
","""event"",""trial"",""time""
""focus"",""1"",""4678""
","""event"",""trial"",""time""
""fullscreenenter"",""1"",""5859""
","
","","[{""page_index"":0,""viewing_time"":693.4000000059605}]","693.7000000029802","","","","","","","","","","","","","","","","","","","","","","","",""
"pit-instructions","7","116162","0.0-2.0-3.0","battery-v0.2","","""event"",""trial"",""time""
""blur"",""1"",""141""
""focus"",""1"",""4678""
""fullscreenenter"",""1"",""5859""
","""event"",""trial"",""time""
""blur"",""1"",""141""
","""event"",""trial"",""time""
""focus"",""1"",""4678""
","""event"",""trial"",""time""
""fullscreenenter"",""1"",""5859""
","
","","[{""page_index"":0,""viewing_time"":7859.9000000059605},{""page_index"":1,""viewing_time"":6894.5},{""page_index"":2,""viewing_time"":6134},{""page_index"":3,""viewing_time"":5625.20000000298},{""page_index"":4,""viewing_time"":6151.20000000298},{""page_index"":5,""viewing_time"":5521.29999999702},{""page_index"":6,""viewing_time"":5853.70000000298},{""page_index"":7,""viewing_time"":6203.5},{""page_index"":8,""viewing_time"":6054.399999991059},{""page_index"":9,""viewing_time"":10587},{""page_index"":10,""viewing_time"":9747.29999999702},{""page_index"":11,""viewing_time"":6553.100000008941},{""page_index"":12,""viewing_time"":6576.0999999940395},{""page_index"":13,""viewing_time"":5000.100000008941}]","94761.60000000894","","","","","","","","","","","","","","","","","","","","","","","",""
"pit-trial","8","119745","0.0-2.0-4.0-0.0","battery-v0.2","","""event"",""trial"",""time""
""blur"",""1"",""141""
""focus"",""1"",""4678""
""fullscreenenter"",""1"",""5859""
","""event"",""trial"",""time""
""blur"",""1"",""141""
","""event"",""trial"",""time""
""focus"",""1"",""4678""
","""event"",""trial"",""time""
""fullscreenenter"",""1"",""5859""
","
","","","717.0999999940395","","","20","4447","3197","&#9784;","elianto","#FFFFF080"," "," ","1","&#10004","[1574.3999999910593]","1","0","0","","","","","","","",""
"pit-trial","9","123462","0.0-2.0-4.1-0.1","battery-v0.2","","""event"",""trial"",""time""
""blur"",""1"",""141""
""focus"",""1"",""4678""
""fullscreenenter"",""1"",""5859""
","""event"",""trial"",""time""
""blur"",""1"",""141""
","""event"",""trial"",""time""
""focus"",""1"",""4678""
","""event"",""trial"",""time""
""fullscreenenter"",""1"",""5859""
","
","","","844.7000000029802","","","20","4447","3197","&#9784;","elianto","#FFFFF080"," "," ","1","&#10004","[1695.800000011921]","1","0","0","","","","","","","",""
"pit-trial","10","127001","0.0-2.0-4.2-0.2","battery-v0.2","","""event"",""trial"",""time""
""blur"",""1"",""141""
""focus"",""1"",""4678""
""fullscreenenter"",""1"",""5859""
","""event"",""trial"",""time""
""blur"",""1"",""141""
","""event"",""trial"",""time""
""focus"",""1"",""4678""
","""event"",""trial"",""time""
""fullscreenenter"",""1"",""5859""
","
","","","674.2999999970198","","","20","4447","3197","&#9784;","elianto","#FFFFF080"," "," ","1","&#10004","[1527.2999999970198]","1","0","0","","","","","","","",""
"pit-trial","11","130428","0.0-2.0-4.3-0.3","battery-v0.2","","""event"",""trial"",""time""
""blur"",""1"",""141""
""focus"",""1"",""4678""
""fullscreenenter"",""1"",""5859""
","""event"",""trial"",""time""
""blur"",""1"",""141""
","""event"",""trial"",""time""
""focus"",""1"",""4678""
","""event"",""trial"",""time""
""fullscreenenter"",""1"",""5859""
","
","","","561.5999999940395","","","20","4447","3197","&#9784;","elianto","#FFFFF080"," "," ","1","&#10004","[1415.5999999940395]","1","0","0","","","","","","","",""
"pit-trial","12","133967","0.0-2.0-4.4-0.4","battery-v0.2","","""event"",""trial"",""time""
""blur"",""1"",""141""
""focus"",""1"",""4678""
""fullscreenenter"",""1"",""5859""
","""event"",""trial"",""time""
""blur"",""1"",""141""
","""event"",""trial"",""time""
""focus"",""1"",""4678""
","""event"",""trial"",""time""
""fullscreenenter"",""1"",""5859""
","
","","","659.7999999970198","","","20","4447","3197","&#9784;","elianto","#FFFFF080"," "," ","1","&#10004","[1518]","1","0","0","","","","","","","",""
"pit-instructions","13","157618","0.0-2.0-5.0","battery-v0.2","","""event"",""trial"",""time""
""blur"",""1"",""141""
""focus"",""1"",""4678""
""fullscreenenter"",""1"",""5859""
","""event"",""trial"",""time""
""blur"",""1"",""141""
","""event"",""trial"",""time""
""focus"",""1"",""4678""
","""event"",""trial"",""time""
""fullscreenenter"",""1"",""5859""
","
","","[{""page_index"":0,""viewing_time"":4644.399999991059},{""page_index"":1,""viewing_time"":7734.800000011921},{""page_index"":2,""viewing_time"":5275.199999988079},{""page_index"":3,""viewing_time"":5985.70000000298}]","23640.59999999404","","","","","","","","","","","","","","","","","","","","","","","",""
"pit-trial","14","162493","0.0-2.0-6.0-0.0","battery-v0.2","","""event"",""trial"",""time""
""blur"",""1"",""141""
""focus"",""1"",""4678""
""fullscreenenter"",""1"",""5859""
","""event"",""trial"",""time""
""blur"",""1"",""141""
","""event"",""trial"",""time""
""focus"",""1"",""4678""
","""event"",""trial"",""time""
""fullscreenenter"",""1"",""5859""
","
","","","-1","","","20","4447","3197","&#9854;","elianto","#FFFFF080","-1","-1","1","&#10004","[]","0","0","1","","","","","","","",""
"pit-trial","15","167360","0.0-2.0-6.1-0.1","battery-v0.2","","""event"",""trial"",""time""
""blur"",""1"",""141""
""focus"",""1"",""4678""
""fullscreenenter"",""1"",""5859""
","""event"",""trial"",""time""
""blur"",""1"",""141""
","""event"",""trial"",""time""
""focus"",""1"",""4678""
","""event"",""trial"",""time""
""fullscreenenter"",""1"",""5859""
","
","","","-1","","","20","4447","3197","&#9854;","elianto","#FFFFF080","-1","-1","1","&#10004","[]","0","0","1","","","","","","","",""
"pit-trial","16","172245","0.0-2.0-6.2-0.2","battery-v0.2","","""event"",""trial"",""time""
""blur"",""1"",""141""
""focus"",""1"",""4678""
""fullscreenenter"",""1"",""5859""
","""event"",""trial"",""time""
""blur"",""1"",""141""
","""event"",""trial"",""time""
""focus"",""1"",""4678""
","""event"",""trial"",""time""
""fullscreenenter"",""1"",""5859""
","
","","","-1","","","20","4447","3197","&#9854;","elianto","#FFFFF080","-1","-1","1","&#10004","[]","0","0","1","","","","","","","",""
"pit-trial","17","177123","0.0-2.0-6.3-0.3","battery-v0.2","","""event"",""trial"",""time""
""blur"",""1"",""141""
""focus"",""1"",""4678""
""fullscreenenter"",""1"",""5859""
","""event"",""trial"",""time""
""blur"",""1"",""141""
","""event"",""trial"",""time""
""focus"",""1"",""4678""
","""event"",""trial"",""time""
""fullscreenenter"",""1"",""5859""
","
","","","-1","","","20","4447","3197","&#9854;","elianto","#FFFFF080","-1","-1","1","&#10004","[]","0","0","1","","","","","","","",""
"pit-trial","18","181997","0.0-2.0-6.4-0.4","battery-v0.2","","""event"",""trial"",""time""
""blur"",""1"",""141""
""focus"",""1"",""4678""
""fullscreenenter"",""1"",""5859""
","""event"",""trial"",""time""
""blur"",""1"",""141""
","""event"",""trial"",""time""
""focus"",""1"",""4678""
","""event"",""trial"",""time""
""fullscreenenter"",""1"",""5859""
","
","","","-1","","","20","4447","3197","&#9854;","elianto","#FFFFF080","-1","-1","1","&#10004","[]","0","0","1","","","","","","","",""
"pit-instructions","19","312892","0.0-2.0-7.0","battery-v0.2","","""event"",""trial"",""time""
""blur"",""1"",""141""
""focus"",""1"",""4678""
""fullscreenenter"",""1"",""5859""
","""event"",""trial"",""time""
""blur"",""1"",""141""
","""event"",""trial"",""time""
""focus"",""1"",""4678""
","""event"",""trial"",""time""
""fullscreenenter"",""1"",""5859""
","
","","[{""page_index"":0,""viewing_time"":8224},{""page_index"":1,""viewing_time"":8471.40000000596},{""page_index"":2,""viewing_time"":7170.9000000059605},{""page_index"":3,""viewing_time"":7474.199999988079},{""page_index"":4,""viewing_time"":6523.100000008941},{""page_index"":5,""viewing_time"":7411.20000000298},{""page_index"":6,""viewing_time"":4832.5999999940395},{""page_index"":7,""viewing_time"":8612.40000000596},{""page_index"":8,""viewing_time"":6360.29999999702},{""page_index"":9,""viewing_time"":7490.79999999702},{""page_index"":10,""viewing_time"":8638.79999999702},{""page_index"":11,""viewing_time"":4785.20000000298},{""page_index"":12,""viewing_time"":6688.5},{""page_index"":13,""viewing_time"":6702.4000000059605},{""page_index"":14,""viewing_time"":7860.5999999940395},{""page_index"":15,""viewing_time"":8086.9000000059605},{""page_index"":16,""viewing_time"":8194.09999999404},{""page_index"":17,""viewing_time"":7360}]","130887.80000001192","","","","","","","","","","","","","","","","","","","","","","","",""
"pit-trial","20","316523","0.0-2.0-8.0-0.0","battery-v0.2","","""event"",""trial"",""time""
""blur"",""1"",""141""
""focus"",""1"",""4678""
""fullscreenenter"",""1"",""5859""
","""event"",""trial"",""time""
""blur"",""1"",""141""
","""event"",""trial"",""time""
""focus"",""1"",""4678""
","""event"",""trial"",""time""
""fullscreenenter"",""1"",""5859""
","
","","","744.7000000029802","","","20","4447","3197","&#9776;","elianto","#3366ff99"," "," ","1","+10","[1606.2999999970198]","1","0","1","","","","","","","",""
"pit-trial","21","319884","0.0-2.0-8.0-1.0","battery-v0.2","","""event"",""trial"",""time""
""blur"",""1"",""141""
""focus"",""1"",""4678""
""fullscreenenter"",""1"",""5859""
","""event"",""trial"",""time""
""blur"",""1"",""141""
","""event"",""trial"",""time""
""focus"",""1"",""4678""
","""event"",""trial"",""time""
""fullscreenenter"",""1"",""5859""
","
","","","496.79999999701977","","","20","4447","3197","&#9776;","elianto","#3366ff99"," "," ","1","+10","[1347.4000000059605]","1","0","1","","","","","","","",""
"pit-trial","22","323273","0.0-2.0-8.0-2.0","battery-v0.2","","""event"",""trial"",""time""
""blur"",""1"",""141""
""focus"",""1"",""4678""
""fullscreenenter"",""1"",""5859""
","""event"",""trial"",""time""
""blur"",""1"",""141""
","""event"",""trial"",""time""
""focus"",""1"",""4678""
","""event"",""trial"",""time""
""fullscreenenter"",""1"",""5859""
","
","","","517","","","20","4447","3197","&#9776;","elianto","#3366ff99"," "," ","1","+10","[812.0999999940395,1373.8999999910593]","2","0","1","","","","","","","",""
"pit-trial","23","326561","0.0-2.0-8.0-3.0","battery-v0.2","","""event"",""trial"",""time""
""blur"",""1"",""141""
""focus"",""1"",""4678""
""fullscreenenter"",""1"",""5859""
","""event"",""trial"",""time""
""blur"",""1"",""141""
","""event"",""trial"",""time""
""focus"",""1"",""4678""
","""event"",""trial"",""time""
""fullscreenenter"",""1"",""5859""
","
","","","408.90000000596046","","","20","4447","3197","&#9776;","elianto","#3366ff99"," "," ","1","0","[1268.2000000029802]","1","0","1","","","","","","","",""
"pit-trial","24","329549","0.0-2.0-8.0-4.0","battery-v0.2","","""event"",""trial"",""time""
""blur"",""1"",""141""
""focus"",""1"",""4678""
""fullscreenenter"",""1"",""5859""
","""event"",""trial"",""time""
""blur"",""1"",""141""
","""event"",""trial"",""time""
""focus"",""1"",""4678""
","""event"",""trial"",""time""
""fullscreenenter"",""1"",""5859""
","
","","","117.6000000089407","","","20","4447","3197","&#9776;","elianto","#3366ff99"," "," ","1","+10","[970.5]","1","0","1","","","","","","","",""
"pit-trial","25","332506","0.0-2.0-8.1-0.1","battery-v0.2","","""event"",""trial"",""time""
""blur"",""1"",""141""
""focus"",""1"",""4678""
""fullscreenenter"",""1"",""5859""
","""event"",""trial"",""time""
""blur"",""1"",""141""
","""event"",""trial"",""time""
""focus"",""1"",""4678""
","""event"",""trial"",""time""
""fullscreenenter"",""1"",""5859""
","
","","","88.70000000298023","","","20","4447","3197","&#9776;","elianto","#3366ff99"," "," ","1","+10","[943]","1","0","1","","","","","","","",""
"pit-trial","26","335778","0.0-2.0-8.1-1.1","battery-v0.2","","""event"",""trial"",""time""
""blur"",""1"",""141""
""focus"",""1"",""4678""
""fullscreenenter"",""1"",""5859""
","""event"",""trial"",""time""
""blur"",""1"",""141""
","""event"",""trial"",""time""
""focus"",""1"",""4678""
","""event"",""trial"",""time""
""fullscreenenter"",""1"",""5859""
","
","","","391.3999999910593","","","20","4447","3197","&#9776;","elianto","#3366ff99"," "," ","1","+10","[1250.8999999910593]","1","0","1","","","","","","","",""
"pit-trial","27","338826","0.0-2.0-8.1-2.1","battery-v0.2","","""event"",""trial"",""time""
""blur"",""1"",""141""
""focus"",""1"",""4678""
""fullscreenenter"",""1"",""5859""
","""event"",""trial"",""time""
""blur"",""1"",""141""
","""event"",""trial"",""time""
""focus"",""1"",""4678""
","""event"",""trial"",""time""
""fullscreenenter"",""1"",""5859""
","
","","","170.20000000298023","","","20","4447","3197","&#9776;","elianto","#3366ff99"," "," ","1","+10","[1028.1000000089407]","1","0","1","","","","","","","",""
"pit-trial","28","341982","0.0-2.0-8.1-3.1","battery-v0.2","","""event"",""trial"",""time""
""blur"",""1"",""141""
""focus"",""1"",""4678""
""fullscreenenter"",""1"",""5859""
","""event"",""trial"",""time""
""blur"",""1"",""141""
","""event"",""trial"",""time""
""focus"",""1"",""4678""
","""event"",""trial"",""time""
""fullscreenenter"",""1"",""5859""
","
","","","285.1000000089407","","","20","4447","3197","&#9776;","elianto","#3366ff99"," "," ","1","0","[1139,1562.0999999940395]","2","0","1","","","","","","","",""
"pit-trial","29","344927","0.0-2.0-8.1-4.1","battery-v0.2","","""event"",""trial"",""time""
""blur"",""1"",""141""
""focus"",""1"",""4678""
""fullscreenenter"",""1"",""5859""
","""event"",""trial"",""time""
""blur"",""1"",""141""
","""event"",""trial"",""time""
""focus"",""1"",""4678""
","""event"",""trial"",""time""
""fullscreenenter"",""1"",""5859""
","
","","","87","","","20","4447","3197","&#9776;","elianto","#3366ff99"," "," ","1","+10","[937.6999999880791,1594.2999999970198]","2","0","1","","","","","","","",""
"pit-trial","30","348112","0.0-2.0-8.2-0.2","battery-v0.2","","""event"",""trial"",""time""
""blur"",""1"",""141""
""focus"",""1"",""4678""
""fullscreenenter"",""1"",""5859""
","""event"",""trial"",""time""
""blur"",""1"",""141""
","""event"",""trial"",""time""
""focus"",""1"",""4678""
","""event"",""trial"",""time""
""fullscreenenter"",""1"",""5859""
","
","","","320.3999999910593","","","20","4447","3197","&#9776;","elianto","#3366ff99"," "," ","1","+10","[816.2999999970198,1171.2999999970198,3169.2000000029802]","3","0","1","","","","","","","",""
"pit-trial","31","351600","0.0-2.0-8.2-1.2","battery-v0.2","","""event"",""trial"",""time""
""blur"",""1"",""141""
""focus"",""1"",""4678""
""fullscreenenter"",""1"",""5859""
","""event"",""trial"",""time""
""blur"",""1"",""141""
","""event"",""trial"",""time""
""focus"",""1"",""4678""
","""event"",""trial"",""time""
""fullscreenenter"",""1"",""5859""
","
","","","617.1000000089407","","","20","4447","3197","&#9776;","elianto","#3366ff99"," "," ","1","+10","[824.9000000059605,1475.5]","2","0","1","","","","","","","",""
"pit-trial","32","354672","0.0-2.0-8.2-2.2","battery-v0.2","","""event"",""trial"",""time""
""blur"",""1"",""141""
""focus"",""1"",""4678""
""fullscreenenter"",""1"",""5859""
","""event"",""trial"",""time""
""blur"",""1"",""141""
","""event"",""trial"",""time""
""focus"",""1"",""4678""
","""event"",""trial"",""time""
""fullscreenenter"",""1"",""5859""
","
","","","207.5","","","20","4447","3197","&#9776;","elianto","#3366ff99"," "," ","1","+10","[1058.2999999970198]","1","0","1","","","","","","","",""
"pit-trial","33","357736","0.0-2.0-8.2-3.2","battery-v0.2","","""event"",""trial"",""time""
""blur"",""1"",""141""
""focus"",""1"",""4678""
""fullscreenenter"",""1"",""5859""
","""event"",""trial"",""time""
""blur"",""1"",""141""
","""event"",""trial"",""time""
""focus"",""1"",""4678""
","""event"",""trial"",""time""
""fullscreenenter"",""1"",""5859""
","
","","","200.70000000298023","","","20","4447","3197","&#9776;","elianto","#3366ff99"," "," ","1","0","[1050.8999999910593,1410.8999999910593]","2","0","1","","","","","","","",""
"pit-trial","34","360800","0.0-2.0-8.2-4.2","battery-v0.2","","""event"",""trial"",""time""
""blur"",""1"",""141""
""focus"",""1"",""4678""
""fullscreenenter"",""1"",""5859""
","""event"",""trial"",""time""
""blur"",""1"",""141""
","""event"",""trial"",""time""
""focus"",""1"",""4678""
","""event"",""trial"",""time""
""fullscreenenter"",""1"",""5859""
","
","","","207.30000001192093","","","20","4447","3197","&#9776;","elianto","#3366ff99"," "," ","1","+10","[1058.300000011921]","1","0","1","","","","","","","",""
"call-function","35","360805","0.0-2.0-9.0","battery-v0.2","","""event"",""trial"",""time""
""blur"",""1"",""141""
""focus"",""1"",""4678""
""fullscreenenter"",""1"",""5859""
","""event"",""trial"",""time""
""blur"",""1"",""141""
","""event"",""trial"",""time""
""focus"",""1"",""4678""
","""event"",""trial"",""time""
""fullscreenenter"",""1"",""5859""
","
","","","","","","","","","","","","","","","","","","","","","","","","","","",""
"pit-instructions","36","400621","0.0-2.0-10.0","battery-v0.2","","""event"",""trial"",""time""
""blur"",""1"",""141""
""focus"",""1"",""4678""
""fullscreenenter"",""1"",""5859""
","""event"",""trial"",""time""
""blur"",""1"",""141""
","""event"",""trial"",""time""
""focus"",""1"",""4678""
","""event"",""trial"",""time""
""fullscreenenter"",""1"",""5859""
","
","","[{""page_index"":0,""viewing_time"":7888.4000000059605},{""page_index"":1,""viewing_time"":6273.899999991059},{""page_index"":2,""viewing_time"":9982.800000011921},{""page_index"":3,""viewing_time"":8522.39999999106},{""page_index"":4,""viewing_time"":7148.4000000059605}]","39816.20000000298","","","","","","","","","","","","","","","","","","","","","","","",""
"pit-trial","37","405482","0.0-2.0-11.0-0.0","battery-v0.2","","""event"",""trial"",""time""
""blur"",""1"",""141""
""focus"",""1"",""4678""
""fullscreenenter"",""1"",""5859""
","""event"",""trial"",""time""
""blur"",""1"",""141""
","""event"",""trial"",""time""
""focus"",""1"",""4678""
","""event"",""trial"",""time""
""fullscreenenter"",""1"",""5859""
","
","","","-1","","","20","4447","3197","&#9761;","elianto","#3366ff99","-1","-1","1","+10","[]","0","0","2","","","","","","","",""
"pit-trial","38","409288","0.0-2.0-11.0-1.0","battery-v0.2","","""event"",""trial"",""time""
""blur"",""1"",""141""
""focus"",""1"",""4678""
""fullscreenenter"",""1"",""5859""
","""event"",""trial"",""time""
""blur"",""1"",""141""
","""event"",""trial"",""time""
""focus"",""1"",""4678""
","""event"",""trial"",""time""
""fullscreenenter"",""1"",""5859""
","
","","","921.3000000119209","","","20","4447","3197","&#9761;","elianto","#3366ff99","-1"," ","0","0","[1785.2999999970198]","1","0","2","","","","","","","",""
"pit-trial","39","414169","0.0-2.0-11.0-2.0","battery-v0.2","","""event"",""trial"",""time""
""blur"",""1"",""141""
""focus"",""1"",""4678""
""fullscreenenter"",""1"",""5859""
","""event"",""trial"",""time""
""blur"",""1"",""141""
","""event"",""trial"",""time""
""focus"",""1"",""4678""
","""event"",""trial"",""time""
""fullscreenenter"",""1"",""5859""
","
","","","-1","","","20","4447","3197","&#9761;","elianto","#3366ff99","-1","-1","1","+10","[]","0","0","2","","","","","","","",""
"pit-trial","40","419045","0.0-2.0-11.0-3.0","battery-v0.2","","""event"",""trial"",""time""
""blur"",""1"",""141""
""focus"",""1"",""4678""
""fullscreenenter"",""1"",""5859""
","""event"",""trial"",""time""
""blur"",""1"",""141""
","""event"",""trial"",""time""
""focus"",""1"",""4678""
","""event"",""trial"",""time""
""fullscreenenter"",""1"",""5859""
","
","","","-1","","","20","4447","3197","&#9761;","elianto","#3366ff99","-1","-1","1","0","[]","0","0","2","","","","","","","",""
"pit-trial","41","423926","0.0-2.0-11.0-4.0","battery-v0.2","","""event"",""trial"",""time""
""blur"",""1"",""141""
""focus"",""1"",""4678""
""fullscreenenter"",""1"",""5859""
","""event"",""trial"",""time""
""blur"",""1"",""141""
","""event"",""trial"",""time""
""focus"",""1"",""4678""
","""event"",""trial"",""time""
""fullscreenenter"",""1"",""5859""
","
","","","-1","","","20","4447","3197","&#9761;","elianto","#3366ff99","-1","-1","1","+10","[]","0","0","2","","","","","","","",""
"pit-trial","42","428802","0.0-2.0-11.1-0.1","battery-v0.2","","""event"",""trial"",""time""
""blur"",""1"",""141""
""focus"",""1"",""4678""
""fullscreenenter"",""1"",""5859""
","""event"",""trial"",""time""
""blur"",""1"",""141""
","""event"",""trial"",""time""
""focus"",""1"",""4678""
","""event"",""trial"",""time""
""fullscreenenter"",""1"",""5859""
","
","","","-1","","","20","4447","3197","&#9761;","elianto","#3366ff99","-1","-1","1","+10","[]","0","0","2","","","","","","","",""
"pit-trial","43","433671","0.0-2.0-11.1-1.1","battery-v0.2","","""event"",""trial"",""time""
""blur"",""1"",""141""
""focus"",""1"",""4678""
""fullscreenenter"",""1"",""5859""
","""event"",""trial"",""time""
""blur"",""1"",""141""
","""event"",""trial"",""time""
""focus"",""1"",""4678""
","""event"",""trial"",""time""
""fullscreenenter"",""1"",""5859""
","
","","","-1","","","20","4447","3197","&#9761;","elianto","#3366ff99","-1","-1","1","+10","[]","0","0","2","","","","","","","",""
"pit-trial","44","438544","0.0-2.0-11.1-2.1","battery-v0.2","","""event"",""trial"",""time""
""blur"",""1"",""141""
""focus"",""1"",""4678""
""fullscreenenter"",""1"",""5859""
","""event"",""trial"",""time""
""blur"",""1"",""141""
","""event"",""trial"",""time""
""focus"",""1"",""4678""
","""event"",""trial"",""time""
""fullscreenenter"",""1"",""5859""
","
","","","-1","","","20","4447","3197","&#9761;","elianto","#3366ff99","-1","-1","1","+10","[]","0","0","2","","","","","","","",""
"pit-trial","45","443415","0.0-2.0-11.1-3.1","battery-v0.2","","""event"",""trial"",""time""
""blur"",""1"",""141""
""focus"",""1"",""4678""
""fullscreenenter"",""1"",""5859""
","""event"",""trial"",""time""
""blur"",""1"",""141""
","""event"",""trial"",""time""
""focus"",""1"",""4678""
","""event"",""trial"",""time""
""fullscreenenter"",""1"",""5859""
","
","","","-1","","","20","4447","3197","&#9761;","elianto","#3366ff99","-1","-1","1","0","[]","0","0","2","","","","","","","",""
"pit-trial","46","448280","0.0-2.0-11.1-4.1","battery-v0.2","","""event"",""trial"",""time""
""blur"",""1"",""141""
""focus"",""1"",""4678""
""fullscreenenter"",""1"",""5859""
","""event"",""trial"",""time""
""blur"",""1"",""141""
","""event"",""trial"",""time""
""focus"",""1"",""4678""
","""event"",""trial"",""time""
""fullscreenenter"",""1"",""5859""
","
","","","-1","","","20","4447","3197","&#9761;","elianto","#3366ff99","-1","-1","1","+10","[]","0","0","2","","","","","","","",""
"pit-trial","47","453153","0.0-2.0-11.2-0.2","battery-v0.2","","""event"",""trial"",""time""
""blur"",""1"",""141""
""focus"",""1"",""4678""
""fullscreenenter"",""1"",""5859""
","""event"",""trial"",""time""
""blur"",""1"",""141""
","""event"",""trial"",""time""
""focus"",""1"",""4678""
","""event"",""trial"",""time""
""fullscreenenter"",""1"",""5859""
","
","","","-1","","","20","4447","3197","&#9761;","elianto","#3366ff99","-1","-1","1","+10","[]","0","0","2","","","","","","","",""
"pit-trial","48","458016","0.0-2.0-11.2-1.2","battery-v0.2","","""event"",""trial"",""time""
""blur"",""1"",""141""
""focus"",""1"",""4678""
""fullscreenenter"",""1"",""5859""
","""event"",""trial"",""time""
""blur"",""1"",""141""
","""event"",""trial"",""time""
""focus"",""1"",""4678""
","""event"",""trial"",""time""
""fullscreenenter"",""1"",""5859""
","
","","","-1","","","20","4447","3197","&#9761;","elianto","#3366ff99","-1","-1","1","+10","[]","0","0","2","","","","","","","",""
"pit-trial","49","462879","0.0-2.0-11.2-2.2","battery-v0.2","","""event"",""trial"",""time""
""blur"",""1"",""141""
""focus"",""1"",""4678""
""fullscreenenter"",""1"",""5859""
","""event"",""trial"",""time""
""blur"",""1"",""141""
","""event"",""trial"",""time""
""focus"",""1"",""4678""
","""event"",""trial"",""time""
""fullscreenenter"",""1"",""5859""
","
","","","-1","","","20","4447","3197","&#9761;","elianto","#3366ff99","-1","-1","1","+10","[]","0","0","2","","","","","","","",""
"pit-trial","50","467745","0.0-2.0-11.2-3.2","battery-v0.2","","""event"",""trial"",""time""
""blur"",""1"",""141""
""focus"",""1"",""4678""
""fullscreenenter"",""1"",""5859""
","""event"",""trial"",""time""
""blur"",""1"",""141""
","""event"",""trial"",""time""
""focus"",""1"",""4678""
","""event"",""trial"",""time""
""fullscreenenter"",""1"",""5859""
","
","","","-1","","","20","4447","3197","&#9761;","elianto","#3366ff99","-1","-1","1","0","[]","0","0","2","","","","","","","",""
"pit-trial","51","472617","0.0-2.0-11.2-4.2","battery-v0.2","","""event"",""trial"",""time""
""blur"",""1"",""141""
""focus"",""1"",""4678""
""fullscreenenter"",""1"",""5859""
","""event"",""trial"",""time""
""blur"",""1"",""141""
","""event"",""trial"",""time""
""focus"",""1"",""4678""
","""event"",""trial"",""time""
""fullscreenenter"",""1"",""5859""
","
","","","-1","","","20","4447","3197","&#9761;","elianto","#3366ff99","-1","-1","1","+10","[]","0","0","2","","","","","","","",""
"pit-trial","52","477489","0.0-2.0-11.3-0.3","battery-v0.2","","""event"",""trial"",""time""
""blur"",""1"",""141""
""focus"",""1"",""4678""
""fullscreenenter"",""1"",""5859""
","""event"",""trial"",""time""
""blur"",""1"",""141""
","""event"",""trial"",""time""
""focus"",""1"",""4678""
","""event"",""trial"",""time""
""fullscreenenter"",""1"",""5859""
","
","","","-1","","","20","4447","3197","&#9761;","elianto","#3366ff99","-1","-1","1","+10","[]","0","0","2","","","","","","","",""
"pit-trial","53","482360","0.0-2.0-11.3-1.3","battery-v0.2","","""event"",""trial"",""time""
""blur"",""1"",""141""
""focus"",""1"",""4678""
""fullscreenenter"",""1"",""5859""
","""event"",""trial"",""time""
""blur"",""1"",""141""
","""event"",""trial"",""time""
""focus"",""1"",""4678""
","""event"",""trial"",""time""
""fullscreenenter"",""1"",""5859""
","
","","","-1","","","20","4447","3197","&#9761;","elianto","#3366ff99","-1","-1","1","+10","[]","0","0","2","","","","","","","",""
"pit-trial","54","487224","0.0-2.0-11.3-2.3","battery-v0.2","","""event"",""trial"",""time""
""blur"",""1"",""141""
""focus"",""1"",""4678""
""fullscreenenter"",""1"",""5859""
","""event"",""trial"",""time""
""blur"",""1"",""141""
","""event"",""trial"",""time""
""focus"",""1"",""4678""
","""event"",""trial"",""time""
""fullscreenenter"",""1"",""5859""
","
","","","-1","","","20","4447","3197","&#9761;","elianto","#3366ff99","-1","-1","1","+10","[]","0","0","2","","","","","","","",""
"pit-trial","55","492088","0.0-2.0-11.3-3.3","battery-v0.2","","""event"",""trial"",""time""
""blur"",""1"",""141""
""focus"",""1"",""4678""
""fullscreenenter"",""1"",""5859""
","""event"",""trial"",""time""
""blur"",""1"",""141""
","""event"",""trial"",""time""
""focus"",""1"",""4678""
","""event"",""trial"",""time""
""fullscreenenter"",""1"",""5859""
","
","","","-1","","","20","4447","3197","&#9761;","elianto","#3366ff99","-1","-1","1","0","[]","0","0","2","","","","","","","",""
"pit-trial","56","496952","0.0-2.0-11.3-4.3","battery-v0.2","","""event"",""trial"",""time""
""blur"",""1"",""141""
""focus"",""1"",""4678""
""fullscreenenter"",""1"",""5859""
","""event"",""trial"",""time""
""blur"",""1"",""141""
","""event"",""trial"",""time""
""focus"",""1"",""4678""
","""event"",""trial"",""time""
""fullscreenenter"",""1"",""5859""
","
","","","-1","","","20","4447","3197","&#9761;","elianto","#3366ff99","-1","-1","1","+10","[]","0","0","2","","","","","","","",""
"call-function","57","496956","0.0-2.0-12.0","battery-v0.2","","""event"",""trial"",""time""
""blur"",""1"",""141""
""focus"",""1"",""4678""
""fullscreenenter"",""1"",""5859""
","""event"",""trial"",""time""
""blur"",""1"",""141""
","""event"",""trial"",""time""
""focus"",""1"",""4678""
","""event"",""trial"",""time""
""fullscreenenter"",""1"",""5859""
","
","","","","","","","","","","","","","","","","","","","","","","","","","","",""
"pit-instructions","58","540484","0.0-2.0-13.0","battery-v0.2","","""event"",""trial"",""time""
""blur"",""1"",""141""
""focus"",""1"",""4678""
""fullscreenenter"",""1"",""5859""
","""event"",""trial"",""time""
""blur"",""1"",""141""
","""event"",""trial"",""time""
""focus"",""1"",""4678""
","""event"",""trial"",""time""
""fullscreenenter"",""1"",""5859""
","
","","[{""page_index"":0,""viewing_time"":7837.79999999702},{""page_index"":1,""viewing_time"":10219.79999999702},{""page_index"":2,""viewing_time"":6326.5},{""page_index"":3,""viewing_time"":12293.300000011921},{""page_index"":4,""viewing_time"":6850.399999991059}]","43528.09999999404","","","","","","","","","","","","","","","","","","","","","","","",""
"pit-trial","59","545359","0.0-2.0-14.0-0.0","battery-v0.2","","""event"",""trial"",""time""
""blur"",""1"",""141""
""focus"",""1"",""4678""
""fullscreenenter"",""1"",""5859""
","""event"",""trial"",""time""
""blur"",""1"",""141""
","""event"",""trial"",""time""
""focus"",""1"",""4678""
","""event"",""trial"",""time""
""fullscreenenter"",""1"",""5859""
","
","","","-1","","","20","4447","3197","&#9826;","elianto","#f73b6a7A","-1","-1","1","0","[]","0","0","3","","","","","","","",""
"pit-trial","60","548464","0.0-2.0-14.0-1.0","battery-v0.2","","""event"",""trial"",""time""
""blur"",""1"",""141""
""focus"",""1"",""4678""
""fullscreenenter"",""1"",""5859""
","""event"",""trial"",""time""
""blur"",""1"",""141""
","""event"",""trial"",""time""
""focus"",""1"",""4678""
","""event"",""trial"",""time""
""fullscreenenter"",""1"",""5859""
","
","","","236.80000001192093","","","20","4447","3197","&#9826;","elianto","#f73b6a7A","-1"," ","0","-10","[1091]","1","0","3","","","","","","","",""
"pit-trial","61","553351","0.0-2.0-14.0-2.0","battery-v0.2","","""event"",""trial"",""time""
""blur"",""1"",""141""
""focus"",""1"",""4678""
""fullscreenenter"",""1"",""5859""
","""event"",""trial"",""time""
""blur"",""1"",""141""
","""event"",""trial"",""time""
""focus"",""1"",""4678""
","""event"",""trial"",""time""
""fullscreenenter"",""1"",""5859""
","
","","","-1","","","20","4447","3197","&#9826;","elianto","#f73b6a7A","-1","-1","1","0","[]","0","0","3","","","","","","","",""
"pit-trial","62","558220","0.0-2.0-14.0-3.0","battery-v0.2","","""event"",""trial"",""time""
""blur"",""1"",""141""
""focus"",""1"",""4678""
""fullscreenenter"",""1"",""5859""
","""event"",""trial"",""time""
""blur"",""1"",""141""
","""event"",""trial"",""time""
""focus"",""1"",""4678""
","""event"",""trial"",""time""
""fullscreenenter"",""1"",""5859""
","
","","","-1","","","20","4447","3197","&#9826;","elianto","#f73b6a7A","-1","-1","1","-10","[4377.29999999702]","1","0","3","","","","","","","",""
"pit-trial","63","561171","0.0-2.0-14.0-4.0","battery-v0.2","","""event"",""trial"",""time""
""blur"",""1"",""141""
""focus"",""1"",""4678""
""fullscreenenter"",""1"",""5859""
","""event"",""trial"",""time""
""blur"",""1"",""141""
","""event"",""trial"",""time""
""focus"",""1"",""4678""
","""event"",""trial"",""time""
""fullscreenenter"",""1"",""5859""
","
","","","76.1000000089407","","","20","4447","3197","&#9826;","elianto","#f73b6a7A","-1"," ","0","-10","[928.7000000029802]","1","0","3","","","","","","","",""
"pit-trial","64","566045","0.0-2.0-14.1-0.1","battery-v0.2","","""event"",""trial"",""time""
""blur"",""1"",""141""
""focus"",""1"",""4678""
""fullscreenenter"",""1"",""5859""
","""event"",""trial"",""time""
""blur"",""1"",""141""
","""event"",""trial"",""time""
""focus"",""1"",""4678""
","""event"",""trial"",""time""
""fullscreenenter"",""1"",""5859""
","
","","","-1","","","20","4447","3197","&#9826;","elianto","#f73b6a7A","-1","-1","1","0","[]","0","0","3","","","","","","","",""
"pit-trial","65","570912","0.0-2.0-14.1-1.1","battery-v0.2","","""event"",""trial"",""time""
""blur"",""1"",""141""
""focus"",""1"",""4678""
""fullscreenenter"",""1"",""5859""
","""event"",""trial"",""time""
""blur"",""1"",""141""
","""event"",""trial"",""time""
""focus"",""1"",""4678""
","""event"",""trial"",""time""
""fullscreenenter"",""1"",""5859""
","
","","","-1","","","20","4447","3197","&#9826;","elianto","#f73b6a7A","-1","-1","1","0","[]","0","0","3","","","","","","","",""
"pit-trial","66","575775","0.0-2.0-14.1-2.1","battery-v0.2","","""event"",""trial"",""time""
""blur"",""1"",""141""
""focus"",""1"",""4678""
""fullscreenenter"",""1"",""5859""
","""event"",""trial"",""time""
""blur"",""1"",""141""
","""event"",""trial"",""time""
""focus"",""1"",""4678""
","""event"",""trial"",""time""
""fullscreenenter"",""1"",""5859""
","
","","","-1","","","20","4447","3197","&#9826;","elianto","#f73b6a7A","-1","-1","1","0","[]","0","0","3","","","","","","","",""
"pit-trial","67","580648","0.0-2.0-14.1-3.1","battery-v0.2","","""event"",""trial"",""time""
""blur"",""1"",""141""
""focus"",""1"",""4678""
""fullscreenenter"",""1"",""5859""
","""event"",""trial"",""time""
""blur"",""1"",""141""
","""event"",""trial"",""time""
""focus"",""1"",""4678""
","""event"",""trial"",""time""
""fullscreenenter"",""1"",""5859""
","
","","","-1","","","20","4447","3197","&#9826;","elianto","#f73b6a7A","-1","-1","1","-10","[]","0","0","3","","","","","","","",""
"pit-trial","68","585511","0.0-2.0-14.1-4.1","battery-v0.2","","""event"",""trial"",""time""
""blur"",""1"",""141""
""focus"",""1"",""4678""
""fullscreenenter"",""1"",""5859""
","""event"",""trial"",""time""
""blur"",""1"",""141""
","""event"",""trial"",""time""
""focus"",""1"",""4678""
","""event"",""trial"",""time""
""fullscreenenter"",""1"",""5859""
","
","","","-1","","","20","4447","3197","&#9826;","elianto","#f73b6a7A","-1","-1","1","0","[]","0","0","3","","","","","","","",""
"pit-trial","69","590383","0.0-2.0-14.2-0.2","battery-v0.2","","""event"",""trial"",""time""
""blur"",""1"",""141""
""focus"",""1"",""4678""
""fullscreenenter"",""1"",""5859""
","""event"",""trial"",""time""
""blur"",""1"",""141""
","""event"",""trial"",""time""
""focus"",""1"",""4678""
","""event"",""trial"",""time""
""fullscreenenter"",""1"",""5859""
","
","","","-1","","","20","4447","3197","&#9826;","elianto","#f73b6a7A","-1","-1","1","0","[]","0","0","3","","","","","","","",""
"pit-trial","70","595248","0.0-2.0-14.2-1.2","battery-v0.2","","""event"",""trial"",""time""
""blur"",""1"",""141""
""focus"",""1"",""4678""
""fullscreenenter"",""1"",""5859""
","""event"",""trial"",""time""
""blur"",""1"",""141""
","""event"",""trial"",""time""
""focus"",""1"",""4678""
","""event"",""trial"",""time""
""fullscreenenter"",""1"",""5859""
","
","","","-1","","","20","4447","3197","&#9826;","elianto","#f73b6a7A","-1","-1","1","0","[]","0","0","3","","","","","","","",""
"pit-trial","71","600122","0.0-2.0-14.2-2.2","battery-v0.2","","""event"",""trial"",""time""
""blur"",""1"",""141""
""focus"",""1"",""4678""
""fullscreenenter"",""1"",""5859""
","""event"",""trial"",""time""
""blur"",""1"",""141""
","""event"",""trial"",""time""
""focus"",""1"",""4678""
","""event"",""trial"",""time""
""fullscreenenter"",""1"",""5859""
","
","","","-1","","","20","4447","3197","&#9826;","elianto","#f73b6a7A","-1","-1","1","0","[]","0","0","3","","","","","","","",""
"pit-trial","72","604991","0.0-2.0-14.2-3.2","battery-v0.2","","""event"",""trial"",""time""
""blur"",""1"",""141""
""focus"",""1"",""4678""
""fullscreenenter"",""1"",""5859""
","""event"",""trial"",""time""
""blur"",""1"",""141""
","""event"",""trial"",""time""
""focus"",""1"",""4678""
","""event"",""trial"",""time""
""fullscreenenter"",""1"",""5859""
","
","","","-1","","","20","4447","3197","&#9826;","elianto","#f73b6a7A","-1","-1","1","-10","[]","0","0","3","","","","","","","",""
"pit-trial","73","609855","0.0-2.0-14.2-4.2","battery-v0.2","","""event"",""trial"",""time""
""blur"",""1"",""141""
""focus"",""1"",""4678""
""fullscreenenter"",""1"",""5859""
","""event"",""trial"",""time""
""blur"",""1"",""141""
","""event"",""trial"",""time""
""focus"",""1"",""4678""
","""event"",""trial"",""time""
""fullscreenenter"",""1"",""5859""
","
","","","-1","","","20","4447","3197","&#9826;","elianto","#f73b6a7A","-1","-1","1","0","[]","0","0","3","","","","","","","",""
"pit-trial","74","614719","0.0-2.0-14.3-0.3","battery-v0.2","","""event"",""trial"",""time""
""blur"",""1"",""141""
""focus"",""1"",""4678""
""fullscreenenter"",""1"",""5859""
","""event"",""trial"",""time""
""blur"",""1"",""141""
","""event"",""trial"",""time""
""focus"",""1"",""4678""
","""event"",""trial"",""time""
""fullscreenenter"",""1"",""5859""
","
","","","-1","","","20","4447","3197","&#9826;","elianto","#f73b6a7A","-1","-1","1","0","[]","0","0","3","","","","","","","",""
"pit-trial","75","619591","0.0-2.0-14.3-1.3","battery-v0.2","","""event"",""trial"",""time""
""blur"",""1"",""141""
""focus"",""1"",""4678""
""fullscreenenter"",""1"",""5859""
","""event"",""trial"",""time""
""blur"",""1"",""141""
","""event"",""trial"",""time""
""focus"",""1"",""4678""
","""event"",""trial"",""time""
""fullscreenenter"",""1"",""5859""
","
","","","-1","","","20","4447","3197","&#9826;","elianto","#f73b6a7A","-1","-1","1","0","[]","0","0","3","","","","","","","",""
"pit-trial","76","624456","0.0-2.0-14.3-2.3","battery-v0.2","","""event"",""trial"",""time""
""blur"",""1"",""141""
""focus"",""1"",""4678""
""fullscreenenter"",""1"",""5859""
","""event"",""trial"",""time""
""blur"",""1"",""141""
","""event"",""trial"",""time""
""focus"",""1"",""4678""
","""event"",""trial"",""time""
""fullscreenenter"",""1"",""5859""
","
","","","-1","","","20","4447","3197","&#9826;","elianto","#f73b6a7A","-1","-1","1","0","[]","0","0","3","","","","","","","",""
"pit-trial","77","629327","0.0-2.0-14.3-3.3","battery-v0.2","","""event"",""trial"",""time""
""blur"",""1"",""141""
""focus"",""1"",""4678""
""fullscreenenter"",""1"",""5859""
","""event"",""trial"",""time""
""blur"",""1"",""141""
","""event"",""trial"",""time""
""focus"",""1"",""4678""
","""event"",""trial"",""time""
""fullscreenenter"",""1"",""5859""
","
","","","-1","","","20","4447","3197","&#9826;","elianto","#f73b6a7A","-1","-1","1","-10","[]","0","0","3","","","","","","","",""
"pit-trial","78","634191","0.0-2.0-14.3-4.3","battery-v0.2","","""event"",""trial"",""time""
""blur"",""1"",""141""
""focus"",""1"",""4678""
""fullscreenenter"",""1"",""5859""
","""event"",""trial"",""time""
""blur"",""1"",""141""
","""event"",""trial"",""time""
""focus"",""1"",""4678""
","""event"",""trial"",""time""
""fullscreenenter"",""1"",""5859""
","
","","","-1","","","20","4447","3197","&#9826;","elianto","#f73b6a7A","-1","-1","1","0","[]","0","0","3","","","","","","","",""
"call-function","79","634196","0.0-2.0-15.0","battery-v0.2","","""event"",""trial"",""time""
""blur"",""1"",""141""
""focus"",""1"",""4678""
""fullscreenenter"",""1"",""5859""
","""event"",""trial"",""time""
""blur"",""1"",""141""
","""event"",""trial"",""time""
""focus"",""1"",""4678""
","""event"",""trial"",""time""
""fullscreenenter"",""1"",""5859""
","
","","","","","","","","","","","","","","","","","","","","","","","","","","",""
"pit-instructions","80","670210","0.0-2.0-16.0","battery-v0.2","","""event"",""trial"",""time""
""blur"",""1"",""141""
""focus"",""1"",""4678""
""fullscreenenter"",""1"",""5859""
","""event"",""trial"",""time""
""blur"",""1"",""141""
","""event"",""trial"",""time""
""focus"",""1"",""4678""
","""event"",""trial"",""time""
""fullscreenenter"",""1"",""5859""
","
","","[{""page_index"":0,""viewing_time"":10635.29999999702},{""page_index"":1,""viewing_time"":11304.40000000596},{""page_index"":2,""viewing_time"":7703.79999999702},{""page_index"":3,""viewing_time"":6369.4000000059605}]","36013.40000000596","","","","","","","","","","","","","","","","","","","","","","","",""
"pit-trial","81","675086","0.0-2.0-17.0-0.0","battery-v0.2","","""event"",""trial"",""time""
""blur"",""1"",""141""
""focus"",""1"",""4678""
""fullscreenenter"",""1"",""5859""
","""event"",""trial"",""time""
""blur"",""1"",""141""
","""event"",""trial"",""time""
""focus"",""1"",""4678""
","""event"",""trial"",""time""
""fullscreenenter"",""1"",""5859""
","
","","","-1","","","20","4447","3197","&#9789;","elianto","#f73b6a7A"," ","-1","0","-10","[]","0","0","4","","","","","","","",""
"pit-trial","82","678296","0.0-2.0-17.0-1.0","battery-v0.2","","""event"",""trial"",""time""
""blur"",""1"",""141""
""focus"",""1"",""4678""
""fullscreenenter"",""1"",""5859""
","""event"",""trial"",""time""
""blur"",""1"",""141""
","""event"",""trial"",""time""
""focus"",""1"",""4678""
","""event"",""trial"",""time""
""fullscreenenter"",""1"",""5859""
","
","","","339.90000000596046","","","20","4447","3197","&#9789;","elianto","#f73b6a7A"," "," ","1","0","[1192.5]","1","0","4","","","","","","","",""
"pit-trial","83","681685","0.0-2.0-17.0-2.0","battery-v0.2","","""event"",""trial"",""time""
""blur"",""1"",""141""
""focus"",""1"",""4678""
""fullscreenenter"",""1"",""5859""
","""event"",""trial"",""time""
""blur"",""1"",""141""
","""event"",""trial"",""time""
""focus"",""1"",""4678""
","""event"",""trial"",""time""
""fullscreenenter"",""1"",""5859""
","
","","","525.9000000059605","","","20","4447","3197","&#9789;","elianto","#f73b6a7A"," "," ","1","0","[1376.0999999940395]","1","0","4","","","","","","","",""
"pit-trial","84","684981","0.0-2.0-17.0-3.0","battery-v0.2","","""event"",""trial"",""time""
""blur"",""1"",""141""
""focus"",""1"",""4678""
""fullscreenenter"",""1"",""5859""
","""event"",""trial"",""time""
""blur"",""1"",""141""
","""event"",""trial"",""time""
""focus"",""1"",""4678""
","""event"",""trial"",""time""
""fullscreenenter"",""1"",""5859""
","
","","","420.90000000596046","","","20","4447","3197","&#9789;","elianto","#f73b6a7A"," "," ","1","-10","[1276.1000000089407]","1","0","4","","","","","","","",""
"pit-trial","85","688341","0.0-2.0-17.0-4.0","battery-v0.2","","""event"",""trial"",""time""
""blur"",""1"",""141""
""focus"",""1"",""4678""
""fullscreenenter"",""1"",""5859""
","""event"",""trial"",""time""
""blur"",""1"",""141""
","""event"",""trial"",""time""
""focus"",""1"",""4678""
","""event"",""trial"",""time""
""fullscreenenter"",""1"",""5859""
","
","","","493.29999999701977","","","20","4447","3197","&#9789;","elianto","#f73b6a7A"," "," ","1","0","[1346.2000000029802]","1","0","4","","","","","","","",""
"pit-trial","86","691562","0.0-2.0-17.1-0.1","battery-v0.2","","""event"",""trial"",""time""
""blur"",""1"",""141""
""focus"",""1"",""4678""
""fullscreenenter"",""1"",""5859""
","""event"",""trial"",""time""
""blur"",""1"",""141""
","""event"",""trial"",""time""
""focus"",""1"",""4678""
","""event"",""trial"",""time""
""fullscreenenter"",""1"",""5859""
","
","","","342.59999999403954","","","20","4447","3197","&#9789;","elianto","#f73b6a7A"," "," ","1","0","[1199.300000011921]","1","0","4","","","","","","","",""
"pit-trial","87","695103","0.0-2.0-17.1-1.1","battery-v0.2","","""event"",""trial"",""time""
""blur"",""1"",""141""
""focus"",""1"",""4678""
""fullscreenenter"",""1"",""5859""
","""event"",""trial"",""time""
""blur"",""1"",""141""
","""event"",""trial"",""time""
""focus"",""1"",""4678""
","""event"",""trial"",""time""
""fullscreenenter"",""1"",""5859""
","
","","","663.2000000029802","","","20","4447","3197","&#9789;","elianto","#f73b6a7A"," "," ","1","0","[1519.7000000029802]","1","0","4","","","","","","","",""
"pit-trial","88","698796","0.0-2.0-17.1-2.1","battery-v0.2","","""event"",""trial"",""time""
""blur"",""1"",""141""
""focus"",""1"",""4678""
""fullscreenenter"",""1"",""5859""
","""event"",""trial"",""time""
""blur"",""1"",""141""
","""event"",""trial"",""time""
""focus"",""1"",""4678""
","""event"",""trial"",""time""
""fullscreenenter"",""1"",""5859""
","
","","","819.2999999970198","","","20","4447","3197","&#9789;","elianto","#f73b6a7A"," "," ","1","0","[1669.4000000059605]","1","0","4","","","","","","","",""
"pit-trial","89","702248","0.0-2.0-17.1-3.1","battery-v0.2","","""event"",""trial"",""time""
""blur"",""1"",""141""
""focus"",""1"",""4678""
""fullscreenenter"",""1"",""5859""
","""event"",""trial"",""time""
""blur"",""1"",""141""
","""event"",""trial"",""time""
""focus"",""1"",""4678""
","""event"",""trial"",""time""
""fullscreenenter"",""1"",""5859""
","
","","","588.6999999880791","","","20","4447","3197","&#9789;","elianto","#f73b6a7A"," "," ","1","-10","[1444.0999999940395]","1","0","4","","","","","","","",""
"pit-trial","90","705688","0.0-2.0-17.1-4.1","battery-v0.2","","""event"",""trial"",""time""
""blur"",""1"",""141""
""focus"",""1"",""4678""
""fullscreenenter"",""1"",""5859""
","""event"",""trial"",""time""
""blur"",""1"",""141""
","""event"",""trial"",""time""
""focus"",""1"",""4678""
","""event"",""trial"",""time""
""fullscreenenter"",""1"",""5859""
","
","","","574.5","","","20","4447","3197","&#9789;","elianto","#f73b6a7A"," "," ","1","0","[1433.4000000059605]","1","0","4","","","","","","","",""
"pit-trial","91","709568","0.0-2.0-17.2-0.2","battery-v0.2","","""event"",""trial"",""time""
""blur"",""1"",""141""
""focus"",""1"",""4678""
""fullscreenenter"",""1"",""5859""
","""event"",""trial"",""time""
""blur"",""1"",""141""
","""event"",""trial"",""time""
""focus"",""1"",""4678""
","""event"",""trial"",""time""
""fullscreenenter"",""1"",""5859""
","
","","","990.8000000119209","","","20","4447","3197","&#9789;","elianto","#f73b6a7A"," "," ","1","0","[1847.9000000059605]","1","0","4","","","","","","","",""
"pit-trial","92","712911","0.0-2.0-17.2-1.2","battery-v0.2","","""event"",""trial"",""time""
""blur"",""1"",""141""
""focus"",""1"",""4678""
""fullscreenenter"",""1"",""5859""
","""event"",""trial"",""time""
""blur"",""1"",""141""
","""event"",""trial"",""time""
""focus"",""1"",""4678""
","""event"",""trial"",""time""
""fullscreenenter"",""1"",""5859""
","
","","","472.29999999701977","","","20","4447","3197","&#9789;","elianto","#f73b6a7A"," "," ","1","0","[1330.800000011921]","1","0","4","","","","","","","",""
"pit-trial","93","716280","0.0-2.0-17.2-2.2","battery-v0.2","","""event"",""trial"",""time""
""blur"",""1"",""141""
""focus"",""1"",""4678""
""fullscreenenter"",""1"",""5859""
","""event"",""trial"",""time""
""blur"",""1"",""141""
","""event"",""trial"",""time""
""focus"",""1"",""4678""
","""event"",""trial"",""time""
""fullscreenenter"",""1"",""5859""
","
","","","507.3999999910593","","","20","4447","3197","&#9789;","elianto","#f73b6a7A"," "," ","1","0","[1358.7000000029802]","1","0","4","","","","","","","",""
"pit-trial","94","719239","0.0-2.0-17.2-3.2","battery-v0.2","","""event"",""trial"",""time""
""blur"",""1"",""141""
""focus"",""1"",""4678""
""fullscreenenter"",""1"",""5859""
","""event"",""trial"",""time""
""blur"",""1"",""141""
","""event"",""trial"",""time""
""focus"",""1"",""4678""
","""event"",""trial"",""time""
""fullscreenenter"",""1"",""5859""
","
","","","90.79999999701977","","","20","4447","3197","&#9789;","elianto","#f73b6a7A"," "," ","1","-10","[948.7000000029802]","1","0","4","","","","","","","",""
"pit-trial","95","722583","0.0-2.0-17.2-4.2","battery-v0.2","","""event"",""trial"",""time""
""blur"",""1"",""141""
""focus"",""1"",""4678""
""fullscreenenter"",""1"",""5859""
","""event"",""trial"",""time""
""blur"",""1"",""141""
","""event"",""trial"",""time""
""focus"",""1"",""4678""
","""event"",""trial"",""time""
""fullscreenenter"",""1"",""5859""
","
","","","481.70000000298023","","","20","4447","3197","&#9789;","elianto","#f73b6a7A"," "," ","1","0","[1333.2000000029802]","1","0","4","","","","","","","",""
"pit-trial","96","725975","0.0-2.0-17.3-0.3","battery-v0.2","","""event"",""trial"",""time""
""blur"",""1"",""141""
""focus"",""1"",""4678""
""fullscreenenter"",""1"",""5859""
","""event"",""trial"",""time""
""blur"",""1"",""141""
","""event"",""trial"",""time""
""focus"",""1"",""4678""
","""event"",""trial"",""time""
""fullscreenenter"",""1"",""5859""
","
","","","533.3999999910593","","","20","4447","3197","&#9789;","elianto","#f73b6a7A"," "," ","1","0","[1385]","1","0","4","","","","","","","",""
"pit-trial","97","728999","0.0-2.0-17.3-1.3","battery-v0.2","","""event"",""trial"",""time""
""blur"",""1"",""141""
""focus"",""1"",""4678""
""fullscreenenter"",""1"",""5859""
","""event"",""trial"",""time""
""blur"",""1"",""141""
","""event"",""trial"",""time""
""focus"",""1"",""4678""
","""event"",""trial"",""time""
""fullscreenenter"",""1"",""5859""
","
","","","151.6000000089407","","","20","4447","3197","&#9789;","elianto","#f73b6a7A"," "," ","1","0","[1009.7999999970198]","1","0","4","","","","","","","",""
"pit-trial","98","732431","0.0-2.0-17.3-2.3","battery-v0.2","","""event"",""trial"",""time""
""blur"",""1"",""141""
""focus"",""1"",""4678""
""fullscreenenter"",""1"",""5859""
","""event"",""trial"",""time""
""blur"",""1"",""141""
","""event"",""trial"",""time""
""focus"",""1"",""4678""
","""event"",""trial"",""time""
""fullscreenenter"",""1"",""5859""
","
","","","567.5999999940395","","","20","4447","3197","&#9789;","elianto","#f73b6a7A"," "," ","1","0","[1419.2000000029802]","1","0","4","","","","","","","",""
"pit-trial","99","736151","0.0-2.0-17.3-3.3","battery-v0.2","","""event"",""trial"",""time""
""blur"",""1"",""141""
""focus"",""1"",""4678""
""fullscreenenter"",""1"",""5859""
","""event"",""trial"",""time""
""blur"",""1"",""141""
","""event"",""trial"",""time""
""focus"",""1"",""4678""
","""event"",""trial"",""time""
""fullscreenenter"",""1"",""5859""
","
","","","856.2000000029802","","","20","4447","3197","&#9789;","elianto","#f73b6a7A"," "," ","1","-10","[1708.3999999910593]","1","0","4","","","","","","","",""
"pit-trial","100","739608","0.0-2.0-17.3-4.3","battery-v0.2","","""event"",""trial"",""time""
""blur"",""1"",""141""
""focus"",""1"",""4678""
""fullscreenenter"",""1"",""5859""
","""event"",""trial"",""time""
""blur"",""1"",""141""
","""event"",""trial"",""time""
""focus"",""1"",""4678""
","""event"",""trial"",""time""
""fullscreenenter"",""1"",""5859""
","
","","","595.8999999910593","","","20","4447","3197","&#9789;","elianto","#f73b6a7A"," "," ","1","0","[1447.7000000029802]","1","0","4","","","","","","","",""
"call-function","101","739612","0.0-2.0-18.0","battery-v0.2","","""event"",""trial"",""time""
""blur"",""1"",""141""
""focus"",""1"",""4678""
""fullscreenenter"",""1"",""5859""
","""event"",""trial"",""time""
""blur"",""1"",""141""
","""event"",""trial"",""time""
""focus"",""1"",""4678""
","""event"",""trial"",""time""
""fullscreenenter"",""1"",""5859""
","
","","","","","","","","","","","","","","","","","","","","","","","","","","",""
"pit-instructions","102","828522","0.0-2.0-19.0","battery-v0.2","","""event"",""trial"",""time""
""blur"",""1"",""141""
""focus"",""1"",""4678""
""fullscreenenter"",""1"",""5859""
","""event"",""trial"",""time""
""blur"",""1"",""141""
","""event"",""trial"",""time""
""focus"",""1"",""4678""
","""event"",""trial"",""time""
""fullscreenenter"",""1"",""5859""
","
","","[{""page_index"":0,""viewing_time"":8802.09999999404},{""page_index"":1,""viewing_time"":8718.40000000596},{""page_index"":2,""viewing_time"":16879.70000000298},{""page_index"":3,""viewing_time"":9609.79999999702},{""page_index"":4,""viewing_time"":12244.20000000298},{""page_index"":5,""viewing_time"":11546.70000000298},{""page_index"":6,""viewing_time"":9242.59999999404},{""page_index"":7,""viewing_time"":7437.20000000298},{""page_index"":8,""viewing_time"":4428.29999999702}]","88909.5","","","","","","","","","","","","","","","","","","","","","","","",""
"pit-comprehension","103","833781","0.0-2.0-20.0-0.0","battery-v0.2","","""event"",""trial"",""time""
""blur"",""1"",""141""
""focus"",""1"",""4678""
""fullscreenenter"",""1"",""5859""
","""event"",""trial"",""time""
""blur"",""1"",""141""
","""event"",""trial"",""time""
""focus"",""1"",""4678""
","""event"",""trial"",""time""
""fullscreenenter"",""1"",""5859""
","
","","","5251.79999999702","[""SPACE""]","0","20","4447","3197","","","","","","","","","","","","","","","","","","",""
"pit-instructions","104","839782","0.0-2.0-20.0-1.0","battery-v0.2","","""event"",""trial"",""time""
""blur"",""1"",""141""
""focus"",""1"",""4678""
""fullscreenenter"",""1"",""5859""
","""event"",""trial"",""time""
""blur"",""1"",""141""
","""event"",""trial"",""time""
""focus"",""1"",""4678""
","""event"",""trial"",""time""
""fullscreenenter"",""1"",""5859""
","
","","[{""page_index"":0,""viewing_time"":5955.0999999940395}]","5955.5","","","","","","","","","","","","","","","","","","","","","","","",""
"pit-comprehension","105","845759","0.0-2.0-21.0-0.0","battery-v0.2","","""event"",""trial"",""time""
""blur"",""1"",""141""
""focus"",""1"",""4678""
""fullscreenenter"",""1"",""5859""
","""event"",""trial"",""time""
""blur"",""1"",""141""
","""event"",""trial"",""time""
""focus"",""1"",""4678""
","""event"",""trial"",""time""
""fullscreenenter"",""1"",""5859""
","
","","","5971.79999999702","[""10""]","0","20","4447","3197","","","","","","","","","","","","","","","","","","",""
"pit-instructions","106","849205","0.0-2.0-21.0-1.0","battery-v0.2","","""event"",""trial"",""time""
""blur"",""1"",""141""
""focus"",""1"",""4678""
""fullscreenenter"",""1"",""5859""
","""event"",""trial"",""time""
""blur"",""1"",""141""
","""event"",""trial"",""time""
""focus"",""1"",""4678""
","""event"",""trial"",""time""
""fullscreenenter"",""1"",""5859""
","
","","[{""page_index"":0,""viewing_time"":3409.5}]","3409.7999999970198","","","","","","","","","","","","","","","","","","","","","","","",""
"pit-comprehension","107","855629","0.0-2.0-22.0-0.0","battery-v0.2","","""event"",""trial"",""time""
""blur"",""1"",""141""
""focus"",""1"",""4678""
""fullscreenenter"",""1"",""5859""
","""event"",""trial"",""time""
""blur"",""1"",""141""
","""event"",""trial"",""time""
""focus"",""1"",""4678""
","""event"",""trial"",""time""
""fullscreenenter"",""1"",""5859""
","
","","","6418.0999999940395","[""0""]","0","20","4447","3197","","","","","","","","","","","","","","","","","","",""
"pit-instructions","108","857605","0.0-2.0-22.0-1.0","battery-v0.2","","""event"",""trial"",""time""
""blur"",""1"",""141""
""focus"",""1"",""4678""
""fullscreenenter"",""1"",""5859""
","""event"",""trial"",""time""
""blur"",""1"",""141""
","""event"",""trial"",""time""
""focus"",""1"",""4678""
","""event"",""trial"",""time""
""fullscreenenter"",""1"",""5859""
","
","","[{""page_index"":0,""viewing_time"":1935}]","1935.2000000029802","","","","","","","","","","","","","","","","","","","","","","","",""
"pit-comprehension","109","866960","0.0-2.0-23.0-0.0","battery-v0.2","","""event"",""trial"",""time""
""blur"",""1"",""141""
""focus"",""1"",""4678""
""fullscreenenter"",""1"",""5859""
","""event"",""trial"",""time""
""blur"",""1"",""141""
","""event"",""trial"",""time""
""focus"",""1"",""4678""
","""event"",""trial"",""time""
""fullscreenenter"",""1"",""5859""
","
","","","9346.60000000894","[""True""]","0","20","4447","3197","","","","","","","","","","","","","","","","","","",""
"pit-instructions","110","869268","0.0-2.0-23.0-1.0","battery-v0.2","","""event"",""trial"",""time""
""blur"",""1"",""141""
""focus"",""1"",""4678""
""fullscreenenter"",""1"",""5859""
","""event"",""trial"",""time""
""blur"",""1"",""141""
","""event"",""trial"",""time""
""focus"",""1"",""4678""
","""event"",""trial"",""time""
""fullscreenenter"",""1"",""5859""
","
","","[{""page_index"":0,""viewing_time"":2269}]","2269.4000000059605","","","","","","","","","","","","","","","","","","","","","","","",""
"pit-comprehension","111","876392","0.0-2.0-24.0-0.0","battery-v0.2","","""event"",""trial"",""time""
""blur"",""1"",""141""
""focus"",""1"",""4678""
""fullscreenenter"",""1"",""5859""
","""event"",""trial"",""time""
""blur"",""1"",""141""
","""event"",""trial"",""time""
""focus"",""1"",""4678""
","""event"",""trial"",""time""
""fullscreenenter"",""1"",""5859""
","
","","","7118.70000000298","[""True""]","0","20","4447","3197","","","","","","","","","","","","","","","","","","",""
"pit-instructions","112","877904","0.0-2.0-24.0-1.0","battery-v0.2","","""event"",""trial"",""time""
""blur"",""1"",""141""
""focus"",""1"",""4678""
""fullscreenenter"",""1"",""5859""
","""event"",""trial"",""time""
""blur"",""1"",""141""
","""event"",""trial"",""time""
""focus"",""1"",""4678""
","""event"",""trial"",""time""
""fullscreenenter"",""1"",""5859""
","
","","[{""page_index"":0,""viewing_time"":1470}]","1470.2000000029802","","","","","","","","","","","","","","","","","","","","","","","",""
"pit-comprehension","113","884003","0.0-2.0-25.0-0.0","battery-v0.2","","""event"",""trial"",""time""
""blur"",""1"",""141""
""focus"",""1"",""4678""
""fullscreenenter"",""1"",""5859""
","""event"",""trial"",""time""
""blur"",""1"",""141""
","""event"",""trial"",""time""
""focus"",""1"",""4678""
","""event"",""trial"",""time""
""fullscreenenter"",""1"",""5859""
","
","","","6094.20000000298","[""True""]","0","20","4447","3197","","","","","","","","","","","","","","","","","","",""
"pit-instructions","114","885666","0.0-2.0-25.0-1.0","battery-v0.2","","""event"",""trial"",""time""
""blur"",""1"",""141""
""focus"",""1"",""4678""
""fullscreenenter"",""1"",""5859""
","""event"",""trial"",""time""
""blur"",""1"",""141""
","""event"",""trial"",""time""
""focus"",""1"",""4678""
","""event"",""trial"",""time""
""fullscreenenter"",""1"",""5859""
","
","","[{""page_index"":0,""viewing_time"":1624.5}]","1624.7999999970198","","","","","","","","","","","","","","","","","","","","","","","",""
"pit-comprehension","115","890145","0.0-2.0-26.0-0.0","battery-v0.2","","""event"",""trial"",""time""
""blur"",""1"",""141""
""focus"",""1"",""4678""
""fullscreenenter"",""1"",""5859""
","""event"",""trial"",""time""
""blur"",""1"",""141""
","""event"",""trial"",""time""
""focus"",""1"",""4678""
","""event"",""trial"",""time""
""fullscreenenter"",""1"",""5859""
","
","","","4474.20000000298","[""False""]","0","20","4447","3197","","","","","","","","","","","","","","","","","","",""
"pit-instructions","116","893191","0.0-2.0-26.0-1.0","battery-v0.2","","""event"",""trial"",""time""
""blur"",""1"",""141""
""focus"",""1"",""4678""
""fullscreenenter"",""1"",""5859""
","""event"",""trial"",""time""
""blur"",""1"",""141""
","""event"",""trial"",""time""
""focus"",""1"",""4678""
","""event"",""trial"",""time""
""fullscreenenter"",""1"",""5859""
","
","","[{""page_index"":0,""viewing_time"":3001.7999999970198}]","3002.0999999940395","","","","","","","","","","","","","","","","","","","","","","","",""
"pit-instructions","117","911828","0.0-3.0","battery-v0.2","","""event"",""trial"",""time""
""blur"",""1"",""141""
""focus"",""1"",""4678""
""fullscreenenter"",""1"",""5859""
","""event"",""trial"",""time""
""blur"",""1"",""141""
","""event"",""trial"",""time""
""focus"",""1"",""4678""
","""event"",""trial"",""time""
""fullscreenenter"",""1"",""5859""
","
","","[{""page_index"":0,""viewing_time"":5551},{""page_index"":1,""viewing_time"":5888},{""page_index"":2,""viewing_time"":7193.600000008941}]","18632.90000000596","","","","","","","","","","","","","","","","","","","","","","","",""
"pit-trial","118","915207","0.0-4.0","battery-v0.2","","""event"",""trial"",""time""
""blur"",""1"",""141""
""focus"",""1"",""4678""
""fullscreenenter"",""1"",""5859""
","""event"",""trial"",""time""
""blur"",""1"",""141""
","""event"",""trial"",""time""
""focus"",""1"",""4678""
","""event"",""trial"",""time""
""fullscreenenter"",""1"",""5859""
","
","","","505.40000000596046","","","20","4447","3197","&#9730;","elianto","#3366ff99"," "," ","1","0","[1357.800000011921]","1","1","","","4447","1","1","1","win","go","1"
"pit-trial","119","920080","0.0-5.0","battery-v0.2","","""event"",""trial"",""time""
""blur"",""1"",""141""
""focus"",""1"",""4678""
""fullscreenenter"",""1"",""5859""
","""event"",""trial"",""time""
""blur"",""1"",""141""
","""event"",""trial"",""time""
""focus"",""1"",""4678""
","""event"",""trial"",""time""
""fullscreenenter"",""1"",""5859""
","
","","","-1","","","20","4447","3197","&#9733;","elianto","#3366ff99","-1","-1","1","+10","[]","0","1","","","4447","2","2","2","win","no-go","0"
"pit-trial","120","923829","0.0-6.0","battery-v0.2","","""event"",""trial"",""time""
""blur"",""1"",""141""
""focus"",""1"",""4678""
""fullscreenenter"",""1"",""5859""
","""event"",""trial"",""time""
""blur"",""1"",""141""
","""event"",""trial"",""time""
""focus"",""1"",""4678""
","""event"",""trial"",""time""
""fullscreenenter"",""1"",""5859""
","
","","","882.1000000089407","","","20","4447","3197","&#9752;","elianto","#f73b6a7A"," "," ","1","0","[1733.5]","1","1","","","4447","3","3","3","lose","go","0"
"pit-trial","121","927601","0.0-7.0","battery-v0.2","","""event"",""trial"",""time""
""blur"",""1"",""141""
""focus"",""1"",""4678""
""fullscreenenter"",""1"",""5859""
","""event"",""trial"",""time""
""blur"",""1"",""141""
","""event"",""trial"",""time""
""focus"",""1"",""4678""
","""event"",""trial"",""time""
""fullscreenenter"",""1"",""5859""
","
","","","913.0999999940395","","","20","4447","3197","&#9728;","elianto","#f73b6a7A","-1"," ","0","-10","[1763.2999999970198]","1","1","","","4447","4","0","4","lose","no-go","0"
"pit-trial","122","930710","0.0-8.0","battery-v0.2","","""event"",""trial"",""time""
""blur"",""1"",""141""
""focus"",""1"",""4678""
""fullscreenenter"",""1"",""5859""
","""event"",""trial"",""time""
""blur"",""1"",""141""
","""event"",""trial"",""time""
""focus"",""1"",""4678""
","""event"",""trial"",""time""
""fullscreenenter"",""1"",""5859""
","
","","","242.30000001192093","","","20","4447","3197","&#9752;","elianto","#f73b6a7A"," "," ","1","0","[1094.0999999940395]","1","1","","","4447","5","3","3","lose","go","0"
"pit-trial","123","935590","0.0-9.0","battery-v0.2","","""event"",""trial"",""time""
""blur"",""1"",""141""
""focus"",""1"",""4678""
""fullscreenenter"",""1"",""5859""
","""event"",""trial"",""time""
""blur"",""1"",""141""
","""event"",""trial"",""time""
""focus"",""1"",""4678""
","""event"",""trial"",""time""
""fullscreenenter"",""1"",""5859""
","
","","","-1","","","20","4447","3197","&#9728;","elianto","#f73b6a7A","-1","-1","1","0","[]","0","1","","","4447","6","0","4","lose","no-go","0"
"pit-trial","124","939087","0.0-10.0","battery-v0.2","","""event"",""trial"",""time""
""blur"",""1"",""141""
""focus"",""1"",""4678""
""fullscreenenter"",""1"",""5859""
","""event"",""trial"",""time""
""blur"",""1"",""141""
","""event"",""trial"",""time""
""focus"",""1"",""4678""
","""event"",""trial"",""time""
""fullscreenenter"",""1"",""5859""
","
","","","623.2999999970198","","","20","4447","3197","&#9733;","elianto","#3366ff99","-1"," ","0","0","[1474.4000000059605]","1","1","","","4447","7","2","2","win","no-go","0"
"pit-trial","125","943102","0.0-11.0","battery-v0.2","","""event"",""trial"",""time""
""blur"",""1"",""141""
""focus"",""1"",""4678""
""fullscreenenter"",""1"",""5859""
","""event"",""trial"",""time""
""blur"",""1"",""141""
","""event"",""trial"",""time""
""focus"",""1"",""4678""
","""event"",""trial"",""time""
""fullscreenenter"",""1"",""5859""
","
","","","1136","","","20","4447","3197","&#9730;","elianto","#3366ff99"," "," ","1","+10","[1996.5]","1","1","","","4447","8","1","1","win","go","0"
"pit-trial","126","947967","0.0-12.0","battery-v0.2","","""event"",""trial"",""time""
""blur"",""1"",""141""
""focus"",""1"",""4678""
""fullscreenenter"",""1"",""5859""
","""event"",""trial"",""time""
""blur"",""1"",""141""
","""event"",""trial"",""time""
""focus"",""1"",""4678""
","""event"",""trial"",""time""
""fullscreenenter"",""1"",""5859""
","
","","","-1","","","20","4447","3197","&#9752;","elianto","#f73b6a7A"," ","-1","0","-10","[]","0","1","","","4447","9","3","3","lose","go","0"
"pit-trial","127","951607","0.0-13.0","battery-v0.2","","""event"",""trial"",""time""
""blur"",""1"",""141""
""focus"",""1"",""4678""
""fullscreenenter"",""1"",""5859""
","""event"",""trial"",""time""
""blur"",""1"",""141""
","""event"",""trial"",""time""
""focus"",""1"",""4678""
","""event"",""trial"",""time""
""fullscreenenter"",""1"",""5859""
","
","","","783.1999999880791","","","20","4447","3197","&#9730;","elianto","#3366ff99"," "," ","1","+10","[1634.3999999910593]","1","1","","","4447","10","1","1","win","go","0"
"pit-trial","128","955455","0.0-14.0","battery-v0.2","","""event"",""trial"",""time""
""blur"",""1"",""141""
""focus"",""1"",""4678""
""fullscreenenter"",""1"",""5859""
","""event"",""trial"",""time""
""blur"",""1"",""141""
","""event"",""trial"",""time""
""focus"",""1"",""4678""
","""event"",""trial"",""time""
""fullscreenenter"",""1"",""5859""
","
","","","984.7000000029802","","","20","4447","3197","&#9733;","elianto","#3366ff99","-1"," ","0","0","[1838.4000000059605]","1","1","","","4447","11","2","2","win","no-go","0"
"pit-trial","129","959367","0.0-15.0","battery-v0.2","","""event"",""trial"",""time""
""blur"",""1"",""141""
""focus"",""1"",""4678""
""fullscreenenter"",""1"",""5859""
","""event"",""trial"",""time""
""blur"",""1"",""141""
","""event"",""trial"",""time""
""focus"",""1"",""4678""
","""event"",""trial"",""time""
""fullscreenenter"",""1"",""5859""
","
","","","1050.4000000059605","","","20","4447","3197","&#9728;","elianto","#f73b6a7A","-1"," ","0","0","[1903.7999999970198]","1","1","","","4447","12","0","4","lose","no-go","1"
"pit-trial","130","962926","0.0-16.0","battery-v0.2","","""event"",""trial"",""time""
""blur"",""1"",""141""
""focus"",""1"",""4678""
""fullscreenenter"",""1"",""5859""
","""event"",""trial"",""time""
""blur"",""1"",""141""
","""event"",""trial"",""time""
""focus"",""1"",""4678""
","""event"",""trial"",""time""
""fullscreenenter"",""1"",""5859""
","
","","","691.7000000029802","","","20","4447","3197","&#9730;","elianto","#3366ff99"," "," ","1","0","[1550.1000000089407]","1","1","","","4447","13","1","1","win","go","1"
"pit-trial","131","966801","0.0-17.0","battery-v0.2","","""event"",""trial"",""time""
""blur"",""1"",""141""
""focus"",""1"",""4678""
""fullscreenenter"",""1"",""5859""
","""event"",""trial"",""time""
""blur"",""1"",""141""
","""event"",""trial"",""time""
""focus"",""1"",""4678""
","""event"",""trial"",""time""
""fullscreenenter"",""1"",""5859""
","
","","","1004","","","20","4447","3197","&#9752;","elianto","#f73b6a7A"," "," ","1","0","[1855.3999999910593]","1","1","","","4447","14","3","3","lose","go","0"
"pit-trial","132","971681","0.0-18.0","battery-v0.2","","""event"",""trial"",""time""
""blur"",""1"",""141""
""focus"",""1"",""4678""
""fullscreenenter"",""1"",""5859""
","""event"",""trial"",""time""
""blur"",""1"",""141""
","""event"",""trial"",""time""
""focus"",""1"",""4678""
","""event"",""trial"",""time""
""fullscreenenter"",""1"",""5859""
","
","","","-1","","","20","4447","3197","&#9728;","elianto","#f73b6a7A","-1","-1","1","0","[]","0","1","","","4447","15","0","4","lose","no-go","0"
"pit-trial","133","975214","0.0-19.0","battery-v0.2","","""event"",""trial"",""time""
""blur"",""1"",""141""
""focus"",""1"",""4678""
""fullscreenenter"",""1"",""5859""
","""event"",""trial"",""time""
""blur"",""1"",""141""
","""event"",""trial"",""time""
""focus"",""1"",""4678""
","""event"",""trial"",""time""
""fullscreenenter"",""1"",""5859""
","
","","","676","","","20","4447","3197","&#9733;","elianto","#3366ff99","-1"," ","0","0","[1527.7000000029802]","1","1","","","4447","16","2","2","win","no-go","0"
"pit-trial","134","980094","0.0-20.0","battery-v0.2","","""event"",""trial"",""time""
""blur"",""1"",""141""
""focus"",""1"",""4678""
""fullscreenenter"",""1"",""5859""
","""event"",""trial"",""time""
""blur"",""1"",""141""
","""event"",""trial"",""time""
""focus"",""1"",""4678""
","""event"",""trial"",""time""
""fullscreenenter"",""1"",""5859""
","
","","","-1","","","20","4447","3197","&#9728;","elianto","#f73b6a7A","-1","-1","1","-10","[]","0","1","","","4447","17","0","4","lose","no-go","1"
"pit-trial","135","983838","0.0-21.0","battery-v0.2","","""event"",""trial"",""time""
""blur"",""1"",""141""
""focus"",""1"",""4678""
""fullscreenenter"",""1"",""5859""
","""event"",""trial"",""time""
""blur"",""1"",""141""
","""event"",""trial"",""time""
""focus"",""1"",""4678""
","""event"",""trial"",""time""
""fullscreenenter"",""1"",""5859""
","
","","","879.4000000059605","","","20","4447","3197","&#9733;","elianto","#3366ff99","-1"," ","0","0","[1730.6000000089407]","1","1","","","4447","18","2","2","win","no-go","0"
"pit-trial","136","987815","0.0-22.0","battery-v0.2","","""event"",""trial"",""time""
""blur"",""1"",""141""
""focus"",""1"",""4678""
""fullscreenenter"",""1"",""5859""
","""event"",""trial"",""time""
""blur"",""1"",""141""
","""event"",""trial"",""time""
""focus"",""1"",""4678""
","""event"",""trial"",""time""
""fullscreenenter"",""1"",""5859""
","
","","","1115.5","","","20","4447","3197","&#9730;","elianto","#3366ff99"," "," ","1","+10","[1966.2999999970198]","1","1","","","4447","19","1","1","win","go","0"
"pit-trial","137","992016","0.0-23.0","battery-v0.2","","""event"",""trial"",""time""
""blur"",""1"",""141""
""focus"",""1"",""4678""
""fullscreenenter"",""1"",""5859""
","""event"",""trial"",""time""
""blur"",""1"",""141""
","""event"",""trial"",""time""
""focus"",""1"",""4678""
","""event"",""trial"",""time""
""fullscreenenter"",""1"",""5859""
","
","","","1327.7000000029802","","","20","4447","3197","&#9752;","elianto","#f73b6a7A"," "," ","1","0","[2186.7999999970198]","1","1","","","4447","20","3","3","lose","go","0"
"pit-instructions","138","1007303","0.0-24.0","battery-v0.2","","""event"",""trial"",""time""
""blur"",""1"",""141""
""focus"",""1"",""4678""
""fullscreenenter"",""1"",""5859""
","""event"",""trial"",""time""
""blur"",""1"",""141""
","""event"",""trial"",""time""
""focus"",""1"",""4678""
","""event"",""trial"",""time""
""fullscreenenter"",""1"",""5859""
","
","","[{""page_index"":0,""viewing_time"":7586.5},{""page_index"":1,""viewing_time"":7694.4000000059605}]","15281.20000000298","","","","","","","","","","","","","","","","","","","","","","","",""
"pit-trial","139","1012182","0.0-25.0","battery-v0.2","","""event"",""trial"",""time""
""blur"",""1"",""141""
""focus"",""1"",""4678""
""fullscreenenter"",""1"",""5859""
","""event"",""trial"",""time""
""blur"",""1"",""141""
","""event"",""trial"",""time""
""focus"",""1"",""4678""
","""event"",""trial"",""time""
""fullscreenenter"",""1"",""5859""
","
","","","-1","","","20","4447","3197","d","elianto","#3366ff99"," ","-1","0","0","[]","0","2","","","4447","21","1","1","win","go","0"
"pit-trial","140","1017060","0.0-26.0","battery-v0.2","","""event"",""trial"",""time""
""blur"",""1"",""141""
""focus"",""1"",""4678""
""fullscreenenter"",""1"",""5859""
","""event"",""trial"",""time""
""blur"",""1"",""141""
","""event"",""trial"",""time""
""focus"",""1"",""4678""
","""event"",""trial"",""time""
""fullscreenenter"",""1"",""5859""
","
","","","-1","","","20","4447","3197","w","elianto","#f73b6a7A"," ","-1","0","-10","[]","0","2","","","4447","22","3","3","lose","go","0"
"pit-trial","141","1021934","0.0-27.0","battery-v0.2","","""event"",""trial"",""time""
""blur"",""1"",""141""
""focus"",""1"",""4678""
""fullscreenenter"",""1"",""5859""
","""event"",""trial"",""time""
""blur"",""1"",""141""
","""event"",""trial"",""time""
""focus"",""1"",""4678""
","""event"",""trial"",""time""
""fullscreenenter"",""1"",""5859""
","
","","","-1","","","20","4447","3197","j","elianto","#f73b6a7A","-1","-1","1","0","[]","0","2","","","4447","23","0","4","lose","no-go","0"
"pit-trial","142","1026799","0.0-28.0","battery-v0.2","","""event"",""trial"",""time""
""blur"",""1"",""141""
""focus"",""1"",""4678""
""fullscreenenter"",""1"",""5859""
","""event"",""trial"",""time""
""blur"",""1"",""141""
","""event"",""trial"",""time""
""focus"",""1"",""4678""
","""event"",""trial"",""time""
""fullscreenenter"",""1"",""5859""
","
","","","-1","","","20","4447","3197","e","elianto","#f73b6a7A","-1","-1","1","0","[]","0","2","","","4447","24","2","4","lose","no-go","0"
"pit-trial","143","1031682","0.0-29.0","battery-v0.2","","""event"",""trial"",""time""
""blur"",""1"",""141""
""focus"",""1"",""4678""
""fullscreenenter"",""1"",""5859""
","""event"",""trial"",""time""
""blur"",""1"",""141""
","""event"",""trial"",""time""
""focus"",""1"",""4678""
","""event"",""trial"",""time""
""fullscreenenter"",""1"",""5859""
","
","","","-1","","","20","4447","3197","e","elianto","#f73b6a7A","-1","-1","1","0","[]","0","2","","","4447","25","2","4","lose","no-go","0"
"pit-trial","144","1035309","0.0-30.0","battery-v0.2","","""event"",""trial"",""time""
""blur"",""1"",""141""
""focus"",""1"",""4678""
""fullscreenenter"",""1"",""5859""
","""event"",""trial"",""time""
""blur"",""1"",""141""
","""event"",""trial"",""time""
""focus"",""1"",""4678""
","""event"",""trial"",""time""
""fullscreenenter"",""1"",""5859""
","
","","","754.4000000059605","","","20","4447","3197","d","elianto","#3366ff99"," "," ","1","+10","[1604.6000000089407]","1","2","","","4447","26","1","1","win","go","0"
"pit-trial","145","1038848","0.0-31.0","battery-v0.2","","""event"",""trial"",""time""
""blur"",""1"",""141""
""focus"",""1"",""4678""
""fullscreenenter"",""1"",""5859""
","""event"",""trial"",""time""
""blur"",""1"",""141""
","""event"",""trial"",""time""
""focus"",""1"",""4678""
","""event"",""trial"",""time""
""fullscreenenter"",""1"",""5859""
","
","","","676","","","20","4447","3197","w","elianto","#f73b6a7A"," "," ","1","-10","[1530.1000000089407]","1","2","","","4447","27","3","3","lose","go","1"
"pit-trial","146","1043711","0.0-32.0","battery-v0.2","","""event"",""trial"",""time""
""blur"",""1"",""141""
""focus"",""1"",""4678""
""fullscreenenter"",""1"",""5859""
","""event"",""trial"",""time""
""blur"",""1"",""141""
","""event"",""trial"",""time""
""focus"",""1"",""4678""
","""event"",""trial"",""time""
""fullscreenenter"",""1"",""5859""
","
","","","-1","","","20","4447","3197","j","elianto","#f73b6a7A","-1","-1","1","0","[]","0","2","","","4447","28","0","4","lose","no-go","0"
"pit-trial","147","1047336","0.0-33.0","battery-v0.2","","""event"",""trial"",""time""
""blur"",""1"",""141""
""focus"",""1"",""4678""
""fullscreenenter"",""1"",""5859""
","""event"",""trial"",""time""
""blur"",""1"",""141""
","""event"",""trial"",""time""
""focus"",""1"",""4678""
","""event"",""trial"",""time""
""fullscreenenter"",""1"",""5859""
","
","","","766.7000000029802","","","20","4447","3197","d","elianto","#3366ff99"," "," ","1","0","[1618.0999999940395]","1","2","","","4447","29","1","1","win","go","1"
"pit-trial","148","1052208","0.0-34.0","battery-v0.2","","""event"",""trial"",""time""
""blur"",""1"",""141""
""focus"",""1"",""4678""
""fullscreenenter"",""1"",""5859""
","""event"",""trial"",""time""
""blur"",""1"",""141""
","""event"",""trial"",""time""
""focus"",""1"",""4678""
","""event"",""trial"",""time""
""fullscreenenter"",""1"",""5859""
","
","","","-1","","","20","4447","3197","e","elianto","#f73b6a7A","-1","-1","1","0","[]","0","2","","","4447","30","2","4","lose","no-go","0"
"pit-trial","149","1057071","0.0-35.0","battery-v0.2","","""event"",""trial"",""time""
""blur"",""1"",""141""
""focus"",""1"",""4678""
""fullscreenenter"",""1"",""5859""
","""event"",""trial"",""time""
""blur"",""1"",""141""
","""event"",""trial"",""time""
""focus"",""1"",""4678""
","""event"",""trial"",""time""
""fullscreenenter"",""1"",""5859""
","
","","","-1","","","20","4447","3197","w","elianto","#f73b6a7A"," ","-1","0","0","[]","0","2","","","4447","31","3","3","lose","go","1"
"pit-trial","150","1061943","0.0-36.0","battery-v0.2","","""event"",""trial"",""time""
""blur"",""1"",""141""
""focus"",""1"",""4678""
""fullscreenenter"",""1"",""5859""
","""event"",""trial"",""time""
""blur"",""1"",""141""
","""event"",""trial"",""time""
""focus"",""1"",""4678""
","""event"",""trial"",""time""
""fullscreenenter"",""1"",""5859""
","
","","","-1","","","20","4447","3197","j","elianto","#f73b6a7A","-1","-1","1","0","[]","0","2","","","4447","32","0","4","lose","no-go","0"
"pit-trial","151","1066807","0.0-37.0","battery-v0.2","","""event"",""trial"",""time""
""blur"",""1"",""141""
""focus"",""1"",""4678""
""fullscreenenter"",""1"",""5859""
","""event"",""trial"",""time""
""blur"",""1"",""141""
","""event"",""trial"",""time""
""focus"",""1"",""4678""
","""event"",""trial"",""time""
""fullscreenenter"",""1"",""5859""
","
","","","-1","","","20","4447","3197","e","elianto","#f73b6a7A","-1","-1","1","0","[]","0","2","","","4447","33","2","4","lose","no-go","0"
"pit-trial","152","1071672","0.0-38.0","battery-v0.2","","""event"",""trial"",""time""
""blur"",""1"",""141""
""focus"",""1"",""4678""
""fullscreenenter"",""1"",""5859""
","""event"",""trial"",""time""
""blur"",""1"",""141""
","""event"",""trial"",""time""
""focus"",""1"",""4678""
","""event"",""trial"",""time""
""fullscreenenter"",""1"",""5859""
","
","","","-1","","","20","4447","3197","j","elianto","#f73b6a7A","-1","-1","1","0","[]","0","2","","","4447","34","0","4","lose","no-go","0"
"pit-trial","153","1076544","0.0-39.0","battery-v0.2","","""event"",""trial"",""time""
""blur"",""1"",""141""
""focus"",""1"",""4678""
""fullscreenenter"",""1"",""5859""
","""event"",""trial"",""time""
""blur"",""1"",""141""
","""event"",""trial"",""time""
""focus"",""1"",""4678""
","""event"",""trial"",""time""
""fullscreenenter"",""1"",""5859""
","
","","","-1","","","20","4447","3197","w","elianto","#f73b6a7A"," ","-1","0","-10","[]","0","2","","","4447","35","3","3","lose","go","0"
"pit-trial","154","1080088","0.0-40.0","battery-v0.2","","""event"",""trial"",""time""
""blur"",""1"",""141""
""focus"",""1"",""4678""
""fullscreenenter"",""1"",""5859""
","""event"",""trial"",""time""
""blur"",""1"",""141""
","""event"",""trial"",""time""
""focus"",""1"",""4678""
","""event"",""trial"",""time""
""fullscreenenter"",""1"",""5859""
","
","","","683.7000000029802","","","20","4447","3197","d","elianto","#3366ff99"," "," ","1","+10","[1534.7999999970198]","1","2","","","4447","36","1","1","win","go","0"
"pit-trial","155","1084960","0.0-41.0","battery-v0.2","","""event"",""trial"",""time""
""blur"",""1"",""141""
""focus"",""1"",""4678""
""fullscreenenter"",""1"",""5859""
","""event"",""trial"",""time""
""blur"",""1"",""141""
","""event"",""trial"",""time""
""focus"",""1"",""4678""
","""event"",""trial"",""time""
""fullscreenenter"",""1"",""5859""
","
","","","-1","","","20","4447","3197","j","elianto","#f73b6a7A","-1","-1","1","-10","[]","0","2","","","4447","37","0","4","lose","no-go","1"
"pit-trial","156","1089032","0.0-42.0","battery-v0.2","","""event"",""trial"",""time""
""blur"",""1"",""141""
""focus"",""1"",""4678""
""fullscreenenter"",""1"",""5859""
","""event"",""trial"",""time""
""blur"",""1"",""141""
","""event"",""trial"",""time""
""focus"",""1"",""4678""
","""event"",""trial"",""time""
""fullscreenenter"",""1"",""5859""
","
","","","1202.7000000029802","","","20","4447","3197","w","elianto","#f73b6a7A"," "," ","1","0","[2061.5999999940395]","1","2","","","4447","38","3","3","lose","go","0"
"pit-trial","157","1092583","0.0-43.0","battery-v0.2","","""event"",""trial"",""time""
""blur"",""1"",""141""
""focus"",""1"",""4678""
""fullscreenenter"",""1"",""5859""
","""event"",""trial"",""time""
""blur"",""1"",""141""
","""event"",""trial"",""time""
""focus"",""1"",""4678""
","""event"",""trial"",""time""
""fullscreenenter"",""1"",""5859""
","
","","","693.4000000059605","","","20","4447","3197","d","elianto","#3366ff99"," "," ","1","+10","[1545.1000000089407]","1","2","","","4447","39","1","1","win","go","0"
"pit-trial","158","1097447","0.0-44.0","battery-v0.2","","""event"",""trial"",""time""
""blur"",""1"",""141""
""focus"",""1"",""4678""
""fullscreenenter"",""1"",""5859""
","""event"",""trial"",""time""
""blur"",""1"",""141""
","""event"",""trial"",""time""
""focus"",""1"",""4678""
","""event"",""trial"",""time""
""fullscreenenter"",""1"",""5859""
","
","","","-1","","","20","4447","3197","e","elianto","#f73b6a7A","-1","-1","1","0","[]","0","2","","","4447","40","2","4","lose","no-go","0"
"pit-trial","159","1101144","0.0-45.0","battery-v0.2","","""event"",""trial"",""time""
""blur"",""1"",""141""
""focus"",""1"",""4678""
""fullscreenenter"",""1"",""5859""
","""event"",""trial"",""time""
""blur"",""1"",""141""
","""event"",""trial"",""time""
""focus"",""1"",""4678""
","""event"",""trial"",""time""
""fullscreenenter"",""1"",""5859""
","
","","","832.8999999910593","","","20","4447","3197","w","elianto","#f73b6a7A"," "," ","1","0","[1683.7999999970198]","1","2","","","4447","41","3","3","lose","go","0"
"pit-trial","160","1106015","0.0-46.0","battery-v0.2","","""event"",""trial"",""time""
""blur"",""1"",""141""
""focus"",""1"",""4678""
""fullscreenenter"",""1"",""5859""
","""event"",""trial"",""time""
""blur"",""1"",""141""
","""event"",""trial"",""time""
""focus"",""1"",""4678""
","""event"",""trial"",""time""
""fullscreenenter"",""1"",""5859""
","
","","","-1","","","20","4447","3197","e","elianto","#f73b6a7A","-1","-1","1","-10","[]","0","2","","","4447","42","2","4","lose","no-go","1"
"pit-trial","161","1109472","0.0-47.0","battery-v0.2","","""event"",""trial"",""time""
""blur"",""1"",""141""
""focus"",""1"",""4678""
""fullscreenenter"",""1"",""5859""
","""event"",""trial"",""time""
""blur"",""1"",""141""
","""event"",""trial"",""time""
""focus"",""1"",""4678""
","""event"",""trial"",""time""
""fullscreenenter"",""1"",""5859""
","
","","","598.2000000029802","","","20","4447","3197","j","elianto","#f73b6a7A","-1"," ","0","-10","[1448.5]","1","2","","","4447","43","0","4","lose","no-go","0"
"pit-trial","162","1112888","0.0-48.0","battery-v0.2","","""event"",""trial"",""time""
""blur"",""1"",""141""
""focus"",""1"",""4678""
""fullscreenenter"",""1"",""5859""
","""event"",""trial"",""time""
""blur"",""1"",""141""
","""event"",""trial"",""time""
""focus"",""1"",""4678""
","""event"",""trial"",""time""
""fullscreenenter"",""1"",""5859""
","
","","","557.5","","","20","4447","3197","d","elianto","#3366ff99"," "," ","1","+10","[1408.2000000029802]","1","2","","","4447","44","1","1","win","go","0"
"pit-trial","163","1117760","0.0-49.0","battery-v0.2","","""event"",""trial"",""time""
""blur"",""1"",""141""
""focus"",""1"",""4678""
""fullscreenenter"",""1"",""5859""
","""event"",""trial"",""time""
""blur"",""1"",""141""
","""event"",""trial"",""time""
""focus"",""1"",""4678""
","""event"",""trial"",""time""
""fullscreenenter"",""1"",""5859""
","
","","","-1","","","20","4447","3197","s","elianto","#3366ff99","-1","-1","1","+10","[]","0","2","","","4447","45","4","2","win","no-go","0"
"pit-trial","164","1121912","0.0-50.0","battery-v0.2","","""event"",""trial"",""time""
""blur"",""1"",""141""
""focus"",""1"",""4678""
""fullscreenenter"",""1"",""5859""
","""event"",""trial"",""time""
""blur"",""1"",""141""
","""event"",""trial"",""time""
""focus"",""1"",""4678""
","""event"",""trial"",""time""
""fullscreenenter"",""1"",""5859""
","
","","","1285.6000000089407","","","20","4447","3197","e","elianto","#f73b6a7A","-1"," ","0","0","[2143.5]","1","2","","","4447","46","2","4","lose","no-go","1"
"pit-trial","165","1125712","0.0-51.0","battery-v0.2","","""event"",""trial"",""time""
""blur"",""1"",""141""
""focus"",""1"",""4678""
""fullscreenenter"",""1"",""5859""
","""event"",""trial"",""time""
""blur"",""1"",""141""
","""event"",""trial"",""time""
""focus"",""1"",""4678""
","""event"",""trial"",""time""
""fullscreenenter"",""1"",""5859""
","
","","","927","","","20","4447","3197","w","elianto","#f73b6a7A"," "," ","1","0","[1785.6000000089407]","1","2","","","4447","47","3","3","lose","go","0"
"pit-trial","166","1130585","0.0-52.0","battery-v0.2","","""event"",""trial"",""time""
""blur"",""1"",""141""
""focus"",""1"",""4678""
""fullscreenenter"",""1"",""5859""
","""event"",""trial"",""time""
""blur"",""1"",""141""
","""event"",""trial"",""time""
""focus"",""1"",""4678""
","""event"",""trial"",""time""
""fullscreenenter"",""1"",""5859""
","
","","","-1","","","20","4447","3197","j","elianto","#f73b6a7A","-1","-1","1","-10","[]","0","2","","","4447","48","0","4","lose","no-go","1"
"pit-trial","167","1134201","0.0-53.0","battery-v0.2","","""event"",""trial"",""time""
""blur"",""1"",""141""
""focus"",""1"",""4678""
""fullscreenenter"",""1"",""5859""
","""event"",""trial"",""time""
""blur"",""1"",""141""
","""event"",""trial"",""time""
""focus"",""1"",""4678""
","""event"",""trial"",""time""
""fullscreenenter"",""1"",""5859""
","
","","","750.5","","","20","4447","3197","j","elianto","#f73b6a7A","-1"," ","0","0","[1601.5]","1","2","","","4447","49","0","4","lose","no-go","1"
"pit-trial","168","1137983","0.0-54.0","battery-v0.2","","""event"",""trial"",""time""
""blur"",""1"",""141""
""focus"",""1"",""4678""
""fullscreenenter"",""1"",""5859""
","""event"",""trial"",""time""
""blur"",""1"",""141""
","""event"",""trial"",""time""
""focus"",""1"",""4678""
","""event"",""trial"",""time""
""fullscreenenter"",""1"",""5859""
","
","","","922.0999999940395","","","20","4447","3197","s","elianto","#3366ff99","-1"," ","0","0","[1775.4000000059605]","1","2","","","4447","50","4","2","win","no-go","0"
"pit-trial","169","1142153","0.0-55.0","battery-v0.2","","""event"",""trial"",""time""
""blur"",""1"",""141""
""focus"",""1"",""4678""
""fullscreenenter"",""1"",""5859""
","""event"",""trial"",""time""
""blur"",""1"",""141""
","""event"",""trial"",""time""
""focus"",""1"",""4678""
","""event"",""trial"",""time""
""fullscreenenter"",""1"",""5859""
","
","","","1303.0999999940395","","","20","4447","3197","w","elianto","#f73b6a7A"," "," ","1","0","[2154.9000000059605]","1","2","","","4447","51","3","3","lose","go","0"
"pit-trial","170","1145631","0.0-56.0","battery-v0.2","","""event"",""trial"",""time""
""blur"",""1"",""141""
""focus"",""1"",""4678""
""fullscreenenter"",""1"",""5859""
","""event"",""trial"",""time""
""blur"",""1"",""141""
","""event"",""trial"",""time""
""focus"",""1"",""4678""
","""event"",""trial"",""time""
""fullscreenenter"",""1"",""5859""
","
","","","615.2000000029802","","","20","4447","3197","d","elianto","#3366ff99"," "," ","1","+10","[1471.5999999940395]","1","2","","","4447","52","1","1","win","go","0"
"pit-trial","171","1149296","0.0-57.0","battery-v0.2","","""event"",""trial"",""time""
""blur"",""1"",""141""
""focus"",""1"",""4678""
""fullscreenenter"",""1"",""5859""
","""event"",""trial"",""time""
""blur"",""1"",""141""
","""event"",""trial"",""time""
""focus"",""1"",""4678""
","""event"",""trial"",""time""
""fullscreenenter"",""1"",""5859""
","
","","","803.6000000089407","","","20","4447","3197","d","elianto","#3366ff99"," "," ","1","+10","[1655.5999999940395]","1","2","","","4447","53","1","1","win","go","0"
"pit-trial","172","1154168","0.0-58.0","battery-v0.2","","""event"",""trial"",""time""
""blur"",""1"",""141""
""focus"",""1"",""4678""
""fullscreenenter"",""1"",""5859""
","""event"",""trial"",""time""
""blur"",""1"",""141""
","""event"",""trial"",""time""
""focus"",""1"",""4678""
","""event"",""trial"",""time""
""fullscreenenter"",""1"",""5859""
","
","","","-1","","","20","4447","3197","s","elianto","#3366ff99","-1","-1","1","+10","[]","0","2","","","4447","54","4","2","win","no-go","0"
"pit-trial","173","1158029","0.0-59.0","battery-v0.2","","""event"",""trial"",""time""
""blur"",""1"",""141""
""focus"",""1"",""4678""
""fullscreenenter"",""1"",""5859""
","""event"",""trial"",""time""
""blur"",""1"",""141""
","""event"",""trial"",""time""
""focus"",""1"",""4678""
","""event"",""trial"",""time""
""fullscreenenter"",""1"",""5859""
","
","","","985.2000000029802","","","20","4447","3197","j","elianto","#f73b6a7A","-1"," ","0","-10","[1835.9000000059605]","1","2","","","4447","55","0","4","lose","no-go","0"
"pit-trial","174","1161640","0.0-60.0","battery-v0.2","","""event"",""trial"",""time""
""blur"",""1"",""141""
""focus"",""1"",""4678""
""fullscreenenter"",""1"",""5859""
","""event"",""trial"",""time""
""blur"",""1"",""141""
","""event"",""trial"",""time""
""focus"",""1"",""4678""
","""event"",""trial"",""time""
""fullscreenenter"",""1"",""5859""
","
","","","744.2000000029802","","","20","4447","3197","e","elianto","#f73b6a7A","-1"," ","0","0","[1597.2999999970198]","1","2","","","4447","56","2","4","lose","no-go","1"
"pit-trial","175","1165239","0.0-61.0","battery-v0.2","","""event"",""trial"",""time""
""blur"",""1"",""141""
""focus"",""1"",""4678""
""fullscreenenter"",""1"",""5859""
","""event"",""trial"",""time""
""blur"",""1"",""141""
","""event"",""trial"",""time""
""focus"",""1"",""4678""
","""event"",""trial"",""time""
""fullscreenenter"",""1"",""5859""
","
","","","732","","","20","4447","3197","w","elianto","#f73b6a7A"," "," ","1","0","[1590.2999999970198]","1","2","","","4447","57","3","3","lose","go","0"
"pit-trial","176","1168816","0.0-62.0","battery-v0.2","","""event"",""trial"",""time""
""blur"",""1"",""141""
""focus"",""1"",""4678""
""fullscreenenter"",""1"",""5859""
","""event"",""trial"",""time""
""blur"",""1"",""141""
","""event"",""trial"",""time""
""focus"",""1"",""4678""
","""event"",""trial"",""time""
""fullscreenenter"",""1"",""5859""
","
","","","711.7999999970198","","","20","4447","3197","j","elianto","#f73b6a7A","-1"," ","0","-10","[1562.800000011921]","1","2","","","4447","58","0","4","lose","no-go","0"
"pit-trial","177","1172416","0.0-63.0","battery-v0.2","","""event"",""trial"",""time""
""blur"",""1"",""141""
""focus"",""1"",""4678""
""fullscreenenter"",""1"",""5859""
","""event"",""trial"",""time""
""blur"",""1"",""141""
","""event"",""trial"",""time""
""focus"",""1"",""4678""
","""event"",""trial"",""time""
""fullscreenenter"",""1"",""5859""
","
","","","734.7999999970198","","","20","4447","3197","s","elianto","#3366ff99","-1"," ","0","0","[1592.7999999970198]","1","2","","","4447","59","4","2","win","no-go","0"
"pit-trial","178","1175832","0.0-64.0","battery-v0.2","","""event"",""trial"",""time""
""blur"",""1"",""141""
""focus"",""1"",""4678""
""fullscreenenter"",""1"",""5859""
","""event"",""trial"",""time""
""blur"",""1"",""141""
","""event"",""trial"",""time""
""focus"",""1"",""4678""
","""event"",""trial"",""time""
""fullscreenenter"",""1"",""5859""
","
","","","550.5999999940395","","","20","4447","3197","d","elianto","#3366ff99"," "," ","1","+10","[1402]","1","2","","","4447","60","1","1","win","go","0"
"pit-trial","179","1179616","0.0-65.0","battery-v0.2","","""event"",""trial"",""time""
""blur"",""1"",""141""
""focus"",""1"",""4678""
""fullscreenenter"",""1"",""5859""
","""event"",""trial"",""time""
""blur"",""1"",""141""
","""event"",""trial"",""time""
""focus"",""1"",""4678""
","""event"",""trial"",""time""
""fullscreenenter"",""1"",""5859""
","
","","","921.5","","","20","4447","3197","d","elianto","#3366ff99"," "," ","1","+10","[1773.2999999970198]","1","2","","","4447","61","1","1","win","go","0"
"pit-trial","180","1183616","0.0-66.0","battery-v0.2","","""event"",""trial"",""time""
""blur"",""1"",""141""
""focus"",""1"",""4678""
""fullscreenenter"",""1"",""5859""
","""event"",""trial"",""time""
""blur"",""1"",""141""
","""event"",""trial"",""time""
""focus"",""1"",""4678""
","""event"",""trial"",""time""
""fullscreenenter"",""1"",""5859""
","
","","","1132","","","20","4447","3197","w","elianto","#f73b6a7A"," "," ","1","0","[1990]","1","2","","","4447","62","3","3","lose","go","0"
"pit-trial","181","1188493","0.0-67.0","battery-v0.2","","""event"",""trial"",""time""
""blur"",""1"",""141""
""focus"",""1"",""4678""
""fullscreenenter"",""1"",""5859""
","""event"",""trial"",""time""
""blur"",""1"",""141""
","""event"",""trial"",""time""
""focus"",""1"",""4678""
","""event"",""trial"",""time""
""fullscreenenter"",""1"",""5859""
","
","","","-1","","","20","4447","3197","s","elianto","#3366ff99","-1","-1","1","+10","[]","0","2","","","4447","63","4","2","win","no-go","0"
"pit-trial","182","1193098","0.0-68.0","battery-v0.2","","""event"",""trial"",""time""
""blur"",""1"",""141""
""focus"",""1"",""4678""
""fullscreenenter"",""1"",""5859""
","""event"",""trial"",""time""
""blur"",""1"",""141""
","""event"",""trial"",""time""
""focus"",""1"",""4678""
","""event"",""trial"",""time""
""fullscreenenter"",""1"",""5859""
","
","","","1732","","","20","4447","3197","e","elianto","#f73b6a7A","-1"," ","0","-10","[2582.7000000029802]","1","2","","","4447","64","2","4","lose","no-go","0"
"pit-trial","183","1197143","0.0-69.0","battery-v0.2","","""event"",""trial"",""time""
""blur"",""1"",""141""
""focus"",""1"",""4678""
""fullscreenenter"",""1"",""5859""
","""event"",""trial"",""time""
""blur"",""1"",""141""
","""event"",""trial"",""time""
""focus"",""1"",""4678""
","""event"",""trial"",""time""
""fullscreenenter"",""1"",""5859""
","
","","","1178","","","20","4447","3197","w","elianto","#f73b6a7A"," "," ","1","0","[2031.6000000089407]","1","2","","","4447","65","3","3","lose","go","0"
"pit-trial","184","1202008","0.0-70.0","battery-v0.2","","""event"",""trial"",""time""
""blur"",""1"",""141""
""focus"",""1"",""4678""
""fullscreenenter"",""1"",""5859""
","""event"",""trial"",""time""
""blur"",""1"",""141""
","""event"",""trial"",""time""
""focus"",""1"",""4678""
","""event"",""trial"",""time""
""fullscreenenter"",""1"",""5859""
","
","","","-1","","","20","4447","3197","e","elianto","#f73b6a7A","-1","-1","1","0","[]","0","2","","","4447","66","2","4","lose","no-go","0"
"pit-trial","185","1206879","0.0-71.0","battery-v0.2","","""event"",""trial"",""time""
""blur"",""1"",""141""
""focus"",""1"",""4678""
""fullscreenenter"",""1"",""5859""
","""event"",""trial"",""time""
""blur"",""1"",""141""
","""event"",""trial"",""time""
""focus"",""1"",""4678""
","""event"",""trial"",""time""
""fullscreenenter"",""1"",""5859""
","
","","","-1","","","20","4447","3197","s","elianto","#3366ff99","-1","-1","1","+10","[]","0","2","","","4447","67","4","2","win","no-go","0"
"pit-trial","186","1210640","0.0-72.0","battery-v0.2","","""event"",""trial"",""time""
""blur"",""1"",""141""
""focus"",""1"",""4678""
""fullscreenenter"",""1"",""5859""
","""event"",""trial"",""time""
""blur"",""1"",""141""
","""event"",""trial"",""time""
""focus"",""1"",""4678""
","""event"",""trial"",""time""
""fullscreenenter"",""1"",""5859""
","
","","","898.1000000089407","","","20","4447","3197","d","elianto","#3366ff99"," "," ","1","0","[1749]","1","2","","","4447","68","1","1","win","go","1"
"pit-trial","187","1215512","0.0-73.0","battery-v0.2","","""event"",""trial"",""time""
""blur"",""1"",""141""
""focus"",""1"",""4678""
""fullscreenenter"",""1"",""5859""
