"trial_type","trial_index","time_elapsed","internal_node_id","task_version","subject_id","interactions","blur_events","focus_events","fullscreenenter_events","fullscreenexit_events","success","view_history","rt","responses","num_errors","age","subject","participantId","rune","rune_set","hex","correct","choice","accuracy","outcome","keys","total_keys","block","practice","value","sub","trial","stimulus","robot","valence","action","sham"
"pavlovia","0","10","0.0-0.0","battery-v0.2","","""event"",""trial"",""time""
""fullscreenenter"",""1"",""6103""
","
","
","""event"",""trial"",""time""
""fullscreenenter"",""1"",""6103""
","
","","","","","","","","","","","","","","","","","","","","","","","","","","",""
"fullscreen","1","7102","0.0-1.0","battery-v0.2","","""event"",""trial"",""time""
""fullscreenenter"",""1"",""6103""
""blur"",""2"",""9592""
""focus"",""2"",""11691""
","""event"",""trial"",""time""
""blur"",""2"",""9592""
","""event"",""trial"",""time""
""focus"",""2"",""11691""
","""event"",""trial"",""time""
""fullscreenenter"",""1"",""6103""
","
","true","","","","","","","","","","","","","","","","","","","","","","","","","",""
"pit-instructions","2","11902","0.0-2.0-0.0","battery-v0.2","","""event"",""trial"",""time""
""fullscreenenter"",""1"",""6103""
""blur"",""2"",""9592""
""focus"",""2"",""11691""
","""event"",""trial"",""time""
""blur"",""2"",""9592""
","""event"",""trial"",""time""
""focus"",""2"",""11691""
","""event"",""trial"",""time""
""fullscreenenter"",""1"",""6103""
","
","","[{""page_index"":0,""viewing_time"":4797.4000000059605}]","4797.699999988079","","","","","","","","","","","","","","","","","","","","","","","",""
"pit-comprehension","3","21218","0.0-2.0-1.0-0.0","battery-v0.2","","""event"",""trial"",""time""
""fullscreenenter"",""1"",""6103""
""blur"",""2"",""9592""
""focus"",""2"",""11691""
","""event"",""trial"",""time""
""blur"",""2"",""9592""
","""event"",""trial"",""time""
""focus"",""2"",""11691""
","""event"",""trial"",""time""
""fullscreenenter"",""1"",""6103""
","
","","","9313.5","[""shark""]","0","25","10844","3987","","","","","","","","","","","","","","","","","","",""
"pit-instructions","4","26806","0.0-2.0-1.0-1.0","battery-v0.2","","""event"",""trial"",""time""
""fullscreenenter"",""1"",""6103""
""blur"",""2"",""9592""
""focus"",""2"",""11691""
","""event"",""trial"",""time""
""blur"",""2"",""9592""
","""event"",""trial"",""time""
""focus"",""2"",""11691""
","""event"",""trial"",""time""
""fullscreenenter"",""1"",""6103""
","
","","[{""page_index"":0,""viewing_time"":5576.699999988079}]","5576.9000000059605","","","","","","","","","","","","","","","","","","","","","","","",""
"pit-comprehension","5","33340","0.0-2.0-2.0-0.0","battery-v0.2","","""event"",""trial"",""time""
""fullscreenenter"",""1"",""6103""
""blur"",""2"",""9592""
""focus"",""2"",""11691""
","""event"",""trial"",""time""
""blur"",""2"",""9592""
","""event"",""trial"",""time""
""focus"",""2"",""11691""
","""event"",""trial"",""time""
""fullscreenenter"",""1"",""6103""
","
","","","6531.4000000059605","[""tiger""]","0","25","10844","3987","","","","","","","","","","","","","","","","","","",""
"pit-instructions","6","35488","0.0-2.0-2.0-1.0","battery-v0.2","","""event"",""trial"",""time""
""fullscreenenter"",""1"",""6103""
""blur"",""2"",""9592""
""focus"",""2"",""11691""
""blur"",""7"",""49959""
""focus"",""7"",""51513""
","""event"",""trial"",""time""
""blur"",""2"",""9592""
""blur"",""7"",""49959""
","""event"",""trial"",""time""
""focus"",""2"",""11691""
""focus"",""7"",""51513""
","""event"",""trial"",""time""
""fullscreenenter"",""1"",""6103""
","
","","[{""page_index"":0,""viewing_time"":2145}]","2145.199999988079","","","","","","","","","","","","","","","","","","","","","","","",""
"pit-instructions","7","136599","0.0-2.0-3.0","battery-v0.2","","""event"",""trial"",""time""
""fullscreenenter"",""1"",""6103""
""blur"",""2"",""9592""
""focus"",""2"",""11691""
""blur"",""7"",""49959""
""focus"",""7"",""51513""
","""event"",""trial"",""time""
""blur"",""2"",""9592""
""blur"",""7"",""49959""
","""event"",""trial"",""time""
""focus"",""2"",""11691""
""focus"",""7"",""51513""
","""event"",""trial"",""time""
""fullscreenenter"",""1"",""6103""
","
","","[{""page_index"":0,""viewing_time"":10295.700000017881},{""page_index"":1,""viewing_time"":7969.299999982119},{""page_index"":2,""viewing_time"":6320.200000017881},{""page_index"":3,""viewing_time"":5295.199999988079},{""page_index"":4,""viewing_time"":6155.9000000059605},{""page_index"":5,""viewing_time"":6300.9000000059605},{""page_index"":6,""viewing_time"":7696.0999999940395},{""page_index"":7,""viewing_time"":7034.5},{""page_index"":8,""viewing_time"":7472.299999982119},{""page_index"":9,""viewing_time"":7876.5},{""page_index"":10,""viewing_time"":8596.300000011921},{""page_index"":11,""viewing_time"":7492.9000000059605},{""page_index"":12,""viewing_time"":7093},{""page_index"":13,""viewing_time"":5510.799999982119}]","101109.80000001192","","","","","","","","","","","","","","","","","","","","","","","",""
"pit-trial","8","139997","0.0-2.0-4.0-0.0","battery-v0.2","","""event"",""trial"",""time""
""fullscreenenter"",""1"",""6103""
""blur"",""2"",""9592""
""focus"",""2"",""11691""
""blur"",""7"",""49959""
""focus"",""7"",""51513""
","""event"",""trial"",""time""
""blur"",""2"",""9592""
""blur"",""7"",""49959""
","""event"",""trial"",""time""
""focus"",""2"",""11691""
""focus"",""7"",""51513""
","""event"",""trial"",""time""
""fullscreenenter"",""1"",""6103""
","
","","","526.9000000059605","","","25","10844","3987","&#9784;","elianto","#FFFFF080"," "," ","1","&#10004","[1381]","1","0","0","","","","","","","",""
"pit-trial","9","143391","0.0-2.0-4.1-0.1","battery-v0.2","","""event"",""trial"",""time""
""fullscreenenter"",""1"",""6103""
""blur"",""2"",""9592""
""focus"",""2"",""11691""
""blur"",""7"",""49959""
""focus"",""7"",""51513""
","""event"",""trial"",""time""
""blur"",""2"",""9592""
""blur"",""7"",""49959""
","""event"",""trial"",""time""
""focus"",""2"",""11691""
""focus"",""7"",""51513""
","""event"",""trial"",""time""
""fullscreenenter"",""1"",""6103""
","
","","","529.5999999940395","","","25","10844","3987","&#9784;","elianto","#FFFFF080"," "," ","1","&#10004","[1384.0999999940395]","1","0","0","","","","","","","",""
"pit-trial","10","146740","0.0-2.0-4.2-0.2","battery-v0.2","","""event"",""trial"",""time""
""fullscreenenter"",""1"",""6103""
""blur"",""2"",""9592""
""focus"",""2"",""11691""
""blur"",""7"",""49959""
""focus"",""7"",""51513""
","""event"",""trial"",""time""
""blur"",""2"",""9592""
""blur"",""7"",""49959""
","""event"",""trial"",""time""
""focus"",""2"",""11691""
""focus"",""7"",""51513""
","""event"",""trial"",""time""
""fullscreenenter"",""1"",""6103""
","
","","","484.59999999403954","","","25","10844","3987","&#9784;","elianto","#FFFFF080"," "," ","1","&#10004","[1341]","1","0","0","","","","","","","",""
"pit-trial","11","150082","0.0-2.0-4.3-0.3","battery-v0.2","","""event"",""trial"",""time""
""fullscreenenter"",""1"",""6103""
""blur"",""2"",""9592""
""focus"",""2"",""11691""
""blur"",""7"",""49959""
""focus"",""7"",""51513""
","""event"",""trial"",""time""
""blur"",""2"",""9592""
""blur"",""7"",""49959""
","""event"",""trial"",""time""
""focus"",""2"",""11691""
""focus"",""7"",""51513""
","""event"",""trial"",""time""
""fullscreenenter"",""1"",""6103""
","
","","","468.59999999403954","","","25","10844","3987","&#9784;","elianto","#FFFFF080"," "," ","1","&#10004","[1328.300000011921]","1","0","0","","","","","","","",""
"pit-trial","12","153471","0.0-2.0-4.4-0.4","battery-v0.2","","""event"",""trial"",""time""
""fullscreenenter"",""1"",""6103""
""blur"",""2"",""9592""
""focus"",""2"",""11691""
""blur"",""7"",""49959""
""focus"",""7"",""51513""
","""event"",""trial"",""time""
""blur"",""2"",""9592""
""blur"",""7"",""49959""
","""event"",""trial"",""time""
""focus"",""2"",""11691""
""focus"",""7"",""51513""
","""event"",""trial"",""time""
""fullscreenenter"",""1"",""6103""
","
","","","522.3000000119209","","","25","10844","3987","&#9784;","elianto","#FFFFF080"," "," ","1","&#10004","[1372.4000000059605]","1","0","0","","","","","","","",""
"pit-instructions","13","175639","0.0-2.0-5.0","battery-v0.2","","""event"",""trial"",""time""
""fullscreenenter"",""1"",""6103""
""blur"",""2"",""9592""
""focus"",""2"",""11691""
""blur"",""7"",""49959""
""focus"",""7"",""51513""
","""event"",""trial"",""time""
""blur"",""2"",""9592""
""blur"",""7"",""49959""
","""event"",""trial"",""time""
""focus"",""2"",""11691""
""focus"",""7"",""51513""
","""event"",""trial"",""time""
""fullscreenenter"",""1"",""6103""
","
","","[{""page_index"":0,""viewing_time"":5403.199999988079},{""page_index"":1,""viewing_time"":5237.200000017881},{""page_index"":2,""viewing_time"":4868},{""page_index"":3,""viewing_time"":6657.199999988079}]","22165.79999998212","","","","","","","","","","","","","","","","","","","","","","","",""
"pit-trial","14","180494","0.0-2.0-6.0-0.0","battery-v0.2","","""event"",""trial"",""time""
""fullscreenenter"",""1"",""6103""
""blur"",""2"",""9592""
""focus"",""2"",""11691""
""blur"",""7"",""49959""
""focus"",""7"",""51513""
","""event"",""trial"",""time""
""blur"",""2"",""9592""
""blur"",""7"",""49959""
","""event"",""trial"",""time""
""focus"",""2"",""11691""
""focus"",""7"",""51513""
","""event"",""trial"",""time""
""fullscreenenter"",""1"",""6103""
","
","","","-1","","","25","10844","3987","&#9854;","elianto","#FFFFF080","-1","-1","1","&#10004","[]","0","0","1","","","","","","","",""
"pit-trial","15","185355","0.0-2.0-6.1-0.1","battery-v0.2","","""event"",""trial"",""time""
""fullscreenenter"",""1"",""6103""
""blur"",""2"",""9592""
""focus"",""2"",""11691""
""blur"",""7"",""49959""
""focus"",""7"",""51513""
","""event"",""trial"",""time""
""blur"",""2"",""9592""
""blur"",""7"",""49959""
","""event"",""trial"",""time""
""focus"",""2"",""11691""
""focus"",""7"",""51513""
","""event"",""trial"",""time""
""fullscreenenter"",""1"",""6103""
","
","","","-1","","","25","10844","3987","&#9854;","elianto","#FFFFF080","-1","-1","1","&#10004","[]","0","0","1","","","","","","","",""
"pit-trial","16","190224","0.0-2.0-6.2-0.2","battery-v0.2","","""event"",""trial"",""time""
""fullscreenenter"",""1"",""6103""
""blur"",""2"",""9592""
""focus"",""2"",""11691""
""blur"",""7"",""49959""
""focus"",""7"",""51513""
","""event"",""trial"",""time""
""blur"",""2"",""9592""
""blur"",""7"",""49959""
","""event"",""trial"",""time""
""focus"",""2"",""11691""
""focus"",""7"",""51513""
","""event"",""trial"",""time""
""fullscreenenter"",""1"",""6103""
","
","","","-1","","","25","10844","3987","&#9854;","elianto","#FFFFF080","-1","-1","1","&#10004","[]","0","0","1","","","","","","","",""
"pit-trial","17","195085","0.0-2.0-6.3-0.3","battery-v0.2","","""event"",""trial"",""time""
""fullscreenenter"",""1"",""6103""
""blur"",""2"",""9592""
""focus"",""2"",""11691""
""blur"",""7"",""49959""
""focus"",""7"",""51513""
","""event"",""trial"",""time""
""blur"",""2"",""9592""
""blur"",""7"",""49959""
","""event"",""trial"",""time""
""focus"",""2"",""11691""
""focus"",""7"",""51513""
","""event"",""trial"",""time""
""fullscreenenter"",""1"",""6103""
","
","","","-1","","","25","10844","3987","&#9854;","elianto","#FFFFF080","-1","-1","1","&#10004","[]","0","0","1","","","","","","","",""
"pit-trial","18","199958","0.0-2.0-6.4-0.4","battery-v0.2","","""event"",""trial"",""time""
""fullscreenenter"",""1"",""6103""
""blur"",""2"",""9592""
""focus"",""2"",""11691""
""blur"",""7"",""49959""
""focus"",""7"",""51513""
","""event"",""trial"",""time""
""blur"",""2"",""9592""
""blur"",""7"",""49959""
","""event"",""trial"",""time""
""focus"",""2"",""11691""
""focus"",""7"",""51513""
","""event"",""trial"",""time""
""fullscreenenter"",""1"",""6103""
","
","","","-1","","","25","10844","3987","&#9854;","elianto","#FFFFF080","-1","-1","1","&#10004","[]","0","0","1","","","","","","","",""
"pit-instructions","19","317066","0.0-2.0-7.0","battery-v0.2","","""event"",""trial"",""time""
""fullscreenenter"",""1"",""6103""
""blur"",""2"",""9592""
""focus"",""2"",""11691""
""blur"",""7"",""49959""
""focus"",""7"",""51513""
","""event"",""trial"",""time""
""blur"",""2"",""9592""
""blur"",""7"",""49959""
","""event"",""trial"",""time""
""focus"",""2"",""11691""
""focus"",""7"",""51513""
","""event"",""trial"",""time""
""fullscreenenter"",""1"",""6103""
","
","","[{""page_index"":0,""viewing_time"":6029.9000000059605},{""page_index"":1,""viewing_time"":6890.5999999940395},{""page_index"":2,""viewing_time"":6323.800000011921},{""page_index"":3,""viewing_time"":6070},{""page_index"":4,""viewing_time"":5533.699999988079},{""page_index"":5,""viewing_time"":5385.4000000059605},{""page_index"":6,""viewing_time"":4952.300000011921},{""page_index"":7,""viewing_time"":7982.299999982119},{""page_index"":8,""viewing_time"":6899.5999999940395},{""page_index"":9,""viewing_time"":6353.700000017881},{""page_index"":10,""viewing_time"":7657.199999988079},{""page_index"":11,""viewing_time"":4779.800000011921},{""page_index"":12,""viewing_time"":7079.9000000059605},{""page_index"":13,""viewing_time"":7332.199999988079},{""page_index"":14,""viewing_time"":7411.300000011921},{""page_index"":15,""viewing_time"":6525.399999976158},{""page_index"":16,""viewing_time"":6627.300000011921},{""page_index"":17,""viewing_time"":7271.0999999940395}]","117105.70000001788","","","","","","","","","","","","","","","","","","","","","","","",""
"pit-trial","20","320413","0.0-2.0-8.0-0.0","battery-v0.2","","""event"",""trial"",""time""
""fullscreenenter"",""1"",""6103""
""blur"",""2"",""9592""
""focus"",""2"",""11691""
""blur"",""7"",""49959""
""focus"",""7"",""51513""
","""event"",""trial"",""time""
""blur"",""2"",""9592""
""blur"",""7"",""49959""
","""event"",""trial"",""time""
""focus"",""2"",""11691""
""focus"",""7"",""51513""
","""event"",""trial"",""time""
""fullscreenenter"",""1"",""6103""
","
","","","482.7999999821186","","","25","10844","3987","&#9776;","elianto","#3366ff99"," "," ","1","+10","[1335.5999999940395]","1","0","1","","","","","","","",""
"pit-trial","21","323727","0.0-2.0-8.0-1.0","battery-v0.2","","""event"",""trial"",""time""
""fullscreenenter"",""1"",""6103""
""blur"",""2"",""9592""
""focus"",""2"",""11691""
""blur"",""7"",""49959""
""focus"",""7"",""51513""
","""event"",""trial"",""time""
""blur"",""2"",""9592""
""blur"",""7"",""49959""
","""event"",""trial"",""time""
""focus"",""2"",""11691""
""focus"",""7"",""51513""
","""event"",""trial"",""time""
""fullscreenenter"",""1"",""6103""
","
","","","451.59999999403954","","","25","10844","3987","&#9776;","elianto","#3366ff99"," "," ","1","+10","[1304.3999999761581]","1","0","1","","","","","","","",""
"pit-trial","22","327036","0.0-2.0-8.0-2.0","battery-v0.2","","""event"",""trial"",""time""
""fullscreenenter"",""1"",""6103""
""blur"",""2"",""9592""
""focus"",""2"",""11691""
""blur"",""7"",""49959""
""focus"",""7"",""51513""
","""event"",""trial"",""time""
""blur"",""2"",""9592""
""blur"",""7"",""49959""
","""event"",""trial"",""time""
""focus"",""2"",""11691""
""focus"",""7"",""51513""
","""event"",""trial"",""time""
""fullscreenenter"",""1"",""6103""
","
","","","448.19999998807907","","","25","10844","3987","&#9776;","elianto","#3366ff99"," "," ","1","+10","[1299.199999988079]","1","0","1","","","","","","","",""
"pit-trial","23","330449","0.0-2.0-8.0-3.0","battery-v0.2","","""event"",""trial"",""time""
""fullscreenenter"",""1"",""6103""
""blur"",""2"",""9592""
""focus"",""2"",""11691""
""blur"",""7"",""49959""
""focus"",""7"",""51513""
","""event"",""trial"",""time""
""blur"",""2"",""9592""
""blur"",""7"",""49959""
","""event"",""trial"",""time""
""focus"",""2"",""11691""
""focus"",""7"",""51513""
","""event"",""trial"",""time""
""fullscreenenter"",""1"",""6103""
","
","","","548.7000000178814","","","25","10844","3987","&#9776;","elianto","#3366ff99"," "," ","1","0","[1405]","1","0","1","","","","","","","",""
"pit-trial","24","333720","0.0-2.0-8.0-4.0","battery-v0.2","","""event"",""trial"",""time""
""fullscreenenter"",""1"",""6103""
""blur"",""2"",""9592""
""focus"",""2"",""11691""
""blur"",""7"",""49959""
""focus"",""7"",""51513""
","""event"",""trial"",""time""
""blur"",""2"",""9592""
""blur"",""7"",""49959""
","""event"",""trial"",""time""
""focus"",""2"",""11691""
""focus"",""7"",""51513""
","""event"",""trial"",""time""
""fullscreenenter"",""1"",""6103""
","
","","","396.69999998807907","","","25","10844","3987","&#9776;","elianto","#3366ff99"," "," ","1","+10","[1253]","1","0","1","","","","","","","",""
"pit-trial","25","337175","0.0-2.0-8.1-0.1","battery-v0.2","","""event"",""trial"",""time""
""fullscreenenter"",""1"",""6103""
""blur"",""2"",""9592""
""focus"",""2"",""11691""
""blur"",""7"",""49959""
""focus"",""7"",""51513""
","""event"",""trial"",""time""
""blur"",""2"",""9592""
""blur"",""7"",""49959""
","""event"",""trial"",""time""
""focus"",""2"",""11691""
""focus"",""7"",""51513""
","""event"",""trial"",""time""
""fullscreenenter"",""1"",""6103""
","
","","","599.3000000119209","","","25","10844","3987","&#9776;","elianto","#3366ff99"," "," ","1","+10","[1451]","1","0","1","","","","","","","",""
"pit-trial","26","340468","0.0-2.0-8.1-1.1","battery-v0.2","","""event"",""trial"",""time""
""fullscreenenter"",""1"",""6103""
""blur"",""2"",""9592""
""focus"",""2"",""11691""
""blur"",""7"",""49959""
""focus"",""7"",""51513""
","""event"",""trial"",""time""
""blur"",""2"",""9592""
""blur"",""7"",""49959""
","""event"",""trial"",""time""
""focus"",""2"",""11691""
""focus"",""7"",""51513""
","""event"",""trial"",""time""
""fullscreenenter"",""1"",""6103""
","
","","","426","","","25","10844","3987","&#9776;","elianto","#3366ff99"," "," ","1","+10","[1276.7000000178814]","1","0","1","","","","","","","",""
"pit-trial","27","343771","0.0-2.0-8.1-2.1","battery-v0.2","","""event"",""trial"",""time""
""fullscreenenter"",""1"",""6103""
""blur"",""2"",""9592""
""focus"",""2"",""11691""
""blur"",""7"",""49959""
""focus"",""7"",""51513""
","""event"",""trial"",""time""
""blur"",""2"",""9592""
""blur"",""7"",""49959""
","""event"",""trial"",""time""
""focus"",""2"",""11691""
""focus"",""7"",""51513""
","""event"",""trial"",""time""
""fullscreenenter"",""1"",""6103""
","
","","","444.69999998807907","","","25","10844","3987","&#9776;","elianto","#3366ff99"," "," ","1","+10","[1298.7999999821186]","1","0","1","","","","","","","",""
"pit-trial","28","347233","0.0-2.0-8.1-3.1","battery-v0.2","","""event"",""trial"",""time""
""fullscreenenter"",""1"",""6103""
""blur"",""2"",""9592""
""focus"",""2"",""11691""
""blur"",""7"",""49959""
""focus"",""7"",""51513""
","""event"",""trial"",""time""
""blur"",""2"",""9592""
""blur"",""7"",""49959""
","""event"",""trial"",""time""
""focus"",""2"",""11691""
""focus"",""7"",""51513""
","""event"",""trial"",""time""
""fullscreenenter"",""1"",""6103""
","
","","","609.6000000238419","","","25","10844","3987","&#9776;","elianto","#3366ff99"," "," ","1","0","[1459.7000000178814]","1","0","1","","","","","","","",""
"pit-trial","29","350657","0.0-2.0-8.1-4.1","battery-v0.2","","""event"",""trial"",""time""
""fullscreenenter"",""1"",""6103""
""blur"",""2"",""9592""
""focus"",""2"",""11691""
""blur"",""7"",""49959""
""focus"",""7"",""51513""
","""event"",""trial"",""time""
""blur"",""2"",""9592""
""blur"",""7"",""49959""
","""event"",""trial"",""time""
""focus"",""2"",""11691""
""focus"",""7"",""51513""
","""event"",""trial"",""time""
""fullscreenenter"",""1"",""6103""
","
","","","571.5999999940395","","","25","10844","3987","&#9776;","elianto","#3366ff99"," "," ","1","+10","[1422.0999999940395]","1","0","1","","","","","","","",""
"pit-trial","30","353871","0.0-2.0-8.2-0.2","battery-v0.2","","""event"",""trial"",""time""
""fullscreenenter"",""1"",""6103""
""blur"",""2"",""9592""
""focus"",""2"",""11691""
""blur"",""7"",""49959""
""focus"",""7"",""51513""
","""event"",""trial"",""time""
""blur"",""2"",""9592""
""blur"",""7"",""49959""
","""event"",""trial"",""time""
""focus"",""2"",""11691""
""focus"",""7"",""51513""
","""event"",""trial"",""time""
""fullscreenenter"",""1"",""6103""
","
","","","360.69999998807907","","","25","10844","3987","&#9776;","elianto","#3366ff99"," "," ","1","+10","[1211.5]","1","0","1","","","","","","","",""
"pit-trial","31","357170","0.0-2.0-8.2-1.2","battery-v0.2","","""event"",""trial"",""time""
""fullscreenenter"",""1"",""6103""
""blur"",""2"",""9592""
""focus"",""2"",""11691""
""blur"",""7"",""49959""
""focus"",""7"",""51513""
","""event"",""trial"",""time""
""blur"",""2"",""9592""
""blur"",""7"",""49959""
","""event"",""trial"",""time""
""focus"",""2"",""11691""
""focus"",""7"",""51513""
","""event"",""trial"",""time""
""fullscreenenter"",""1"",""6103""
","
","","","445.40000000596046","","","25","10844","3987","&#9776;","elianto","#3366ff99"," "," ","1","+10","[1296.800000011921]","1","0","1","","","","","","","",""
"pit-trial","32","360378","0.0-2.0-8.2-2.2","battery-v0.2","","""event"",""trial"",""time""
""fullscreenenter"",""1"",""6103""
""blur"",""2"",""9592""
""focus"",""2"",""11691""
""blur"",""7"",""49959""
""focus"",""7"",""51513""
","""event"",""trial"",""time""
""blur"",""2"",""9592""
""blur"",""7"",""49959""
","""event"",""trial"",""time""
""focus"",""2"",""11691""
""focus"",""7"",""51513""
","""event"",""trial"",""time""
""fullscreenenter"",""1"",""6103""
","
","","","354.69999998807907","","","25","10844","3987","&#9776;","elianto","#3366ff99"," "," ","1","+10","[1206.2999999821186]","1","0","1","","","","","","","",""
"pit-trial","33","363638","0.0-2.0-8.2-3.2","battery-v0.2","","""event"",""trial"",""time""
""fullscreenenter"",""1"",""6103""
""blur"",""2"",""9592""
""focus"",""2"",""11691""
""blur"",""7"",""49959""
""focus"",""7"",""51513""
","""event"",""trial"",""time""
""blur"",""2"",""9592""
""blur"",""7"",""49959""
","""event"",""trial"",""time""
""focus"",""2"",""11691""
""focus"",""7"",""51513""
","""event"",""trial"",""time""
""fullscreenenter"",""1"",""6103""
","
","","","404.39999997615814","","","25","10844","3987","&#9776;","elianto","#3366ff99"," "," ","1","0","[1256.0999999940395]","1","0","1","","","","","","","",""
"pit-trial","34","366782","0.0-2.0-8.2-4.2","battery-v0.2","","""event"",""trial"",""time""
""fullscreenenter"",""1"",""6103""
""blur"",""2"",""9592""
""focus"",""2"",""11691""
""blur"",""7"",""49959""
""focus"",""7"",""51513""
","""event"",""trial"",""time""
""blur"",""2"",""9592""
""blur"",""7"",""49959""
","""event"",""trial"",""time""
""focus"",""2"",""11691""
""focus"",""7"",""51513""
","""event"",""trial"",""time""
""fullscreenenter"",""1"",""6103""
","
","","","292.59999999403954","","","25","10844","3987","&#9776;","elianto","#3366ff99"," "," ","1","+10","[1142.800000011921]","1","0","1","","","","","","","",""
"call-function","35","366784","0.0-2.0-9.0","battery-v0.2","","""event"",""trial"",""time""
""fullscreenenter"",""1"",""6103""
""blur"",""2"",""9592""
""focus"",""2"",""11691""
""blur"",""7"",""49959""
""focus"",""7"",""51513""
","""event"",""trial"",""time""
""blur"",""2"",""9592""
""blur"",""7"",""49959""
","""event"",""trial"",""time""
""focus"",""2"",""11691""
""focus"",""7"",""51513""
","""event"",""trial"",""time""
""fullscreenenter"",""1"",""6103""
","
","","","","","","","","","","","","","","","","","","","","","","","","","","",""
"pit-instructions","36","407850","0.0-2.0-10.0","battery-v0.2","","""event"",""trial"",""time""
""fullscreenenter"",""1"",""6103""
""blur"",""2"",""9592""
""focus"",""2"",""11691""
""blur"",""7"",""49959""
""focus"",""7"",""51513""
","""event"",""trial"",""time""
""blur"",""2"",""9592""
""blur"",""7"",""49959""
","""event"",""trial"",""time""
""focus"",""2"",""11691""
""focus"",""7"",""51513""
","""event"",""trial"",""time""
""fullscreenenter"",""1"",""6103""
","
","","[{""page_index"":0,""viewing_time"":8073.199999988079},{""page_index"":1,""viewing_time"":6835.9000000059605},{""page_index"":2,""viewing_time"":9344.199999988079},{""page_index"":3,""viewing_time"":9016.100000023842},{""page_index"":4,""viewing_time"":7795.899999976158}]","41065.5","","","","","","","","","","","","","","","","","","","","","","","",""
"pit-trial","37","411190","0.0-2.0-11.0-0.0","battery-v0.2","","""event"",""trial"",""time""
""fullscreenenter"",""1"",""6103""
""blur"",""2"",""9592""
""focus"",""2"",""11691""
""blur"",""7"",""49959""
""focus"",""7"",""51513""
","""event"",""trial"",""time""
""blur"",""2"",""9592""
""blur"",""7"",""49959""
","""event"",""trial"",""time""
""focus"",""2"",""11691""
""focus"",""7"",""51513""
","""event"",""trial"",""time""
""fullscreenenter"",""1"",""6103""
","
","","","482.5","","","25","10844","3987","&#9761;","elianto","#3366ff99","-1"," ","0","0","[1333]","1","0","2","","","","","","","",""
"pit-trial","38","414293","0.0-2.0-11.0-1.0","battery-v0.2","","""event"",""trial"",""time""
""fullscreenenter"",""1"",""6103""
""blur"",""2"",""9592""
""focus"",""2"",""11691""
""blur"",""7"",""49959""
""focus"",""7"",""51513""
","""event"",""trial"",""time""
""blur"",""2"",""9592""
""blur"",""7"",""49959""
","""event"",""trial"",""time""
""focus"",""2"",""11691""
""focus"",""7"",""51513""
","""event"",""trial"",""time""
""fullscreenenter"",""1"",""6103""
","
","","","243.09999999403954","","","25","10844","3987","&#9761;","elianto","#3366ff99","-1"," ","0","0","[1099.5]","1","0","2","","","","","","","",""
"pit-trial","39","419157","0.0-2.0-11.0-2.0","battery-v0.2","","""event"",""trial"",""time""
""fullscreenenter"",""1"",""6103""
""blur"",""2"",""9592""
""focus"",""2"",""11691""
""blur"",""7"",""49959""
""focus"",""7"",""51513""
","""event"",""trial"",""time""
""blur"",""2"",""9592""
""blur"",""7"",""49959""
","""event"",""trial"",""time""
""focus"",""2"",""11691""
""focus"",""7"",""51513""
","""event"",""trial"",""time""
""fullscreenenter"",""1"",""6103""
","
","","","-1","","","25","10844","3987","&#9761;","elianto","#3366ff99","-1","-1","1","+10","[]","0","0","2","","","","","","","",""
"pit-trial","40","424027","0.0-2.0-11.0-3.0","battery-v0.2","","""event"",""trial"",""time""
""fullscreenenter"",""1"",""6103""
""blur"",""2"",""9592""
""focus"",""2"",""11691""
""blur"",""7"",""49959""
""focus"",""7"",""51513""
","""event"",""trial"",""time""
""blur"",""2"",""9592""
""blur"",""7"",""49959""
","""event"",""trial"",""time""
""focus"",""2"",""11691""
""focus"",""7"",""51513""
","""event"",""trial"",""time""
""fullscreenenter"",""1"",""6103""
","
","","","-1","","","25","10844","3987","&#9761;","elianto","#3366ff99","-1","-1","1","0","[]","0","0","2","","","","","","","",""
"pit-trial","41","428893","0.0-2.0-11.0-4.0","battery-v0.2","","""event"",""trial"",""time""
""fullscreenenter"",""1"",""6103""
""blur"",""2"",""9592""
""focus"",""2"",""11691""
""blur"",""7"",""49959""
""focus"",""7"",""51513""
","""event"",""trial"",""time""
""blur"",""2"",""9592""
""blur"",""7"",""49959""
","""event"",""trial"",""time""
""focus"",""2"",""11691""
""focus"",""7"",""51513""
","""event"",""trial"",""time""
""fullscreenenter"",""1"",""6103""
","
","","","-1","","","25","10844","3987","&#9761;","elianto","#3366ff99","-1","-1","1","+10","[]","0","0","2","","","","","","","",""
"pit-trial","42","433770","0.0-2.0-11.1-0.1","battery-v0.2","","""event"",""trial"",""time""
""fullscreenenter"",""1"",""6103""
""blur"",""2"",""9592""
""focus"",""2"",""11691""
""blur"",""7"",""49959""
""focus"",""7"",""51513""
","""event"",""trial"",""time""
""blur"",""2"",""9592""
""blur"",""7"",""49959""
","""event"",""trial"",""time""
""focus"",""2"",""11691""
""focus"",""7"",""51513""
","""event"",""trial"",""time""
""fullscreenenter"",""1"",""6103""
","
","","","-1","","","25","10844","3987","&#9761;","elianto","#3366ff99","-1","-1","1","+10","[]","0","0","2","","","","","","","",""
"pit-trial","43","438632","0.0-2.0-11.1-1.1","battery-v0.2","","""event"",""trial"",""time""
""fullscreenenter"",""1"",""6103""
""blur"",""2"",""9592""
""focus"",""2"",""11691""
""blur"",""7"",""49959""
""focus"",""7"",""51513""
","""event"",""trial"",""time""
""blur"",""2"",""9592""
""blur"",""7"",""49959""
","""event"",""trial"",""time""
""focus"",""2"",""11691""
""focus"",""7"",""51513""
","""event"",""trial"",""time""
""fullscreenenter"",""1"",""6103""
","
","","","-1","","","25","10844","3987","&#9761;","elianto","#3366ff99","-1","-1","1","+10","[]","0","0","2","","","","","","","",""
"pit-trial","44","443485","0.0-2.0-11.1-2.1","battery-v0.2","","""event"",""trial"",""time""
""fullscreenenter"",""1"",""6103""
""blur"",""2"",""9592""
""focus"",""2"",""11691""
""blur"",""7"",""49959""
""focus"",""7"",""51513""
","""event"",""trial"",""time""
""blur"",""2"",""9592""
""blur"",""7"",""49959""
","""event"",""trial"",""time""
""focus"",""2"",""11691""
""focus"",""7"",""51513""
","""event"",""trial"",""time""
""fullscreenenter"",""1"",""6103""
","
","","","-1","","","25","10844","3987","&#9761;","elianto","#3366ff99","-1","-1","1","+10","[]","0","0","2","","","","","","","",""
"pit-trial","45","448339","0.0-2.0-11.1-3.1","battery-v0.2","","""event"",""trial"",""time""
""fullscreenenter"",""1"",""6103""
""blur"",""2"",""9592""
""focus"",""2"",""11691""
""blur"",""7"",""49959""
""focus"",""7"",""51513""
","""event"",""trial"",""time""
""blur"",""2"",""9592""
""blur"",""7"",""49959""
","""event"",""trial"",""time""
""focus"",""2"",""11691""
""focus"",""7"",""51513""
","""event"",""trial"",""time""
""fullscreenenter"",""1"",""6103""
","
","","","-1","","","25","10844","3987","&#9761;","elianto","#3366ff99","-1","-1","1","0","[]","0","0","2","","","","","","","",""
"pit-trial","46","453191","0.0-2.0-11.1-4.1","battery-v0.2","","""event"",""trial"",""time""
""fullscreenenter"",""1"",""6103""
""blur"",""2"",""9592""
""focus"",""2"",""11691""
""blur"",""7"",""49959""
""focus"",""7"",""51513""
","""event"",""trial"",""time""
""blur"",""2"",""9592""
""blur"",""7"",""49959""
","""event"",""trial"",""time""
""focus"",""2"",""11691""
""focus"",""7"",""51513""
","""event"",""trial"",""time""
""fullscreenenter"",""1"",""6103""
","
","","","-1","","","25","10844","3987","&#9761;","elianto","#3366ff99","-1","-1","1","+10","[]","0","0","2","","","","","","","",""
"pit-trial","47","458045","0.0-2.0-11.2-0.2","battery-v0.2","","""event"",""trial"",""time""
""fullscreenenter"",""1"",""6103""
""blur"",""2"",""9592""
""focus"",""2"",""11691""
""blur"",""7"",""49959""
""focus"",""7"",""51513""
","""event"",""trial"",""time""
""blur"",""2"",""9592""
""blur"",""7"",""49959""
","""event"",""trial"",""time""
""focus"",""2"",""11691""
""focus"",""7"",""51513""
","""event"",""trial"",""time""
""fullscreenenter"",""1"",""6103""
","
","","","-1","","","25","10844","3987","&#9761;","elianto","#3366ff99","-1","-1","1","+10","[]","0","0","2","","","","","","","",""
"pit-trial","48","462898","0.0-2.0-11.2-1.2","battery-v0.2","","""event"",""trial"",""time""
""fullscreenenter"",""1"",""6103""
""blur"",""2"",""9592""
""focus"",""2"",""11691""
""blur"",""7"",""49959""
""focus"",""7"",""51513""
","""event"",""trial"",""time""
""blur"",""2"",""9592""
""blur"",""7"",""49959""
","""event"",""trial"",""time""
""focus"",""2"",""11691""
""focus"",""7"",""51513""
","""event"",""trial"",""time""
""fullscreenenter"",""1"",""6103""
","
","","","-1","","","25","10844","3987","&#9761;","elianto","#3366ff99","-1","-1","1","+10","[]","0","0","2","","","","","","","",""
"pit-trial","49","467750","0.0-2.0-11.2-2.2","battery-v0.2","","""event"",""trial"",""time""
""fullscreenenter"",""1"",""6103""
""blur"",""2"",""9592""
""focus"",""2"",""11691""
""blur"",""7"",""49959""
""focus"",""7"",""51513""
","""event"",""trial"",""time""
""blur"",""2"",""9592""
""blur"",""7"",""49959""
","""event"",""trial"",""time""
""focus"",""2"",""11691""
""focus"",""7"",""51513""
","""event"",""trial"",""time""
""fullscreenenter"",""1"",""6103""
","
","","","-1","","","25","10844","3987","&#9761;","elianto","#3366ff99","-1","-1","1","+10","[]","0","0","2","","","","","","","",""
"pit-trial","50","472607","0.0-2.0-11.2-3.2","battery-v0.2","","""event"",""trial"",""time""
""fullscreenenter"",""1"",""6103""
""blur"",""2"",""9592""
""focus"",""2"",""11691""
""blur"",""7"",""49959""
""focus"",""7"",""51513""
","""event"",""trial"",""time""
""blur"",""2"",""9592""
""blur"",""7"",""49959""
","""event"",""trial"",""time""
""focus"",""2"",""11691""
""focus"",""7"",""51513""
","""event"",""trial"",""time""
""fullscreenenter"",""1"",""6103""
","
","","","-1","","","25","10844","3987","&#9761;","elianto","#3366ff99","-1","-1","1","0","[]","0","0","2","","","","","","","",""
"pit-trial","51","477460","0.0-2.0-11.2-4.2","battery-v0.2","","""event"",""trial"",""time""
""fullscreenenter"",""1"",""6103""
""blur"",""2"",""9592""
""focus"",""2"",""11691""
""blur"",""7"",""49959""
""focus"",""7"",""51513""
","""event"",""trial"",""time""
""blur"",""2"",""9592""
""blur"",""7"",""49959""
","""event"",""trial"",""time""
""focus"",""2"",""11691""
""focus"",""7"",""51513""
","""event"",""trial"",""time""
""fullscreenenter"",""1"",""6103""
","
","","","-1","","","25","10844","3987","&#9761;","elianto","#3366ff99","-1","-1","1","+10","[]","0","0","2","","","","","","","",""
"pit-trial","52","482313","0.0-2.0-11.3-0.3","battery-v0.2","","""event"",""trial"",""time""
""fullscreenenter"",""1"",""6103""
""blur"",""2"",""9592""
""focus"",""2"",""11691""
""blur"",""7"",""49959""
""focus"",""7"",""51513""
","""event"",""trial"",""time""
""blur"",""2"",""9592""
""blur"",""7"",""49959""
","""event"",""trial"",""time""
""focus"",""2"",""11691""
""focus"",""7"",""51513""
","""event"",""trial"",""time""
""fullscreenenter"",""1"",""6103""
","
","","","-1","","","25","10844","3987","&#9761;","elianto","#3366ff99","-1","-1","1","+10","[]","0","0","2","","","","","","","",""
"pit-trial","53","487166","0.0-2.0-11.3-1.3","battery-v0.2","","""event"",""trial"",""time""
""fullscreenenter"",""1"",""6103""
""blur"",""2"",""9592""
""focus"",""2"",""11691""
""blur"",""7"",""49959""
""focus"",""7"",""51513""
","""event"",""trial"",""time""
""blur"",""2"",""9592""
""blur"",""7"",""49959""
","""event"",""trial"",""time""
""focus"",""2"",""11691""
""focus"",""7"",""51513""
","""event"",""trial"",""time""
""fullscreenenter"",""1"",""6103""
","
","","","-1","","","25","10844","3987","&#9761;","elianto","#3366ff99","-1","-1","1","+10","[]","0","0","2","","","","","","","",""
"pit-trial","54","492020","0.0-2.0-11.3-2.3","battery-v0.2","","""event"",""trial"",""time""
""fullscreenenter"",""1"",""6103""
""blur"",""2"",""9592""
""focus"",""2"",""11691""
""blur"",""7"",""49959""
""focus"",""7"",""51513""
","""event"",""trial"",""time""
""blur"",""2"",""9592""
""blur"",""7"",""49959""
","""event"",""trial"",""time""
""focus"",""2"",""11691""
""focus"",""7"",""51513""
","""event"",""trial"",""time""
""fullscreenenter"",""1"",""6103""
","
","","","-1","","","25","10844","3987","&#9761;","elianto","#3366ff99","-1","-1","1","+10","[]","0","0","2","","","","","","","",""
"pit-trial","55","496874","0.0-2.0-11.3-3.3","battery-v0.2","","""event"",""trial"",""time""
""fullscreenenter"",""1"",""6103""
""blur"",""2"",""9592""
""focus"",""2"",""11691""
""blur"",""7"",""49959""
""focus"",""7"",""51513""
","""event"",""trial"",""time""
""blur"",""2"",""9592""
""blur"",""7"",""49959""
","""event"",""trial"",""time""
""focus"",""2"",""11691""
""focus"",""7"",""51513""
","""event"",""trial"",""time""
""fullscreenenter"",""1"",""6103""
","
","","","-1","","","25","10844","3987","&#9761;","elianto","#3366ff99","-1","-1","1","0","[]","0","0","2","","","","","","","",""
"pit-trial","56","501727","0.0-2.0-11.3-4.3","battery-v0.2","","""event"",""trial"",""time""
""fullscreenenter"",""1"",""6103""
""blur"",""2"",""9592""
""focus"",""2"",""11691""
""blur"",""7"",""49959""
""focus"",""7"",""51513""
","""event"",""trial"",""time""
""blur"",""2"",""9592""
""blur"",""7"",""49959""
","""event"",""trial"",""time""
""focus"",""2"",""11691""
""focus"",""7"",""51513""
","""event"",""trial"",""time""
""fullscreenenter"",""1"",""6103""
","
","","","-1","","","25","10844","3987","&#9761;","elianto","#3366ff99","-1","-1","1","+10","[]","0","0","2","","","","","","","",""
"call-function","57","501729","0.0-2.0-12.0","battery-v0.2","","""event"",""trial"",""time""
""fullscreenenter"",""1"",""6103""
""blur"",""2"",""9592""
""focus"",""2"",""11691""
""blur"",""7"",""49959""
""focus"",""7"",""51513""
","""event"",""trial"",""time""
""blur"",""2"",""9592""
""blur"",""7"",""49959""
","""event"",""trial"",""time""
""focus"",""2"",""11691""
""focus"",""7"",""51513""
","""event"",""trial"",""time""
""fullscreenenter"",""1"",""6103""
","
","","","","","","","","","","","","","","","","","","","","","","","","","","",""
"pit-instructions","58","531898","0.0-2.0-13.0","battery-v0.2","","""event"",""trial"",""time""
""fullscreenenter"",""1"",""6103""
""blur"",""2"",""9592""
""focus"",""2"",""11691""
""blur"",""7"",""49959""
""focus"",""7"",""51513""
","""event"",""trial"",""time""
""blur"",""2"",""9592""
""blur"",""7"",""49959""
","""event"",""trial"",""time""
""focus"",""2"",""11691""
""focus"",""7"",""51513""
","""event"",""trial"",""time""
""fullscreenenter"",""1"",""6103""
","
","","[{""page_index"":0,""viewing_time"":4845.100000023842},{""page_index"":1,""viewing_time"":6074.399999976158},{""page_index"":2,""viewing_time"":3906},{""page_index"":3,""viewing_time"":10138},{""page_index"":4,""viewing_time"":5205.100000023842}]","30168.90000000596","","","","","","","","","","","","","","","","","","","","","","","",""
"pit-trial","59","535119","0.0-2.0-14.0-0.0","battery-v0.2","","""event"",""trial"",""time""
""fullscreenenter"",""1"",""6103""
""blur"",""2"",""9592""
""focus"",""2"",""11691""
""blur"",""7"",""49959""
""focus"",""7"",""51513""
","""event"",""trial"",""time""
""blur"",""2"",""9592""
""blur"",""7"",""49959""
","""event"",""trial"",""time""
""focus"",""2"",""11691""
""focus"",""7"",""51513""
","""event"",""trial"",""time""
""fullscreenenter"",""1"",""6103""
","
","","","362.19999998807907","","","25","10844","3987","&#9826;","elianto","#f73b6a7A","-1"," ","0","-10","[1214.4000000059605]","1","0","3","","","","","","","",""
"pit-trial","60","538105","0.0-2.0-14.0-1.0","battery-v0.2","","""event"",""trial"",""time""
""fullscreenenter"",""1"",""6103""
""blur"",""2"",""9592""
""focus"",""2"",""11691""
""blur"",""7"",""49959""
""focus"",""7"",""51513""
","""event"",""trial"",""time""
""blur"",""2"",""9592""
""blur"",""7"",""49959""
","""event"",""trial"",""time""
""focus"",""2"",""11691""
""focus"",""7"",""51513""
","""event"",""trial"",""time""
""fullscreenenter"",""1"",""6103""
","
","","","125.90000000596046","","","25","10844","3987","&#9826;","elianto","#f73b6a7A","-1"," ","0","-10","[979.5999999940395]","1","0","3","","","","","","","",""
"pit-trial","61","542968","0.0-2.0-14.0-2.0","battery-v0.2","","""event"",""trial"",""time""
""fullscreenenter"",""1"",""6103""
""blur"",""2"",""9592""
""focus"",""2"",""11691""
""blur"",""7"",""49959""
""focus"",""7"",""51513""
","""event"",""trial"",""time""
""blur"",""2"",""9592""
""blur"",""7"",""49959""
","""event"",""trial"",""time""
""focus"",""2"",""11691""
""focus"",""7"",""51513""
","""event"",""trial"",""time""
""fullscreenenter"",""1"",""6103""
","
","","","-1","","","25","10844","3987","&#9826;","elianto","#f73b6a7A","-1","-1","1","0","[]","0","0","3","","","","","","","",""
"pit-trial","62","547830","0.0-2.0-14.0-3.0","battery-v0.2","","""event"",""trial"",""time""
""fullscreenenter"",""1"",""6103""
""blur"",""2"",""9592""
""focus"",""2"",""11691""
""blur"",""7"",""49959""
""focus"",""7"",""51513""
","""event"",""trial"",""time""
""blur"",""2"",""9592""
""blur"",""7"",""49959""
","""event"",""trial"",""time""
""focus"",""2"",""11691""
""focus"",""7"",""51513""
","""event"",""trial"",""time""
""fullscreenenter"",""1"",""6103""
","
","","","-1","","","25","10844","3987","&#9826;","elianto","#f73b6a7A","-1","-1","1","-10","[]","0","0","3","","","","","","","",""
"pit-trial","63","552695","0.0-2.0-14.0-4.0","battery-v0.2","","""event"",""trial"",""time""
""fullscreenenter"",""1"",""6103""
""blur"",""2"",""9592""
""focus"",""2"",""11691""
""blur"",""7"",""49959""
""focus"",""7"",""51513""
","""event"",""trial"",""time""
""blur"",""2"",""9592""
""blur"",""7"",""49959""
","""event"",""trial"",""time""
""focus"",""2"",""11691""
""focus"",""7"",""51513""
","""event"",""trial"",""time""
""fullscreenenter"",""1"",""6103""
","
","","","-1","","","25","10844","3987","&#9826;","elianto","#f73b6a7A","-1","-1","1","0","[]","0","0","3","","","","","","","",""
"pit-trial","64","557564","0.0-2.0-14.1-0.1","battery-v0.2","","""event"",""trial"",""time""
""fullscreenenter"",""1"",""6103""
""blur"",""2"",""9592""
""focus"",""2"",""11691""
""blur"",""7"",""49959""
""focus"",""7"",""51513""
","""event"",""trial"",""time""
""blur"",""2"",""9592""
""blur"",""7"",""49959""
","""event"",""trial"",""time""
""focus"",""2"",""11691""
""focus"",""7"",""51513""
","""event"",""trial"",""time""
""fullscreenenter"",""1"",""6103""
","
","","","-1","","","25","10844","3987","&#9826;","elianto","#f73b6a7A","-1","-1","1","0","[]","0","0","3","","","","","","","",""
"pit-trial","65","560787","0.0-2.0-14.1-1.1","battery-v0.2","","""event"",""trial"",""time""
""fullscreenenter"",""1"",""6103""
""blur"",""2"",""9592""
""focus"",""2"",""11691""
""blur"",""7"",""49959""
""focus"",""7"",""51513""
","""event"",""trial"",""time""
""blur"",""2"",""9592""
""blur"",""7"",""49959""
","""event"",""trial"",""time""
""focus"",""2"",""11691""
""focus"",""7"",""51513""
","""event"",""trial"",""time""
""fullscreenenter"",""1"",""6103""
","
","","","348.5","","","25","10844","3987","&#9826;","elianto","#f73b6a7A","-1"," ","0","-10","[1211.7999999821186]","1","0","3","","","","","","","",""
"pit-trial","66","563949","0.0-2.0-14.1-2.1","battery-v0.2","","""event"",""trial"",""time""
""fullscreenenter"",""1"",""6103""
""blur"",""2"",""9592""
""focus"",""2"",""11691""
""blur"",""7"",""49959""
""focus"",""7"",""51513""
","""event"",""trial"",""time""
""blur"",""2"",""9592""
""blur"",""7"",""49959""
","""event"",""trial"",""time""
""focus"",""2"",""11691""
""focus"",""7"",""51513""
","""event"",""trial"",""time""
""fullscreenenter"",""1"",""6103""
","
","","","308.90000000596046","","","25","10844","3987","&#9826;","elianto","#f73b6a7A","-1"," ","0","-10","[1159.5999999940395]","1","0","3","","","","","","","",""
"pit-trial","67","568802","0.0-2.0-14.1-3.1","battery-v0.2","","""event"",""trial"",""time""
""fullscreenenter"",""1"",""6103""
""blur"",""2"",""9592""
""focus"",""2"",""11691""
""blur"",""7"",""49959""
""focus"",""7"",""51513""
","""event"",""trial"",""time""
""blur"",""2"",""9592""
""blur"",""7"",""49959""
","""event"",""trial"",""time""
""focus"",""2"",""11691""
""focus"",""7"",""51513""
","""event"",""trial"",""time""
""fullscreenenter"",""1"",""6103""
","
","","","-1","","","25","10844","3987","&#9826;","elianto","#f73b6a7A","-1","-1","1","-10","[]","0","0","3","","","","","","","",""
"pit-trial","68","573656","0.0-2.0-14.1-4.1","battery-v0.2","","""event"",""trial"",""time""
""fullscreenenter"",""1"",""6103""
""blur"",""2"",""9592""
""focus"",""2"",""11691""
""blur"",""7"",""49959""
""focus"",""7"",""51513""
","""event"",""trial"",""time""
""blur"",""2"",""9592""
""blur"",""7"",""49959""
","""event"",""trial"",""time""
""focus"",""2"",""11691""
""focus"",""7"",""51513""
","""event"",""trial"",""time""
""fullscreenenter"",""1"",""6103""
","
","","","-1","","","25","10844","3987","&#9826;","elianto","#f73b6a7A","-1","-1","1","0","[]","0","0","3","","","","","","","",""
"pit-trial","69","578518","0.0-2.0-14.2-0.2","battery-v0.2","","""event"",""trial"",""time""
""fullscreenenter"",""1"",""6103""
""blur"",""2"",""9592""
""focus"",""2"",""11691""
""blur"",""7"",""49959""
""focus"",""7"",""51513""
","""event"",""trial"",""time""
""blur"",""2"",""9592""
""blur"",""7"",""49959""
","""event"",""trial"",""time""
""focus"",""2"",""11691""
""focus"",""7"",""51513""
","""event"",""trial"",""time""
""fullscreenenter"",""1"",""6103""
","
","","","-1","","","25","10844","3987","&#9826;","elianto","#f73b6a7A","-1","-1","1","0","[]","0","0","3","","","","","","","",""
"pit-trial","70","583372","0.0-2.0-14.2-1.2","battery-v0.2","","""event"",""trial"",""time""
""fullscreenenter"",""1"",""6103""
""blur"",""2"",""9592""
""focus"",""2"",""11691""
""blur"",""7"",""49959""
""focus"",""7"",""51513""
","""event"",""trial"",""time""
""blur"",""2"",""9592""
""blur"",""7"",""49959""
","""event"",""trial"",""time""
""focus"",""2"",""11691""
""focus"",""7"",""51513""
","""event"",""trial"",""time""
""fullscreenenter"",""1"",""6103""
","
","","","-1","","","25","10844","3987","&#9826;","elianto","#f73b6a7A","-1","-1","1","0","[]","0","0","3","","","","","","","",""
"pit-trial","71","588224","0.0-2.0-14.2-2.2","battery-v0.2","","""event"",""trial"",""time""
""fullscreenenter"",""1"",""6103""
""blur"",""2"",""9592""
""focus"",""2"",""11691""
""blur"",""7"",""49959""
""focus"",""7"",""51513""
","""event"",""trial"",""time""
""blur"",""2"",""9592""
""blur"",""7"",""49959""
","""event"",""trial"",""time""
""focus"",""2"",""11691""
""focus"",""7"",""51513""
","""event"",""trial"",""time""
""fullscreenenter"",""1"",""6103""
","
","","","-1","","","25","10844","3987","&#9826;","elianto","#f73b6a7A","-1","-1","1","0","[]","0","0","3","","","","","","","",""
"pit-trial","72","593076","0.0-2.0-14.2-3.2","battery-v0.2","","""event"",""trial"",""time""
""fullscreenenter"",""1"",""6103""
""blur"",""2"",""9592""
""focus"",""2"",""11691""
""blur"",""7"",""49959""
""focus"",""7"",""51513""
","""event"",""trial"",""time""
""blur"",""2"",""9592""
""blur"",""7"",""49959""
","""event"",""trial"",""time""
""focus"",""2"",""11691""
""focus"",""7"",""51513""
","""event"",""trial"",""time""
""fullscreenenter"",""1"",""6103""
","
","","","-1","","","25","10844","3987","&#9826;","elianto","#f73b6a7A","-1","-1","1","-10","[]","0","0","3","","","","","","","",""
"pit-trial","73","597930","0.0-2.0-14.2-4.2","battery-v0.2","","""event"",""trial"",""time""
""fullscreenenter"",""1"",""6103""
""blur"",""2"",""9592""
""focus"",""2"",""11691""
""blur"",""7"",""49959""
""focus"",""7"",""51513""
","""event"",""trial"",""time""
""blur"",""2"",""9592""
""blur"",""7"",""49959""
","""event"",""trial"",""time""
""focus"",""2"",""11691""
""focus"",""7"",""51513""
","""event"",""trial"",""time""
""fullscreenenter"",""1"",""6103""
","
","","","-1","","","25","10844","3987","&#9826;","elianto","#f73b6a7A","-1","-1","1","0","[]","0","0","3","","","","","","","",""
"pit-trial","74","602782","0.0-2.0-14.3-0.3","battery-v0.2","","""event"",""trial"",""time""
""fullscreenenter"",""1"",""6103""
""blur"",""2"",""9592""
""focus"",""2"",""11691""
""blur"",""7"",""49959""
""focus"",""7"",""51513""
","""event"",""trial"",""time""
""blur"",""2"",""9592""
""blur"",""7"",""49959""
","""event"",""trial"",""time""
""focus"",""2"",""11691""
""focus"",""7"",""51513""
","""event"",""trial"",""time""
""fullscreenenter"",""1"",""6103""
","
","","","-1","","","25","10844","3987","&#9826;","elianto","#f73b6a7A","-1","-1","1","0","[]","0","0","3","","","","","","","",""
"pit-trial","75","607635","0.0-2.0-14.3-1.3","battery-v0.2","","""event"",""trial"",""time""
""fullscreenenter"",""1"",""6103""
""blur"",""2"",""9592""
""focus"",""2"",""11691""
""blur"",""7"",""49959""
""focus"",""7"",""51513""
","""event"",""trial"",""time""
""blur"",""2"",""9592""
""blur"",""7"",""49959""
","""event"",""trial"",""time""
""focus"",""2"",""11691""
""focus"",""7"",""51513""
","""event"",""trial"",""time""
""fullscreenenter"",""1"",""6103""
","
","","","-1","","","25","10844","3987","&#9826;","elianto","#f73b6a7A","-1","-1","1","0","[]","0","0","3","","","","","","","",""
"pit-trial","76","612488","0.0-2.0-14.3-2.3","battery-v0.2","","""event"",""trial"",""time""
""fullscreenenter"",""1"",""6103""
""blur"",""2"",""9592""
""focus"",""2"",""11691""
""blur"",""7"",""49959""
""focus"",""7"",""51513""
","""event"",""trial"",""time""
""blur"",""2"",""9592""
""blur"",""7"",""49959""
","""event"",""trial"",""time""
""focus"",""2"",""11691""
""focus"",""7"",""51513""
","""event"",""trial"",""time""
""fullscreenenter"",""1"",""6103""
","
","","","-1","","","25","10844","3987","&#9826;","elianto","#f73b6a7A","-1","-1","1","0","[]","0","0","3","","","","","","","",""
"pit-trial","77","617340","0.0-2.0-14.3-3.3","battery-v0.2","","""event"",""trial"",""time""
""fullscreenenter"",""1"",""6103""
""blur"",""2"",""9592""
""focus"",""2"",""11691""
""blur"",""7"",""49959""
""focus"",""7"",""51513""
","""event"",""trial"",""time""
""blur"",""2"",""9592""
""blur"",""7"",""49959""
","""event"",""trial"",""time""
""focus"",""2"",""11691""
""focus"",""7"",""51513""
","""event"",""trial"",""time""
""fullscreenenter"",""1"",""6103""
","
","","","-1","","","25","10844","3987","&#9826;","elianto","#f73b6a7A","-1","-1","1","-10","[]","0","0","3","","","","","","","",""
"pit-trial","78","622193","0.0-2.0-14.3-4.3","battery-v0.2","","""event"",""trial"",""time""
""fullscreenenter"",""1"",""6103""
""blur"",""2"",""9592""
""focus"",""2"",""11691""
""blur"",""7"",""49959""
""focus"",""7"",""51513""
","""event"",""trial"",""time""
""blur"",""2"",""9592""
""blur"",""7"",""49959""
","""event"",""trial"",""time""
""focus"",""2"",""11691""
""focus"",""7"",""51513""
","""event"",""trial"",""time""
""fullscreenenter"",""1"",""6103""
","
","","","-1","","","25","10844","3987","&#9826;","elianto","#f73b6a7A","-1","-1","1","0","[]","0","0","3","","","","","","","",""
"call-function","79","622194","0.0-2.0-15.0","battery-v0.2","","""event"",""trial"",""time""
""fullscreenenter"",""1"",""6103""
""blur"",""2"",""9592""
""focus"",""2"",""11691""
""blur"",""7"",""49959""
""focus"",""7"",""51513""
","""event"",""trial"",""time""
""blur"",""2"",""9592""
""blur"",""7"",""49959""
","""event"",""trial"",""time""
""focus"",""2"",""11691""
""focus"",""7"",""51513""
","""event"",""trial"",""time""
""fullscreenenter"",""1"",""6103""
","
","","","","","","","","","","","","","","","","","","","","","","","","","","",""
"pit-instructions","80","647230","0.0-2.0-16.0","battery-v0.2","","""event"",""trial"",""time""
""fullscreenenter"",""1"",""6103""
""blur"",""2"",""9592""
""focus"",""2"",""11691""
""blur"",""7"",""49959""
""focus"",""7"",""51513""
","""event"",""trial"",""time""
""blur"",""2"",""9592""
""blur"",""7"",""49959""
","""event"",""trial"",""time""
""focus"",""2"",""11691""
""focus"",""7"",""51513""
","""event"",""trial"",""time""
""fullscreenenter"",""1"",""6103""
","
","","[{""page_index"":0,""viewing_time"":7080.800000011921},{""page_index"":1,""viewing_time"":8327.699999988079},{""page_index"":2,""viewing_time"":4383.699999988079},{""page_index"":3,""viewing_time"":5243.100000023842}]","25035.5","","","","","","","","","","","","","","","","","","","","","","","",""
"pit-trial","81","650387","0.0-2.0-17.0-0.0","battery-v0.2","","""event"",""trial"",""time""
""fullscreenenter"",""1"",""6103""
""blur"",""2"",""9592""
""focus"",""2"",""11691""
""blur"",""7"",""49959""
""focus"",""7"",""51513""
","""event"",""trial"",""time""
""blur"",""2"",""9592""
""blur"",""7"",""49959""
","""event"",""trial"",""time""
""focus"",""2"",""11691""
""focus"",""7"",""51513""
","""event"",""trial"",""time""
""fullscreenenter"",""1"",""6103""
","
","","","286.59999999403954","","","25","10844","3987","&#9789;","elianto","#f73b6a7A"," "," ","1","0","[1148.7999999821186]","1","0","4","","","","","","","",""
"pit-trial","82","653514","0.0-2.0-17.0-1.0","battery-v0.2","","""event"",""trial"",""time""
""fullscreenenter"",""1"",""6103""
""blur"",""2"",""9592""
""focus"",""2"",""11691""
""blur"",""7"",""49959""
""focus"",""7"",""51513""
","""event"",""trial"",""time""
""blur"",""2"",""9592""
""blur"",""7"",""49959""
","""event"",""trial"",""time""
""focus"",""2"",""11691""
""focus"",""7"",""51513""
","""event"",""trial"",""time""
""fullscreenenter"",""1"",""6103""
","
","","","270.69999998807907","","","25","10844","3987","&#9789;","elianto","#f73b6a7A"," "," ","1","0","[1123.699999988079]","1","0","4","","","","","","","",""
"pit-trial","83","656577","0.0-2.0-17.0-2.0","battery-v0.2","","""event"",""trial"",""time""
""fullscreenenter"",""1"",""6103""
""blur"",""2"",""9592""
""focus"",""2"",""11691""
""blur"",""7"",""49959""
""focus"",""7"",""51513""
","""event"",""trial"",""time""
""blur"",""2"",""9592""
""blur"",""7"",""49959""
","""event"",""trial"",""time""
""focus"",""2"",""11691""
""focus"",""7"",""51513""
","""event"",""trial"",""time""
""fullscreenenter"",""1"",""6103""
","
","","","207.90000000596046","","","25","10844","3987","&#9789;","elianto","#f73b6a7A"," "," ","1","0","[1059.300000011921]","1","0","4","","","","","","","",""
"pit-trial","84","659676","0.0-2.0-17.0-3.0","battery-v0.2","","""event"",""trial"",""time""
""fullscreenenter"",""1"",""6103""
""blur"",""2"",""9592""
""focus"",""2"",""11691""
""blur"",""7"",""49959""
""focus"",""7"",""51513""
","""event"",""trial"",""time""
""blur"",""2"",""9592""
""blur"",""7"",""49959""
","""event"",""trial"",""time""
""focus"",""2"",""11691""
""focus"",""7"",""51513""
","""event"",""trial"",""time""
""fullscreenenter"",""1"",""6103""
","
","","","233.59999999403954","","","25","10844","3987","&#9789;","elianto","#f73b6a7A"," "," ","1","-10","[1089.699999988079]","1","0","4","","","","","","","",""
"pit-trial","85","662725","0.0-2.0-17.0-4.0","battery-v0.2","","""event"",""trial"",""time""
""fullscreenenter"",""1"",""6103""
""blur"",""2"",""9592""
""focus"",""2"",""11691""
""blur"",""7"",""49959""
""focus"",""7"",""51513""
","""event"",""trial"",""time""
""blur"",""2"",""9592""
""blur"",""7"",""49959""
","""event"",""trial"",""time""
""focus"",""2"",""11691""
""focus"",""7"",""51513""
","""event"",""trial"",""time""
""fullscreenenter"",""1"",""6103""
","
","","","184.69999998807907","","","25","10844","3987","&#9789;","elianto","#f73b6a7A"," "," ","1","0","[1037.9000000059605]","1","0","4","","","","","","","",""
"pit-trial","86","665868","0.0-2.0-17.1-0.1","battery-v0.2","","""event"",""trial"",""time""
""fullscreenenter"",""1"",""6103""
""blur"",""2"",""9592""
""focus"",""2"",""11691""
""blur"",""7"",""49959""
""focus"",""7"",""51513""
","""event"",""trial"",""time""
""blur"",""2"",""9592""
""blur"",""7"",""49959""
","""event"",""trial"",""time""
""focus"",""2"",""11691""
""focus"",""7"",""51513""
","""event"",""trial"",""time""
""fullscreenenter"",""1"",""6103""
","
","","","275.90000000596046","","","25","10844","3987","&#9789;","elianto","#f73b6a7A"," "," ","1","0","[1131.800000011921]","1","0","4","","","","","","","",""
"pit-trial","87","669112","0.0-2.0-17.1-1.1","battery-v0.2","","""event"",""trial"",""time""
""fullscreenenter"",""1"",""6103""
""blur"",""2"",""9592""
""focus"",""2"",""11691""
""blur"",""7"",""49959""
""focus"",""7"",""51513""
","""event"",""trial"",""time""
""blur"",""2"",""9592""
""blur"",""7"",""49959""
","""event"",""trial"",""time""
""focus"",""2"",""11691""
""focus"",""7"",""51513""
","""event"",""trial"",""time""
""fullscreenenter"",""1"",""6103""
","
","","","377.09999999403954","","","25","10844","3987","&#9789;","elianto","#f73b6a7A"," "," ","1","0","[1230.4000000059605]","1","0","4","","","","","","","",""
"pit-trial","88","672376","0.0-2.0-17.1-2.1","battery-v0.2","","""event"",""trial"",""time""
""fullscreenenter"",""1"",""6103""
""blur"",""2"",""9592""
""focus"",""2"",""11691""
""blur"",""7"",""49959""
""focus"",""7"",""51513""
","""event"",""trial"",""time""
""blur"",""2"",""9592""
""blur"",""7"",""49959""
","""event"",""trial"",""time""
""focus"",""2"",""11691""
""focus"",""7"",""51513""
","""event"",""trial"",""time""
""fullscreenenter"",""1"",""6103""
","
","","","402.40000000596046","","","25","10844","3987","&#9789;","elianto","#f73b6a7A"," "," ","1","0","[1253.4000000059605]","1","0","4","","","","","","","",""
"pit-trial","89","675628","0.0-2.0-17.1-3.1","battery-v0.2","","""event"",""trial"",""time""
""fullscreenenter"",""1"",""6103""
""blur"",""2"",""9592""
""focus"",""2"",""11691""
""blur"",""7"",""49959""
""focus"",""7"",""51513""
","""event"",""trial"",""time""
""blur"",""2"",""9592""
""blur"",""7"",""49959""
","""event"",""trial"",""time""
""focus"",""2"",""11691""
""focus"",""7"",""51513""
","""event"",""trial"",""time""
""fullscreenenter"",""1"",""6103""
","
","","","395.69999998807907","","","25","10844","3987","&#9789;","elianto","#f73b6a7A"," "," ","1","-10","[1247.199999988079]","1","0","4","","","","","","","",""
"pit-trial","90","678807","0.0-2.0-17.1-4.1","battery-v0.2","","""event"",""trial"",""time""
""fullscreenenter"",""1"",""6103""
""blur"",""2"",""9592""
""focus"",""2"",""11691""
""blur"",""7"",""49959""
""focus"",""7"",""51513""
","""event"",""trial"",""time""
""blur"",""2"",""9592""
""blur"",""7"",""49959""
","""event"",""trial"",""time""
""focus"",""2"",""11691""
""focus"",""7"",""51513""
","""event"",""trial"",""time""
""fullscreenenter"",""1"",""6103""
","
","","","316.5","","","25","10844","3987","&#9789;","elianto","#f73b6a7A"," "," ","1","0","[1167.800000011921]","1","0","4","","","","","","","",""
"pit-trial","91","682217","0.0-2.0-17.2-0.2","battery-v0.2","","""event"",""trial"",""time""
""fullscreenenter"",""1"",""6103""
""blur"",""2"",""9592""
""focus"",""2"",""11691""
""blur"",""7"",""49959""
""focus"",""7"",""51513""
","""event"",""trial"",""time""
""blur"",""2"",""9592""
""blur"",""7"",""49959""
","""event"",""trial"",""time""
""focus"",""2"",""11691""
""focus"",""7"",""51513""
","""event"",""trial"",""time""
""fullscreenenter"",""1"",""6103""
","
","","","556.5","","","25","10844","3987","&#9789;","elianto","#f73b6a7A"," "," ","1","0","[1406.800000011921]","1","0","4","","","","","","","",""
"pit-trial","92","685496","0.0-2.0-17.2-1.2","battery-v0.2","","""event"",""trial"",""time""
""fullscreenenter"",""1"",""6103""
""blur"",""2"",""9592""
""focus"",""2"",""11691""
""blur"",""7"",""49959""
""focus"",""7"",""51513""
","""event"",""trial"",""time""
""blur"",""2"",""9592""
""blur"",""7"",""49959""
","""event"",""trial"",""time""
""focus"",""2"",""11691""
""focus"",""7"",""51513""
","""event"",""trial"",""time""
""fullscreenenter"",""1"",""6103""
","
","","","426.5","","","25","10844","3987","&#9789;","elianto","#f73b6a7A"," "," ","1","0","[1276.8999999761581]","1","0","4","","","","","","","",""
"pit-trial","93","688705","0.0-2.0-17.2-2.2","battery-v0.2","","""event"",""trial"",""time""
""fullscreenenter"",""1"",""6103""
""blur"",""2"",""9592""
""focus"",""2"",""11691""
""blur"",""7"",""49959""
""focus"",""7"",""51513""
","""event"",""trial"",""time""
""blur"",""2"",""9592""
""blur"",""7"",""49959""
","""event"",""trial"",""time""
""focus"",""2"",""11691""
""focus"",""7"",""51513""
","""event"",""trial"",""time""
""fullscreenenter"",""1"",""6103""
","
","","","350.59999999403954","","","25","10844","3987","&#9789;","elianto","#f73b6a7A"," "," ","1","0","[1202]","1","0","4","","","","","","","",""
"pit-trial","94","692023","0.0-2.0-17.2-3.2","battery-v0.2","","""event"",""trial"",""time""
""fullscreenenter"",""1"",""6103""
""blur"",""2"",""9592""
""focus"",""2"",""11691""
""blur"",""7"",""49959""
""focus"",""7"",""51513""
","""event"",""trial"",""time""
""blur"",""2"",""9592""
""blur"",""7"",""49959""
","""event"",""trial"",""time""
""focus"",""2"",""11691""
""focus"",""7"",""51513""
","""event"",""trial"",""time""
""fullscreenenter"",""1"",""6103""
","
","","","464.2999999821186","","","25","10844","3987","&#9789;","elianto","#f73b6a7A"," "," ","1","-10","[1315.5]","1","0","4","","","","","","","",""
"pit-trial","95","695259","0.0-2.0-17.2-4.2","battery-v0.2","","""event"",""trial"",""time""
""fullscreenenter"",""1"",""6103""
""blur"",""2"",""9592""
""focus"",""2"",""11691""
""blur"",""7"",""49959""
""focus"",""7"",""51513""
","""event"",""trial"",""time""
""blur"",""2"",""9592""
""blur"",""7"",""49959""
","""event"",""trial"",""time""
""focus"",""2"",""11691""
""focus"",""7"",""51513""
","""event"",""trial"",""time""
""fullscreenenter"",""1"",""6103""
","
","","","382.09999999403954","","","25","10844","3987","&#9789;","elianto","#f73b6a7A"," "," ","1","0","[1233.5999999940395]","1","0","4","","","","","","","",""
"pit-trial","96","698438","0.0-2.0-17.3-0.3","battery-v0.2","","""event"",""trial"",""time""
""fullscreenenter"",""1"",""6103""
""blur"",""2"",""9592""
""focus"",""2"",""11691""
""blur"",""7"",""49959""
""focus"",""7"",""51513""
","""event"",""trial"",""time""
""blur"",""2"",""9592""
""blur"",""7"",""49959""
","""event"",""trial"",""time""
""focus"",""2"",""11691""
""focus"",""7"",""51513""
","""event"",""trial"",""time""
""fullscreenenter"",""1"",""6103""
","
","","","326.19999998807907","","","25","10844","3987","&#9789;","elianto","#f73b6a7A"," "," ","1","0","[1177.0999999940395]","1","0","4","","","","","","","",""
"pit-trial","97","701613","0.0-2.0-17.3-1.3","battery-v0.2","","""event"",""trial"",""time""
""fullscreenenter"",""1"",""6103""
""blur"",""2"",""9592""
""focus"",""2"",""11691""
""blur"",""7"",""49959""
""focus"",""7"",""51513""
","""event"",""trial"",""time""
""blur"",""2"",""9592""
""blur"",""7"",""49959""
","""event"",""trial"",""time""
""focus"",""2"",""11691""
""focus"",""7"",""51513""
","""event"",""trial"",""time""
""fullscreenenter"",""1"",""6103""
","
","","","321.19999998807907","","","25","10844","3987","&#9789;","elianto","#f73b6a7A"," "," ","1","0","[1172]","1","0","4","","","","","","","",""
"pit-trial","98","704561","0.0-2.0-17.3-2.3","battery-v0.2","","""event"",""trial"",""time""
""fullscreenenter"",""1"",""6103""
""blur"",""2"",""9592""
""focus"",""2"",""11691""
""blur"",""7"",""49959""
""focus"",""7"",""51513""
","""event"",""trial"",""time""
""blur"",""2"",""9592""
""blur"",""7"",""49959""
","""event"",""trial"",""time""
""focus"",""2"",""11691""
""focus"",""7"",""51513""
","""event"",""trial"",""time""
""fullscreenenter"",""1"",""6103""
","
","","","96.19999998807907","","","25","10844","3987","&#9789;","elianto","#f73b6a7A"," "," ","1","0","[946.2999999821186]","1","0","4","","","","","","","",""
"pit-trial","99","707532","0.0-2.0-17.3-3.3","battery-v0.2","","""event"",""trial"",""time""
""fullscreenenter"",""1"",""6103""
""blur"",""2"",""9592""
""focus"",""2"",""11691""
""blur"",""7"",""49959""
""focus"",""7"",""51513""
","""event"",""trial"",""time""
""blur"",""2"",""9592""
""blur"",""7"",""49959""
","""event"",""trial"",""time""
""focus"",""2"",""11691""
""focus"",""7"",""51513""
","""event"",""trial"",""time""
""fullscreenenter"",""1"",""6103""
","
","","","118.19999998807907","","","25","10844","3987","&#9789;","elianto","#f73b6a7A"," "," ","1","-10","[968.5]","1","0","4","","","","","","","",""
"pit-trial","100","710575","0.0-2.0-17.3-4.3","battery-v0.2","","""event"",""trial"",""time""
""fullscreenenter"",""1"",""6103""
""blur"",""2"",""9592""
""focus"",""2"",""11691""
""blur"",""7"",""49959""
""focus"",""7"",""51513""
","""event"",""trial"",""time""
""blur"",""2"",""9592""
""blur"",""7"",""49959""
","""event"",""trial"",""time""
""focus"",""2"",""11691""
""focus"",""7"",""51513""
","""event"",""trial"",""time""
""fullscreenenter"",""1"",""6103""
","
","","","190.09999999403954","","","25","10844","3987","&#9789;","elianto","#f73b6a7A"," "," ","1","0","[1040.5999999940395]","1","0","4","","","","","","","",""
"call-function","101","710576","0.0-2.0-18.0","battery-v0.2","","""event"",""trial"",""time""
""fullscreenenter"",""1"",""6103""
""blur"",""2"",""9592""
""focus"",""2"",""11691""
""blur"",""7"",""49959""
""focus"",""7"",""51513""
","""event"",""trial"",""time""
""blur"",""2"",""9592""
""blur"",""7"",""49959""
","""event"",""trial"",""time""
""focus"",""2"",""11691""
""focus"",""7"",""51513""
","""event"",""trial"",""time""
""fullscreenenter"",""1"",""6103""
","
","","","","","","","","","","","","","","","","","","","","","","","","","","",""
"pit-instructions","102","792237","0.0-2.0-19.0","battery-v0.2","","""event"",""trial"",""time""
""fullscreenenter"",""1"",""6103""
""blur"",""2"",""9592""
""focus"",""2"",""11691""
""blur"",""7"",""49959""
""focus"",""7"",""51513""
","""event"",""trial"",""time""
""blur"",""2"",""9592""
""blur"",""7"",""49959""
","""event"",""trial"",""time""
""focus"",""2"",""11691""
""focus"",""7"",""51513""
","""event"",""trial"",""time""
""fullscreenenter"",""1"",""6103""
","
","","[{""page_index"":0,""viewing_time"":7274.800000011921},{""page_index"":1,""viewing_time"":6239.300000011921},{""page_index"":2,""viewing_time"":30925.69999998808},{""page_index"":3,""viewing_time"":4448.9000000059605},{""page_index"":4,""viewing_time"":8420.299999982119},{""page_index"":5,""viewing_time"":8762.90000000596},{""page_index"":6,""viewing_time"":5229.800000011921},{""page_index"":7,""viewing_time"":6097},{""page_index"":8,""viewing_time"":4261.9000000059605}]","81661.10000002384","","","","","","","","","","","","","","","","","","","","","","","",""
"pit-comprehension","103","797007","0.0-2.0-20.0-0.0","battery-v0.2","","""event"",""trial"",""time""
""fullscreenenter"",""1"",""6103""
""blur"",""2"",""9592""
""focus"",""2"",""11691""
""blur"",""7"",""49959""
""focus"",""7"",""51513""
","""event"",""trial"",""time""
""blur"",""2"",""9592""
""blur"",""7"",""49959""
","""event"",""trial"",""time""
""focus"",""2"",""11691""
""focus"",""7"",""51513""
","""event"",""trial"",""time""
""fullscreenenter"",""1"",""6103""
","
","","","4759.700000017881","[""SPACE""]","0","25","10844","3987","","","","","","","","","","","","","","","","","","",""
"pit-instructions","104","800721","0.0-2.0-20.0-1.0","battery-v0.2","","""event"",""trial"",""time""
""fullscreenenter"",""1"",""6103""
""blur"",""2"",""9592""
""focus"",""2"",""11691""
""blur"",""7"",""49959""
""focus"",""7"",""51513""
","""event"",""trial"",""time""
""blur"",""2"",""9592""
""blur"",""7"",""49959""
","""event"",""trial"",""time""
""focus"",""2"",""11691""
""focus"",""7"",""51513""
","""event"",""trial"",""time""
""fullscreenenter"",""1"",""6103""
","
","","[{""page_index"":0,""viewing_time"":3669}]","3669.300000011921","","","","","","","","","","","","","","","","","","","","","","","",""
"pit-comprehension","105","808031","0.0-2.0-21.0-0.0","battery-v0.2","","""event"",""trial"",""time""
""fullscreenenter"",""1"",""6103""
""blur"",""2"",""9592""
""focus"",""2"",""11691""
""blur"",""7"",""49959""
""focus"",""7"",""51513""
","""event"",""trial"",""time""
""blur"",""2"",""9592""
""blur"",""7"",""49959""
","""event"",""trial"",""time""
""focus"",""2"",""11691""
""focus"",""7"",""51513""
","""event"",""trial"",""time""
""fullscreenenter"",""1"",""6103""
","
","","","7306.300000011921","[""10""]","0","25","10844","3987","","","","","","","","","","","","","","","","","","",""
"pit-instructions","106","812614","0.0-2.0-21.0-1.0","battery-v0.2","","""event"",""trial"",""time""
""fullscreenenter"",""1"",""6103""
""blur"",""2"",""9592""
""focus"",""2"",""11691""
""blur"",""7"",""49959""
""focus"",""7"",""51513""
","""event"",""trial"",""time""
""blur"",""2"",""9592""
""blur"",""7"",""49959""
","""event"",""trial"",""time""
""focus"",""2"",""11691""
""focus"",""7"",""51513""
","""event"",""trial"",""time""
""fullscreenenter"",""1"",""6103""
","
","","[{""page_index"":0,""viewing_time"":4516}]","4516.5","","","","","","","","","","","","","","","","","","","","","","","",""
"pit-comprehension","107","819664","0.0-2.0-22.0-0.0","battery-v0.2","","""event"",""trial"",""time""
""fullscreenenter"",""1"",""6103""
""blur"",""2"",""9592""
""focus"",""2"",""11691""
""blur"",""7"",""49959""
""focus"",""7"",""51513""
","""event"",""trial"",""time""
""blur"",""2"",""9592""
""blur"",""7"",""49959""
","""event"",""trial"",""time""
""focus"",""2"",""11691""
""focus"",""7"",""51513""
","""event"",""trial"",""time""
""fullscreenenter"",""1"",""6103""
","
","","","7045.100000023842","[""0""]","0","25","10844","3987","","","","","","","","","","","","","","","","","","",""
"pit-instructions","108","821961","0.0-2.0-22.0-1.0","battery-v0.2","","""event"",""trial"",""time""
""fullscreenenter"",""1"",""6103""
""blur"",""2"",""9592""
""focus"",""2"",""11691""
""blur"",""7"",""49959""
""focus"",""7"",""51513""
","""event"",""trial"",""time""
""blur"",""2"",""9592""
""blur"",""7"",""49959""
","""event"",""trial"",""time""
""focus"",""2"",""11691""
""focus"",""7"",""51513""
","""event"",""trial"",""time""
""fullscreenenter"",""1"",""6103""
","
","","[{""page_index"":0,""viewing_time"":2248.7999999821186}]","2249.2999999821186","","","","","","","","","","","","","","","","","","","","","","","",""
"pit-comprehension","109","835930","0.0-2.0-23.0-0.0","battery-v0.2","","""event"",""trial"",""time""
""fullscreenenter"",""1"",""6103""
""blur"",""2"",""9592""
""focus"",""2"",""11691""
""blur"",""7"",""49959""
""focus"",""7"",""51513""
","""event"",""trial"",""time""
""blur"",""2"",""9592""
""blur"",""7"",""49959""
","""event"",""trial"",""time""
""focus"",""2"",""11691""
""focus"",""7"",""51513""
","""event"",""trial"",""time""
""fullscreenenter"",""1"",""6103""
","
","","","13963.40000000596","[""True""]","0","25","10844","3987","","","","","","","","","","","","","","","","","","",""
"pit-instructions","110","839578","0.0-2.0-23.0-1.0","battery-v0.2","","""event"",""trial"",""time""
""fullscreenenter"",""1"",""6103""
""blur"",""2"",""9592""
""focus"",""2"",""11691""
""blur"",""7"",""49959""
""focus"",""7"",""51513""
","""event"",""trial"",""time""
""blur"",""2"",""9592""
""blur"",""7"",""49959""
","""event"",""trial"",""time""
""focus"",""2"",""11691""
""focus"",""7"",""51513""
","""event"",""trial"",""time""
""fullscreenenter"",""1"",""6103""
","
","","[{""page_index"":0,""viewing_time"":3586.300000011921}]","3586.5","","","","","","","","","","","","","","","","","","","","","","","",""
"pit-comprehension","111","847576","0.0-2.0-24.0-0.0","battery-v0.2","","""event"",""trial"",""time""
""fullscreenenter"",""1"",""6103""
""blur"",""2"",""9592""
""focus"",""2"",""11691""
""blur"",""7"",""49959""
""focus"",""7"",""51513""
","""event"",""trial"",""time""
""blur"",""2"",""9592""
""blur"",""7"",""49959""
","""event"",""trial"",""time""
""focus"",""2"",""11691""
""focus"",""7"",""51513""
","""event"",""trial"",""time""
""fullscreenenter"",""1"",""6103""
","
","","","7995","[""True""]","0","25","10844","3987","","","","","","","","","","","","","","","","","","",""
"pit-instructions","112","850713","0.0-2.0-24.0-1.0","battery-v0.2","","""event"",""trial"",""time""
""fullscreenenter"",""1"",""6103""
""blur"",""2"",""9592""
""focus"",""2"",""11691""
""blur"",""7"",""49959""
""focus"",""7"",""51513""
","""event"",""trial"",""time""
""blur"",""2"",""9592""
""blur"",""7"",""49959""
","""event"",""trial"",""time""
""focus"",""2"",""11691""
""focus"",""7"",""51513""
","""event"",""trial"",""time""
""fullscreenenter"",""1"",""6103""
","
","","[{""page_index"":0,""viewing_time"":3079.7999999821186}]","3080.2999999821186","","","","","","","","","","","","","","","","","","","","","","","",""
"pit-comprehension","113","857654","0.0-2.0-25.0-0.0","battery-v0.2","","""event"",""trial"",""time""
""fullscreenenter"",""1"",""6103""
""blur"",""2"",""9592""
""focus"",""2"",""11691""
""blur"",""7"",""49959""
""focus"",""7"",""51513""
","""event"",""trial"",""time""
""blur"",""2"",""9592""
""blur"",""7"",""49959""
","""event"",""trial"",""time""
""focus"",""2"",""11691""
""focus"",""7"",""51513""
","""event"",""trial"",""time""
""fullscreenenter"",""1"",""6103""
","
","","","6934.5999999940395","[""True""]","0","25","10844","3987","","","","","","","","","","","","","","","","","","",""
"pit-instructions","114","859729","0.0-2.0-25.0-1.0","battery-v0.2","","""event"",""trial"",""time""
""fullscreenenter"",""1"",""6103""
""blur"",""2"",""9592""
""focus"",""2"",""11691""
""blur"",""7"",""49959""
""focus"",""7"",""51513""
","""event"",""trial"",""time""
""blur"",""2"",""9592""
""blur"",""7"",""49959""
","""event"",""trial"",""time""
""focus"",""2"",""11691""
""focus"",""7"",""51513""
","""event"",""trial"",""time""
""fullscreenenter"",""1"",""6103""
","
","","[{""page_index"":0,""viewing_time"":2027.7000000178814}]","2027.9000000059605","","","","","","","","","","","","","","","","","","","","","","","",""
"pit-comprehension","115","869744","0.0-2.0-26.0-0.0","battery-v0.2","","""event"",""trial"",""time""
""fullscreenenter"",""1"",""6103""
""blur"",""2"",""9592""
""focus"",""2"",""11691""
""blur"",""7"",""49959""
""focus"",""7"",""51513""
","""event"",""trial"",""time""
""blur"",""2"",""9592""
""blur"",""7"",""49959""
","""event"",""trial"",""time""
""focus"",""2"",""11691""
""focus"",""7"",""51513""
","""event"",""trial"",""time""
""fullscreenenter"",""1"",""6103""
","
","","","10012.5","[""False""]","0","25","10844","3987","","","","","","","","","","","","","","","","","","",""
"pit-instructions","116","872101","0.0-2.0-26.0-1.0","battery-v0.2","","""event"",""trial"",""time""
""fullscreenenter"",""1"",""6103""
""blur"",""2"",""9592""
""focus"",""2"",""11691""
""blur"",""7"",""49959""
""focus"",""7"",""51513""
","""event"",""trial"",""time""
""blur"",""2"",""9592""
""blur"",""7"",""49959""
","""event"",""trial"",""time""
""focus"",""2"",""11691""
""focus"",""7"",""51513""
","""event"",""trial"",""time""
""fullscreenenter"",""1"",""6103""
","
","","[{""page_index"":0,""viewing_time"":2310.199999988079}]","2310.4000000059605","","","","","","","","","","","","","","","","","","","","","","","",""
"pit-instructions","117","891402","0.0-3.0","battery-v0.2","","""event"",""trial"",""time""
""fullscreenenter"",""1"",""6103""
""blur"",""2"",""9592""
""focus"",""2"",""11691""
""blur"",""7"",""49959""
""focus"",""7"",""51513""
","""event"",""trial"",""time""
""blur"",""2"",""9592""
""blur"",""7"",""49959""
","""event"",""trial"",""time""
""focus"",""2"",""11691""
""focus"",""7"",""51513""
","""event"",""trial"",""time""
""fullscreenenter"",""1"",""6103""
","
","","[{""page_index"":0,""viewing_time"":5300.9000000059605},{""page_index"":1,""viewing_time"":5367.4000000059605},{""page_index"":2,""viewing_time"":8629}]","19297.69999998808","","","","","","","","","","","","","","","","","","","","","","","",""
"pit-trial","118","894940","0.0-4.0","battery-v0.2","","""event"",""trial"",""time""
""fullscreenenter"",""1"",""6103""
""blur"",""2"",""9592""
""focus"",""2"",""11691""
""blur"",""7"",""49959""
""focus"",""7"",""51513""
","""event"",""trial"",""time""
""blur"",""2"",""9592""
""blur"",""7"",""49959""
","""event"",""trial"",""time""
""focus"",""2"",""11691""
""focus"",""7"",""51513""
","""event"",""trial"",""time""
""fullscreenenter"",""1"",""6103""
","
","","","680.4000000059605","","","25","10844","3987","&#9733;","elianto","#3366ff99","-1"," ","0","0","[1530.9000000059605]","1","1","","","10844","1","2","2","win","no-go","0"
"pit-trial","119","898521","0.0-5.0","battery-v0.2","","""event"",""trial"",""time""
""fullscreenenter"",""1"",""6103""
""blur"",""2"",""9592""
""focus"",""2"",""11691""
""blur"",""7"",""49959""
""focus"",""7"",""51513""
","""event"",""trial"",""time""
""blur"",""2"",""9592""
""blur"",""7"",""49959""
","""event"",""trial"",""time""
""focus"",""2"",""11691""
""focus"",""7"",""51513""
","""event"",""trial"",""time""
""fullscreenenter"",""1"",""6103""
","
","","","718.4000000059605","","","25","10844","3987","&#9730;","elianto","#3366ff99"," "," ","1","+10","[1572.5]","1","1","","","10844","2","1","1","win","go","0"
"pit-trial","120","902230","0.0-6.0","battery-v0.2","","""event"",""trial"",""time""
""fullscreenenter"",""1"",""6103""
""blur"",""2"",""9592""
""focus"",""2"",""11691""
""blur"",""7"",""49959""
""focus"",""7"",""51513""
","""event"",""trial"",""time""
""blur"",""2"",""9592""
""blur"",""7"",""49959""
","""event"",""trial"",""time""
""focus"",""2"",""11691""
""focus"",""7"",""51513""
","""event"",""trial"",""time""
""fullscreenenter"",""1"",""6103""
","
","","","838.5","","","25","10844","3987","&#9752;","elianto","#f73b6a7A"," "," ","1","0","[1692.8999999761581]","1","1","","","10844","3","3","3","lose","go","0"
"pit-trial","121","905897","0.0-7.0","battery-v0.2","","""event"",""trial"",""time""
""fullscreenenter"",""1"",""6103""
""blur"",""2"",""9592""
""focus"",""2"",""11691""
""blur"",""7"",""49959""
""focus"",""7"",""51513""
","""event"",""trial"",""time""
""blur"",""2"",""9592""
""blur"",""7"",""49959""
","""event"",""trial"",""time""
""focus"",""2"",""11691""
""focus"",""7"",""51513""
","""event"",""trial"",""time""
""fullscreenenter"",""1"",""6103""
","
","","","807.5","","","25","10844","3987","&#9728;","elianto","#f73b6a7A","-1"," ","0","0","[1662.0999999940395]","1","1","","","10844","4","0","4","lose","no-go","1"
"pit-trial","122","909492","0.0-8.0","battery-v0.2","","""event"",""trial"",""time""
""fullscreenenter"",""1"",""6103""
""blur"",""2"",""9592""
""focus"",""2"",""11691""
""blur"",""7"",""49959""
""focus"",""7"",""51513""
","""event"",""trial"",""time""
""blur"",""2"",""9592""
""blur"",""7"",""49959""
","""event"",""trial"",""time""
""focus"",""2"",""11691""
""focus"",""7"",""51513""
","""event"",""trial"",""time""
""fullscreenenter"",""1"",""6103""
","
","","","733.7999999821186","","","25","10844","3987","&#9728;","elianto","#f73b6a7A","-1"," ","0","-10","[1588.5]","1","1","","","10844","5","0","4","lose","no-go","0"
"pit-trial","123","913214","0.0-9.0","battery-v0.2","","""event"",""trial"",""time""
""fullscreenenter"",""1"",""6103""
""blur"",""2"",""9592""
""focus"",""2"",""11691""
""blur"",""7"",""49959""
""focus"",""7"",""51513""
","""event"",""trial"",""time""
""blur"",""2"",""9592""
""blur"",""7"",""49959""
","""event"",""trial"",""time""
""focus"",""2"",""11691""
""focus"",""7"",""51513""
","""event"",""trial"",""time""
""fullscreenenter"",""1"",""6103""
","
","","","850.4000000059605","","","25","10844","3987","&#9733;","elianto","#3366ff99","-1"," ","0","0","[1710.300000011921]","1","1","","","10844","6","2","2","win","no-go","0"
"pit-trial","124","916906","0.0-10.0","battery-v0.2","","""event"",""trial"",""time""
""fullscreenenter"",""1"",""6103""
""blur"",""2"",""9592""
""focus"",""2"",""11691""
""blur"",""7"",""49959""
""focus"",""7"",""51513""
","""event"",""trial"",""time""
""blur"",""2"",""9592""
""blur"",""7"",""49959""
","""event"",""trial"",""time""
""focus"",""2"",""11691""
""focus"",""7"",""51513""
","""event"",""trial"",""time""
""fullscreenenter"",""1"",""6103""
","
","","","821.5","","","25","10844","3987","&#9752;","elianto","#f73b6a7A"," "," ","1","0","[1676.5]","1","1","","","10844","7","3","3","lose","go","0"
"pit-trial","125","920572","0.0-11.0","battery-v0.2","","""event"",""trial"",""time""
""fullscreenenter"",""1"",""6103""
""blur"",""2"",""9592""
""focus"",""2"",""11691""
""blur"",""7"",""49959""
""focus"",""7"",""51513""
","""event"",""trial"",""time""
""blur"",""2"",""9592""
""blur"",""7"",""49959""
","""event"",""trial"",""time""
""focus"",""2"",""11691""
""focus"",""7"",""51513""
","""event"",""trial"",""time""
""fullscreenenter"",""1"",""6103""
","
","","","809.0999999940395","","","25","10844","3987","&#9730;","elianto","#3366ff99"," "," ","1","+10","[1664.0999999940395]","1","1","","","10844","8","1","1","win","go","0"
"pit-trial","126","924117","0.0-12.0","battery-v0.2","","""event"",""trial"",""time""
""fullscreenenter"",""1"",""6103""
""blur"",""2"",""9592""
""focus"",""2"",""11691""
""blur"",""7"",""49959""
""focus"",""7"",""51513""
","""event"",""trial"",""time""
""blur"",""2"",""9592""
""blur"",""7"",""49959""
","""event"",""trial"",""time""
""focus"",""2"",""11691""
""focus"",""7"",""51513""
","""event"",""trial"",""time""
""fullscreenenter"",""1"",""6103""
","
","","","691.5999999940395","","","25","10844","3987","&#9730;","elianto","#3366ff99"," "," ","1","+10","[1542.0999999940395]","1","1","","","10844","9","1","1","win","go","0"
"pit-trial","127","927830","0.0-13.0","battery-v0.2","","""event"",""trial"",""time""
""fullscreenenter"",""1"",""6103""
""blur"",""2"",""9592""
""focus"",""2"",""11691""
""blur"",""7"",""49959""
""focus"",""7"",""51513""
","""event"",""trial"",""time""
""blur"",""2"",""9592""
""blur"",""7"",""49959""
","""event"",""trial"",""time""
""focus"",""2"",""11691""
""focus"",""7"",""51513""
","""event"",""trial"",""time""
""fullscreenenter"",""1"",""6103""
","
","","","857.3000000119209","","","25","10844","3987","&#9728;","elianto","#f73b6a7A","-1"," ","0","0","[1708.300000011921]","1","1","","","10844","10","0","4","lose","no-go","1"
"pit-trial","128","931687","0.0-14.0","battery-v0.2","","""event"",""trial"",""time""
""fullscreenenter"",""1"",""6103""
""blur"",""2"",""9592""
""focus"",""2"",""11691""
""blur"",""7"",""49959""
""focus"",""7"",""51513""
","""event"",""trial"",""time""
""blur"",""2"",""9592""
""blur"",""7"",""49959""
","""event"",""trial"",""time""
""focus"",""2"",""11691""
""focus"",""7"",""51513""
","""event"",""trial"",""time""
""fullscreenenter"",""1"",""6103""
","
","","","1004.3999999761581","","","25","10844","3987","&#9733;","elianto","#3366ff99","-1"," ","0","+10","[1854.2999999821186]","1","1","","","10844","11","2","2","win","no-go","1"
"pit-trial","129","935393","0.0-15.0","battery-v0.2","","""event"",""trial"",""time""
""fullscreenenter"",""1"",""6103""
""blur"",""2"",""9592""
""focus"",""2"",""11691""
""blur"",""7"",""49959""
""focus"",""7"",""51513""
","""event"",""trial"",""time""
""blur"",""2"",""9592""
""blur"",""7"",""49959""
","""event"",""trial"",""time""
""focus"",""2"",""11691""
""focus"",""7"",""51513""
","""event"",""trial"",""time""
""fullscreenenter"",""1"",""6103""
","
","","","852.5","","","25","10844","3987","&#9752;","elianto","#f73b6a7A"," "," ","1","0","[1703.5999999940395]","1","1","","","10844","12","3","3","lose","go","0"
"pit-trial","130","939015","0.0-16.0","battery-v0.2","","""event"",""trial"",""time""
""fullscreenenter"",""1"",""6103""
""blur"",""2"",""9592""
""focus"",""2"",""11691""
""blur"",""7"",""49959""
""focus"",""7"",""51513""
","""event"",""trial"",""time""
""blur"",""2"",""9592""
""blur"",""7"",""49959""
","""event"",""trial"",""time""
""focus"",""2"",""11691""
""focus"",""7"",""51513""
","""event"",""trial"",""time""
""fullscreenenter"",""1"",""6103""
","
","","","767.1999999880791","","","25","10844","3987","&#9730;","elianto","#3366ff99"," "," ","1","+10","[1617.5999999940395]","1","1","","","10844","13","1","1","win","go","0"
"pit-trial","131","942500","0.0-17.0","battery-v0.2","","""event"",""trial"",""time""
""fullscreenenter"",""1"",""6103""
""blur"",""2"",""9592""
""focus"",""2"",""11691""
""blur"",""7"",""49959""
""focus"",""7"",""51513""
","""event"",""trial"",""time""
""blur"",""2"",""9592""
""blur"",""7"",""49959""
","""event"",""trial"",""time""
""focus"",""2"",""11691""
""focus"",""7"",""51513""
","""event"",""trial"",""time""
""fullscreenenter"",""1"",""6103""
","
","","","629.1000000238419","","","25","10844","3987","&#9752;","elianto","#f73b6a7A"," "," ","1","0","[1480.300000011921]","1","1","","","10844","14","3","3","lose","go","0"
"pit-trial","132","945762","0.0-18.0","battery-v0.2","","""event"",""trial"",""time""
""fullscreenenter"",""1"",""6103""
""blur"",""2"",""9592""
""focus"",""2"",""11691""
""blur"",""7"",""49959""
""focus"",""7"",""51513""
","""event"",""trial"",""time""
""blur"",""2"",""9592""
""blur"",""7"",""49959""
","""event"",""trial"",""time""
""focus"",""2"",""11691""
""focus"",""7"",""51513""
","""event"",""trial"",""time""
""fullscreenenter"",""1"",""6103""
","
","","","409.90000000596046","","","25","10844","3987","&#9733;","elianto","#3366ff99","-1"," ","0","0","[1260]","1","1","","","10844","15","2","2","win","no-go","0"
"pit-trial","133","949069","0.0-19.0","battery-v0.2","","""event"",""trial"",""time""
""fullscreenenter"",""1"",""6103""
""blur"",""2"",""9592""
""focus"",""2"",""11691""
""blur"",""7"",""49959""
""focus"",""7"",""51513""
","""event"",""trial"",""time""
""blur"",""2"",""9592""
""blur"",""7"",""49959""
","""event"",""trial"",""time""
""focus"",""2"",""11691""
""focus"",""7"",""51513""
","""event"",""trial"",""time""
""fullscreenenter"",""1"",""6103""
","
","","","451.89999997615814","","","25","10844","3987","&#9728;","elianto","#f73b6a7A","-1"," ","0","-10","[1302.8999999761581]","1","1","","","10844","16","0","4","lose","no-go","0"
"pit-trial","134","952268","0.0-20.0","battery-v0.2","","""event"",""trial"",""time""
""fullscreenenter"",""1"",""6103""
""blur"",""2"",""9592""
""focus"",""2"",""11691""
""blur"",""7"",""49959""
""focus"",""7"",""51513""
","""event"",""trial"",""time""
""blur"",""2"",""9592""
""blur"",""7"",""49959""
","""event"",""trial"",""time""
""focus"",""2"",""11691""
""focus"",""7"",""51513""
","""event"",""trial"",""time""
""fullscreenenter"",""1"",""6103""
","
","","","343.59999999403954","","","25","10844","3987","&#9728;","elianto","#f73b6a7A","-1"," ","0","-10","[1194.2000000178814]","1","1","","","10844","17","0","4","lose","no-go","0"
"pit-trial","135","955718","0.0-21.0","battery-v0.2","","""event"",""trial"",""time""
""fullscreenenter"",""1"",""6103""
""blur"",""2"",""9592""
""focus"",""2"",""11691""
""blur"",""7"",""49959""
""focus"",""7"",""51513""
","""event"",""trial"",""time""
""blur"",""2"",""9592""
""blur"",""7"",""49959""
","""event"",""trial"",""time""
""focus"",""2"",""11691""
""focus"",""7"",""51513""
","""event"",""trial"",""time""
""fullscreenenter"",""1"",""6103""
","
","","","597","","","25","10844","3987","&#9752;","elianto","#f73b6a7A"," "," ","1","-10","[1447.5999999940395]","1","1","","","10844","18","3","3","lose","go","1"
"pit-trial","136","959368","0.0-22.0","battery-v0.2","","""event"",""trial"",""time""
""fullscreenenter"",""1"",""6103""
""blur"",""2"",""9592""
""focus"",""2"",""11691""
""blur"",""7"",""49959""
""focus"",""7"",""51513""
","""event"",""trial"",""time""
""blur"",""2"",""9592""
""blur"",""7"",""49959""
","""event"",""trial"",""time""
""focus"",""2"",""11691""
""focus"",""7"",""51513""
","""event"",""trial"",""time""
""fullscreenenter"",""1"",""6103""
","
","","","793.9000000059605","","","25","10844","3987","&#9733;","elianto","#3366ff99","-1"," ","0","0","[1644.4000000059605]","1","1","","","10844","19","2","2","win","no-go","0"
"pit-trial","137","963026","0.0-23.0","battery-v0.2","","""event"",""trial"",""time""
""fullscreenenter"",""1"",""6103""
""blur"",""2"",""9592""
""focus"",""2"",""11691""
""blur"",""7"",""49959""
""focus"",""7"",""51513""
","""event"",""trial"",""time""
""blur"",""2"",""9592""
""blur"",""7"",""49959""
","""event"",""trial"",""time""
""focus"",""2"",""11691""
""focus"",""7"",""51513""
","""event"",""trial"",""time""
""fullscreenenter"",""1"",""6103""
","
","","","802.2999999821186","","","25","10844","3987","&#9730;","elianto","#3366ff99"," "," ","1","+10","[1653.800000011921]","1","1","","","10844","20","1","1","win","go","0"
"pit-instructions","138","977316","0.0-24.0","battery-v0.2","","""event"",""trial"",""time""
""fullscreenenter"",""1"",""6103""
""blur"",""2"",""9592""
""focus"",""2"",""11691""
""blur"",""7"",""49959""
""focus"",""7"",""51513""
","""event"",""trial"",""time""
""blur"",""2"",""9592""
""blur"",""7"",""49959""
","""event"",""trial"",""time""
""focus"",""2"",""11691""
""focus"",""7"",""51513""
","""event"",""trial"",""time""
""fullscreenenter"",""1"",""6103""
","
","","[{""page_index"":0,""viewing_time"":7127.700000017881},{""page_index"":1,""viewing_time"":7159.299999982119}]","14287.300000011921","","","","","","","","","","","","","","","","","","","","","","","",""
"pit-trial","139","980721","0.0-25.0","battery-v0.2","","""event"",""trial"",""time""
""fullscreenenter"",""1"",""6103""
""blur"",""2"",""9592""
""focus"",""2"",""11691""
""blur"",""7"",""49959""
""focus"",""7"",""51513""
","""event"",""trial"",""time""
""blur"",""2"",""9592""
""blur"",""7"",""49959""
","""event"",""trial"",""time""
""focus"",""2"",""11691""
""focus"",""7"",""51513""
","""event"",""trial"",""time""
""fullscreenenter"",""1"",""6103""
","
","","","539.2999999821186","","","25","10844","3987","a","elianto","#f73b6a7A"," "," ","1","0","[1389.5]","1","2","","","10844","21","2","3","lose","go","0"
"pit-trial","140","984150","0.0-26.0","battery-v0.2","","""event"",""trial"",""time""
""fullscreenenter"",""1"",""6103""
""blur"",""2"",""9592""
""focus"",""2"",""11691""
""blur"",""7"",""49959""
""focus"",""7"",""51513""
","""event"",""trial"",""time""
""blur"",""2"",""9592""
""blur"",""7"",""49959""
","""event"",""trial"",""time""
""focus"",""2"",""11691""
""focus"",""7"",""51513""
","""event"",""trial"",""time""
""fullscreenenter"",""1"",""6103""
","
","","","568","","","25","10844","3987","u","elianto","#f73b6a7A"," "," ","1","-10","[1423.9000000059605]","1","2","","","10844","22","0","3","lose","go","1"
"pit-trial","141","987737","0.0-27.0","battery-v0.2","","""event"",""trial"",""time""
""fullscreenenter"",""1"",""6103""
""blur"",""2"",""9592""
""focus"",""2"",""11691""
""blur"",""7"",""49959""
""focus"",""7"",""51513""
","""event"",""trial"",""time""
""blur"",""2"",""9592""
""blur"",""7"",""49959""
","""event"",""trial"",""time""
""focus"",""2"",""11691""
""focus"",""7"",""51513""
","""event"",""trial"",""time""
""fullscreenenter"",""1"",""6103""
","
","","","721.8000000119209","","","25","10844","3987","l","elianto","#3366ff99","-1"," ","0","0","[1574.9000000059605]","1","2","","","10844","23","1","2","win","no-go","0"
"pit-trial","142","991541","0.0-28.0","battery-v0.2","","""event"",""trial"",""time""
""fullscreenenter"",""1"",""6103""
""blur"",""2"",""9592""
""focus"",""2"",""11691""
""blur"",""7"",""49959""
""focus"",""7"",""51513""
","""event"",""trial"",""time""
""blur"",""2"",""9592""
""blur"",""7"",""49959""
","""event"",""trial"",""time""
""focus"",""2"",""11691""
""focus"",""7"",""51513""
","""event"",""trial"",""time""
""fullscreenenter"",""1"",""6103""
","
","","","946.2999999821186","","","25","10844","3987","g","elianto","#f73b6a7A","-1"," ","0","-10","[1801.4000000059605]","1","2","","","10844","24","3","4","lose","no-go","0"
"pit-trial","143","995341","0.0-29.0","battery-v0.2","","""event"",""trial"",""time""
""fullscreenenter"",""1"",""6103""
""blur"",""2"",""9592""
""focus"",""2"",""11691""
""blur"",""7"",""49959""
""focus"",""7"",""51513""
","""event"",""trial"",""time""
""blur"",""2"",""9592""
""blur"",""7"",""49959""
","""event"",""trial"",""time""
""focus"",""2"",""11691""
""focus"",""7"",""51513""
","""event"",""trial"",""time""
""fullscreenenter"",""1"",""6103""
","
","","","946.1000000238419","","","25","10844","3987","a","elianto","#f73b6a7A"," "," ","1","0","[1797.1000000238419]","1","2","","","10844","25","2","3","lose","go","0"
"pit-trial","144","999193","0.0-30.0","battery-v0.2","","""event"",""trial"",""time""
""fullscreenenter"",""1"",""6103""
""blur"",""2"",""9592""
""focus"",""2"",""11691""
""blur"",""7"",""49959""
""focus"",""7"",""51513""
","""event"",""trial"",""time""
""blur"",""2"",""9592""
""blur"",""7"",""49959""
","""event"",""trial"",""time""
""focus"",""2"",""11691""
""focus"",""7"",""51513""
","""event"",""trial"",""time""
""fullscreenenter"",""1"",""6103""
","
","","","990.4000000059605","","","25","10844","3987","u","elianto","#f73b6a7A"," "," ","1","0","[1847.2000000178814]","1","2","","","10844","26","0","3","lose","go","0"
"pit-trial","145","1002922","0.0-31.0","battery-v0.2","","""event"",""trial"",""time""
""fullscreenenter"",""1"",""6103""
""blur"",""2"",""9592""
""focus"",""2"",""11691""
""blur"",""7"",""49959""
""focus"",""7"",""51513""
","""event"",""trial"",""time""
""blur"",""2"",""9592""
""blur"",""7"",""49959""
","""event"",""trial"",""time""
""focus"",""2"",""11691""
""focus"",""7"",""51513""
","""event"",""trial"",""time""
""fullscreenenter"",""1"",""6103""
","
","","","863.4000000059605","","","25","10844","3987","l","elianto","#3366ff99","-1"," ","0","0","[1719.9000000059605]","1","2","","","10844","27","1","2","win","no-go","0"
"pit-trial","146","1006655","0.0-32.0","battery-v0.2","","""event"",""trial"",""time""
""fullscreenenter"",""1"",""6103""
""blur"",""2"",""9592""
""focus"",""2"",""11691""
""blur"",""7"",""49959""
""focus"",""7"",""51513""
","""event"",""trial"",""time""
""blur"",""2"",""9592""
""blur"",""7"",""49959""
","""event"",""trial"",""time""
""focus"",""2"",""11691""
""focus"",""7"",""51513""
","""event"",""trial"",""time""
""fullscreenenter"",""1"",""6103""
","
","","","860.3000000119209","","","25","10844","3987","g","elianto","#f73b6a7A","-1"," ","0","-10","[1716.300000011921]","1","2","","","10844","28","3","4","lose","no-go","0"
"pit-trial","147","1010464","0.0-33.0","battery-v0.2","","""event"",""trial"",""time""
""fullscreenenter"",""1"",""6103""
""blur"",""2"",""9592""
""focus"",""2"",""11691""
""blur"",""7"",""49959""
""focus"",""7"",""51513""
","""event"",""trial"",""time""
""blur"",""2"",""9592""
""blur"",""7"",""49959""
","""event"",""trial"",""time""
""focus"",""2"",""11691""
""focus"",""7"",""51513""
","""event"",""trial"",""time""
""fullscreenenter"",""1"",""6103""
","
","","","954.9000000059605","","","25","10844","3987","u","elianto","#f73b6a7A"," "," ","1","-10","[1806.199999988079]","1","2","","","10844","29","0","3","lose","go","1"
"pit-trial","148","1015318","0.0-34.0","battery-v0.2","","""event"",""trial"",""time""
""fullscreenenter"",""1"",""6103""
""blur"",""2"",""9592""
""focus"",""2"",""11691""
""blur"",""7"",""49959""
""focus"",""7"",""51513""
","""event"",""trial"",""time""
""blur"",""2"",""9592""
""blur"",""7"",""49959""
","""event"",""trial"",""time""
""focus"",""2"",""11691""
""focus"",""7"",""51513""
","""event"",""trial"",""time""
""fullscreenenter"",""1"",""6103""
","
","","","-1","","","25","10844","3987","g","elianto","#f73b6a7A","-1","-1","1","0","[]","0","2","","","10844","30","3","4","lose","no-go","0"
"pit-trial","149","1020171","0.0-35.0","battery-v0.2","","""event"",""trial"",""time""
""fullscreenenter"",""1"",""6103""
""blur"",""2"",""9592""
""focus"",""2"",""11691""
""blur"",""7"",""49959""
""focus"",""7"",""51513""
","""event"",""trial"",""time""
""blur"",""2"",""9592""
""blur"",""7"",""49959""
","""event"",""trial"",""time""
""focus"",""2"",""11691""
""focus"",""7"",""51513""
","""event"",""trial"",""time""
""fullscreenenter"",""1"",""6103""
","
","","","-1","","","25","10844","3987","l","elianto","#3366ff99","-1","-1","1","+10","[]","0","2","","","10844","31","1","2","win","no-go","0"
"pit-trial","150","1023966","0.0-36.0","battery-v0.2","","""event"",""trial"",""time""
""fullscreenenter"",""1"",""6103""
""blur"",""2"",""9592""
""focus"",""2"",""11691""
""blur"",""7"",""49959""
""focus"",""7"",""51513""
","""event"",""trial"",""time""
""blur"",""2"",""9592""
""blur"",""7"",""49959""
","""event"",""trial"",""time""
""focus"",""2"",""11691""
""focus"",""7"",""51513""
","""event"",""trial"",""time""
""fullscreenenter"",""1"",""6103""
","
","","","939.3000000119209","","","25","10844","3987","a","elianto","#f73b6a7A"," "," ","1","0","[1789.5]","1","2","","","10844","32","2","3","lose","go","0"
"pit-trial","151","1027751","0.0-37.0","battery-v0.2","","""event"",""trial"",""time""
""fullscreenenter"",""1"",""6103""
""blur"",""2"",""9592""
""focus"",""2"",""11691""
""blur"",""7"",""49959""
""focus"",""7"",""51513""
","""event"",""trial"",""time""
""blur"",""2"",""9592""
""blur"",""7"",""49959""
","""event"",""trial"",""time""
""focus"",""2"",""11691""
""focus"",""7"",""51513""
","""event"",""trial"",""time""
""fullscreenenter"",""1"",""6103""
","
","","","927.7000000178814","","","25","10844","3987","a","elianto","#f73b6a7A"," "," ","1","0","[1779]","1","2","","","10844","33","2","3","lose","go","0"
"pit-trial","152","1032605","0.0-38.0","battery-v0.2","","""event"",""trial"",""time""
""fullscreenenter"",""1"",""6103""
""blur"",""2"",""9592""
""focus"",""2"",""11691""
""blur"",""7"",""49959""
""focus"",""7"",""51513""
","""event"",""trial"",""time""
""blur"",""2"",""9592""
""blur"",""7"",""49959""
","""event"",""trial"",""time""
""focus"",""2"",""11691""
""focus"",""7"",""51513""
","""event"",""trial"",""time""
""fullscreenenter"",""1"",""6103""
","
","","","-1","","","25","10844","3987","u","elianto","#f73b6a7A"," ","-1","0","-10","[]","0","2","","","10844","34","0","3","lose","go","0"
"pit-trial","153","1037461","0.0-39.0","battery-v0.2","","""event"",""trial"",""time""
""fullscreenenter"",""1"",""6103""
""blur"",""2"",""9592""
""focus"",""2"",""11691""
""blur"",""7"",""49959""
""focus"",""7"",""51513""
","""event"",""trial"",""time""
""blur"",""2"",""9592""
""blur"",""7"",""49959""
","""event"",""trial"",""time""
""focus"",""2"",""11691""
""focus"",""7"",""51513""
","""event"",""trial"",""time""
""fullscreenenter"",""1"",""6103""
","
","","","-1","","","25","10844","3987","l","elianto","#3366ff99","-1","-1","1","0","[]","0","2","","","10844","35","1","2","win","no-go","1"
"pit-trial","154","1042326","0.0-40.0","battery-v0.2","","""event"",""trial"",""time""
""fullscreenenter"",""1"",""6103""
""blur"",""2"",""9592""
""focus"",""2"",""11691""
""blur"",""7"",""49959""
""focus"",""7"",""51513""
","""event"",""trial"",""time""
""blur"",""2"",""9592""
""blur"",""7"",""49959""
","""event"",""trial"",""time""
""focus"",""2"",""11691""
""focus"",""7"",""51513""
","""event"",""trial"",""time""
""fullscreenenter"",""1"",""6103""
","
","","","-1","","","25","10844","3987","g","elianto","#f73b6a7A","-1","-1","1","0","[]","0","2","","","10844","36","3","4","lose","no-go","0"
"pit-trial","155","1047178","0.0-41.0","battery-v0.2","","""event"",""trial"",""time""
""fullscreenenter"",""1"",""6103""
""blur"",""2"",""9592""
""focus"",""2"",""11691""
""blur"",""7"",""49959""
