"trial_type","trial_index","time_elapsed","internal_node_id","task_version","subject_id","interactions","blur_events","focus_events","fullscreenenter_events","fullscreenexit_events","success","view_history","rt","responses","num_errors","age","subject","participantId","rune","rune_set","hex","correct","choice","accuracy","outcome","keys","total_keys","block","practice","value","sub","trial","stimulus","robot","valence","action","sham"
"pavlovia","0","10","0.0-0.0","battery-v0.2","","""event"",""trial"",""time""
""fullscreenenter"",""1"",""1644""
""blur"",""1"",""1955""
","""event"",""trial"",""time""
""blur"",""1"",""1955""
","
","""event"",""trial"",""time""
""fullscreenenter"",""1"",""1644""
","
","","","","","","","","","","","","","","","","","","","","","","","","","","",""
"fullscreen","1","2627","0.0-1.0","battery-v0.2","","""event"",""trial"",""time""
""fullscreenenter"",""1"",""1644""
""blur"",""1"",""1955""
""focus"",""2"",""5669""
","""event"",""trial"",""time""
""blur"",""1"",""1955""
","""event"",""trial"",""time""
""focus"",""2"",""5669""
","""event"",""trial"",""time""
""fullscreenenter"",""1"",""1644""
","
","true","","","","","","","","","","","","","","","","","","","","","","","","","",""
"pit-instructions","2","8526","0.0-2.0-0.0","battery-v0.2","","""event"",""trial"",""time""
""fullscreenenter"",""1"",""1644""
""blur"",""1"",""1955""
""focus"",""2"",""5669""
","""event"",""trial"",""time""
""blur"",""1"",""1955""
","""event"",""trial"",""time""
""focus"",""2"",""5669""
","""event"",""trial"",""time""
""fullscreenenter"",""1"",""1644""
","
","","[{""page_index"":0,""viewing_time"":5890.699999999255}]","5891.599999997765","","","","","","","","","","","","","","","","","","","","","","","",""
"pit-comprehension","3","11622","0.0-2.0-1.0-0.0","battery-v0.2","","""event"",""trial"",""time""
""fullscreenenter"",""1"",""1644""
""blur"",""1"",""1955""
""focus"",""2"",""5669""
","""event"",""trial"",""time""
""blur"",""1"",""1955""
","""event"",""trial"",""time""
""focus"",""2"",""5669""
","""event"",""trial"",""time""
""fullscreenenter"",""1"",""1644""
","
","","","3086.60000000149","[""shark""]","0","18","10996","5242","","","","","","","","","","","","","","","","","","",""
"pit-instructions","4","12484","0.0-2.0-1.0-1.0","battery-v0.2","","""event"",""trial"",""time""
""fullscreenenter"",""1"",""1644""
""blur"",""1"",""1955""
""focus"",""2"",""5669""
","""event"",""trial"",""time""
""blur"",""1"",""1955""
","""event"",""trial"",""time""
""focus"",""2"",""5669""
","""event"",""trial"",""time""
""fullscreenenter"",""1"",""1644""
","
","","[{""page_index"":0,""viewing_time"":853.4000000022352}]","853.7000000029802","","","","","","","","","","","","","","","","","","","","","","","",""
"pit-comprehension","5","14726","0.0-2.0-2.0-0.0","battery-v0.2","","""event"",""trial"",""time""
""fullscreenenter"",""1"",""1644""
""blur"",""1"",""1955""
""focus"",""2"",""5669""
","""event"",""trial"",""time""
""blur"",""1"",""1955""
","""event"",""trial"",""time""
""focus"",""2"",""5669""
","""event"",""trial"",""time""
""fullscreenenter"",""1"",""1644""
","
","","","2238.300000000745","[""tiger""]","0","18","10996","5242","","","","","","","","","","","","","","","","","","",""
"pit-instructions","6","15605","0.0-2.0-2.0-1.0","battery-v0.2","","""event"",""trial"",""time""
""fullscreenenter"",""1"",""1644""
""blur"",""1"",""1955""
""focus"",""2"",""5669""
","""event"",""trial"",""time""
""blur"",""1"",""1955""
","""event"",""trial"",""time""
""focus"",""2"",""5669""
","""event"",""trial"",""time""
""fullscreenenter"",""1"",""1644""
","
","","[{""page_index"":0,""viewing_time"":876.3999999985099}]","876.7999999970198","","","","","","","","","","","","","","","","","","","","","","","",""
"pit-instructions","7","121684","0.0-2.0-3.0","battery-v0.2","","""event"",""trial"",""time""
""fullscreenenter"",""1"",""1644""
""blur"",""1"",""1955""
""focus"",""2"",""5669""
","""event"",""trial"",""time""
""blur"",""1"",""1955""
","""event"",""trial"",""time""
""focus"",""2"",""5669""
","""event"",""trial"",""time""
""fullscreenenter"",""1"",""1644""
","
","","[{""page_index"":0,""viewing_time"":15845.89999999851},{""page_index"":1,""viewing_time"":7087.699999999255},{""page_index"":2,""viewing_time"":6519.800000000745},{""page_index"":3,""viewing_time"":5895.699999999255},{""page_index"":4,""viewing_time"":5864.10000000149},{""page_index"":5,""viewing_time"":5720.89999999851},{""page_index"":6,""viewing_time"":6920.20000000298},{""page_index"":7,""viewing_time"":6288.5},{""page_index"":8,""viewing_time"":7574.79999999702},{""page_index"":9,""viewing_time"":9424.20000000298},{""page_index"":10,""viewing_time"":8360.29999999702},{""page_index"":11,""viewing_time"":6791},{""page_index"":12,""viewing_time"":9176.20000000298},{""page_index"":13,""viewing_time"":4607.699999999255}]","106077.30000000075","","","","","","","","","","","","","","","","","","","","","","","",""
"pit-trial","8","125131","0.0-2.0-4.0-0.0","battery-v0.2","","""event"",""trial"",""time""
""fullscreenenter"",""1"",""1644""
""blur"",""1"",""1955""
""focus"",""2"",""5669""
","""event"",""trial"",""time""
""blur"",""1"",""1955""
","""event"",""trial"",""time""
""focus"",""2"",""5669""
","""event"",""trial"",""time""
""fullscreenenter"",""1"",""1644""
","
","","","582.0999999977648","","","18","10996","5242","&#9784;","elianto","#FFFFF080"," "," ","1","&#10004","[1433.3999999985099]","1","0","0","","","","","","","",""
"pit-trial","9","128733","0.0-2.0-4.1-0.1","battery-v0.2","","""event"",""trial"",""time""
""fullscreenenter"",""1"",""1644""
""blur"",""1"",""1955""
""focus"",""2"",""5669""
","""event"",""trial"",""time""
""blur"",""1"",""1955""
","""event"",""trial"",""time""
""focus"",""2"",""5669""
","""event"",""trial"",""time""
""fullscreenenter"",""1"",""1644""
","
","","","732.8000000007451","","","18","10996","5242","&#9784;","elianto","#FFFFF080"," "," ","1","&#10004","[1585.800000000745]","1","0","0","","","","","","","",""
"pit-trial","10","131852","0.0-2.0-4.2-0.2","battery-v0.2","","""event"",""trial"",""time""
""fullscreenenter"",""1"",""1644""
""blur"",""1"",""1955""
""focus"",""2"",""5669""
","""event"",""trial"",""time""
""blur"",""1"",""1955""
","""event"",""trial"",""time""
""focus"",""2"",""5669""
","""event"",""trial"",""time""
""fullscreenenter"",""1"",""1644""
","
","","","251.19999999925494","","","18","10996","5242","&#9784;","elianto","#FFFFF080"," "," ","1","&#10004","[1105.199999999255]","1","0","0","","","","","","","",""
"pit-trial","11","135018","0.0-2.0-4.3-0.3","battery-v0.2","","""event"",""trial"",""time""
""fullscreenenter"",""1"",""1644""
""blur"",""1"",""1955""
""focus"",""2"",""5669""
","""event"",""trial"",""time""
""blur"",""1"",""1955""
","""event"",""trial"",""time""
""focus"",""2"",""5669""
","""event"",""trial"",""time""
""fullscreenenter"",""1"",""1644""
","
","","","305.3999999985099","","","18","10996","5242","&#9784;","elianto","#FFFFF080"," "," ","1","&#10004","[1156.699999999255]","1","0","0","","","","","","","",""
"pit-trial","12","138241","0.0-2.0-4.4-0.4","battery-v0.2","","""event"",""trial"",""time""
""fullscreenenter"",""1"",""1644""
""blur"",""1"",""1955""
""focus"",""2"",""5669""
","""event"",""trial"",""time""
""blur"",""1"",""1955""
","""event"",""trial"",""time""
""focus"",""2"",""5669""
","""event"",""trial"",""time""
""fullscreenenter"",""1"",""1644""
","
","","","371.20000000298023","","","18","10996","5242","&#9784;","elianto","#FFFFF080"," "," ","1","&#10004","[1221.5]","1","0","0","","","","","","","",""
"pit-instructions","13","161612","0.0-2.0-5.0","battery-v0.2","","""event"",""trial"",""time""
""fullscreenenter"",""1"",""1644""
""blur"",""1"",""1955""
""focus"",""2"",""5669""
","""event"",""trial"",""time""
""blur"",""1"",""1955""
","""event"",""trial"",""time""
""focus"",""2"",""5669""
","""event"",""trial"",""time""
""fullscreenenter"",""1"",""1644""
","
","","[{""page_index"":0,""viewing_time"":7017.5},{""page_index"":1,""viewing_time"":5439.800000000745},{""page_index"":2,""viewing_time"":5127.79999999702},{""page_index"":3,""viewing_time"":5783.900000002235}]","23369.199999999255","","","","","","","","","","","","","","","","","","","","","","","",""
"pit-trial","14","166488","0.0-2.0-6.0-0.0","battery-v0.2","","""event"",""trial"",""time""
""fullscreenenter"",""1"",""1644""
""blur"",""1"",""1955""
""focus"",""2"",""5669""
","""event"",""trial"",""time""
""blur"",""1"",""1955""
","""event"",""trial"",""time""
""focus"",""2"",""5669""
","""event"",""trial"",""time""
""fullscreenenter"",""1"",""1644""
","
","","","-1","","","18","10996","5242","&#9854;","elianto","#FFFFF080","-1","-1","1","&#10004","[]","0","0","1","","","","","","","",""
"pit-trial","15","171354","0.0-2.0-6.1-0.1","battery-v0.2","","""event"",""trial"",""time""
""fullscreenenter"",""1"",""1644""
""blur"",""1"",""1955""
""focus"",""2"",""5669""
","""event"",""trial"",""time""
""blur"",""1"",""1955""
","""event"",""trial"",""time""
""focus"",""2"",""5669""
","""event"",""trial"",""time""
""fullscreenenter"",""1"",""1644""
","
","","","-1","","","18","10996","5242","&#9854;","elianto","#FFFFF080","-1","-1","1","&#10004","[]","0","0","1","","","","","","","",""
"pit-trial","16","176216","0.0-2.0-6.2-0.2","battery-v0.2","","""event"",""trial"",""time""
""fullscreenenter"",""1"",""1644""
""blur"",""1"",""1955""
""focus"",""2"",""5669""
","""event"",""trial"",""time""
""blur"",""1"",""1955""
","""event"",""trial"",""time""
""focus"",""2"",""5669""
","""event"",""trial"",""time""
""fullscreenenter"",""1"",""1644""
","
","","","-1","","","18","10996","5242","&#9854;","elianto","#FFFFF080","-1","-1","1","&#10004","[]","0","0","1","","","","","","","",""
"pit-trial","17","181084","0.0-2.0-6.3-0.3","battery-v0.2","","""event"",""trial"",""time""
""fullscreenenter"",""1"",""1644""
""blur"",""1"",""1955""
""focus"",""2"",""5669""
""blur"",""18"",""185735""
","""event"",""trial"",""time""
""blur"",""1"",""1955""
""blur"",""18"",""185735""
","""event"",""trial"",""time""
""focus"",""2"",""5669""
","""event"",""trial"",""time""
""fullscreenenter"",""1"",""1644""
","
","","","-1","","","18","10996","5242","&#9854;","elianto","#FFFFF080","-1","-1","1","&#10004","[]","0","0","1","","","","","","","",""
"pit-trial","18","185947","0.0-2.0-6.4-0.4","battery-v0.2","","""event"",""trial"",""time""
""fullscreenenter"",""1"",""1644""
""blur"",""1"",""1955""
""focus"",""2"",""5669""
""blur"",""18"",""185735""
""focus"",""19"",""186428""
","""event"",""trial"",""time""
""blur"",""1"",""1955""
""blur"",""18"",""185735""
","""event"",""trial"",""time""
""focus"",""2"",""5669""
""focus"",""19"",""186428""
","""event"",""trial"",""time""
""fullscreenenter"",""1"",""1644""
","
","","","-1","","","18","10996","5242","&#9854;","elianto","#FFFFF080","-1","-1","1","&#10004","[]","0","0","1","","","","","","","",""
"pit-instructions","19","303997","0.0-2.0-7.0","battery-v0.2","","""event"",""trial"",""time""
""fullscreenenter"",""1"",""1644""
""blur"",""1"",""1955""
""focus"",""2"",""5669""
""blur"",""18"",""185735""
""focus"",""19"",""186428""
","""event"",""trial"",""time""
""blur"",""1"",""1955""
""blur"",""18"",""185735""
","""event"",""trial"",""time""
""focus"",""2"",""5669""
""focus"",""19"",""186428""
","""event"",""trial"",""time""
""fullscreenenter"",""1"",""1644""
","
","","[{""page_index"":0,""viewing_time"":6679},{""page_index"":1,""viewing_time"":6848.400000002235},{""page_index"":2,""viewing_time"":5599.699999999255},{""page_index"":3,""viewing_time"":6191.89999999851},{""page_index"":4,""viewing_time"":5311.5},{""page_index"":5,""viewing_time"":5016},{""page_index"":6,""viewing_time"":4440.900000002235},{""page_index"":7,""viewing_time"":8024.39999999851},{""page_index"":8,""viewing_time"":8400.300000000745},{""page_index"":9,""viewing_time"":6103.5},{""page_index"":10,""viewing_time"":6063.39999999851},{""page_index"":11,""viewing_time"":5216.5},{""page_index"":12,""viewing_time"":7791.699999999255},{""page_index"":13,""viewing_time"":7456.5},{""page_index"":14,""viewing_time"":6959.20000000298},{""page_index"":15,""viewing_time"":7568.599999997765},{""page_index"":16,""viewing_time"":7007.699999999255},{""page_index"":17,""viewing_time"":7368.5}]","118048","","","","","","","","","","","","","","","","","","","","","","","",""
"pit-trial","20","307348","0.0-2.0-8.0-0.0","battery-v0.2","","""event"",""trial"",""time""
""fullscreenenter"",""1"",""1644""
""blur"",""1"",""1955""
""focus"",""2"",""5669""
""blur"",""18"",""185735""
""focus"",""19"",""186428""
","""event"",""trial"",""time""
""blur"",""1"",""1955""
""blur"",""18"",""185735""
","""event"",""trial"",""time""
""focus"",""2"",""5669""
""focus"",""19"",""186428""
","""event"",""trial"",""time""
""fullscreenenter"",""1"",""1644""
","
","","","494.19999999925494","","","18","10996","5242","&#9776;","elianto","#3366ff99"," "," ","1","+10","[1345.4000000022352]","1","0","1","","","","","","","",""
"pit-trial","21","310845","0.0-2.0-8.0-1.0","battery-v0.2","","""event"",""trial"",""time""
""fullscreenenter"",""1"",""1644""
""blur"",""1"",""1955""
""focus"",""2"",""5669""
""blur"",""18"",""185735""
""focus"",""19"",""186428""
","""event"",""trial"",""time""
""blur"",""1"",""1955""
""blur"",""18"",""185735""
","""event"",""trial"",""time""
""focus"",""2"",""5669""
""focus"",""19"",""186428""
","""event"",""trial"",""time""
""fullscreenenter"",""1"",""1644""
","
","","","638.3000000007451","","","18","10996","5242","&#9776;","elianto","#3366ff99"," "," ","1","+10","[1489.2000000029802]","1","0","1","","","","","","","",""
"pit-trial","22","314127","0.0-2.0-8.0-2.0","battery-v0.2","","""event"",""trial"",""time""
""fullscreenenter"",""1"",""1644""
""blur"",""1"",""1955""
""focus"",""2"",""5669""
""blur"",""18"",""185735""
""focus"",""19"",""186428""
","""event"",""trial"",""time""
""blur"",""1"",""1955""
""blur"",""18"",""185735""
","""event"",""trial"",""time""
""focus"",""2"",""5669""
""focus"",""19"",""186428""
","""event"",""trial"",""time""
""fullscreenenter"",""1"",""1644""
","
","","","421.19999999925494","","","18","10996","5242","&#9776;","elianto","#3366ff99"," "," ","1","+10","[1273.300000000745]","1","0","1","","","","","","","",""
"pit-trial","23","317402","0.0-2.0-8.0-3.0","battery-v0.2","","""event"",""trial"",""time""
""fullscreenenter"",""1"",""1644""
""blur"",""1"",""1955""
""focus"",""2"",""5669""
""blur"",""18"",""185735""
""focus"",""19"",""186428""
","""event"",""trial"",""time""
""blur"",""1"",""1955""
""blur"",""18"",""185735""
","""event"",""trial"",""time""
""focus"",""2"",""5669""
""focus"",""19"",""186428""
","""event"",""trial"",""time""
""fullscreenenter"",""1"",""1644""
","
","","","411.9000000022352","","","18","10996","5242","&#9776;","elianto","#3366ff99"," "," ","1","0","[1263.1000000014901]","1","0","1","","","","","","","",""
"pit-trial","24","320603","0.0-2.0-8.0-4.0","battery-v0.2","","""event"",""trial"",""time""
""fullscreenenter"",""1"",""1644""
""blur"",""1"",""1955""
""focus"",""2"",""5669""
""blur"",""18"",""185735""
""focus"",""19"",""186428""
","""event"",""trial"",""time""
""blur"",""1"",""1955""
""blur"",""18"",""185735""
","""event"",""trial"",""time""
""focus"",""2"",""5669""
""focus"",""19"",""186428""
","""event"",""trial"",""time""
""fullscreenenter"",""1"",""1644""
","
","","","332.9000000022352","","","18","10996","5242","&#9776;","elianto","#3366ff99"," "," ","1","+10","[1185.5]","1","0","1","","","","","","","",""
"pit-trial","25","323846","0.0-2.0-8.1-0.1","battery-v0.2","","""event"",""trial"",""time""
""fullscreenenter"",""1"",""1644""
""blur"",""1"",""1955""
""focus"",""2"",""5669""
""blur"",""18"",""185735""
""focus"",""19"",""186428""
","""event"",""trial"",""time""
""blur"",""1"",""1955""
""blur"",""18"",""185735""
","""event"",""trial"",""time""
""focus"",""2"",""5669""
""focus"",""19"",""186428""
","""event"",""trial"",""time""
""fullscreenenter"",""1"",""1644""
","
","","","384.29999999701977","","","18","10996","5242","&#9776;","elianto","#3366ff99"," "," ","1","+10","[1235.199999999255]","1","0","1","","","","","","","",""
"pit-trial","26","327128","0.0-2.0-8.1-1.1","battery-v0.2","","""event"",""trial"",""time""
""fullscreenenter"",""1"",""1644""
""blur"",""1"",""1955""
""focus"",""2"",""5669""
""blur"",""18"",""185735""
""focus"",""19"",""186428""
","""event"",""trial"",""time""
""blur"",""1"",""1955""
""blur"",""18"",""185735""
","""event"",""trial"",""time""
""focus"",""2"",""5669""
""focus"",""19"",""186428""
","""event"",""trial"",""time""
""fullscreenenter"",""1"",""1644""
","
","","","419.6000000014901","","","18","10996","5242","&#9776;","elianto","#3366ff99"," "," ","1","+10","[1270.2000000029802]","1","0","1","","","","","","","",""
"pit-trial","27","330359","0.0-2.0-8.1-2.1","battery-v0.2","","""event"",""trial"",""time""
""fullscreenenter"",""1"",""1644""
""blur"",""1"",""1955""
""focus"",""2"",""5669""
""blur"",""18"",""185735""
""focus"",""19"",""186428""
","""event"",""trial"",""time""
""blur"",""1"",""1955""
""blur"",""18"",""185735""
","""event"",""trial"",""time""
""focus"",""2"",""5669""
""focus"",""19"",""186428""
","""event"",""trial"",""time""
""fullscreenenter"",""1"",""1644""
","
","","","371.69999999925494","","","18","10996","5242","&#9776;","elianto","#3366ff99"," "," ","1","+10","[1222.5]","1","0","1","","","","","","","",""
"pit-trial","28","334063","0.0-2.0-8.1-3.1","battery-v0.2","","""event"",""trial"",""time""
""fullscreenenter"",""1"",""1644""
""blur"",""1"",""1955""
""focus"",""2"",""5669""
""blur"",""18"",""185735""
""focus"",""19"",""186428""
","""event"",""trial"",""time""
""blur"",""1"",""1955""
""blur"",""18"",""185735""
","""event"",""trial"",""time""
""focus"",""2"",""5669""
""focus"",""19"",""186428""
","""event"",""trial"",""time""
""fullscreenenter"",""1"",""1644""
","
","","","848.3999999985099","","","18","10996","5242","&#9776;","elianto","#3366ff99"," "," ","1","0","[1700.8999999985099]","1","0","1","","","","","","","",""
"pit-trial","29","337364","0.0-2.0-8.1-4.1","battery-v0.2","","""event"",""trial"",""time""
""fullscreenenter"",""1"",""1644""
""blur"",""1"",""1955""
""focus"",""2"",""5669""
""blur"",""18"",""185735""
""focus"",""19"",""186428""
","""event"",""trial"",""time""
""blur"",""1"",""1955""
""blur"",""18"",""185735""
","""event"",""trial"",""time""
""focus"",""2"",""5669""
""focus"",""19"",""186428""
","""event"",""trial"",""time""
""fullscreenenter"",""1"",""1644""
","
","","","449.29999999701977","","","18","10996","5242","&#9776;","elianto","#3366ff99"," "," ","1","+10","[1299.300000000745]","1","0","1","","","","","","","",""
"pit-trial","30","340845","0.0-2.0-8.2-0.2","battery-v0.2","","""event"",""trial"",""time""
""fullscreenenter"",""1"",""1644""
""blur"",""1"",""1955""
""focus"",""2"",""5669""
""blur"",""18"",""185735""
""focus"",""19"",""186428""
","""event"",""trial"",""time""
""blur"",""1"",""1955""
""blur"",""18"",""185735""
","""event"",""trial"",""time""
""focus"",""2"",""5669""
""focus"",""19"",""186428""
","""event"",""trial"",""time""
""fullscreenenter"",""1"",""1644""
","
","","","628.5","","","18","10996","5242","&#9776;","elianto","#3366ff99"," "," ","1","+10","[1479.2999999970198]","1","0","1","","","","","","","",""
"pit-trial","31","344025","0.0-2.0-8.2-1.2","battery-v0.2","","""event"",""trial"",""time""
""fullscreenenter"",""1"",""1644""
""blur"",""1"",""1955""
""focus"",""2"",""5669""
""blur"",""18"",""185735""
""focus"",""19"",""186428""
","""event"",""trial"",""time""
""blur"",""1"",""1955""
""blur"",""18"",""185735""
","""event"",""trial"",""time""
""focus"",""2"",""5669""
""focus"",""19"",""186428""
","""event"",""trial"",""time""
""fullscreenenter"",""1"",""1644""
","
","","","328.6000000014901","","","18","10996","5242","&#9776;","elianto","#3366ff99"," "," ","1","+10","[1178.800000000745]","1","0","1","","","","","","","",""
"pit-trial","32","347280","0.0-2.0-8.2-2.2","battery-v0.2","","""event"",""trial"",""time""
""fullscreenenter"",""1"",""1644""
""blur"",""1"",""1955""
""focus"",""2"",""5669""
""blur"",""18"",""185735""
""focus"",""19"",""186428""
","""event"",""trial"",""time""
""blur"",""1"",""1955""
""blur"",""18"",""185735""
","""event"",""trial"",""time""
""focus"",""2"",""5669""
""focus"",""19"",""186428""
","""event"",""trial"",""time""
""fullscreenenter"",""1"",""1644""
","
","","","402.19999999925494","","","18","10996","5242","&#9776;","elianto","#3366ff99"," "," ","1","+10","[1252.5]","1","0","1","","","","","","","",""
"pit-trial","33","350507","0.0-2.0-8.2-3.2","battery-v0.2","","""event"",""trial"",""time""
""fullscreenenter"",""1"",""1644""
""blur"",""1"",""1955""
""focus"",""2"",""5669""
""blur"",""18"",""185735""
""focus"",""19"",""186428""
","""event"",""trial"",""time""
""blur"",""1"",""1955""
""blur"",""18"",""185735""
","""event"",""trial"",""time""
""focus"",""2"",""5669""
""focus"",""19"",""186428""
","""event"",""trial"",""time""
""fullscreenenter"",""1"",""1644""
","
","","","375.3999999985099","","","18","10996","5242","&#9776;","elianto","#3366ff99"," "," ","1","0","[1225.6000000014901]","1","0","1","","","","","","","",""
"pit-trial","34","353785","0.0-2.0-8.2-4.2","battery-v0.2","","""event"",""trial"",""time""
""fullscreenenter"",""1"",""1644""
""blur"",""1"",""1955""
""focus"",""2"",""5669""
""blur"",""18"",""185735""
""focus"",""19"",""186428""
","""event"",""trial"",""time""
""blur"",""1"",""1955""
""blur"",""18"",""185735""
","""event"",""trial"",""time""
""focus"",""2"",""5669""
""focus"",""19"",""186428""
","""event"",""trial"",""time""
""fullscreenenter"",""1"",""1644""
","
","","","425.1000000014901","","","18","10996","5242","&#9776;","elianto","#3366ff99"," "," ","1","+10","[1275.9000000022352]","1","0","1","","","","","","","",""
"call-function","35","353786","0.0-2.0-9.0","battery-v0.2","","""event"",""trial"",""time""
""fullscreenenter"",""1"",""1644""
""blur"",""1"",""1955""
""focus"",""2"",""5669""
""blur"",""18"",""185735""
""focus"",""19"",""186428""
","""event"",""trial"",""time""
""blur"",""1"",""1955""
""blur"",""18"",""185735""
","""event"",""trial"",""time""
""focus"",""2"",""5669""
""focus"",""19"",""186428""
","""event"",""trial"",""time""
""fullscreenenter"",""1"",""1644""
","
","","","","","","","","","","","","","","","","","","","","","","","","","","",""
"pit-instructions","36","395957","0.0-2.0-10.0","battery-v0.2","","""event"",""trial"",""time""
""fullscreenenter"",""1"",""1644""
""blur"",""1"",""1955""
""focus"",""2"",""5669""
""blur"",""18"",""185735""
""focus"",""19"",""186428""
","""event"",""trial"",""time""
""blur"",""1"",""1955""
""blur"",""18"",""185735""
","""event"",""trial"",""time""
""focus"",""2"",""5669""
""focus"",""19"",""186428""
","""event"",""trial"",""time""
""fullscreenenter"",""1"",""1644""
","
","","[{""page_index"":0,""viewing_time"":6921.400000002235},{""page_index"":1,""viewing_time"":8751.89999999851},{""page_index"":2,""viewing_time"":9520.300000000745},{""page_index"":3,""viewing_time"":9479.89999999851},{""page_index"":4,""viewing_time"":7496.300000000745}]","42170","","","","","","","","","","","","","","","","","","","","","","","",""
"pit-trial","37","400822","0.0-2.0-11.0-0.0","battery-v0.2","","""event"",""trial"",""time""
""fullscreenenter"",""1"",""1644""
""blur"",""1"",""1955""
""focus"",""2"",""5669""
""blur"",""18"",""185735""
""focus"",""19"",""186428""
","""event"",""trial"",""time""
""blur"",""1"",""1955""
""blur"",""18"",""185735""
","""event"",""trial"",""time""
""focus"",""2"",""5669""
""focus"",""19"",""186428""
","""event"",""trial"",""time""
""fullscreenenter"",""1"",""1644""
","
","","","-1","","","18","10996","5242","&#9761;","elianto","#3366ff99","-1","-1","1","+10","[]","0","0","2","","","","","","","",""
"pit-trial","38","405685","0.0-2.0-11.0-1.0","battery-v0.2","","""event"",""trial"",""time""
""fullscreenenter"",""1"",""1644""
""blur"",""1"",""1955""
""focus"",""2"",""5669""
""blur"",""18"",""185735""
""focus"",""19"",""186428""
","""event"",""trial"",""time""
""blur"",""1"",""1955""
""blur"",""18"",""185735""
","""event"",""trial"",""time""
""focus"",""2"",""5669""
""focus"",""19"",""186428""
","""event"",""trial"",""time""
""fullscreenenter"",""1"",""1644""
","
","","","-1","","","18","10996","5242","&#9761;","elianto","#3366ff99","-1","-1","1","+10","[]","0","0","2","","","","","","","",""
"pit-trial","39","410546","0.0-2.0-11.0-2.0","battery-v0.2","","""event"",""trial"",""time""
""fullscreenenter"",""1"",""1644""
""blur"",""1"",""1955""
""focus"",""2"",""5669""
""blur"",""18"",""185735""
""focus"",""19"",""186428""
","""event"",""trial"",""time""
""blur"",""1"",""1955""
""blur"",""18"",""185735""
","""event"",""trial"",""time""
""focus"",""2"",""5669""
""focus"",""19"",""186428""
","""event"",""trial"",""time""
""fullscreenenter"",""1"",""1644""
","
","","","-1","","","18","10996","5242","&#9761;","elianto","#3366ff99","-1","-1","1","+10","[]","0","0","2","","","","","","","",""
"pit-trial","40","415410","0.0-2.0-11.0-3.0","battery-v0.2","","""event"",""trial"",""time""
""fullscreenenter"",""1"",""1644""
""blur"",""1"",""1955""
""focus"",""2"",""5669""
""blur"",""18"",""185735""
""focus"",""19"",""186428""
","""event"",""trial"",""time""
""blur"",""1"",""1955""
""blur"",""18"",""185735""
","""event"",""trial"",""time""
""focus"",""2"",""5669""
""focus"",""19"",""186428""
","""event"",""trial"",""time""
""fullscreenenter"",""1"",""1644""
","
","","","-1","","","18","10996","5242","&#9761;","elianto","#3366ff99","-1","-1","1","0","[]","0","0","2","","","","","","","",""
"pit-trial","41","420281","0.0-2.0-11.0-4.0","battery-v0.2","","""event"",""trial"",""time""
""fullscreenenter"",""1"",""1644""
""blur"",""1"",""1955""
""focus"",""2"",""5669""
""blur"",""18"",""185735""
""focus"",""19"",""186428""
","""event"",""trial"",""time""
""blur"",""1"",""1955""
""blur"",""18"",""185735""
","""event"",""trial"",""time""
""focus"",""2"",""5669""
""focus"",""19"",""186428""
","""event"",""trial"",""time""
""fullscreenenter"",""1"",""1644""
","
","","","-1","","","18","10996","5242","&#9761;","elianto","#3366ff99","-1","-1","1","+10","[]","0","0","2","","","","","","","",""
"pit-trial","42","425145","0.0-2.0-11.1-0.1","battery-v0.2","","""event"",""trial"",""time""
""fullscreenenter"",""1"",""1644""
""blur"",""1"",""1955""
""focus"",""2"",""5669""
""blur"",""18"",""185735""
""focus"",""19"",""186428""
","""event"",""trial"",""time""
""blur"",""1"",""1955""
""blur"",""18"",""185735""
","""event"",""trial"",""time""
""focus"",""2"",""5669""
""focus"",""19"",""186428""
","""event"",""trial"",""time""
""fullscreenenter"",""1"",""1644""
","
","","","-1","","","18","10996","5242","&#9761;","elianto","#3366ff99","-1","-1","1","+10","[]","0","0","2","","","","","","","",""
"pit-trial","43","429998","0.0-2.0-11.1-1.1","battery-v0.2","","""event"",""trial"",""time""
""fullscreenenter"",""1"",""1644""
""blur"",""1"",""1955""
""focus"",""2"",""5669""
""blur"",""18"",""185735""
""focus"",""19"",""186428""
","""event"",""trial"",""time""
""blur"",""1"",""1955""
""blur"",""18"",""185735""
","""event"",""trial"",""time""
""focus"",""2"",""5669""
""focus"",""19"",""186428""
","""event"",""trial"",""time""
""fullscreenenter"",""1"",""1644""
","
","","","-1","","","18","10996","5242","&#9761;","elianto","#3366ff99","-1","-1","1","+10","[]","0","0","2","","","","","","","",""
"pit-trial","44","434850","0.0-2.0-11.1-2.1","battery-v0.2","","""event"",""trial"",""time""
""fullscreenenter"",""1"",""1644""
""blur"",""1"",""1955""
""focus"",""2"",""5669""
""blur"",""18"",""185735""
""focus"",""19"",""186428""
","""event"",""trial"",""time""
""blur"",""1"",""1955""
""blur"",""18"",""185735""
","""event"",""trial"",""time""
""focus"",""2"",""5669""
""focus"",""19"",""186428""
","""event"",""trial"",""time""
""fullscreenenter"",""1"",""1644""
","
","","","-1","","","18","10996","5242","&#9761;","elianto","#3366ff99","-1","-1","1","+10","[]","0","0","2","","","","","","","",""
"pit-trial","45","439704","0.0-2.0-11.1-3.1","battery-v0.2","","""event"",""trial"",""time""
""fullscreenenter"",""1"",""1644""
""blur"",""1"",""1955""
""focus"",""2"",""5669""
""blur"",""18"",""185735""
""focus"",""19"",""186428""
","""event"",""trial"",""time""
""blur"",""1"",""1955""
""blur"",""18"",""185735""
","""event"",""trial"",""time""
""focus"",""2"",""5669""
""focus"",""19"",""186428""
","""event"",""trial"",""time""
""fullscreenenter"",""1"",""1644""
","
","","","-1","","","18","10996","5242","&#9761;","elianto","#3366ff99","-1","-1","1","0","[]","0","0","2","","","","","","","",""
"pit-trial","46","444557","0.0-2.0-11.1-4.1","battery-v0.2","","""event"",""trial"",""time""
""fullscreenenter"",""1"",""1644""
""blur"",""1"",""1955""
""focus"",""2"",""5669""
""blur"",""18"",""185735""
""focus"",""19"",""186428""
","""event"",""trial"",""time""
""blur"",""1"",""1955""
""blur"",""18"",""185735""
","""event"",""trial"",""time""
""focus"",""2"",""5669""
""focus"",""19"",""186428""
","""event"",""trial"",""time""
""fullscreenenter"",""1"",""1644""
","
","","","-1","","","18","10996","5242","&#9761;","elianto","#3366ff99","-1","-1","1","+10","[]","0","0","2","","","","","","","",""
"pit-trial","47","449409","0.0-2.0-11.2-0.2","battery-v0.2","","""event"",""trial"",""time""
""fullscreenenter"",""1"",""1644""
""blur"",""1"",""1955""
""focus"",""2"",""5669""
""blur"",""18"",""185735""
""focus"",""19"",""186428""
","""event"",""trial"",""time""
""blur"",""1"",""1955""
""blur"",""18"",""185735""
","""event"",""trial"",""time""
""focus"",""2"",""5669""
""focus"",""19"",""186428""
","""event"",""trial"",""time""
""fullscreenenter"",""1"",""1644""
","
","","","-1","","","18","10996","5242","&#9761;","elianto","#3366ff99","-1","-1","1","+10","[]","0","0","2","","","","","","","",""
"pit-trial","48","454263","0.0-2.0-11.2-1.2","battery-v0.2","","""event"",""trial"",""time""
""fullscreenenter"",""1"",""1644""
""blur"",""1"",""1955""
""focus"",""2"",""5669""
""blur"",""18"",""185735""
""focus"",""19"",""186428""
","""event"",""trial"",""time""
""blur"",""1"",""1955""
""blur"",""18"",""185735""
","""event"",""trial"",""time""
""focus"",""2"",""5669""
""focus"",""19"",""186428""
","""event"",""trial"",""time""
""fullscreenenter"",""1"",""1644""
","
","","","-1","","","18","10996","5242","&#9761;","elianto","#3366ff99","-1","-1","1","+10","[]","0","0","2","","","","","","","",""
"pit-trial","49","459116","0.0-2.0-11.2-2.2","battery-v0.2","","""event"",""trial"",""time""
""fullscreenenter"",""1"",""1644""
""blur"",""1"",""1955""
""focus"",""2"",""5669""
""blur"",""18"",""185735""
""focus"",""19"",""186428""
","""event"",""trial"",""time""
""blur"",""1"",""1955""
""blur"",""18"",""185735""
","""event"",""trial"",""time""
""focus"",""2"",""5669""
""focus"",""19"",""186428""
","""event"",""trial"",""time""
""fullscreenenter"",""1"",""1644""
","
","","","-1","","","18","10996","5242","&#9761;","elianto","#3366ff99","-1","-1","1","+10","[]","0","0","2","","","","","","","",""
"pit-trial","50","463968","0.0-2.0-11.2-3.2","battery-v0.2","","""event"",""trial"",""time""
""fullscreenenter"",""1"",""1644""
""blur"",""1"",""1955""
""focus"",""2"",""5669""
""blur"",""18"",""185735""
""focus"",""19"",""186428""
","""event"",""trial"",""time""
""blur"",""1"",""1955""
""blur"",""18"",""185735""
","""event"",""trial"",""time""
""focus"",""2"",""5669""
""focus"",""19"",""186428""
","""event"",""trial"",""time""
""fullscreenenter"",""1"",""1644""
","
","","","-1","","","18","10996","5242","&#9761;","elianto","#3366ff99","-1","-1","1","0","[]","0","0","2","","","","","","","",""
"pit-trial","51","468821","0.0-2.0-11.2-4.2","battery-v0.2","","""event"",""trial"",""time""
""fullscreenenter"",""1"",""1644""
""blur"",""1"",""1955""
""focus"",""2"",""5669""
""blur"",""18"",""185735""
""focus"",""19"",""186428""
","""event"",""trial"",""time""
""blur"",""1"",""1955""
""blur"",""18"",""185735""
","""event"",""trial"",""time""
""focus"",""2"",""5669""
""focus"",""19"",""186428""
","""event"",""trial"",""time""
""fullscreenenter"",""1"",""1644""
","
","","","-1","","","18","10996","5242","&#9761;","elianto","#3366ff99","-1","-1","1","+10","[]","0","0","2","","","","","","","",""
"pit-trial","52","473674","0.0-2.0-11.3-0.3","battery-v0.2","","""event"",""trial"",""time""
""fullscreenenter"",""1"",""1644""
""blur"",""1"",""1955""
""focus"",""2"",""5669""
""blur"",""18"",""185735""
""focus"",""19"",""186428""
","""event"",""trial"",""time""
""blur"",""1"",""1955""
""blur"",""18"",""185735""
","""event"",""trial"",""time""
""focus"",""2"",""5669""
""focus"",""19"",""186428""
","""event"",""trial"",""time""
""fullscreenenter"",""1"",""1644""
","
","","","-1","","","18","10996","5242","&#9761;","elianto","#3366ff99","-1","-1","1","+10","[]","0","0","2","","","","","","","",""
"pit-trial","53","478527","0.0-2.0-11.3-1.3","battery-v0.2","","""event"",""trial"",""time""
""fullscreenenter"",""1"",""1644""
""blur"",""1"",""1955""
""focus"",""2"",""5669""
""blur"",""18"",""185735""
""focus"",""19"",""186428""
","""event"",""trial"",""time""
""blur"",""1"",""1955""
""blur"",""18"",""185735""
","""event"",""trial"",""time""
""focus"",""2"",""5669""
""focus"",""19"",""186428""
","""event"",""trial"",""time""
""fullscreenenter"",""1"",""1644""
","
","","","-1","","","18","10996","5242","&#9761;","elianto","#3366ff99","-1","-1","1","+10","[]","0","0","2","","","","","","","",""
"pit-trial","54","483381","0.0-2.0-11.3-2.3","battery-v0.2","","""event"",""trial"",""time""
""fullscreenenter"",""1"",""1644""
""blur"",""1"",""1955""
""focus"",""2"",""5669""
""blur"",""18"",""185735""
""focus"",""19"",""186428""
","""event"",""trial"",""time""
""blur"",""1"",""1955""
""blur"",""18"",""185735""
","""event"",""trial"",""time""
""focus"",""2"",""5669""
""focus"",""19"",""186428""
","""event"",""trial"",""time""
""fullscreenenter"",""1"",""1644""
","
","","","-1","","","18","10996","5242","&#9761;","elianto","#3366ff99","-1","-1","1","+10","[]","0","0","2","","","","","","","",""
"pit-trial","55","488233","0.0-2.0-11.3-3.3","battery-v0.2","","""event"",""trial"",""time""
""fullscreenenter"",""1"",""1644""
""blur"",""1"",""1955""
""focus"",""2"",""5669""
""blur"",""18"",""185735""
""focus"",""19"",""186428""
","""event"",""trial"",""time""
""blur"",""1"",""1955""
""blur"",""18"",""185735""
","""event"",""trial"",""time""
""focus"",""2"",""5669""
""focus"",""19"",""186428""
","""event"",""trial"",""time""
""fullscreenenter"",""1"",""1644""
","
","","","-1","","","18","10996","5242","&#9761;","elianto","#3366ff99","-1","-1","1","0","[]","0","0","2","","","","","","","",""
"pit-trial","56","493085","0.0-2.0-11.3-4.3","battery-v0.2","","""event"",""trial"",""time""
""fullscreenenter"",""1"",""1644""
""blur"",""1"",""1955""
""focus"",""2"",""5669""
""blur"",""18"",""185735""
""focus"",""19"",""186428""
","""event"",""trial"",""time""
""blur"",""1"",""1955""
""blur"",""18"",""185735""
","""event"",""trial"",""time""
""focus"",""2"",""5669""
""focus"",""19"",""186428""
","""event"",""trial"",""time""
""fullscreenenter"",""1"",""1644""
","
","","","-1","","","18","10996","5242","&#9761;","elianto","#3366ff99","-1","-1","1","+10","[]","0","0","2","","","","","","","",""
"call-function","57","493086","0.0-2.0-12.0","battery-v0.2","","""event"",""trial"",""time""
""fullscreenenter"",""1"",""1644""
""blur"",""1"",""1955""
""focus"",""2"",""5669""
""blur"",""18"",""185735""
""focus"",""19"",""186428""
","""event"",""trial"",""time""
""blur"",""1"",""1955""
""blur"",""18"",""185735""
","""event"",""trial"",""time""
""focus"",""2"",""5669""
""focus"",""19"",""186428""
","""event"",""trial"",""time""
""fullscreenenter"",""1"",""1644""
","
","","","","","","","","","","","","","","","","","","","","","","","","","","",""
"pit-instructions","58","541101","0.0-2.0-13.0","battery-v0.2","","""event"",""trial"",""time""
""fullscreenenter"",""1"",""1644""
""blur"",""1"",""1955""
""focus"",""2"",""5669""
""blur"",""18"",""185735""
""focus"",""19"",""186428""
","""event"",""trial"",""time""
""blur"",""1"",""1955""
""blur"",""18"",""185735""
","""event"",""trial"",""time""
""focus"",""2"",""5669""
""focus"",""19"",""186428""
","""event"",""trial"",""time""
""fullscreenenter"",""1"",""1644""
","
","","[{""page_index"":0,""viewing_time"":20005.70000000298},{""page_index"":1,""viewing_time"":7424.10000000149},{""page_index"":2,""viewing_time"":3528.5},{""page_index"":3,""viewing_time"":11319.10000000149},{""page_index"":4,""viewing_time"":5736.5}]","48014.10000000149","","","","","","","","","","","","","","","","","","","","","","","",""
"pit-trial","59","544462","0.0-2.0-14.0-0.0","battery-v0.2","","""event"",""trial"",""time""
""fullscreenenter"",""1"",""1644""
""blur"",""1"",""1955""
""focus"",""2"",""5669""
""blur"",""18"",""185735""
""focus"",""19"",""186428""
","""event"",""trial"",""time""
""blur"",""1"",""1955""
""blur"",""18"",""185735""
","""event"",""trial"",""time""
""focus"",""2"",""5669""
""focus"",""19"",""186428""
","""event"",""trial"",""time""
""fullscreenenter"",""1"",""1644""
","
","","","492.8999999985099","","","18","10996","5242","&#9826;","elianto","#f73b6a7A","-1"," ","0","-10","[1346.3999999985099]","1","0","3","","","","","","","",""
"pit-trial","60","547762","0.0-2.0-14.0-1.0","battery-v0.2","","""event"",""trial"",""time""
""fullscreenenter"",""1"",""1644""
""blur"",""1"",""1955""
""focus"",""2"",""5669""
""blur"",""18"",""185735""
""focus"",""19"",""186428""
","""event"",""trial"",""time""
""blur"",""1"",""1955""
""blur"",""18"",""185735""
","""event"",""trial"",""time""
""focus"",""2"",""5669""
""focus"",""19"",""186428""
","""event"",""trial"",""time""
""fullscreenenter"",""1"",""1644""
","
","","","439.30000000447035","","","18","10996","5242","&#9826;","elianto","#f73b6a7A","-1"," ","0","-10","[1290.8999999985099]","1","0","3","","","","","","","",""
"pit-trial","61","552624","0.0-2.0-14.0-2.0","battery-v0.2","","""event"",""trial"",""time""
""fullscreenenter"",""1"",""1644""
""blur"",""1"",""1955""
""focus"",""2"",""5669""
""blur"",""18"",""185735""
""focus"",""19"",""186428""
","""event"",""trial"",""time""
""blur"",""1"",""1955""
""blur"",""18"",""185735""
","""event"",""trial"",""time""
""focus"",""2"",""5669""
""focus"",""19"",""186428""
","""event"",""trial"",""time""
""fullscreenenter"",""1"",""1644""
","
","","","-1","","","18","10996","5242","&#9826;","elianto","#f73b6a7A","-1","-1","1","0","[]","0","0","3","","","","","","","",""
"pit-trial","62","557486","0.0-2.0-14.0-3.0","battery-v0.2","","""event"",""trial"",""time""
""fullscreenenter"",""1"",""1644""
""blur"",""1"",""1955""
""focus"",""2"",""5669""
""blur"",""18"",""185735""
""focus"",""19"",""186428""
","""event"",""trial"",""time""
""blur"",""1"",""1955""
""blur"",""18"",""185735""
","""event"",""trial"",""time""
""focus"",""2"",""5669""
""focus"",""19"",""186428""
","""event"",""trial"",""time""
""fullscreenenter"",""1"",""1644""
","
","","","-1","","","18","10996","5242","&#9826;","elianto","#f73b6a7A","-1","-1","1","-10","[]","0","0","3","","","","","","","",""
"pit-trial","63","562354","0.0-2.0-14.0-4.0","battery-v0.2","","""event"",""trial"",""time""
""fullscreenenter"",""1"",""1644""
""blur"",""1"",""1955""
""focus"",""2"",""5669""
""blur"",""18"",""185735""
""focus"",""19"",""186428""
","""event"",""trial"",""time""
""blur"",""1"",""1955""
""blur"",""18"",""185735""
","""event"",""trial"",""time""
""focus"",""2"",""5669""
""focus"",""19"",""186428""
","""event"",""trial"",""time""
""fullscreenenter"",""1"",""1644""
","
","","","-1","","","18","10996","5242","&#9826;","elianto","#f73b6a7A","-1","-1","1","0","[]","0","0","3","","","","","","","",""
"pit-trial","64","567222","0.0-2.0-14.1-0.1","battery-v0.2","","""event"",""trial"",""time""
""fullscreenenter"",""1"",""1644""
""blur"",""1"",""1955""
""focus"",""2"",""5669""
""blur"",""18"",""185735""
""focus"",""19"",""186428""
","""event"",""trial"",""time""
""blur"",""1"",""1955""
""blur"",""18"",""185735""
","""event"",""trial"",""time""
""focus"",""2"",""5669""
""focus"",""19"",""186428""
","""event"",""trial"",""time""
""fullscreenenter"",""1"",""1644""
","
","","","-1","","","18","10996","5242","&#9826;","elianto","#f73b6a7A","-1","-1","1","0","[]","0","0","3","","","","","","","",""
"pit-trial","65","572087","0.0-2.0-14.1-1.1","battery-v0.2","","""event"",""trial"",""time""
""fullscreenenter"",""1"",""1644""
""blur"",""1"",""1955""
""focus"",""2"",""5669""
""blur"",""18"",""185735""
""focus"",""19"",""186428""
","""event"",""trial"",""time""
""blur"",""1"",""1955""
""blur"",""18"",""185735""
","""event"",""trial"",""time""
""focus"",""2"",""5669""
""focus"",""19"",""186428""
","""event"",""trial"",""time""
""fullscreenenter"",""1"",""1644""
","
","","","-1","","","18","10996","5242","&#9826;","elianto","#f73b6a7A","-1","-1","1","0","[]","0","0","3","","","","","","","",""
"pit-trial","66","576939","0.0-2.0-14.1-2.1","battery-v0.2","","""event"",""trial"",""time""
""fullscreenenter"",""1"",""1644""
""blur"",""1"",""1955""
""focus"",""2"",""5669""
""blur"",""18"",""185735""
""focus"",""19"",""186428""
","""event"",""trial"",""time""
""blur"",""1"",""1955""
""blur"",""18"",""185735""
","""event"",""trial"",""time""
""focus"",""2"",""5669""
""focus"",""19"",""186428""
","""event"",""trial"",""time""
""fullscreenenter"",""1"",""1644""
","
","","","-1","","","18","10996","5242","&#9826;","elianto","#f73b6a7A","-1","-1","1","0","[]","0","0","3","","","","","","","",""
"pit-trial","67","581793","0.0-2.0-14.1-3.1","battery-v0.2","","""event"",""trial"",""time""
""fullscreenenter"",""1"",""1644""
""blur"",""1"",""1955""
""focus"",""2"",""5669""
""blur"",""18"",""185735""
""focus"",""19"",""186428""
","""event"",""trial"",""time""
""blur"",""1"",""1955""
""blur"",""18"",""185735""
","""event"",""trial"",""time""
""focus"",""2"",""5669""
""focus"",""19"",""186428""
","""event"",""trial"",""time""
""fullscreenenter"",""1"",""1644""
","
","","","-1","","","18","10996","5242","&#9826;","elianto","#f73b6a7A","-1","-1","1","-10","[]","0","0","3","","","","","","","",""
"pit-trial","68","586645","0.0-2.0-14.1-4.1","battery-v0.2","","""event"",""trial"",""time""
""fullscreenenter"",""1"",""1644""
""blur"",""1"",""1955""
""focus"",""2"",""5669""
""blur"",""18"",""185735""
""focus"",""19"",""186428""
","""event"",""trial"",""time""
""blur"",""1"",""1955""
""blur"",""18"",""185735""
","""event"",""trial"",""time""
""focus"",""2"",""5669""
""focus"",""19"",""186428""
","""event"",""trial"",""time""
""fullscreenenter"",""1"",""1644""
","
","","","-1","","","18","10996","5242","&#9826;","elianto","#f73b6a7A","-1","-1","1","0","[]","0","0","3","","","","","","","",""
"pit-trial","69","591499","0.0-2.0-14.2-0.2","battery-v0.2","","""event"",""trial"",""time""
""fullscreenenter"",""1"",""1644""
""blur"",""1"",""1955""
""focus"",""2"",""5669""
""blur"",""18"",""185735""
""focus"",""19"",""186428""
","""event"",""trial"",""time""
""blur"",""1"",""1955""
""blur"",""18"",""185735""
","""event"",""trial"",""time""
""focus"",""2"",""5669""
""focus"",""19"",""186428""
","""event"",""trial"",""time""
""fullscreenenter"",""1"",""1644""
","
","","","-1","","","18","10996","5242","&#9826;","elianto","#f73b6a7A","-1","-1","1","0","[]","0","0","3","","","","","","","",""
"pit-trial","70","596354","0.0-2.0-14.2-1.2","battery-v0.2","","""event"",""trial"",""time""
""fullscreenenter"",""1"",""1644""
""blur"",""1"",""1955""
""focus"",""2"",""5669""
""blur"",""18"",""185735""
""focus"",""19"",""186428""
","""event"",""trial"",""time""
""blur"",""1"",""1955""
""blur"",""18"",""185735""
","""event"",""trial"",""time""
""focus"",""2"",""5669""
""focus"",""19"",""186428""
","""event"",""trial"",""time""
""fullscreenenter"",""1"",""1644""
","
","","","-1","","","18","10996","5242","&#9826;","elianto","#f73b6a7A","-1","-1","1","0","[]","0","0","3","","","","","","","",""
"pit-trial","71","601207","0.0-2.0-14.2-2.2","battery-v0.2","","""event"",""trial"",""time""
""fullscreenenter"",""1"",""1644""
""blur"",""1"",""1955""
""focus"",""2"",""5669""
""blur"",""18"",""185735""
""focus"",""19"",""186428""
","""event"",""trial"",""time""
""blur"",""1"",""1955""
""blur"",""18"",""185735""
","""event"",""trial"",""time""
""focus"",""2"",""5669""
""focus"",""19"",""186428""
","""event"",""trial"",""time""
""fullscreenenter"",""1"",""1644""
","
","","","-1","","","18","10996","5242","&#9826;","elianto","#f73b6a7A","-1","-1","1","0","[]","0","0","3","","","","","","","",""
"pit-trial","72","606073","0.0-2.0-14.2-3.2","battery-v0.2","","""event"",""trial"",""time""
""fullscreenenter"",""1"",""1644""
""blur"",""1"",""1955""
""focus"",""2"",""5669""
""blur"",""18"",""185735""
""focus"",""19"",""186428""
","""event"",""trial"",""time""
""blur"",""1"",""1955""
""blur"",""18"",""185735""
","""event"",""trial"",""time""
""focus"",""2"",""5669""
""focus"",""19"",""186428""
","""event"",""trial"",""time""
""fullscreenenter"",""1"",""1644""
","
","","","-1","","","18","10996","5242","&#9826;","elianto","#f73b6a7A","-1","-1","1","-10","[]","0","0","3","","","","","","","",""
"pit-trial","73","610927","0.0-2.0-14.2-4.2","battery-v0.2","","""event"",""trial"",""time""
""fullscreenenter"",""1"",""1644""
""blur"",""1"",""1955""
""focus"",""2"",""5669""
""blur"",""18"",""185735""
""focus"",""19"",""186428""
","""event"",""trial"",""time""
""blur"",""1"",""1955""
""blur"",""18"",""185735""
","""event"",""trial"",""time""
""focus"",""2"",""5669""
""focus"",""19"",""186428""
","""event"",""trial"",""time""
""fullscreenenter"",""1"",""1644""
","
","","","-1","","","18","10996","5242","&#9826;","elianto","#f73b6a7A","-1","-1","1","0","[]","0","0","3","","","","","","","",""
"pit-trial","74","615795","0.0-2.0-14.3-0.3","battery-v0.2","","""event"",""trial"",""time""
""fullscreenenter"",""1"",""1644""
""blur"",""1"",""1955""
""focus"",""2"",""5669""
""blur"",""18"",""185735""
""focus"",""19"",""186428""
","""event"",""trial"",""time""
""blur"",""1"",""1955""
""blur"",""18"",""185735""
","""event"",""trial"",""time""
""focus"",""2"",""5669""
""focus"",""19"",""186428""
","""event"",""trial"",""time""
""fullscreenenter"",""1"",""1644""
","
","","","-1","","","18","10996","5242","&#9826;","elianto","#f73b6a7A","-1","-1","1","0","[]","0","0","3","","","","","","","",""
"pit-trial","75","620649","0.0-2.0-14.3-1.3","battery-v0.2","","""event"",""trial"",""time""
""fullscreenenter"",""1"",""1644""
""blur"",""1"",""1955""
""focus"",""2"",""5669""
""blur"",""18"",""185735""
""focus"",""19"",""186428""
","""event"",""trial"",""time""
""blur"",""1"",""1955""
""blur"",""18"",""185735""
","""event"",""trial"",""time""
""focus"",""2"",""5669""
""focus"",""19"",""186428""
","""event"",""trial"",""time""
""fullscreenenter"",""1"",""1644""
","
","","","-1","","","18","10996","5242","&#9826;","elianto","#f73b6a7A","-1","-1","1","0","[]","0","0","3","","","","","","","",""
"pit-trial","76","625501","0.0-2.0-14.3-2.3","battery-v0.2","","""event"",""trial"",""time""
""fullscreenenter"",""1"",""1644""
""blur"",""1"",""1955""
""focus"",""2"",""5669""
""blur"",""18"",""185735""
""focus"",""19"",""186428""
","""event"",""trial"",""time""
""blur"",""1"",""1955""
""blur"",""18"",""185735""
","""event"",""trial"",""time""
""focus"",""2"",""5669""
""focus"",""19"",""186428""
","""event"",""trial"",""time""
""fullscreenenter"",""1"",""1644""
","
","","","-1","","","18","10996","5242","&#9826;","elianto","#f73b6a7A","-1","-1","1","0","[]","0","0","3","","","","","","","",""
"pit-trial","77","630354","0.0-2.0-14.3-3.3","battery-v0.2","","""event"",""trial"",""time""
""fullscreenenter"",""1"",""1644""
""blur"",""1"",""1955""
""focus"",""2"",""5669""
""blur"",""18"",""185735""
""focus"",""19"",""186428""
","""event"",""trial"",""time""
""blur"",""1"",""1955""
""blur"",""18"",""185735""
","""event"",""trial"",""time""
""focus"",""2"",""5669""
""focus"",""19"",""186428""
","""event"",""trial"",""time""
""fullscreenenter"",""1"",""1644""
","
","","","-1","","","18","10996","5242","&#9826;","elianto","#f73b6a7A","-1","-1","1","-10","[]","0","0","3","","","","","","","",""
"pit-trial","78","635206","0.0-2.0-14.3-4.3","battery-v0.2","","""event"",""trial"",""time""
""fullscreenenter"",""1"",""1644""
""blur"",""1"",""1955""
""focus"",""2"",""5669""
""blur"",""18"",""185735""
""focus"",""19"",""186428""
","""event"",""trial"",""time""
""blur"",""1"",""1955""
""blur"",""18"",""185735""
","""event"",""trial"",""time""
""focus"",""2"",""5669""
""focus"",""19"",""186428""
","""event"",""trial"",""time""
""fullscreenenter"",""1"",""1644""
","
","","","-1","","","18","10996","5242","&#9826;","elianto","#f73b6a7A","-1","-1","1","0","[]","0","0","3","","","","","","","",""
"call-function","79","635207","0.0-2.0-15.0","battery-v0.2","","""event"",""trial"",""time""
""fullscreenenter"",""1"",""1644""
""blur"",""1"",""1955""
""focus"",""2"",""5669""
""blur"",""18"",""185735""
""focus"",""19"",""186428""
","""event"",""trial"",""time""
""blur"",""1"",""1955""
""blur"",""18"",""185735""
","""event"",""trial"",""time""
""focus"",""2"",""5669""
""focus"",""19"",""186428""
","""event"",""trial"",""time""
""fullscreenenter"",""1"",""1644""
","
","","","","","","","","","","","","","","","","","","","","","","","","","","",""
"pit-instructions","80","660509","0.0-2.0-16.0","battery-v0.2","","""event"",""trial"",""time""
""fullscreenenter"",""1"",""1644""
""blur"",""1"",""1955""
""focus"",""2"",""5669""
""blur"",""18"",""185735""
""focus"",""19"",""186428""
","""event"",""trial"",""time""
""blur"",""1"",""1955""
""blur"",""18"",""185735""
","""event"",""trial"",""time""
""focus"",""2"",""5669""
""focus"",""19"",""186428""
","""event"",""trial"",""time""
""fullscreenenter"",""1"",""1644""
","
","","[{""page_index"":0,""viewing_time"":6748.39999999851},{""page_index"":1,""viewing_time"":9152.89999999851},{""page_index"":2,""viewing_time"":4591.5},{""page_index"":3,""viewing_time"":4808.20000000298}]","25301.29999999702","","","","","","","","","","","","","","","","","","","","","","","",""
"pit-trial","81","663786","0.0-2.0-17.0-0.0","battery-v0.2","","""event"",""trial"",""time""
""fullscreenenter"",""1"",""1644""
""blur"",""1"",""1955""
""focus"",""2"",""5669""
""blur"",""18"",""185735""
""focus"",""19"",""186428""
","""event"",""trial"",""time""
""blur"",""1"",""1955""
""blur"",""18"",""185735""
","""event"",""trial"",""time""
""focus"",""2"",""5669""
""focus"",""19"",""186428""
","""event"",""trial"",""time""
""fullscreenenter"",""1"",""1644""
","
","","","412.59999999403954","","","18","10996","5242","&#9789;","elianto","#f73b6a7A"," "," ","1","0","[1263.5]","1","0","4","","","","","","","",""
"pit-trial","82","666961","0.0-2.0-17.0-1.0","battery-v0.2","","""event"",""trial"",""time""
""fullscreenenter"",""1"",""1644""
""blur"",""1"",""1955""
""focus"",""2"",""5669""
""blur"",""18"",""185735""
""focus"",""19"",""186428""
","""event"",""trial"",""time""
""blur"",""1"",""1955""
""blur"",""18"",""185735""
","""event"",""trial"",""time""
""focus"",""2"",""5669""
""focus"",""19"",""186428""
","""event"",""trial"",""time""
""fullscreenenter"",""1"",""1644""
","
","","","322.8999999985099","","","18","10996","5242","&#9789;","elianto","#f73b6a7A"," "," ","1","0","[1173.3999999985099]","1","0","4","","","","","","","",""
"pit-trial","83","670028","0.0-2.0-17.0-2.0","battery-v0.2","","""event"",""trial"",""time""
""fullscreenenter"",""1"",""1644""
""blur"",""1"",""1955""
""focus"",""2"",""5669""
""blur"",""18"",""185735""
""focus"",""19"",""186428""
","""event"",""trial"",""time""
""blur"",""1"",""1955""
""blur"",""18"",""185735""
","""event"",""trial"",""time""
""focus"",""2"",""5669""
""focus"",""19"",""186428""
","""event"",""trial"",""time""
""fullscreenenter"",""1"",""1644""
","
","","","208.70000000298023","","","18","10996","5242","&#9789;","elianto","#f73b6a7A"," "," ","1","0","[1061.1000000014901]","1","0","4","","","","","","","",""
"pit-trial","84","673176","0.0-2.0-17.0-3.0","battery-v0.2","","""event"",""trial"",""time""
""fullscreenenter"",""1"",""1644""
""blur"",""1"",""1955""
""focus"",""2"",""5669""
""blur"",""18"",""185735""
""focus"",""19"",""186428""
","""event"",""trial"",""time""
""blur"",""1"",""1955""
""blur"",""18"",""185735""
","""event"",""trial"",""time""
""focus"",""2"",""5669""
""focus"",""19"",""186428""
","""event"",""trial"",""time""
""fullscreenenter"",""1"",""1644""
","
","","","292.09999999403954","","","18","10996","5242","&#9789;","elianto","#f73b6a7A"," "," ","1","-10","[1144]","1","0","4","","","","","","","",""
"pit-trial","85","676402","0.0-2.0-17.0-4.0","battery-v0.2","","""event"",""trial"",""time""
""fullscreenenter"",""1"",""1644""
""blur"",""1"",""1955""
""focus"",""2"",""5669""
""blur"",""18"",""185735""
""focus"",""19"",""186428""
","""event"",""trial"",""time""
""blur"",""1"",""1955""
""blur"",""18"",""185735""
","""event"",""trial"",""time""
""focus"",""2"",""5669""
""focus"",""19"",""186428""
","""event"",""trial"",""time""
""fullscreenenter"",""1"",""1644""
","
","","","362.8999999985099","","","18","10996","5242","&#9789;","elianto","#f73b6a7A"," "," ","1","0","[1216.1000000014901]","1","0","4","","","","","","","",""
"pit-trial","86","679641","0.0-2.0-17.1-0.1","battery-v0.2","","""event"",""trial"",""time""
""fullscreenenter"",""1"",""1644""
""blur"",""1"",""1955""
""focus"",""2"",""5669""
""blur"",""18"",""185735""
""focus"",""19"",""186428""
","""event"",""trial"",""time""
""blur"",""1"",""1955""
""blur"",""18"",""185735""
","""event"",""trial"",""time""
""focus"",""2"",""5669""
""focus"",""19"",""186428""
","""event"",""trial"",""time""
""fullscreenenter"",""1"",""1644""
","
","","","377","","","18","10996","5242","&#9789;","elianto","#f73b6a7A"," "," ","1","0","[1230.3000000044703]","1","0","4","","","","","","","",""
"pit-trial","87","682921","0.0-2.0-17.1-1.1","battery-v0.2","","""event"",""trial"",""time""
""fullscreenenter"",""1"",""1644""
""blur"",""1"",""1955""
""focus"",""2"",""5669""
""blur"",""18"",""185735""
""focus"",""19"",""186428""
","""event"",""trial"",""time""
""blur"",""1"",""1955""
""blur"",""18"",""185735""
","""event"",""trial"",""time""
""focus"",""2"",""5669""
""focus"",""19"",""186428""
","""event"",""trial"",""time""
""fullscreenenter"",""1"",""1644""
","
","","","424.19999999552965","","","18","10996","5242","&#9789;","elianto","#f73b6a7A"," "," ","1","0","[1275]","1","0","4","","","","","","","",""
"pit-trial","88","686164","0.0-2.0-17.1-2.1","battery-v0.2","","""event"",""trial"",""time""
""fullscreenenter"",""1"",""1644""
""blur"",""1"",""1955""
""focus"",""2"",""5669""
""blur"",""18"",""185735""
""focus"",""19"",""186428""
","""event"",""trial"",""time""
""blur"",""1"",""1955""
""blur"",""18"",""185735""
","""event"",""trial"",""time""
""focus"",""2"",""5669""
""focus"",""19"",""186428""
","""event"",""trial"",""time""
""fullscreenenter"",""1"",""1644""
","
","","","388.19999999552965","","","18","10996","5242","&#9789;","elianto","#f73b6a7A"," "," ","1","0","[1240.3999999985099]","1","0","4","","","","","","","",""
"pit-trial","89","689384","0.0-2.0-17.1-3.1","battery-v0.2","","""event"",""trial"",""time""
""fullscreenenter"",""1"",""1644""
""blur"",""1"",""1955""
""focus"",""2"",""5669""
""blur"",""18"",""185735""
""focus"",""19"",""186428""
","""event"",""trial"",""time""
""blur"",""1"",""1955""
""blur"",""18"",""185735""
","""event"",""trial"",""time""
""focus"",""2"",""5669""
""focus"",""19"",""186428""
","""event"",""trial"",""time""
""fullscreenenter"",""1"",""1644""
","
","","","358.30000000447035","","","18","10996","5242","&#9789;","elianto","#f73b6a7A"," "," ","1","-10","[1209.6000000014901]","1","0","4","","","","","","","",""
"pit-trial","90","692402","0.0-2.0-17.1-4.1","battery-v0.2","","""event"",""trial"",""time""
""fullscreenenter"",""1"",""1644""
""blur"",""1"",""1955""
""focus"",""2"",""5669""
""blur"",""18"",""185735""
""focus"",""19"",""186428""
","""event"",""trial"",""time""
""blur"",""1"",""1955""
""blur"",""18"",""185735""
","""event"",""trial"",""time""
""focus"",""2"",""5669""
""focus"",""19"",""186428""
","""event"",""trial"",""time""
""fullscreenenter"",""1"",""1644""
","
","","","164.40000000596046","","","18","10996","5242","&#9789;","elianto","#f73b6a7A"," "," ","1","0","[1015.6000000014901]","1","0","4","","","","","","","",""
"pit-trial","91","695619","0.0-2.0-17.2-0.2","battery-v0.2","","""event"",""trial"",""time""
""fullscreenenter"",""1"",""1644""
""blur"",""1"",""1955""
""focus"",""2"",""5669""
""blur"",""18"",""185735""
""focus"",""19"",""186428""
","""event"",""trial"",""time""
""blur"",""1"",""1955""
""blur"",""18"",""185735""
","""event"",""trial"",""time""
""focus"",""2"",""5669""
""focus"",""19"",""186428""
","""event"",""trial"",""time""
""fullscreenenter"",""1"",""1644""
","
","","","362.80000000447035","","","18","10996","5242","&#9789;","elianto","#f73b6a7A"," "," ","1","0","[1213.7000000029802]","1","0","4","","","","","","","",""
"pit-trial","92","699064","0.0-2.0-17.2-1.2","battery-v0.2","","""event"",""trial"",""time""
""fullscreenenter"",""1"",""1644""
""blur"",""1"",""1955""
""focus"",""2"",""5669""
""blur"",""18"",""185735""
""focus"",""19"",""186428""
","""event"",""trial"",""time""
""blur"",""1"",""1955""
""blur"",""18"",""185735""
","""event"",""trial"",""time""
""focus"",""2"",""5669""
""focus"",""19"",""186428""
","""event"",""trial"",""time""
""fullscreenenter"",""1"",""1644""
","
","","","593.5","","","18","10996","5242","&#9789;","elianto","#f73b6a7A"," "," ","1","0","[1443.6999999955297]","1","0","4","","","","","","","",""
"pit-trial","93","702319","0.0-2.0-17.2-2.2","battery-v0.2","","""event"",""trial"",""time""
""fullscreenenter"",""1"",""1644""
""blur"",""1"",""1955""
""focus"",""2"",""5669""
""blur"",""18"",""185735""
""focus"",""19"",""186428""
","""event"",""trial"",""time""
""blur"",""1"",""1955""
""blur"",""18"",""185735""
","""event"",""trial"",""time""
""focus"",""2"",""5669""
""focus"",""19"",""186428""
","""event"",""trial"",""time""
""fullscreenenter"",""1"",""1644""
","
","","","402.59999999403954","","","18","10996","5242","&#9789;","elianto","#f73b6a7A"," "," ","1","0","[1253.8999999985099]","1","0","4","","","","","","","",""
"pit-trial","94","705561","0.0-2.0-17.2-3.2","battery-v0.2","","""event"",""trial"",""time""
""fullscreenenter"",""1"",""1644""
""blur"",""1"",""1955""
""focus"",""2"",""5669""
""blur"",""18"",""185735""
""focus"",""19"",""186428""
","""event"",""trial"",""time""
""blur"",""1"",""1955""
""blur"",""18"",""185735""
","""event"",""trial"",""time""
""focus"",""2"",""5669""
""focus"",""19"",""186428""
","""event"",""trial"",""time""
""fullscreenenter"",""1"",""1644""
","
","","","387.8999999985099","","","18","10996","5242","&#9789;","elianto","#f73b6a7A"," "," ","1","-10","[1239]","1","0","4","","","","","","","",""
"pit-trial","95","708863","0.0-2.0-17.2-4.2","battery-v0.2","","""event"",""trial"",""time""
""fullscreenenter"",""1"",""1644""
""blur"",""1"",""1955""
""focus"",""2"",""5669""
""blur"",""18"",""185735""
""focus"",""19"",""186428""
","""event"",""trial"",""time""
""blur"",""1"",""1955""
""blur"",""18"",""185735""
","""event"",""trial"",""time""
""focus"",""2"",""5669""
""focus"",""19"",""186428""
","""event"",""trial"",""time""
""fullscreenenter"",""1"",""1644""
","
","","","449.19999999552965","","","18","10996","5242","&#9789;","elianto","#f73b6a7A"," "," ","1","0","[1300.2999999970198]","1","0","4","","","","","","","",""
"pit-trial","96","712115","0.0-2.0-17.3-0.3","battery-v0.2","","""event"",""trial"",""time""
""fullscreenenter"",""1"",""1644""
""blur"",""1"",""1955""
""focus"",""2"",""5669""
""blur"",""18"",""185735""
""focus"",""19"",""186428""
","""event"",""trial"",""time""
""blur"",""1"",""1955""
""blur"",""18"",""185735""
","""event"",""trial"",""time""
""focus"",""2"",""5669""
""focus"",""19"",""186428""
","""event"",""trial"",""time""
""fullscreenenter"",""1"",""1644""
","
","","","399.1000000014901","","","18","10996","5242","&#9789;","elianto","#f73b6a7A"," "," ","1","0","[1249.8999999985099]","1","0","4","","","","","","","",""
"pit-trial","97","715336","0.0-2.0-17.3-1.3","battery-v0.2","","""event"",""trial"",""time""
""fullscreenenter"",""1"",""1644""
""blur"",""1"",""1955""
""focus"",""2"",""5669""
""blur"",""18"",""185735""
""focus"",""19"",""186428""
","""event"",""trial"",""time""
""blur"",""1"",""1955""
""blur"",""18"",""185735""
","""event"",""trial"",""time""
""focus"",""2"",""5669""
""focus"",""19"",""186428""
","""event"",""trial"",""time""
""fullscreenenter"",""1"",""1644""
","
","","","370","","","18","10996","5242","&#9789;","elianto","#f73b6a7A"," "," ","1","0","[1220.1000000014901]","1","0","4","","","","","","","",""
"pit-trial","98","718618","0.0-2.0-17.3-2.3","battery-v0.2","","""event"",""trial"",""time""
""fullscreenenter"",""1"",""1644""
""blur"",""1"",""1955""
""focus"",""2"",""5669""
""blur"",""18"",""185735""
""focus"",""19"",""186428""
","""event"",""trial"",""time""
""blur"",""1"",""1955""
""blur"",""18"",""185735""
","""event"",""trial"",""time""
""focus"",""2"",""5669""
""focus"",""19"",""186428""
","""event"",""trial"",""time""
""fullscreenenter"",""1"",""1644""
","
","","","428.20000000298023","","","18","10996","5242","&#9789;","elianto","#f73b6a7A"," "," ","1","0","[1278.5]","1","0","4","","","","","","","",""
"pit-trial","99","721852","0.0-2.0-17.3-3.3","battery-v0.2","","""event"",""trial"",""time""
""fullscreenenter"",""1"",""1644""
""blur"",""1"",""1955""
""focus"",""2"",""5669""
""blur"",""18"",""185735""
""focus"",""19"",""186428""
","""event"",""trial"",""time""
""blur"",""1"",""1955""
""blur"",""18"",""185735""
","""event"",""trial"",""time""
""focus"",""2"",""5669""
""focus"",""19"",""186428""
","""event"",""trial"",""time""
""fullscreenenter"",""1"",""1644""
","
","","","381.70000000298023","","","18","10996","5242","&#9789;","elianto","#f73b6a7A"," "," ","1","-10","[1231.8000000044703]","1","0","4","","","","","","","",""
"pit-trial","100","725065","0.0-2.0-17.3-4.3","battery-v0.2","","""event"",""trial"",""time""
""fullscreenenter"",""1"",""1644""
""blur"",""1"",""1955""
""focus"",""2"",""5669""
""blur"",""18"",""185735""
""focus"",""19"",""186428""
","""event"",""trial"",""time""
""blur"",""1"",""1955""
""blur"",""18"",""185735""
","""event"",""trial"",""time""
""focus"",""2"",""5669""
""focus"",""19"",""186428""
","""event"",""trial"",""time""
""fullscreenenter"",""1"",""1644""
","
","","","359.1000000014901","","","18","10996","5242","&#9789;","elianto","#f73b6a7A"," "," ","1","0","[1210.1000000014901]","1","0","4","","","","","","","",""
"call-function","101","725066","0.0-2.0-18.0","battery-v0.2","","""event"",""trial"",""time""
""fullscreenenter"",""1"",""1644""
""blur"",""1"",""1955""
""focus"",""2"",""5669""
""blur"",""18"",""185735""
""focus"",""19"",""186428""
","""event"",""trial"",""time""
""blur"",""1"",""1955""
""blur"",""18"",""185735""
","""event"",""trial"",""time""
""focus"",""2"",""5669""
""focus"",""19"",""186428""
","""event"",""trial"",""time""
""fullscreenenter"",""1"",""1644""
","
","","","","","","","","","","","","","","","","","","","","","","","","","","",""
"pit-instructions","102","799245","0.0-2.0-19.0","battery-v0.2","","""event"",""trial"",""time""
""fullscreenenter"",""1"",""1644""
""blur"",""1"",""1955""
""focus"",""2"",""5669""
""blur"",""18"",""185735""
""focus"",""19"",""186428""
","""event"",""trial"",""time""
""blur"",""1"",""1955""
""blur"",""18"",""185735""
","""event"",""trial"",""time""
""focus"",""2"",""5669""
""focus"",""19"",""186428""
","""event"",""trial"",""time""
""fullscreenenter"",""1"",""1644""
","
","","[{""page_index"":0,""viewing_time"":6410.30000000447},{""page_index"":1,""viewing_time"":6063.29999999702},{""page_index"":2,""viewing_time"":13712.60000000149},{""page_index"":3,""viewing_time"":7655.70000000298},{""page_index"":4,""viewing_time"":9239.89999999851},{""page_index"":5,""viewing_time"":10655.60000000149},{""page_index"":6,""viewing_time"":10320},{""page_index"":7,""viewing_time"":6104.19999999553},{""page_index"":8,""viewing_time"":4016.7000000029802}]","74178.60000000149","","","","","","","","","","","","","","","","","","","","","","","",""
"pit-comprehension","103","804213","0.0-2.0-20.0-0.0","battery-v0.2","","""event"",""trial"",""time""
""fullscreenenter"",""1"",""1644""
""blur"",""1"",""1955""
""focus"",""2"",""5669""
""blur"",""18"",""185735""
""focus"",""19"",""186428""
","""event"",""trial"",""time""
""blur"",""1"",""1955""
""blur"",""18"",""185735""
","""event"",""trial"",""time""
""focus"",""2"",""5669""
""focus"",""19"",""186428""
","""event"",""trial"",""time""
""fullscreenenter"",""1"",""1644""
","
","","","4965.79999999702","[""SPACE""]","0","18","10996","5242","","","","","","","","","","","","","","","","","","",""
"pit-instructions","104","807236","0.0-2.0-20.0-1.0","battery-v0.2","","""event"",""trial"",""time""
""fullscreenenter"",""1"",""1644""
""blur"",""1"",""1955""
""focus"",""2"",""5669""
""blur"",""18"",""185735""
""focus"",""19"",""186428""
","""event"",""trial"",""time""
""blur"",""1"",""1955""
""blur"",""18"",""185735""
","""event"",""trial"",""time""
""focus"",""2"",""5669""
""focus"",""19"",""186428""
","""event"",""trial"",""time""
""fullscreenenter"",""1"",""1644""
","
","","[{""page_index"":0,""viewing_time"":2991.1999999955297}]","2991.5","","","","","","","","","","","","","","","","","","","","","","","",""
"pit-comprehension","105","815708","0.0-2.0-21.0-0.0","battery-v0.2","","""event"",""trial"",""time""
""fullscreenenter"",""1"",""1644""
""blur"",""1"",""1955""
""focus"",""2"",""5669""
""blur"",""18"",""185735""
""focus"",""19"",""186428""
","""event"",""trial"",""time""
""blur"",""1"",""1955""
""blur"",""18"",""185735""
","""event"",""trial"",""time""
""focus"",""2"",""5669""
""focus"",""19"",""186428""
","""event"",""trial"",""time""
""fullscreenenter"",""1"",""1644""
","
","","","8470.10000000149","[""10""]","0","18","10996","5242","","","","","","","","","","","","","","","","","","",""
"pit-instructions","106","817524","0.0-2.0-21.0-1.0","battery-v0.2","","""event"",""trial"",""time""
""fullscreenenter"",""1"",""1644""
""blur"",""1"",""1955""
""focus"",""2"",""5669""
""blur"",""18"",""185735""
""focus"",""19"",""186428""
","""event"",""trial"",""time""
""blur"",""1"",""1955""
""blur"",""18"",""185735""
","""event"",""trial"",""time""
""focus"",""2"",""5669""
""focus"",""19"",""186428""
","""event"",""trial"",""time""
""fullscreenenter"",""1"",""1644""
","
","","[{""page_index"":0,""viewing_time"":1791}]","1791.2999999970198","","","","","","","","","","","","","","","","","","","","","","","",""
"pit-comprehension","107","824244","0.0-2.0-22.0-0.0","battery-v0.2","","""event"",""trial"",""time""
""fullscreenenter"",""1"",""1644""
""blur"",""1"",""1955""
""focus"",""2"",""5669""
""blur"",""18"",""185735""
""focus"",""19"",""186428""
","""event"",""trial"",""time""
""blur"",""1"",""1955""
""blur"",""18"",""185735""
","""event"",""trial"",""time""
""focus"",""2"",""5669""
""focus"",""19"",""186428""
","""event"",""trial"",""time""
""fullscreenenter"",""1"",""1644""
","
","","","6717.70000000298","[""0""]","0","18","10996","5242","","","","","","","","","","","","","","","","","","",""
"pit-instructions","108","826556","0.0-2.0-22.0-1.0","battery-v0.2","","""event"",""trial"",""time""
""fullscreenenter"",""1"",""1644""
""blur"",""1"",""1955""
""focus"",""2"",""5669""
""blur"",""18"",""185735""
""focus"",""19"",""186428""
","""event"",""trial"",""time""
""blur"",""1"",""1955""
""blur"",""18"",""185735""
","""event"",""trial"",""time""
""focus"",""2"",""5669""
""focus"",""19"",""186428""
","""event"",""trial"",""time""
""fullscreenenter"",""1"",""1644""
","
","","[{""page_index"":0,""viewing_time"":2286.10000000149}]","2286.3000000044703","","","","","","","","","","","","","","","","","","","","","","","",""
"pit-comprehension","109","834997","0.0-2.0-23.0-0.0","battery-v0.2","","""event"",""trial"",""time""
""fullscreenenter"",""1"",""1644""
""blur"",""1"",""1955""
""focus"",""2"",""5669""
""blur"",""18"",""185735""
""focus"",""19"",""186428""
","""event"",""trial"",""time""
""blur"",""1"",""1955""
""blur"",""18"",""185735""
","""event"",""trial"",""time""
""focus"",""2"",""5669""
""focus"",""19"",""186428""
","""event"",""trial"",""time""
""fullscreenenter"",""1"",""1644""
","
","","","8439.20000000298","[""True""]","0","18","10996","5242","","","","","","","","","","","","","","","","","","",""
"pit-instructions","110","837132","0.0-2.0-23.0-1.0","battery-v0.2","","""event"",""trial"",""time""
""fullscreenenter"",""1"",""1644""
""blur"",""1"",""1955""
""focus"",""2"",""5669""
""blur"",""18"",""185735""
""focus"",""19"",""186428""
","""event"",""trial"",""time""
""blur"",""1"",""1955""
""blur"",""18"",""185735""
","""event"",""trial"",""time""
""focus"",""2"",""5669""
""focus"",""19"",""186428""
","""event"",""trial"",""time""
""fullscreenenter"",""1"",""1644""
","
","","[{""page_index"":0,""viewing_time"":2109}]","2109.0999999940395","","","","","","","","","","","","","","","","","","","","","","","",""
"pit-comprehension","111","845620","0.0-2.0-24.0-0.0","battery-v0.2","","""event"",""trial"",""time""
""fullscreenenter"",""1"",""1644""
""blur"",""1"",""1955""
""focus"",""2"",""5669""
""blur"",""18"",""185735""
""focus"",""19"",""186428""
","""event"",""trial"",""time""
""blur"",""1"",""1955""
""blur"",""18"",""185735""
","""event"",""trial"",""time""
""focus"",""2"",""5669""
""focus"",""19"",""186428""
","""event"",""trial"",""time""
""fullscreenenter"",""1"",""1644""
","
","","","8486.89999999851","[""True""]","0","18","10996","5242","","","","","","","","","","","","","","","","","","",""
"pit-instructions","112","847523","0.0-2.0-24.0-1.0","battery-v0.2","","""event"",""trial"",""time""
""fullscreenenter"",""1"",""1644""
""blur"",""1"",""1955""
""focus"",""2"",""5669""
""blur"",""18"",""185735""
""focus"",""19"",""186428""
","""event"",""trial"",""time""
""blur"",""1"",""1955""
""blur"",""18"",""185735""
","""event"",""trial"",""time""
""focus"",""2"",""5669""
""focus"",""19"",""186428""
","""event"",""trial"",""time""
""fullscreenenter"",""1"",""1644""
","
","","[{""page_index"":0,""viewing_time"":1875.3999999985099}]","1875.6000000014901","","","","","","","","","","","","","","","","","","","","","","","",""
"pit-comprehension","113","853908","0.0-2.0-25.0-0.0","battery-v0.2","","""event"",""trial"",""time""
""fullscreenenter"",""1"",""1644""
""blur"",""1"",""1955""
""focus"",""2"",""5669""
""blur"",""18"",""185735""
""focus"",""19"",""186428""
","""event"",""trial"",""time""
""blur"",""1"",""1955""
""blur"",""18"",""185735""
","""event"",""trial"",""time""
""focus"",""2"",""5669""
""focus"",""19"",""186428""
","""event"",""trial"",""time""
""fullscreenenter"",""1"",""1644""
","
","","","6382.5","[""True""]","0","18","10996","5242","","","","","","","","","","","","","","","","","","",""
"pit-instructions","114","855683","0.0-2.0-25.0-1.0","battery-v0.2","","""event"",""trial"",""time""
""fullscreenenter"",""1"",""1644""
""blur"",""1"",""1955""
""focus"",""2"",""5669""
""blur"",""18"",""185735""
""focus"",""19"",""186428""
","""event"",""trial"",""time""
""blur"",""1"",""1955""
""blur"",""18"",""185735""
","""event"",""trial"",""time""
""focus"",""2"",""5669""
""focus"",""19"",""186428""
","""event"",""trial"",""time""
""fullscreenenter"",""1"",""1644""
","
","","[{""page_index"":0,""viewing_time"":1748.6000000014901}]","1748.9000000059605","","","","","","","","","","","","","","","","","","","","","","","",""
"pit-comprehension","115","860740","0.0-2.0-26.0-0.0","battery-v0.2","","""event"",""trial"",""time""
""fullscreenenter"",""1"",""1644""
""blur"",""1"",""1955""
""focus"",""2"",""5669""
""blur"",""18"",""185735""
""focus"",""19"",""186428""
","""event"",""trial"",""time""
""blur"",""1"",""1955""
""blur"",""18"",""185735""
","""event"",""trial"",""time""
""focus"",""2"",""5669""
""focus"",""19"",""186428""
","""event"",""trial"",""time""
""fullscreenenter"",""1"",""1644""
","
","","","5055","[""False""]","0","18","10996","5242","","","","","","","","","","","","","","","","","","",""
"pit-instructions","116","863019","0.0-2.0-26.0-1.0","battery-v0.2","","""event"",""trial"",""time""
""fullscreenenter"",""1"",""1644""
""blur"",""1"",""1955""
""focus"",""2"",""5669""
""blur"",""18"",""185735""
""focus"",""19"",""186428""
""blur"",""117"",""1190679""
""focus"",""117"",""1503508""
","""event"",""trial"",""time""
""blur"",""1"",""1955""
""blur"",""18"",""185735""
""blur"",""117"",""1190679""
","""event"",""trial"",""time""
""focus"",""2"",""5669""
""focus"",""19"",""186428""
""focus"",""117"",""1503508""
","""event"",""trial"",""time""
""fullscreenenter"",""1"",""1644""
","
","","[{""page_index"":0,""viewing_time"":2250.8000000044703}]","2251","","","","","","","","","","","","","","","","","","","","","","","",""
"pit-instructions","117","1509023","0.0-3.0","battery-v0.2","","""event"",""trial"",""time""
""fullscreenenter"",""1"",""1644""
""blur"",""1"",""1955""
""focus"",""2"",""5669""
""blur"",""18"",""185735""
""focus"",""19"",""186428""
""blur"",""117"",""1190679""
""focus"",""117"",""1503508""
","""event"",""trial"",""time""
""blur"",""1"",""1955""
""blur"",""18"",""185735""
""blur"",""117"",""1190679""
","""event"",""trial"",""time""
""focus"",""2"",""5669""
""focus"",""19"",""186428""
""focus"",""117"",""1503508""
","""event"",""trial"",""time""
""fullscreenenter"",""1"",""1644""
","
","","[{""page_index"":0,""viewing_time"":3959.1999999955297},{""page_index"":1,""viewing_time"":6136.20000000298},{""page_index"":2,""viewing_time"":635906.700000003}]","646002.299999997","","","","","","","","","","","","","","","","","","","","","","","",""
"pit-trial","118","1512652","0.0-4.0","battery-v0.2","","""event"",""trial"",""time""
""fullscreenenter"",""1"",""1644""
""blur"",""1"",""1955""
""focus"",""2"",""5669""
""blur"",""18"",""185735""
""focus"",""19"",""186428""
""blur"",""117"",""1190679""
""focus"",""117"",""1503508""
","""event"",""trial"",""time""
""blur"",""1"",""1955""
""blur"",""18"",""185735""
""blur"",""117"",""1190679""
","""event"",""trial"",""time""
""focus"",""2"",""5669""
""focus"",""19"",""186428""
""focus"",""117"",""1503508""
","""event"",""trial"",""time""
""fullscreenenter"",""1"",""1644""
","
","","","774.8999999985099","","","18","10996","5242","&#9733;","elianto","#3366ff99","-1"," ","0","0","[1625.6999999955297]","1","1","","","10996","1","2","2","win","no-go","0"
"pit-trial","119","1516313","0.0-5.0","battery-v0.2","","""event"",""trial"",""time""
""fullscreenenter"",""1"",""1644""
""blur"",""1"",""1955""
""focus"",""2"",""5669""
""blur"",""18"",""185735""
""focus"",""19"",""186428""
""blur"",""117"",""1190679""
""focus"",""117"",""1503508""
","""event"",""trial"",""time""
""blur"",""1"",""1955""
""blur"",""18"",""185735""
""blur"",""117"",""1190679""
","""event"",""trial"",""time""
""focus"",""2"",""5669""
""focus"",""19"",""186428""
""focus"",""117"",""1503508""
","""event"",""trial"",""time""
""fullscreenenter"",""1"",""1644""
","
","","","808.5999999940395","","","18","10996","5242","&#9752;","elianto","#f73b6a7A"," "," ","1","0","[1659.5]","1","1","","","10996","2","3","3","lose","go","0"
"pit-trial","120","1519903","0.0-6.0","battery-v0.2","","""event"",""trial"",""time""
""fullscreenenter"",""1"",""1644""
""blur"",""1"",""1955""
""focus"",""2"",""5669""
""blur"",""18"",""185735""
""focus"",""19"",""186428""
""blur"",""117"",""1190679""
""focus"",""117"",""1503508""
","""event"",""trial"",""time""
""blur"",""1"",""1955""
""blur"",""18"",""185735""
""blur"",""117"",""1190679""
","""event"",""trial"",""time""
""focus"",""2"",""5669""
""focus"",""19"",""186428""
""focus"",""117"",""1503508""
","""event"",""trial"",""time""
""fullscreenenter"",""1"",""1644""
","
","","","736.7000000029802","","","18","10996","5242","&#9730;","elianto","#3366ff99"," "," ","1","+10","[1587]","1","1","","","10996","3","1","1","win","go","0"
"pit-trial","121","1523372","0.0-7.0","battery-v0.2","","""event"",""trial"",""time""
""fullscreenenter"",""1"",""1644""
""blur"",""1"",""1955""
""focus"",""2"",""5669""
""blur"",""18"",""185735""
""focus"",""19"",""186428""
""blur"",""117"",""1190679""
""focus"",""117"",""1503508""
","""event"",""trial"",""time""
""blur"",""1"",""1955""
""blur"",""18"",""185735""
""blur"",""117"",""1190679""
","""event"",""trial"",""time""
""focus"",""2"",""5669""
""focus"",""19"",""186428""
""focus"",""117"",""1503508""
","""event"",""trial"",""time""
""fullscreenenter"",""1"",""1644""
","
","","","616.2999999970198","","","18","10996","5242","&#9728;","elianto","#f73b6a7A","-1"," ","0","-10","[1466.8999999985099]","1","1","","","10996","4","0","4","lose","no-go","0"
"pit-trial","122","1527478","0.0-8.0","battery-v0.2","","""event"",""trial"",""time""
""fullscreenenter"",""1"",""1644""
""blur"",""1"",""1955""
""focus"",""2"",""5669""
""blur"",""18"",""185735""
""focus"",""19"",""186428""
""blur"",""117"",""1190679""
""focus"",""117"",""1503508""
","""event"",""trial"",""time""
""blur"",""1"",""1955""
""blur"",""18"",""185735""
""blur"",""117"",""1190679""
","""event"",""trial"",""time""
""focus"",""2"",""5669""
""focus"",""19"",""186428""
""focus"",""117"",""1503508""
","""event"",""trial"",""time""
""fullscreenenter"",""1"",""1644""
","
","","","1253.3999999985099","","","18","10996","5242","&#9730;","elianto","#3366ff99"," "," ","1","+10","[2104.2000000029802]","1","1","","","10996","5","1","1","win","go","0"
"pit-trial","123","1532331","0.0-9.0","battery-v0.2","","""event"",""trial"",""time""
""fullscreenenter"",""1"",""1644""
""blur"",""1"",""1955""
""focus"",""2"",""5669""
""blur"",""18"",""185735""
""focus"",""19"",""186428""
""blur"",""117"",""1190679""
""focus"",""117"",""1503508""
","""event"",""trial"",""time""
""blur"",""1"",""1955""
""blur"",""18"",""185735""
""blur"",""117"",""1190679""
","""event"",""trial"",""time""
""focus"",""2"",""5669""
""focus"",""19"",""186428""
""focus"",""117"",""1503508""
","""event"",""trial"",""time""
""fullscreenenter"",""1"",""1644""
","
","","","-1","","","18","10996","5242","&#9733;","elianto","#3366ff99","-1","-1","1","0","[]","0","1","","","10996","6","2","2","win","no-go","1"
"pit-trial","124","1537183","0.0-10.0","battery-v0.2","","""event"",""trial"",""time""
""fullscreenenter"",""1"",""1644""
""blur"",""1"",""1955""
""focus"",""2"",""5669""
""blur"",""18"",""185735""
""focus"",""19"",""186428""
""blur"",""117"",""1190679""
""focus"",""117"",""1503508""
","""event"",""trial"",""time""
""blur"",""1"",""1955""
""blur"",""18"",""185735""
""blur"",""117"",""1190679""
","""event"",""trial"",""time""
""focus"",""2"",""5669""
""focus"",""19"",""186428""
""focus"",""117"",""1503508""
","""event"",""trial"",""time""
""fullscreenenter"",""1"",""1644""
","
","","","-1","","","18","10996","5242","&#9752;","elianto","#f73b6a7A"," ","-1","0","-10","[]","0","1","","","10996","7","3","3","lose","go","0"
"pit-trial","125","1542036","0.0-11.0","battery-v0.2","","""event"",""trial"",""time""
""fullscreenenter"",""1"",""1644""
""blur"",""1"",""1955""
""focus"",""2"",""5669""
""blur"",""18"",""185735""
""focus"",""19"",""186428""
""blur"",""117"",""1190679""
""focus"",""117"",""1503508""
","""event"",""trial"",""time""
""blur"",""1"",""1955""
""blur"",""18"",""185735""
""blur"",""117"",""1190679""
","""event"",""trial"",""time""
""focus"",""2"",""5669""
""focus"",""19"",""186428""
""focus"",""117"",""1503508""
","""event"",""trial"",""time""
""fullscreenenter"",""1"",""1644""
","
","","","-1","","","18","10996","5242","&#9728;","elianto","#f73b6a7A","-1","-1","1","0","[]","0","1","","","10996","8","0","4","lose","no-go","0"
"pit-trial","126","1545939","0.0-12.0","battery-v0.2","","""event"",""trial"",""time""
""fullscreenenter"",""1"",""1644""
""blur"",""1"",""1955""
""focus"",""2"",""5669""
""blur"",""18"",""185735""
""focus"",""19"",""186428""
""blur"",""117"",""1190679""
""focus"",""117"",""1503508""
","""event"",""trial"",""time""
""blur"",""1"",""1955""
""blur"",""18"",""185735""
""blur"",""117"",""1190679""
","""event"",""trial"",""time""
""focus"",""2"",""5669""
""focus"",""19"",""186428""
""focus"",""117"",""1503508""
","""event"",""trial"",""time""
""fullscreenenter"",""1"",""1644""
","
","","","1051.1000000014901","","","18","10996","5242","&#9752;","elianto","#f73b6a7A"," "," ","1","0","[1901.1999999955297]","1","1","","","10996","9","3","3","lose","go","0"
"pit-trial","127","1550791","0.0-13.0","battery-v0.2","","""event"",""trial"",""time""
""fullscreenenter"",""1"",""1644""
""blur"",""1"",""1955""
""focus"",""2"",""5669""
""blur"",""18"",""185735""
""focus"",""19"",""186428""
""blur"",""117"",""1190679""
""focus"",""117"",""1503508""
","""event"",""trial"",""time""
""blur"",""1"",""1955""
""blur"",""18"",""185735""
""blur"",""117"",""1190679""
","""event"",""trial"",""time""
""focus"",""2"",""5669""
""focus"",""19"",""186428""
""focus"",""117"",""1503508""
","""event"",""trial"",""time""
""fullscreenenter"",""1"",""1644""
","
","","","-1","","","18","10996","5242","&#9728;","elianto","#f73b6a7A","-1","-1","1","0","[]","0","1","","","10996","10","0","4","lose","no-go","0"
"pit-trial","128","1555048","0.0-14.0","battery-v0.2","","""event"",""trial"",""time""
""fullscreenenter"",""1"",""1644""
""blur"",""1"",""1955""
""focus"",""2"",""5669""
""blur"",""18"",""185735""
""focus"",""19"",""186428""
""blur"",""117"",""1190679""
""focus"",""117"",""1503508""
","""event"",""trial"",""time""
""blur"",""1"",""1955""
""blur"",""18"",""185735""
""blur"",""117"",""1190679""
","""event"",""trial"",""time""
""focus"",""2"",""5669""
""focus"",""19"",""186428""
""focus"",""117"",""1503508""
","""event"",""trial"",""time""
""fullscreenenter"",""1"",""1644""
","
","","","1404.0999999940395","","","18","10996","5242","&#9730;","elianto","#3366ff99"," "," ","1","+10","[2255.10000000149]","1","1","","","10996","11","1","1","win","go","0"
"pit-trial","129","1559901","0.0-15.0","battery-v0.2","","""event"",""trial"",""time""
""fullscreenenter"",""1"",""1644""
""blur"",""1"",""1955""
""focus"",""2"",""5669""
""blur"",""18"",""185735""
""focus"",""19"",""186428""
""blur"",""117"",""1190679""
""focus"",""117"",""1503508""
","""event"",""trial"",""time""
""blur"",""1"",""1955""
""blur"",""18"",""185735""
""blur"",""117"",""1190679""
","""event"",""trial"",""time""
""focus"",""2"",""5669""
""focus"",""19"",""186428""
""focus"",""117"",""1503508""
","""event"",""trial"",""time""
""fullscreenenter"",""1"",""1644""
","
","","","-1","","","18","10996","5242","&#9733;","elianto","#3366ff99","-1","-1","1","+10","[]","0","1","","","10996","12","2","2","win","no-go","0"
"pit-trial","130","1563410","0.0-16.0","battery-v0.2","","""event"",""trial"",""time""
""fullscreenenter"",""1"",""1644""
""blur"",""1"",""1955""
""focus"",""2"",""5669""
""blur"",""18"",""185735""
""focus"",""19"",""186428""
""blur"",""117"",""1190679""
""focus"",""117"",""1503508""
","""event"",""trial"",""time""
""blur"",""1"",""1955""
""blur"",""18"",""185735""
""blur"",""117"",""1190679""
","""event"",""trial"",""time""
""focus"",""2"",""5669""
""focus"",""19"",""186428""
""focus"",""117"",""1503508""
","""event"",""trial"",""time""
""fullscreenenter"",""1"",""1644""
","
","","","655.6999999955297","","","18","10996","5242","&#9752;","elianto","#f73b6a7A"," "," ","1","-10","[1506.6999999955297]","1","1","","","10996","13","3","3","lose","go","1"
"pit-trial","131","1567181","0.0-17.0","battery-v0.2","","""event"",""trial"",""time""
""fullscreenenter"",""1"",""1644""
""blur"",""1"",""1955""
""focus"",""2"",""5669""
""blur"",""18"",""185735""
""focus"",""19"",""186428""
""blur"",""117"",""1190679""
""focus"",""117"",""1503508""
","""event"",""trial"",""time""
""blur"",""1"",""1955""
""blur"",""18"",""185735""
""blur"",""117"",""1190679""
","""event"",""trial"",""time""
""focus"",""2"",""5669""
""focus"",""19"",""186428""
""focus"",""117"",""1503508""
","""event"",""trial"",""time""
""fullscreenenter"",""1"",""1644""
","
","","","918.9000000059605","","","18","10996","5242","&#9730;","elianto","#3366ff99"," "," ","1","0","[1769.2000000029802]","1","1","","","10996","14","1","1","win","go","1"
"pit-trial","132","1572036","0.0-18.0","battery-v0.2","","""event"",""trial"",""time""
""fullscreenenter"",""1"",""1644""
""blur"",""1"",""1955""
""focus"",""2"",""5669""
""blur"",""18"",""185735""
""focus"",""19"",""186428""
""blur"",""117"",""1190679""
""focus"",""117"",""1503508""
","""event"",""trial"",""time""
""blur"",""1"",""1955""
""blur"",""18"",""185735""
""blur"",""117"",""1190679""
","""event"",""trial"",""time""
""focus"",""2"",""5669""
""focus"",""19"",""186428""
""focus"",""117"",""1503508""
","""event"",""trial"",""time""
""fullscreenenter"",""1"",""1644""
","
","","","-1","","","18","10996","5242","&#9728;","elianto","#f73b6a7A","-1","-1","1","0","[]","0","1","","","10996","15","0","4","lose","no-go","0"
"pit-trial","133","1575564","0.0-19.0","battery-v0.2","","""event"",""trial"",""time""
""fullscreenenter"",""1"",""1644""
""blur"",""1"",""1955""
""focus"",""2"",""5669""
""blur"",""18"",""185735""
""focus"",""19"",""186428""
""blur"",""117"",""1190679""
""focus"",""117"",""1503508""
","""event"",""trial"",""time""
""blur"",""1"",""1955""
""blur"",""18"",""185735""
""blur"",""117"",""1190679""
","""event"",""trial"",""time""
""focus"",""2"",""5669""
""focus"",""19"",""186428""
""focus"",""117"",""1503508""
","""event"",""trial"",""time""
""fullscreenenter"",""1"",""1644""
","
","","","674.9000000059605","","","18","10996","5242","&#9733;","elianto","#3366ff99","-1"," ","0","+10","[1525.7000000029802]","1","1","","","10996","16","2","2","win","no-go","1"
"pit-trial","134","1579140","0.0-20.0","battery-v0.2","","""event"",""trial"",""time""
""fullscreenenter"",""1"",""1644""
""blur"",""1"",""1955""
""focus"",""2"",""5669""
""blur"",""18"",""185735""
""focus"",""19"",""186428""
""blur"",""117"",""1190679""
""focus"",""117"",""1503508""
","""event"",""trial"",""time""
""blur"",""1"",""1955""
""blur"",""18"",""185735""
""blur"",""117"",""1190679""
","""event"",""trial"",""time""
""focus"",""2"",""5669""
""focus"",""19"",""186428""
""focus"",""117"",""1503508""
","""event"",""trial"",""time""
""fullscreenenter"",""1"",""1644""
","
","","","723.7999999970198","","","18","10996","5242","&#9730;","elianto","#3366ff99"," "," ","1","+10","[1573.6999999955297]","1","1","","","10996","17","1","1","win","go","0"
"pit-trial","135","1583164","0.0-21.0","battery-v0.2","","""event"",""trial"",""time""
""fullscreenenter"",""1"",""1644""
""blur"",""1"",""1955""
""focus"",""2"",""5669""
""blur"",""18"",""185735""
""focus"",""19"",""186428""
""blur"",""117"",""1190679""
""focus"",""117"",""1503508""
","""event"",""trial"",""time""
""blur"",""1"",""1955""
""blur"",""18"",""185735""
""blur"",""117"",""1190679""
","""event"",""trial"",""time""
""focus"",""2"",""5669""
""focus"",""19"",""186428""
""focus"",""117"",""1503508""
","""event"",""trial"",""time""
""fullscreenenter"",""1"",""1644""
","
","","","1172.2000000029802","","","18","10996","5242","&#9733;","elianto","#3366ff99","-1"," ","0","0","[2022.8000000044703]","1","1","","","10996","18","2","2","win","no-go","0"
"pit-trial","136","1587621","0.0-22.0","battery-v0.2","","""event"",""trial"",""time""
""fullscreenenter"",""1"",""1644""
""blur"",""1"",""1955""
""focus"",""2"",""5669""
""blur"",""18"",""185735""
""focus"",""19"",""186428""
""blur"",""117"",""1190679""
""focus"",""117"",""1503508""
","""event"",""trial"",""time""
""blur"",""1"",""1955""
""blur"",""18"",""185735""
""blur"",""117"",""1190679""
","""event"",""trial"",""time""
""focus"",""2"",""5669""
""focus"",""19"",""186428""
""focus"",""117"",""1503508""
","""event"",""trial"",""time""
""fullscreenenter"",""1"",""1644""
","
","","","1604.6000000014901","","","18","10996","5242","&#9752;","elianto","#f73b6a7A"," "," ","1","0","[2455]","1","1","","","10996","19","3","3","lose","go","0"
"pit-trial","137","1592474","0.0-23.0","battery-v0.2","","""event"",""trial"",""time""
""fullscreenenter"",""1"",""1644""
""blur"",""1"",""1955""
""focus"",""2"",""5669""
""blur"",""18"",""185735""
""focus"",""19"",""186428""
""blur"",""117"",""1190679""
""focus"",""117"",""1503508""
","""event"",""trial"",""time""
""blur"",""1"",""1955""
""blur"",""18"",""185735""
""blur"",""117"",""1190679""
","""event"",""trial"",""time""
""focus"",""2"",""5669""
""focus"",""19"",""186428""
""focus"",""117"",""1503508""
","""event"",""trial"",""time""
""fullscreenenter"",""1"",""1644""
","
","","","-1","","","18","10996","5242","&#9728;","elianto","#f73b6a7A","-1","-1","1","0","[]","0","1","","","10996","20","0","4","lose","no-go","0"
"pit-instructions","138","1619415","0.0-24.0","battery-v0.2","","""event"",""trial"",""time""
""fullscreenenter"",""1"",""1644""
""blur"",""1"",""1955""
""focus"",""2"",""5669""
""blur"",""18"",""185735""
""focus"",""19"",""186428""
""blur"",""117"",""1190679""
""focus"",""117"",""1503508""
","""event"",""trial"",""time""
""blur"",""1"",""1955""
""blur"",""18"",""185735""
""blur"",""117"",""1190679""
","""event"",""trial"",""time""
""focus"",""2"",""5669""
""focus"",""19"",""186428""
""focus"",""117"",""1503508""
","""event"",""trial"",""time""
""fullscreenenter"",""1"",""1644""
","
","","[{""page_index"":0,""viewing_time"":20212.70000000298},{""page_index"":1,""viewing_time"":6727.69999999553}]","26940.60000000149","","","","","","","","","","","","","","","","","","","","","","","",""
"pit-trial","139","1623017","0.0-25.0","battery-v0.2","","""event"",""trial"",""time""
""fullscreenenter"",""1"",""1644""
""blur"",""1"",""1955""
""focus"",""2"",""5669""
""blur"",""18"",""185735""
""focus"",""19"",""186428""
""blur"",""117"",""1190679""
""focus"",""117"",""1503508""
","""event"",""trial"",""time""
""blur"",""1"",""1955""
""blur"",""18"",""185735""
""blur"",""117"",""1190679""
","""event"",""trial"",""time""
""focus"",""2"",""5669""
""focus"",""19"",""186428""
""focus"",""117"",""1503508""
","""event"",""trial"",""time""
""fullscreenenter"",""1"",""1644""
","
","","","737.2000000029802","","","18","10996","5242","t","elianto","#f73b6a7A","-1"," ","0","-10","[1589.3999999985099]","1","2","","","10996","21","2","4","lose","no-go","0"
"pit-trial","140","1626590","0.0-26.0","battery-v0.2","","""event"",""trial"",""time""
""fullscreenenter"",""1"",""1644""
""blur"",""1"",""1955""
""focus"",""2"",""5669""
""blur"",""18"",""185735""
""focus"",""19"",""186428""
""blur"",""117"",""1190679""
""focus"",""117"",""1503508""
","""event"",""trial"",""time""
""blur"",""1"",""1955""
""blur"",""18"",""185735""
""blur"",""117"",""1190679""
","""event"",""trial"",""time""
""focus"",""2"",""5669""
""focus"",""19"",""186428""
""focus"",""117"",""1503508""
","""event"",""trial"",""time""
""fullscreenenter"",""1"",""1644""
","
","","","709.7999999970198","","","18","10996","5242","b","elianto","#f73b6a7A"," "," ","1","0","[1563.2999999970198]","1","2","","","10996","22","3","3","lose","go","0"
"pit-trial","141","1630018","0.0-27.0","battery-v0.2","","""event"",""trial"",""time""
""fullscreenenter"",""1"",""1644""
""blur"",""1"",""1955""
""focus"",""2"",""5669""
""blur"",""18"",""185735""
""focus"",""19"",""186428""
""blur"",""117"",""1190679""
""focus"",""117"",""1503508""
","""event"",""trial"",""time""
""blur"",""1"",""1955""
""blur"",""18"",""185735""
""blur"",""117"",""1190679""
","""event"",""trial"",""time""
""focus"",""2"",""5669""
""focus"",""19"",""186428""
""focus"",""117"",""1503508""
","""event"",""trial"",""time""
""fullscreenenter"",""1"",""1644""
","
","","","568.3000000044703","","","18","10996","5242","f","elianto","#3366ff99"," "," ","1","+10","[1418.8999999985099]","1","2","","","10996","23","1","1","win","go","0"
"pit-trial","142","1633503","0.0-28.0","battery-v0.2","","""event"",""trial"",""time""
""fullscreenenter"",""1"",""1644""
""blur"",""1"",""1955""
""focus"",""2"",""5669""
""blur"",""18"",""185735""
""focus"",""19"",""186428""
""blur"",""117"",""1190679""
""focus"",""117"",""1503508""
","""event"",""trial"",""time""
""blur"",""1"",""1955""
""blur"",""18"",""185735""
""blur"",""117"",""1190679""
","""event"",""trial"",""time""
""focus"",""2"",""5669""
""focus"",""19"",""186428""
""focus"",""117"",""1503508""
","""event"",""trial"",""time""
""fullscreenenter"",""1"",""1644""
","
","","","631.3000000044703","","","18","10996","5242","n","elianto","#f73b6a7A","-1"," ","0","-10","[1482.4000000059605]","1","2","","","10996","24","0","4","lose","no-go","0"
"pit-trial","143","1638366","0.0-29.0","battery-v0.2","","""event"",""trial"",""time""
""fullscreenenter"",""1"",""1644""
""blur"",""1"",""1955""
""focus"",""2"",""5669""
""blur"",""18"",""185735""
""focus"",""19"",""186428""
""blur"",""117"",""1190679""
""focus"",""117"",""1503508""
","""event"",""trial"",""time""
""blur"",""1"",""1955""
""blur"",""18"",""185735""
""blur"",""117"",""1190679""
","""event"",""trial"",""time""
""focus"",""2"",""5669""
""focus"",""19"",""186428""
""focus"",""117"",""1503508""
","""event"",""trial"",""time""
""fullscreenenter"",""1"",""1644""
","
","","","-1","","","18","10996","5242","n","elianto","#f73b6a7A","-1","-1","1","0","[]","0","2","","","10996","25","0","4","lose","no-go","0"
"pit-trial","144","1641897","0.0-30.0","battery-v0.2","","""event"",""trial"",""time""
""fullscreenenter"",""1"",""1644""
""blur"",""1"",""1955""
""focus"",""2"",""5669""
""blur"",""18"",""185735""
""focus"",""19"",""186428""
""blur"",""117"",""1190679""
""focus"",""117"",""1503508""
","""event"",""trial"",""time""
""blur"",""1"",""1955""
""blur"",""18"",""185735""
""blur"",""117"",""1190679""
","""event"",""trial"",""time""
""focus"",""2"",""5669""
""focus"",""19"",""186428""
""focus"",""117"",""1503508""
","""event"",""trial"",""time""
""fullscreenenter"",""1"",""1644""
","
","","","664.3000000044703","","","18","10996","5242","f","elianto","#3366ff99"," "," ","1","+10","[1515.2000000029802]","1","2","","","10996","26","1","1","win","go","0"
"pit-trial","145","1646767","0.0-31.0","battery-v0.2","","""event"",""trial"",""time""
""fullscreenenter"",""1"",""1644""
""blur"",""1"",""1955""
""focus"",""2"",""5669""
""blur"",""18"",""185735""
""focus"",""19"",""186428""
""blur"",""117"",""1190679""
""focus"",""117"",""1503508""
","""event"",""trial"",""time""
""blur"",""1"",""1955""
""blur"",""18"",""185735""
""blur"",""117"",""1190679""
","""event"",""trial"",""time""
""focus"",""2"",""5669""
""focus"",""19"",""186428""
""focus"",""117"",""1503508""
","""event"",""trial"",""time""
""fullscreenenter"",""1"",""1644""
","
","","","-1","","","18","10996","5242","t","elianto","#f73b6a7A","-1","-1","1","0","[]","0","2","","","10996","27","2","4","lose","no-go","0"
"pit-trial","146","1651621","0.0-32.0","battery-v0.2","","""event"",""trial"",""time""
""fullscreenenter"",""1"",""1644""
""blur"",""1"",""1955""
""focus"",""2"",""5669""
""blur"",""18"",""185735""
""focus"",""19"",""186428""
""blur"",""117"",""1190679""
""focus"",""117"",""1503508""
","""event"",""trial"",""time""
""blur"",""1"",""1955""
""blur"",""18"",""185735""
""blur"",""117"",""1190679""
","""event"",""trial"",""time""
""focus"",""2"",""5669""
""focus"",""19"",""186428""
""focus"",""117"",""1503508""
","""event"",""trial"",""time""
""fullscreenenter"",""1"",""1644""
","
","","","-1","","","18","10996","5242","b","elianto","#f73b6a7A"," ","-1","0","-10","[]","0","2","","","10996","28","3","3","lose","go","0"
"pit-trial","147","1655245","0.0-33.0","battery-v0.2","","""event"",""trial"",""time""
""fullscreenenter"",""1"",""1644""
""blur"",""1"",""1955""
""focus"",""2"",""5669""
""blur"",""18"",""185735""
""focus"",""19"",""186428""
""blur"",""117"",""1190679""
""focus"",""117"",""1503508""
","""event"",""trial"",""time""
""blur"",""1"",""1955""
""blur"",""18"",""185735""
""blur"",""117"",""1190679""
","""event"",""trial"",""time""
""focus"",""2"",""5669""
""focus"",""19"",""186428""
""focus"",""117"",""1503508""
","""event"",""trial"",""time""
""fullscreenenter"",""1"",""1644""
","
","","","771.3999999985099","","","18","10996","5242","f","elianto","#3366ff99"," "," ","1","+10","[1622.7000000029802]","1","2","","","10996","29","1","1","win","go","0"
"pit-trial","148","1660099","0.0-34.0","battery-v0.2","","""event"",""trial"",""time""
""fullscreenenter"",""1"",""1644""
""blur"",""1"",""1955""
""focus"",""2"",""5669""
""blur"",""18"",""185735""
""focus"",""19"",""186428""
""blur"",""117"",""1190679""
""focus"",""117"",""1503508""
","""event"",""trial"",""time""
""blur"",""1"",""1955""
""blur"",""18"",""185735""
""blur"",""117"",""1190679""
","""event"",""trial"",""time""
""focus"",""2"",""5669""
""focus"",""19"",""186428""
""focus"",""117"",""1503508""
","""event"",""trial"",""time""
""fullscreenenter"",""1"",""1644""
","
","","","-1","","","18","10996","5242","t","elianto","#f73b6a7A","-1","-1","1","0","[]","0","2","","","10996","30","2","4","lose","no-go","0"
"pit-trial","149","1664957","0.0-35.0","battery-v0.2","","""event"",""trial"",""time""
""fullscreenenter"",""1"",""1644""
""blur"",""1"",""1955""
""focus"",""2"",""5669""
""blur"",""18"",""185735""
""focus"",""19"",""186428""
""blur"",""117"",""1190679""
""focus"",""117"",""1503508""
","""event"",""trial"",""time""
""blur"",""1"",""1955""
""blur"",""18"",""185735""
""blur"",""117"",""1190679""
","""event"",""trial"",""time""
""focus"",""2"",""5669""
""focus"",""19"",""186428""
""focus"",""117"",""1503508""
","""event"",""trial"",""time""
""fullscreenenter"",""1"",""1644""
","
