"trial_type","trial_index","time_elapsed","internal_node_id","task_version","subject_id","interactions","blur_events","focus_events","fullscreenenter_events","fullscreenexit_events","success","view_history","rt","responses","num_errors","age","subject","participantId","rune","rune_set","hex","correct","choice","accuracy","outcome","keys","total_keys","block","practice","value","sub","trial","stimulus","robot","valence","action","sham"
"pavlovia","0","12","0.0-0.0","battery-v0.2","","""event"",""trial"",""time""
""fullscreenenter"",""1"",""3897""
","
","
","""event"",""trial"",""time""
""fullscreenenter"",""1"",""3897""
","
","","","","","","","","","","","","","","","","","","","","","","","","","","",""
"fullscreen","1","4897","0.0-1.0","battery-v0.2","","""event"",""trial"",""time""
""fullscreenenter"",""1"",""3897""
","
","
","""event"",""trial"",""time""
""fullscreenenter"",""1"",""3897""
","
","true","","","","","","","","","","","","","","","","","","","","","","","","","",""
"pit-instructions","2","14088","0.0-2.0-0.0","battery-v0.2","","""event"",""trial"",""time""
""fullscreenenter"",""1"",""3897""
","
","
","""event"",""trial"",""time""
""fullscreenenter"",""1"",""3897""
","
","","[{""page_index"":0,""viewing_time"":9187.599999999977}]","9187.900000000023","","","","","","","","","","","","","","","","","","","","","","","",""
"pit-comprehension","3","17169","0.0-2.0-1.0-0.0","battery-v0.2","","""event"",""trial"",""time""
""fullscreenenter"",""1"",""3897""
","
","
","""event"",""trial"",""time""
""fullscreenenter"",""1"",""3897""
","
","","","3078.29999999993","[""shark""]","0","22","12324","5578","","","","","","","","","","","","","","","","","","",""
"pit-instructions","4","18257","0.0-2.0-1.0-1.0","battery-v0.2","","""event"",""trial"",""time""
""fullscreenenter"",""1"",""3897""
","
","
","""event"",""trial"",""time""
""fullscreenenter"",""1"",""3897""
","
","","[{""page_index"":0,""viewing_time"":1057.2999999999302}]","1057.5999999999767","","","","","","","","","","","","","","","","","","","","","","","",""
"pit-comprehension","5","20388","0.0-2.0-2.0-0.0","battery-v0.2","","""event"",""trial"",""time""
""fullscreenenter"",""1"",""3897""
","
","
","""event"",""trial"",""time""
""fullscreenenter"",""1"",""3897""
","
","","","2128.5","[""tiger""]","0","22","12324","5578","","","","","","","","","","","","","","","","","","",""
"pit-instructions","6","21416","0.0-2.0-2.0-1.0","battery-v0.2","","""event"",""trial"",""time""
""fullscreenenter"",""1"",""3897""
""blur"",""7"",""58354""
""focus"",""7"",""66505""
","""event"",""trial"",""time""
""blur"",""7"",""58354""
","""event"",""trial"",""time""
""focus"",""7"",""66505""
","""event"",""trial"",""time""
""fullscreenenter"",""1"",""3897""
","
","","[{""page_index"":0,""viewing_time"":1024.6999999999534}]","1025","","","","","","","","","","","","","","","","","","","","","","","",""
"pit-instructions","7","133336","0.0-2.0-3.0","battery-v0.2","","""event"",""trial"",""time""
""fullscreenenter"",""1"",""3897""
""blur"",""7"",""58354""
""focus"",""7"",""66505""
","""event"",""trial"",""time""
""blur"",""7"",""58354""
","""event"",""trial"",""time""
""focus"",""7"",""66505""
","""event"",""trial"",""time""
""fullscreenenter"",""1"",""3897""
","
","","[{""page_index"":0,""viewing_time"":13695.800000000047},{""page_index"":1,""viewing_time"":6233.199999999953},{""page_index"":2,""viewing_time"":6270.900000000023},{""page_index"":3,""viewing_time"":6149.099999999977},{""page_index"":4,""viewing_time"":13989.800000000047},{""page_index"":5,""viewing_time"":6055.900000000023},{""page_index"":6,""viewing_time"":7300.399999999907},{""page_index"":7,""viewing_time"":8716.800000000047},{""page_index"":8,""viewing_time"":6242},{""page_index"":9,""viewing_time"":9209.599999999977},{""page_index"":10,""viewing_time"":7048.300000000047},{""page_index"":11,""viewing_time"":7050.400000000023},{""page_index"":12,""viewing_time"":8112.5},{""page_index"":13,""viewing_time"":5843.599999999977}]","111918.70000000007","","","","","","","","","","","","","","","","","","","","","","","",""
"pit-trial","8","137360","0.0-2.0-4.0-0.0","battery-v0.2","","""event"",""trial"",""time""
""fullscreenenter"",""1"",""3897""
""blur"",""7"",""58354""
""focus"",""7"",""66505""
","""event"",""trial"",""time""
""blur"",""7"",""58354""
","""event"",""trial"",""time""
""focus"",""7"",""66505""
","""event"",""trial"",""time""
""fullscreenenter"",""1"",""3897""
","
","","","1155.0999999999767","","","22","12324","5578","&#9784;","elianto","#FFFFF080"," "," ","1","&#10004","[2006.6999999999534]","1","0","0","","","","","","","",""
"pit-trial","9","141031","0.0-2.0-4.1-0.1","battery-v0.2","","""event"",""trial"",""time""
""fullscreenenter"",""1"",""3897""
""blur"",""7"",""58354""
""focus"",""7"",""66505""
","""event"",""trial"",""time""
""blur"",""7"",""58354""
","""event"",""trial"",""time""
""focus"",""7"",""66505""
","""event"",""trial"",""time""
""fullscreenenter"",""1"",""3897""
","
","","","800.6999999999534","","","22","12324","5578","&#9784;","elianto","#FFFFF080"," "," ","1","&#10004","[1659.5]","1","0","0","","","","","","","",""
"pit-trial","10","144829","0.0-2.0-4.2-0.2","battery-v0.2","","""event"",""trial"",""time""
""fullscreenenter"",""1"",""3897""
""blur"",""7"",""58354""
""focus"",""7"",""66505""
","""event"",""trial"",""time""
""blur"",""7"",""58354""
","""event"",""trial"",""time""
""focus"",""7"",""66505""
","""event"",""trial"",""time""
""fullscreenenter"",""1"",""3897""
","
","","","931.8999999999069","","","22","12324","5578","&#9784;","elianto","#FFFFF080"," "," ","1","&#10004","[1786.5]","1","0","0","","","","","","","",""
"pit-trial","11","148179","0.0-2.0-4.3-0.3","battery-v0.2","","""event"",""trial"",""time""
""fullscreenenter"",""1"",""3897""
""blur"",""7"",""58354""
""focus"",""7"",""66505""
","""event"",""trial"",""time""
""blur"",""7"",""58354""
","""event"",""trial"",""time""
""focus"",""7"",""66505""
","""event"",""trial"",""time""
""fullscreenenter"",""1"",""3897""
","
","","","482","","","22","12324","5578","&#9784;","elianto","#FFFFF080"," "," ","1","&#10004","[1340.8999999999069]","1","0","0","","","","","","","",""
"pit-trial","12","151480","0.0-2.0-4.4-0.4","battery-v0.2","","""event"",""trial"",""time""
""fullscreenenter"",""1"",""3897""
""blur"",""7"",""58354""
""focus"",""7"",""66505""
","""event"",""trial"",""time""
""blur"",""7"",""58354""
","""event"",""trial"",""time""
""focus"",""7"",""66505""
","""event"",""trial"",""time""
""fullscreenenter"",""1"",""3897""
","
","","","439","","","22","12324","5578","&#9784;","elianto","#FFFFF080"," "," ","1","&#10004","[1296.0999999999767]","1","0","0","","","","","","","",""
"pit-instructions","13","183136","0.0-2.0-5.0","battery-v0.2","","""event"",""trial"",""time""
""fullscreenenter"",""1"",""3897""
""blur"",""7"",""58354""
""focus"",""7"",""66505""
","""event"",""trial"",""time""
""blur"",""7"",""58354""
","""event"",""trial"",""time""
""focus"",""7"",""66505""
","""event"",""trial"",""time""
""fullscreenenter"",""1"",""3897""
","
","","[{""page_index"":0,""viewing_time"":12271.5},{""page_index"":1,""viewing_time"":6254.29999999993},{""page_index"":2,""viewing_time"":7748.800000000047},{""page_index"":3,""viewing_time"":5375.79999999993}]","31651.699999999953","","","","","","","","","","","","","","","","","","","","","","","",""
"pit-trial","14","188030","0.0-2.0-6.0-0.0","battery-v0.2","","""event"",""trial"",""time""
""fullscreenenter"",""1"",""3897""
""blur"",""7"",""58354""
""focus"",""7"",""66505""
","""event"",""trial"",""time""
""blur"",""7"",""58354""
","""event"",""trial"",""time""
""focus"",""7"",""66505""
","""event"",""trial"",""time""
""fullscreenenter"",""1"",""3897""
","
","","","-1","","","22","12324","5578","&#9854;","elianto","#FFFFF080","-1","-1","1","&#10004","[]","0","0","1","","","","","","","",""
"pit-trial","15","192910","0.0-2.0-6.1-0.1","battery-v0.2","","""event"",""trial"",""time""
""fullscreenenter"",""1"",""3897""
""blur"",""7"",""58354""
""focus"",""7"",""66505""
","""event"",""trial"",""time""
""blur"",""7"",""58354""
","""event"",""trial"",""time""
""focus"",""7"",""66505""
","""event"",""trial"",""time""
""fullscreenenter"",""1"",""3897""
","
","","","-1","","","22","12324","5578","&#9854;","elianto","#FFFFF080","-1","-1","1","&#10004","[]","0","0","1","","","","","","","",""
"pit-trial","16","197790","0.0-2.0-6.2-0.2","battery-v0.2","","""event"",""trial"",""time""
""fullscreenenter"",""1"",""3897""
""blur"",""7"",""58354""
""focus"",""7"",""66505""
","""event"",""trial"",""time""
""blur"",""7"",""58354""
","""event"",""trial"",""time""
""focus"",""7"",""66505""
","""event"",""trial"",""time""
""fullscreenenter"",""1"",""3897""
","
","","","-1","","","22","12324","5578","&#9854;","elianto","#FFFFF080","-1","-1","1","&#10004","[]","0","0","1","","","","","","","",""
"pit-trial","17","202681","0.0-2.0-6.3-0.3","battery-v0.2","","""event"",""trial"",""time""
""fullscreenenter"",""1"",""3897""
""blur"",""7"",""58354""
""focus"",""7"",""66505""
","""event"",""trial"",""time""
""blur"",""7"",""58354""
","""event"",""trial"",""time""
""focus"",""7"",""66505""
","""event"",""trial"",""time""
""fullscreenenter"",""1"",""3897""
","
","","","-1","","","22","12324","5578","&#9854;","elianto","#FFFFF080","-1","-1","1","&#10004","[]","0","0","1","","","","","","","",""
"pit-trial","18","207571","0.0-2.0-6.4-0.4","battery-v0.2","","""event"",""trial"",""time""
""fullscreenenter"",""1"",""3897""
""blur"",""7"",""58354""
""focus"",""7"",""66505""
","""event"",""trial"",""time""
""blur"",""7"",""58354""
","""event"",""trial"",""time""
""focus"",""7"",""66505""
","""event"",""trial"",""time""
""fullscreenenter"",""1"",""3897""
","
","","","-1","","","22","12324","5578","&#9854;","elianto","#FFFFF080","-1","-1","1","&#10004","[]","0","0","1","","","","","","","",""
"pit-instructions","19","340891","0.0-2.0-7.0","battery-v0.2","","""event"",""trial"",""time""
""fullscreenenter"",""1"",""3897""
""blur"",""7"",""58354""
""focus"",""7"",""66505""
","""event"",""trial"",""time""
""blur"",""7"",""58354""
","""event"",""trial"",""time""
""focus"",""7"",""66505""
","""event"",""trial"",""time""
""fullscreenenter"",""1"",""3897""
","
","","[{""page_index"":0,""viewing_time"":11562.599999999977},{""page_index"":1,""viewing_time"":6886.900000000023},{""page_index"":2,""viewing_time"":6410.599999999977},{""page_index"":3,""viewing_time"":7257.5},{""page_index"":4,""viewing_time"":6744.5},{""page_index"":5,""viewing_time"":6371.300000000047},{""page_index"":6,""viewing_time"":4735.5},{""page_index"":7,""viewing_time"":8860.399999999907},{""page_index"":8,""viewing_time"":8025},{""page_index"":9,""viewing_time"":6768.800000000047},{""page_index"":10,""viewing_time"":6186.5},{""page_index"":11,""viewing_time"":5647.600000000093},{""page_index"":12,""viewing_time"":6924.300000000047},{""page_index"":13,""viewing_time"":8650.09999999986},{""page_index"":14,""viewing_time"":8909.800000000047},{""page_index"":15,""viewing_time"":6742.199999999953},{""page_index"":16,""viewing_time"":9141.199999999953},{""page_index"":17,""viewing_time"":7485}]","133310.00000000012","","","","","","","","","","","","","","","","","","","","","","","",""
"pit-trial","20","344562","0.0-2.0-8.0-0.0","battery-v0.2","","""event"",""trial"",""time""
""fullscreenenter"",""1"",""3897""
""blur"",""7"",""58354""
""focus"",""7"",""66505""
","""event"",""trial"",""time""
""blur"",""7"",""58354""
","""event"",""trial"",""time""
""focus"",""7"",""66505""
","""event"",""trial"",""time""
""fullscreenenter"",""1"",""3897""
","
","","","790.8999999999069","","","22","12324","5578","&#9776;","elianto","#3366ff99"," "," ","1","+10","[1649]","1","0","1","","","","","","","",""
"pit-trial","21","347891","0.0-2.0-8.0-1.0","battery-v0.2","","""event"",""trial"",""time""
""fullscreenenter"",""1"",""3897""
""blur"",""7"",""58354""
""focus"",""7"",""66505""
","""event"",""trial"",""time""
""blur"",""7"",""58354""
","""event"",""trial"",""time""
""focus"",""7"",""66505""
","""event"",""trial"",""time""
""fullscreenenter"",""1"",""3897""
","
","","","472.30000000004657","","","22","12324","5578","&#9776;","elianto","#3366ff99"," "," ","1","+10","[1323.2999999998137]","1","0","1","","","","","","","",""
"pit-trial","22","351252","0.0-2.0-8.0-2.0","battery-v0.2","","""event"",""trial"",""time""
""fullscreenenter"",""1"",""3897""
""blur"",""7"",""58354""
""focus"",""7"",""66505""
","""event"",""trial"",""time""
""blur"",""7"",""58354""
","""event"",""trial"",""time""
""focus"",""7"",""66505""
","""event"",""trial"",""time""
""fullscreenenter"",""1"",""3897""
","
","","","490.10000000009313","","","22","12324","5578","&#9776;","elianto","#3366ff99"," "," ","1","+10","[1343.3000000000466]","1","0","1","","","","","","","",""
"pit-trial","23","354542","0.0-2.0-8.0-3.0","battery-v0.2","","""event"",""trial"",""time""
""fullscreenenter"",""1"",""3897""
""blur"",""7"",""58354""
""focus"",""7"",""66505""
","""event"",""trial"",""time""
""blur"",""7"",""58354""
","""event"",""trial"",""time""
""focus"",""7"",""66505""
","""event"",""trial"",""time""
""fullscreenenter"",""1"",""3897""
","
","","","410.39999999990687","","","22","12324","5578","&#9776;","elianto","#3366ff99"," "," ","1","0","[1271.1000000000931]","1","0","1","","","","","","","",""
"pit-trial","24","357802","0.0-2.0-8.0-4.0","battery-v0.2","","""event"",""trial"",""time""
""fullscreenenter"",""1"",""3897""
""blur"",""7"",""58354""
""focus"",""7"",""66505""
","""event"",""trial"",""time""
""blur"",""7"",""58354""
","""event"",""trial"",""time""
""focus"",""7"",""66505""
","""event"",""trial"",""time""
""fullscreenenter"",""1"",""3897""
","
","","","387","","","22","12324","5578","&#9776;","elianto","#3366ff99"," "," ","1","+10","[1239.3999999999069]","1","0","1","","","","","","","",""
"pit-trial","25","361222","0.0-2.0-8.1-0.1","battery-v0.2","","""event"",""trial"",""time""
""fullscreenenter"",""1"",""3897""
""blur"",""7"",""58354""
""focus"",""7"",""66505""
","""event"",""trial"",""time""
""blur"",""7"",""58354""
","""event"",""trial"",""time""
""focus"",""7"",""66505""
","""event"",""trial"",""time""
""fullscreenenter"",""1"",""3897""
","
","","","549.5","","","22","12324","5578","&#9776;","elianto","#3366ff99"," "," ","1","+10","[1406]","1","0","1","","","","","","","",""
"pit-trial","26","364521","0.0-2.0-8.1-1.1","battery-v0.2","","""event"",""trial"",""time""
""fullscreenenter"",""1"",""3897""
""blur"",""7"",""58354""
""focus"",""7"",""66505""
","""event"",""trial"",""time""
""blur"",""7"",""58354""
","""event"",""trial"",""time""
""focus"",""7"",""66505""
","""event"",""trial"",""time""
""fullscreenenter"",""1"",""3897""
","
","","","433.19999999995343","","","22","12324","5578","&#9776;","elianto","#3366ff99"," "," ","1","+10","[1290.5]","1","0","1","","","","","","","",""
"pit-trial","27","367862","0.0-2.0-8.1-2.1","battery-v0.2","","""event"",""trial"",""time""
""fullscreenenter"",""1"",""3897""
""blur"",""7"",""58354""
""focus"",""7"",""66505""
","""event"",""trial"",""time""
""blur"",""7"",""58354""
","""event"",""trial"",""time""
""focus"",""7"",""66505""
","""event"",""trial"",""time""
""fullscreenenter"",""1"",""3897""
","
","","","474","","","22","12324","5578","&#9776;","elianto","#3366ff99"," "," ","1","+10","[1328.8999999999069]","1","0","1","","","","","","","",""
"pit-trial","28","371366","0.0-2.0-8.1-3.1","battery-v0.2","","""event"",""trial"",""time""
""fullscreenenter"",""1"",""3897""
""blur"",""7"",""58354""
""focus"",""7"",""66505""
","""event"",""trial"",""time""
""blur"",""7"",""58354""
","""event"",""trial"",""time""
""focus"",""7"",""66505""
","""event"",""trial"",""time""
""fullscreenenter"",""1"",""3897""
","
","","","650.5","","","22","12324","5578","&#9776;","elianto","#3366ff99"," "," ","1","0","[1501.2999999998137]","1","0","1","","","","","","","",""
"pit-trial","29","374734","0.0-2.0-8.1-4.1","battery-v0.2","","""event"",""trial"",""time""
""fullscreenenter"",""1"",""3897""
""blur"",""7"",""58354""
""focus"",""7"",""66505""
","""event"",""trial"",""time""
""blur"",""7"",""58354""
","""event"",""trial"",""time""
""focus"",""7"",""66505""
","""event"",""trial"",""time""
""fullscreenenter"",""1"",""3897""
","
","","","514.3999999999069","","","22","12324","5578","&#9776;","elianto","#3366ff99"," "," ","1","+10","[1364.5]","1","0","1","","","","","","","",""
"pit-trial","30","378008","0.0-2.0-8.2-0.2","battery-v0.2","","""event"",""trial"",""time""
""fullscreenenter"",""1"",""3897""
""blur"",""7"",""58354""
""focus"",""7"",""66505""
","""event"",""trial"",""time""
""blur"",""7"",""58354""
","""event"",""trial"",""time""
""focus"",""7"",""66505""
","""event"",""trial"",""time""
""fullscreenenter"",""1"",""3897""
","
","","","419.9000000001397","","","22","12324","5578","&#9776;","elianto","#3366ff99"," "," ","1","+10","[1270.4000000001397]","1","0","1","","","","","","","",""
"pit-trial","31","381201","0.0-2.0-8.2-1.2","battery-v0.2","","""event"",""trial"",""time""
""fullscreenenter"",""1"",""3897""
""blur"",""7"",""58354""
""focus"",""7"",""66505""
","""event"",""trial"",""time""
""blur"",""7"",""58354""
","""event"",""trial"",""time""
""focus"",""7"",""66505""
","""event"",""trial"",""time""
""fullscreenenter"",""1"",""3897""
","
","","","338.10000000009313","","","22","12324","5578","&#9776;","elianto","#3366ff99"," "," ","1","+10","[1189]","1","0","1","","","","","","","",""
"pit-trial","32","384482","0.0-2.0-8.2-2.2","battery-v0.2","","""event"",""trial"",""time""
""fullscreenenter"",""1"",""3897""
""blur"",""7"",""58354""
""focus"",""7"",""66505""
","""event"",""trial"",""time""
""blur"",""7"",""58354""
","""event"",""trial"",""time""
""focus"",""7"",""66505""
","""event"",""trial"",""time""
""fullscreenenter"",""1"",""3897""
","
","","","428.39999999990687","","","22","12324","5578","&#9776;","elianto","#3366ff99"," "," ","1","+10","[1278.5]","1","0","1","","","","","","","",""
"pit-trial","33","387785","0.0-2.0-8.2-3.2","battery-v0.2","","""event"",""trial"",""time""
""fullscreenenter"",""1"",""3897""
""blur"",""7"",""58354""
""focus"",""7"",""66505""
","""event"",""trial"",""time""
""blur"",""7"",""58354""
","""event"",""trial"",""time""
""focus"",""7"",""66505""
","""event"",""trial"",""time""
""fullscreenenter"",""1"",""3897""
","
","","","449.4000000001397","","","22","12324","5578","&#9776;","elianto","#3366ff99"," "," ","1","0","[1300.3999999999069]","1","0","1","","","","","","","",""
"pit-trial","34","391063","0.0-2.0-8.2-4.2","battery-v0.2","","""event"",""trial"",""time""
""fullscreenenter"",""1"",""3897""
""blur"",""7"",""58354""
""focus"",""7"",""66505""
","""event"",""trial"",""time""
""blur"",""7"",""58354""
","""event"",""trial"",""time""
""focus"",""7"",""66505""
","""event"",""trial"",""time""
""fullscreenenter"",""1"",""3897""
","
","","","421.5","","","22","12324","5578","&#9776;","elianto","#3366ff99"," "," ","1","+10","[1272.5]","1","0","1","","","","","","","",""
"call-function","35","391065","0.0-2.0-9.0","battery-v0.2","","""event"",""trial"",""time""
""fullscreenenter"",""1"",""3897""
""blur"",""7"",""58354""
""focus"",""7"",""66505""
","""event"",""trial"",""time""
""blur"",""7"",""58354""
","""event"",""trial"",""time""
""focus"",""7"",""66505""
","""event"",""trial"",""time""
""fullscreenenter"",""1"",""3897""
","
","","","","","","","","","","","","","","","","","","","","","","","","","","",""
"pit-instructions","36","431941","0.0-2.0-10.0","battery-v0.2","","""event"",""trial"",""time""
""fullscreenenter"",""1"",""3897""
""blur"",""7"",""58354""
""focus"",""7"",""66505""
","""event"",""trial"",""time""
""blur"",""7"",""58354""
","""event"",""trial"",""time""
""focus"",""7"",""66505""
","""event"",""trial"",""time""
""fullscreenenter"",""1"",""3897""
","
","","[{""page_index"":0,""viewing_time"":6291.5},{""page_index"":1,""viewing_time"":7096},{""page_index"":2,""viewing_time"":9463.5},{""page_index"":3,""viewing_time"":9164.199999999953},{""page_index"":4,""viewing_time"":8858.100000000093}]","40873.5","","","","","","","","","","","","","","","","","","","","","","","",""
"pit-trial","37","436826","0.0-2.0-11.0-0.0","battery-v0.2","","""event"",""trial"",""time""
""fullscreenenter"",""1"",""3897""
""blur"",""7"",""58354""
""focus"",""7"",""66505""
","""event"",""trial"",""time""
""blur"",""7"",""58354""
","""event"",""trial"",""time""
""focus"",""7"",""66505""
","""event"",""trial"",""time""
""fullscreenenter"",""1"",""3897""
","
","","","-1","","","22","12324","5578","&#9761;","elianto","#3366ff99","-1","-1","1","+10","[]","0","0","2","","","","","","","",""
"pit-trial","38","441707","0.0-2.0-11.0-1.0","battery-v0.2","","""event"",""trial"",""time""
""fullscreenenter"",""1"",""3897""
""blur"",""7"",""58354""
""focus"",""7"",""66505""
","""event"",""trial"",""time""
""blur"",""7"",""58354""
","""event"",""trial"",""time""
""focus"",""7"",""66505""
","""event"",""trial"",""time""
""fullscreenenter"",""1"",""3897""
","
","","","-1","","","22","12324","5578","&#9761;","elianto","#3366ff99","-1","-1","1","+10","[]","0","0","2","","","","","","","",""
"pit-trial","39","446581","0.0-2.0-11.0-2.0","battery-v0.2","","""event"",""trial"",""time""
""fullscreenenter"",""1"",""3897""
""blur"",""7"",""58354""
""focus"",""7"",""66505""
","""event"",""trial"",""time""
""blur"",""7"",""58354""
","""event"",""trial"",""time""
""focus"",""7"",""66505""
","""event"",""trial"",""time""
""fullscreenenter"",""1"",""3897""
","
","","","-1","","","22","12324","5578","&#9761;","elianto","#3366ff99","-1","-1","1","+10","[]","0","0","2","","","","","","","",""
"pit-trial","40","451466","0.0-2.0-11.0-3.0","battery-v0.2","","""event"",""trial"",""time""
""fullscreenenter"",""1"",""3897""
""blur"",""7"",""58354""
""focus"",""7"",""66505""
","""event"",""trial"",""time""
""blur"",""7"",""58354""
","""event"",""trial"",""time""
""focus"",""7"",""66505""
","""event"",""trial"",""time""
""fullscreenenter"",""1"",""3897""
","
","","","-1","","","22","12324","5578","&#9761;","elianto","#3366ff99","-1","-1","1","0","[]","0","0","2","","","","","","","",""
"pit-trial","41","456346","0.0-2.0-11.0-4.0","battery-v0.2","","""event"",""trial"",""time""
""fullscreenenter"",""1"",""3897""
""blur"",""7"",""58354""
""focus"",""7"",""66505""
","""event"",""trial"",""time""
""blur"",""7"",""58354""
","""event"",""trial"",""time""
""focus"",""7"",""66505""
","""event"",""trial"",""time""
""fullscreenenter"",""1"",""3897""
","
","","","-1","","","22","12324","5578","&#9761;","elianto","#3366ff99","-1","-1","1","+10","[]","0","0","2","","","","","","","",""
"pit-trial","42","461206","0.0-2.0-11.1-0.1","battery-v0.2","","""event"",""trial"",""time""
""fullscreenenter"",""1"",""3897""
""blur"",""7"",""58354""
""focus"",""7"",""66505""
","""event"",""trial"",""time""
""blur"",""7"",""58354""
","""event"",""trial"",""time""
""focus"",""7"",""66505""
","""event"",""trial"",""time""
""fullscreenenter"",""1"",""3897""
","
","","","-1","","","22","12324","5578","&#9761;","elianto","#3366ff99","-1","-1","1","+10","[]","0","0","2","","","","","","","",""
"pit-trial","43","466061","0.0-2.0-11.1-1.1","battery-v0.2","","""event"",""trial"",""time""
""fullscreenenter"",""1"",""3897""
""blur"",""7"",""58354""
""focus"",""7"",""66505""
","""event"",""trial"",""time""
""blur"",""7"",""58354""
","""event"",""trial"",""time""
""focus"",""7"",""66505""
","""event"",""trial"",""time""
""fullscreenenter"",""1"",""3897""
","
","","","-1","","","22","12324","5578","&#9761;","elianto","#3366ff99","-1","-1","1","+10","[]","0","0","2","","","","","","","",""
"pit-trial","44","470916","0.0-2.0-11.1-2.1","battery-v0.2","","""event"",""trial"",""time""
""fullscreenenter"",""1"",""3897""
""blur"",""7"",""58354""
""focus"",""7"",""66505""
","""event"",""trial"",""time""
""blur"",""7"",""58354""
","""event"",""trial"",""time""
""focus"",""7"",""66505""
","""event"",""trial"",""time""
""fullscreenenter"",""1"",""3897""
","
","","","-1","","","22","12324","5578","&#9761;","elianto","#3366ff99","-1","-1","1","+10","[]","0","0","2","","","","","","","",""
"pit-trial","45","475774","0.0-2.0-11.1-3.1","battery-v0.2","","""event"",""trial"",""time""
""fullscreenenter"",""1"",""3897""
""blur"",""7"",""58354""
""focus"",""7"",""66505""
","""event"",""trial"",""time""
""blur"",""7"",""58354""
","""event"",""trial"",""time""
""focus"",""7"",""66505""
","""event"",""trial"",""time""
""fullscreenenter"",""1"",""3897""
","
","","","-1","","","22","12324","5578","&#9761;","elianto","#3366ff99","-1","-1","1","0","[]","0","0","2","","","","","","","",""
"pit-trial","46","480631","0.0-2.0-11.1-4.1","battery-v0.2","","""event"",""trial"",""time""
""fullscreenenter"",""1"",""3897""
""blur"",""7"",""58354""
""focus"",""7"",""66505""
","""event"",""trial"",""time""
""blur"",""7"",""58354""
","""event"",""trial"",""time""
""focus"",""7"",""66505""
","""event"",""trial"",""time""
""fullscreenenter"",""1"",""3897""
","
","","","-1","","","22","12324","5578","&#9761;","elianto","#3366ff99","-1","-1","1","+10","[]","0","0","2","","","","","","","",""
"pit-trial","47","485486","0.0-2.0-11.2-0.2","battery-v0.2","","""event"",""trial"",""time""
""fullscreenenter"",""1"",""3897""
""blur"",""7"",""58354""
""focus"",""7"",""66505""
","""event"",""trial"",""time""
""blur"",""7"",""58354""
","""event"",""trial"",""time""
""focus"",""7"",""66505""
","""event"",""trial"",""time""
""fullscreenenter"",""1"",""3897""
","
","","","-1","","","22","12324","5578","&#9761;","elianto","#3366ff99","-1","-1","1","+10","[]","0","0","2","","","","","","","",""
"pit-trial","48","490340","0.0-2.0-11.2-1.2","battery-v0.2","","""event"",""trial"",""time""
""fullscreenenter"",""1"",""3897""
""blur"",""7"",""58354""
""focus"",""7"",""66505""
","""event"",""trial"",""time""
""blur"",""7"",""58354""
","""event"",""trial"",""time""
""focus"",""7"",""66505""
","""event"",""trial"",""time""
""fullscreenenter"",""1"",""3897""
","
","","","-1","","","22","12324","5578","&#9761;","elianto","#3366ff99","-1","-1","1","+10","[]","0","0","2","","","","","","","",""
"pit-trial","49","495205","0.0-2.0-11.2-2.2","battery-v0.2","","""event"",""trial"",""time""
""fullscreenenter"",""1"",""3897""
""blur"",""7"",""58354""
""focus"",""7"",""66505""
","""event"",""trial"",""time""
""blur"",""7"",""58354""
","""event"",""trial"",""time""
""focus"",""7"",""66505""
","""event"",""trial"",""time""
""fullscreenenter"",""1"",""3897""
","
","","","-1","","","22","12324","5578","&#9761;","elianto","#3366ff99","-1","-1","1","+10","[]","0","0","2","","","","","","","",""
"pit-trial","50","500059","0.0-2.0-11.2-3.2","battery-v0.2","","""event"",""trial"",""time""
""fullscreenenter"",""1"",""3897""
""blur"",""7"",""58354""
""focus"",""7"",""66505""
","""event"",""trial"",""time""
""blur"",""7"",""58354""
","""event"",""trial"",""time""
""focus"",""7"",""66505""
","""event"",""trial"",""time""
""fullscreenenter"",""1"",""3897""
","
","","","-1","","","22","12324","5578","&#9761;","elianto","#3366ff99","-1","-1","1","0","[]","0","0","2","","","","","","","",""
"pit-trial","51","504923","0.0-2.0-11.2-4.2","battery-v0.2","","""event"",""trial"",""time""
""fullscreenenter"",""1"",""3897""
""blur"",""7"",""58354""
""focus"",""7"",""66505""
","""event"",""trial"",""time""
""blur"",""7"",""58354""
","""event"",""trial"",""time""
""focus"",""7"",""66505""
","""event"",""trial"",""time""
""fullscreenenter"",""1"",""3897""
","
","","","-1","","","22","12324","5578","&#9761;","elianto","#3366ff99","-1","-1","1","+10","[]","0","0","2","","","","","","","",""
"pit-trial","52","509783","0.0-2.0-11.3-0.3","battery-v0.2","","""event"",""trial"",""time""
""fullscreenenter"",""1"",""3897""
""blur"",""7"",""58354""
""focus"",""7"",""66505""
","""event"",""trial"",""time""
""blur"",""7"",""58354""
","""event"",""trial"",""time""
""focus"",""7"",""66505""
","""event"",""trial"",""time""
""fullscreenenter"",""1"",""3897""
","
","","","-1","","","22","12324","5578","&#9761;","elianto","#3366ff99","-1","-1","1","+10","[]","0","0","2","","","","","","","",""
"pit-trial","53","514638","0.0-2.0-11.3-1.3","battery-v0.2","","""event"",""trial"",""time""
""fullscreenenter"",""1"",""3897""
""blur"",""7"",""58354""
""focus"",""7"",""66505""
","""event"",""trial"",""time""
""blur"",""7"",""58354""
","""event"",""trial"",""time""
""focus"",""7"",""66505""
","""event"",""trial"",""time""
""fullscreenenter"",""1"",""3897""
","
","","","-1","","","22","12324","5578","&#9761;","elianto","#3366ff99","-1","-1","1","+10","[]","0","0","2","","","","","","","",""
"pit-trial","54","519493","0.0-2.0-11.3-2.3","battery-v0.2","","""event"",""trial"",""time""
""fullscreenenter"",""1"",""3897""
""blur"",""7"",""58354""
""focus"",""7"",""66505""
","""event"",""trial"",""time""
""blur"",""7"",""58354""
","""event"",""trial"",""time""
""focus"",""7"",""66505""
","""event"",""trial"",""time""
""fullscreenenter"",""1"",""3897""
","
","","","-1","","","22","12324","5578","&#9761;","elianto","#3366ff99","-1","-1","1","+10","[]","0","0","2","","","","","","","",""
"pit-trial","55","524345","0.0-2.0-11.3-3.3","battery-v0.2","","""event"",""trial"",""time""
""fullscreenenter"",""1"",""3897""
""blur"",""7"",""58354""
""focus"",""7"",""66505""
","""event"",""trial"",""time""
""blur"",""7"",""58354""
","""event"",""trial"",""time""
""focus"",""7"",""66505""
","""event"",""trial"",""time""
""fullscreenenter"",""1"",""3897""
","
","","","-1","","","22","12324","5578","&#9761;","elianto","#3366ff99","-1","-1","1","0","[]","0","0","2","","","","","","","",""
"pit-trial","56","529199","0.0-2.0-11.3-4.3","battery-v0.2","","""event"",""trial"",""time""
""fullscreenenter"",""1"",""3897""
""blur"",""7"",""58354""
""focus"",""7"",""66505""
","""event"",""trial"",""time""
""blur"",""7"",""58354""
","""event"",""trial"",""time""
""focus"",""7"",""66505""
","""event"",""trial"",""time""
""fullscreenenter"",""1"",""3897""
","
","","","-1","","","22","12324","5578","&#9761;","elianto","#3366ff99","-1","-1","1","+10","[]","0","0","2","","","","","","","",""
"call-function","57","529202","0.0-2.0-12.0","battery-v0.2","","""event"",""trial"",""time""
""fullscreenenter"",""1"",""3897""
""blur"",""7"",""58354""
""focus"",""7"",""66505""
","""event"",""trial"",""time""
""blur"",""7"",""58354""
","""event"",""trial"",""time""
""focus"",""7"",""66505""
","""event"",""trial"",""time""
""fullscreenenter"",""1"",""3897""
","
","","","","","","","","","","","","","","","","","","","","","","","","","","",""
"pit-instructions","58","570322","0.0-2.0-13.0","battery-v0.2","","""event"",""trial"",""time""
""fullscreenenter"",""1"",""3897""
""blur"",""7"",""58354""
""focus"",""7"",""66505""
","""event"",""trial"",""time""
""blur"",""7"",""58354""
","""event"",""trial"",""time""
""focus"",""7"",""66505""
","""event"",""trial"",""time""
""fullscreenenter"",""1"",""3897""
","
","","[{""page_index"":0,""viewing_time"":11190.199999999953},{""page_index"":1,""viewing_time"":8710.800000000047},{""page_index"":2,""viewing_time"":4625.299999999814},{""page_index"":3,""viewing_time"":10714.200000000186},{""page_index"":4,""viewing_time"":5884.5}]","41125.59999999986","","","","","","","","","","","","","","","","","","","","","","","",""
"pit-trial","59","573896","0.0-2.0-14.0-0.0","battery-v0.2","","""event"",""trial"",""time""
""fullscreenenter"",""1"",""3897""
""blur"",""7"",""58354""
""focus"",""7"",""66505""
","""event"",""trial"",""time""
""blur"",""7"",""58354""
","""event"",""trial"",""time""
""focus"",""7"",""66505""
","""event"",""trial"",""time""
""fullscreenenter"",""1"",""3897""
","
","","","706.8999999999069","","","22","12324","5578","&#9826;","elianto","#f73b6a7A","-1"," ","0","-10","[1563]","1","0","3","","","","","","","",""
"pit-trial","60","578774","0.0-2.0-14.0-1.0","battery-v0.2","","""event"",""trial"",""time""
""fullscreenenter"",""1"",""3897""
""blur"",""7"",""58354""
""focus"",""7"",""66505""
","""event"",""trial"",""time""
""blur"",""7"",""58354""
","""event"",""trial"",""time""
""focus"",""7"",""66505""
","""event"",""trial"",""time""
""fullscreenenter"",""1"",""3897""
","
","","","-1","","","22","12324","5578","&#9826;","elianto","#f73b6a7A","-1","-1","1","0","[]","0","0","3","","","","","","","",""
"pit-trial","61","583654","0.0-2.0-14.0-2.0","battery-v0.2","","""event"",""trial"",""time""
""fullscreenenter"",""1"",""3897""
""blur"",""7"",""58354""
""focus"",""7"",""66505""
","""event"",""trial"",""time""
""blur"",""7"",""58354""
","""event"",""trial"",""time""
""focus"",""7"",""66505""
","""event"",""trial"",""time""
""fullscreenenter"",""1"",""3897""
","
","","","-1","","","22","12324","5578","&#9826;","elianto","#f73b6a7A","-1","-1","1","0","[]","0","0","3","","","","","","","",""
"pit-trial","62","588515","0.0-2.0-14.0-3.0","battery-v0.2","","""event"",""trial"",""time""
""fullscreenenter"",""1"",""3897""
""blur"",""7"",""58354""
""focus"",""7"",""66505""
","""event"",""trial"",""time""
""blur"",""7"",""58354""
","""event"",""trial"",""time""
""focus"",""7"",""66505""
","""event"",""trial"",""time""
""fullscreenenter"",""1"",""3897""
","
","","","-1","","","22","12324","5578","&#9826;","elianto","#f73b6a7A","-1","-1","1","-10","[]","0","0","3","","","","","","","",""
"pit-trial","63","593405","0.0-2.0-14.0-4.0","battery-v0.2","","""event"",""trial"",""time""
""fullscreenenter"",""1"",""3897""
""blur"",""7"",""58354""
""focus"",""7"",""66505""
","""event"",""trial"",""time""
""blur"",""7"",""58354""
","""event"",""trial"",""time""
""focus"",""7"",""66505""
","""event"",""trial"",""time""
""fullscreenenter"",""1"",""3897""
","
","","","-1","","","22","12324","5578","&#9826;","elianto","#f73b6a7A","-1","-1","1","0","[]","0","0","3","","","","","","","",""
"pit-trial","64","598275","0.0-2.0-14.1-0.1","battery-v0.2","","""event"",""trial"",""time""
""fullscreenenter"",""1"",""3897""
""blur"",""7"",""58354""
""focus"",""7"",""66505""
","""event"",""trial"",""time""
""blur"",""7"",""58354""
","""event"",""trial"",""time""
""focus"",""7"",""66505""
","""event"",""trial"",""time""
""fullscreenenter"",""1"",""3897""
","
","","","-1","","","22","12324","5578","&#9826;","elianto","#f73b6a7A","-1","-1","1","0","[]","0","0","3","","","","","","","",""
"pit-trial","65","603131","0.0-2.0-14.1-1.1","battery-v0.2","","""event"",""trial"",""time""
""fullscreenenter"",""1"",""3897""
""blur"",""7"",""58354""
""focus"",""7"",""66505""
","""event"",""trial"",""time""
""blur"",""7"",""58354""
","""event"",""trial"",""time""
""focus"",""7"",""66505""
","""event"",""trial"",""time""
""fullscreenenter"",""1"",""3897""
","
","","","-1","","","22","12324","5578","&#9826;","elianto","#f73b6a7A","-1","-1","1","0","[]","0","0","3","","","","","","","",""
"pit-trial","66","607985","0.0-2.0-14.1-2.1","battery-v0.2","","""event"",""trial"",""time""
""fullscreenenter"",""1"",""3897""
""blur"",""7"",""58354""
""focus"",""7"",""66505""
","""event"",""trial"",""time""
""blur"",""7"",""58354""
","""event"",""trial"",""time""
""focus"",""7"",""66505""
","""event"",""trial"",""time""
""fullscreenenter"",""1"",""3897""
","
","","","-1","","","22","12324","5578","&#9826;","elianto","#f73b6a7A","-1","-1","1","0","[]","0","0","3","","","","","","","",""
"pit-trial","67","612839","0.0-2.0-14.1-3.1","battery-v0.2","","""event"",""trial"",""time""
""fullscreenenter"",""1"",""3897""
""blur"",""7"",""58354""
""focus"",""7"",""66505""
","""event"",""trial"",""time""
""blur"",""7"",""58354""
","""event"",""trial"",""time""
""focus"",""7"",""66505""
","""event"",""trial"",""time""
""fullscreenenter"",""1"",""3897""
","
","","","-1","","","22","12324","5578","&#9826;","elianto","#f73b6a7A","-1","-1","1","-10","[]","0","0","3","","","","","","","",""
"pit-trial","68","617701","0.0-2.0-14.1-4.1","battery-v0.2","","""event"",""trial"",""time""
""fullscreenenter"",""1"",""3897""
""blur"",""7"",""58354""
""focus"",""7"",""66505""
","""event"",""trial"",""time""
""blur"",""7"",""58354""
","""event"",""trial"",""time""
""focus"",""7"",""66505""
","""event"",""trial"",""time""
""fullscreenenter"",""1"",""3897""
","
","","","-1","","","22","12324","5578","&#9826;","elianto","#f73b6a7A","-1","-1","1","0","[]","0","0","3","","","","","","","",""
"pit-trial","69","622558","0.0-2.0-14.2-0.2","battery-v0.2","","""event"",""trial"",""time""
""fullscreenenter"",""1"",""3897""
""blur"",""7"",""58354""
""focus"",""7"",""66505""
","""event"",""trial"",""time""
""blur"",""7"",""58354""
","""event"",""trial"",""time""
""focus"",""7"",""66505""
","""event"",""trial"",""time""
""fullscreenenter"",""1"",""3897""
","
","","","-1","","","22","12324","5578","&#9826;","elianto","#f73b6a7A","-1","-1","1","0","[]","0","0","3","","","","","","","",""
"pit-trial","70","627411","0.0-2.0-14.2-1.2","battery-v0.2","","""event"",""trial"",""time""
""fullscreenenter"",""1"",""3897""
""blur"",""7"",""58354""
""focus"",""7"",""66505""
","""event"",""trial"",""time""
""blur"",""7"",""58354""
","""event"",""trial"",""time""
""focus"",""7"",""66505""
","""event"",""trial"",""time""
""fullscreenenter"",""1"",""3897""
","
","","","-1","","","22","12324","5578","&#9826;","elianto","#f73b6a7A","-1","-1","1","0","[]","0","0","3","","","","","","","",""
"pit-trial","71","632266","0.0-2.0-14.2-2.2","battery-v0.2","","""event"",""trial"",""time""
""fullscreenenter"",""1"",""3897""
""blur"",""7"",""58354""
""focus"",""7"",""66505""
","""event"",""trial"",""time""
""blur"",""7"",""58354""
","""event"",""trial"",""time""
""focus"",""7"",""66505""
","""event"",""trial"",""time""
""fullscreenenter"",""1"",""3897""
","
","","","-1","","","22","12324","5578","&#9826;","elianto","#f73b6a7A","-1","-1","1","0","[]","0","0","3","","","","","","","",""
"pit-trial","72","637121","0.0-2.0-14.2-3.2","battery-v0.2","","""event"",""trial"",""time""
""fullscreenenter"",""1"",""3897""
""blur"",""7"",""58354""
""focus"",""7"",""66505""
","""event"",""trial"",""time""
""blur"",""7"",""58354""
","""event"",""trial"",""time""
""focus"",""7"",""66505""
","""event"",""trial"",""time""
""fullscreenenter"",""1"",""3897""
","
","","","-1","","","22","12324","5578","&#9826;","elianto","#f73b6a7A","-1","-1","1","-10","[]","0","0","3","","","","","","","",""
"pit-trial","73","641975","0.0-2.0-14.2-4.2","battery-v0.2","","""event"",""trial"",""time""
""fullscreenenter"",""1"",""3897""
""blur"",""7"",""58354""
""focus"",""7"",""66505""
","""event"",""trial"",""time""
""blur"",""7"",""58354""
","""event"",""trial"",""time""
""focus"",""7"",""66505""
","""event"",""trial"",""time""
""fullscreenenter"",""1"",""3897""
","
","","","-1","","","22","12324","5578","&#9826;","elianto","#f73b6a7A","-1","-1","1","0","[]","0","0","3","","","","","","","",""
"pit-trial","74","646831","0.0-2.0-14.3-0.3","battery-v0.2","","""event"",""trial"",""time""
""fullscreenenter"",""1"",""3897""
""blur"",""7"",""58354""
""focus"",""7"",""66505""
","""event"",""trial"",""time""
""blur"",""7"",""58354""
","""event"",""trial"",""time""
""focus"",""7"",""66505""
","""event"",""trial"",""time""
""fullscreenenter"",""1"",""3897""
","
","","","-1","","","22","12324","5578","&#9826;","elianto","#f73b6a7A","-1","-1","1","0","[]","0","0","3","","","","","","","",""
"pit-trial","75","651687","0.0-2.0-14.3-1.3","battery-v0.2","","""event"",""trial"",""time""
""fullscreenenter"",""1"",""3897""
""blur"",""7"",""58354""
""focus"",""7"",""66505""
","""event"",""trial"",""time""
""blur"",""7"",""58354""
","""event"",""trial"",""time""
""focus"",""7"",""66505""
","""event"",""trial"",""time""
""fullscreenenter"",""1"",""3897""
","
","","","-1","","","22","12324","5578","&#9826;","elianto","#f73b6a7A","-1","-1","1","0","[]","0","0","3","","","","","","","",""
"pit-trial","76","656542","0.0-2.0-14.3-2.3","battery-v0.2","","""event"",""trial"",""time""
""fullscreenenter"",""1"",""3897""
""blur"",""7"",""58354""
""focus"",""7"",""66505""
","""event"",""trial"",""time""
""blur"",""7"",""58354""
","""event"",""trial"",""time""
""focus"",""7"",""66505""
","""event"",""trial"",""time""
""fullscreenenter"",""1"",""3897""
","
","","","-1","","","22","12324","5578","&#9826;","elianto","#f73b6a7A","-1","-1","1","0","[]","0","0","3","","","","","","","",""
"pit-trial","77","661396","0.0-2.0-14.3-3.3","battery-v0.2","","""event"",""trial"",""time""
""fullscreenenter"",""1"",""3897""
""blur"",""7"",""58354""
""focus"",""7"",""66505""
","""event"",""trial"",""time""
""blur"",""7"",""58354""
","""event"",""trial"",""time""
""focus"",""7"",""66505""
","""event"",""trial"",""time""
""fullscreenenter"",""1"",""3897""
","
","","","-1","","","22","12324","5578","&#9826;","elianto","#f73b6a7A","-1","-1","1","-10","[]","0","0","3","","","","","","","",""
"pit-trial","78","666252","0.0-2.0-14.3-4.3","battery-v0.2","","""event"",""trial"",""time""
""fullscreenenter"",""1"",""3897""
""blur"",""7"",""58354""
""focus"",""7"",""66505""
","""event"",""trial"",""time""
""blur"",""7"",""58354""
","""event"",""trial"",""time""
""focus"",""7"",""66505""
","""event"",""trial"",""time""
""fullscreenenter"",""1"",""3897""
","
","","","-1","","","22","12324","5578","&#9826;","elianto","#f73b6a7A","-1","-1","1","0","[]","0","0","3","","","","","","","",""
"call-function","79","666256","0.0-2.0-15.0","battery-v0.2","","""event"",""trial"",""time""
""fullscreenenter"",""1"",""3897""
""blur"",""7"",""58354""
""focus"",""7"",""66505""
","""event"",""trial"",""time""
""blur"",""7"",""58354""
","""event"",""trial"",""time""
""focus"",""7"",""66505""
","""event"",""trial"",""time""
""fullscreenenter"",""1"",""3897""
","
","","","","","","","","","","","","","","","","","","","","","","","","","","",""
"pit-instructions","80","696963","0.0-2.0-16.0","battery-v0.2","","""event"",""trial"",""time""
""fullscreenenter"",""1"",""3897""
""blur"",""7"",""58354""
""focus"",""7"",""66505""
","""event"",""trial"",""time""
""blur"",""7"",""58354""
","""event"",""trial"",""time""
""focus"",""7"",""66505""
","""event"",""trial"",""time""
""fullscreenenter"",""1"",""3897""
","
","","[{""page_index"":0,""viewing_time"":11426.399999999907},{""page_index"":1,""viewing_time"":9006.399999999907},{""page_index"":2,""viewing_time"":4962.90000000014},{""page_index"":3,""viewing_time"":5309.399999999907}]","30705.399999999907","","","","","","","","","","","","","","","","","","","","","","","",""
"pit-trial","81","700852","0.0-2.0-17.0-0.0","battery-v0.2","","""event"",""trial"",""time""
""fullscreenenter"",""1"",""3897""
""blur"",""7"",""58354""
""focus"",""7"",""66505""
","""event"",""trial"",""time""
""blur"",""7"",""58354""
","""event"",""trial"",""time""
""focus"",""7"",""66505""
","""event"",""trial"",""time""
""fullscreenenter"",""1"",""3897""
","
","","","1030.3000000000466","","","22","12324","5578","&#9789;","elianto","#f73b6a7A"," "," ","1","0","[1882.1000000000931]","1","0","4","","","","","","","",""
"pit-trial","82","703931","0.0-2.0-17.0-1.0","battery-v0.2","","""event"",""trial"",""time""
""fullscreenenter"",""1"",""3897""
""blur"",""7"",""58354""
""focus"",""7"",""66505""
","""event"",""trial"",""time""
""blur"",""7"",""58354""
","""event"",""trial"",""time""
""focus"",""7"",""66505""
","""event"",""trial"",""time""
""fullscreenenter"",""1"",""3897""
","
","","","210.29999999981374","","","22","12324","5578","&#9789;","elianto","#f73b6a7A"," "," ","1","0","[1070.5]","1","0","4","","","","","","","",""
"pit-trial","83","707032","0.0-2.0-17.0-2.0","battery-v0.2","","""event"",""trial"",""time""
""fullscreenenter"",""1"",""3897""
""blur"",""7"",""58354""
""focus"",""7"",""66505""
","""event"",""trial"",""time""
""blur"",""7"",""58354""
","""event"",""trial"",""time""
""focus"",""7"",""66505""
","""event"",""trial"",""time""
""fullscreenenter"",""1"",""3897""
","
","","","233.39999999990687","","","22","12324","5578","&#9789;","elianto","#f73b6a7A"," "," ","1","0","[1083.8000000000466]","1","0","4","","","","","","","",""
"pit-trial","84","710191","0.0-2.0-17.0-3.0","battery-v0.2","","""event"",""trial"",""time""
""fullscreenenter"",""1"",""3897""
""blur"",""7"",""58354""
""focus"",""7"",""66505""
","""event"",""trial"",""time""
""blur"",""7"",""58354""
","""event"",""trial"",""time""
""focus"",""7"",""66505""
","""event"",""trial"",""time""
""fullscreenenter"",""1"",""3897""
","
","","","287.30000000004657","","","22","12324","5578","&#9789;","elianto","#f73b6a7A"," "," ","1","-10","[1149.6999999999534]","1","0","4","","","","","","","",""
"pit-trial","85","713402","0.0-2.0-17.0-4.0","battery-v0.2","","""event"",""trial"",""time""
""fullscreenenter"",""1"",""3897""
""blur"",""7"",""58354""
""focus"",""7"",""66505""
","""event"",""trial"",""time""
""blur"",""7"",""58354""
","""event"",""trial"",""time""
""focus"",""7"",""66505""
","""event"",""trial"",""time""
""fullscreenenter"",""1"",""3897""
","
","","","337.0999999998603","","","22","12324","5578","&#9789;","elianto","#f73b6a7A"," "," ","1","0","[1191.5999999998603]","1","0","4","","","","","","","",""
"pit-trial","86","716692","0.0-2.0-17.1-0.1","battery-v0.2","","""event"",""trial"",""time""
""fullscreenenter"",""1"",""3897""
""blur"",""7"",""58354""
""focus"",""7"",""66505""
","""event"",""trial"",""time""
""blur"",""7"",""58354""
","""event"",""trial"",""time""
""focus"",""7"",""66505""
","""event"",""trial"",""time""
""fullscreenenter"",""1"",""3897""
","
","","","407.10000000009313","","","22","12324","5578","&#9789;","elianto","#f73b6a7A"," "," ","1","0","[1266.6999999999534]","1","0","4","","","","","","","",""
"pit-trial","87","719732","0.0-2.0-17.1-1.1","battery-v0.2","","""event"",""trial"",""time""
""fullscreenenter"",""1"",""3897""
""blur"",""7"",""58354""
""focus"",""7"",""66505""
","""event"",""trial"",""time""
""blur"",""7"",""58354""
","""event"",""trial"",""time""
""focus"",""7"",""66505""
","""event"",""trial"",""time""
""fullscreenenter"",""1"",""3897""
","
","","","168.9000000001397","","","22","12324","5578","&#9789;","elianto","#f73b6a7A"," "," ","1","0","[1020.8999999999069]","1","0","4","","","","","","","",""
"pit-trial","88","722972","0.0-2.0-17.1-2.1","battery-v0.2","","""event"",""trial"",""time""
""fullscreenenter"",""1"",""3897""
""blur"",""7"",""58354""
""focus"",""7"",""66505""
","""event"",""trial"",""time""
""blur"",""7"",""58354""
","""event"",""trial"",""time""
""focus"",""7"",""66505""
","""event"",""trial"",""time""
""fullscreenenter"",""1"",""3897""
","
","","","369.19999999995343","","","22","12324","5578","&#9789;","elianto","#f73b6a7A"," "," ","1","0","[1225.1999999999534]","1","0","4","","","","","","","",""
"pit-trial","89","726102","0.0-2.0-17.1-3.1","battery-v0.2","","""event"",""trial"",""time""
""fullscreenenter"",""1"",""3897""
""blur"",""7"",""58354""
""focus"",""7"",""66505""
","""event"",""trial"",""time""
""blur"",""7"",""58354""
","""event"",""trial"",""time""
""focus"",""7"",""66505""
","""event"",""trial"",""time""
""fullscreenenter"",""1"",""3897""
","
","","","270.89999999990687","","","22","12324","5578","&#9789;","elianto","#f73b6a7A"," "," ","1","-10","[1125.1999999999534]","1","0","4","","","","","","","",""
"pit-trial","90","729302","0.0-2.0-17.1-4.1","battery-v0.2","","""event"",""trial"",""time""
""fullscreenenter"",""1"",""3897""
""blur"",""7"",""58354""
""focus"",""7"",""66505""
","""event"",""trial"",""time""
""blur"",""7"",""58354""
","""event"",""trial"",""time""
""focus"",""7"",""66505""
","""event"",""trial"",""time""
""fullscreenenter"",""1"",""3897""
","
","","","343.80000000004657","","","22","12324","5578","&#9789;","elianto","#f73b6a7A"," "," ","1","0","[1194.9000000001397]","1","0","4","","","","","","","",""
"pit-trial","91","732589","0.0-2.0-17.2-0.2","battery-v0.2","","""event"",""trial"",""time""
""fullscreenenter"",""1"",""3897""
""blur"",""7"",""58354""
""focus"",""7"",""66505""
","""event"",""trial"",""time""
""blur"",""7"",""58354""
","""event"",""trial"",""time""
""focus"",""7"",""66505""
","""event"",""trial"",""time""
""fullscreenenter"",""1"",""3897""
","
","","","430.5","","","22","12324","5578","&#9789;","elianto","#f73b6a7A"," "," ","1","0","[1280.9000000001397]","1","0","4","","","","","","","",""
"pit-trial","92","735865","0.0-2.0-17.2-1.2","battery-v0.2","","""event"",""trial"",""time""
""fullscreenenter"",""1"",""3897""
""blur"",""7"",""58354""
""focus"",""7"",""66505""
","""event"",""trial"",""time""
""blur"",""7"",""58354""
","""event"",""trial"",""time""
""focus"",""7"",""66505""
","""event"",""trial"",""time""
""fullscreenenter"",""1"",""3897""
","
","","","421.5","","","22","12324","5578","&#9789;","elianto","#f73b6a7A"," "," ","1","0","[1271.5]","1","0","4","","","","","","","",""
"pit-trial","93","739189","0.0-2.0-17.2-2.2","battery-v0.2","","""event"",""trial"",""time""
""fullscreenenter"",""1"",""3897""
""blur"",""7"",""58354""
""focus"",""7"",""66505""
","""event"",""trial"",""time""
""blur"",""7"",""58354""
","""event"",""trial"",""time""
""focus"",""7"",""66505""
","""event"",""trial"",""time""
""fullscreenenter"",""1"",""3897""
","
","","","469.39999999990687","","","22","12324","5578","&#9789;","elianto","#f73b6a7A"," "," ","1","0","[1320.5999999998603]","1","0","4","","","","","","","",""
"pit-trial","94","742630","0.0-2.0-17.2-3.2","battery-v0.2","","""event"",""trial"",""time""
""fullscreenenter"",""1"",""3897""
""blur"",""7"",""58354""
""focus"",""7"",""66505""
","""event"",""trial"",""time""
""blur"",""7"",""58354""
","""event"",""trial"",""time""
""focus"",""7"",""66505""
","""event"",""trial"",""time""
""fullscreenenter"",""1"",""3897""
","
","","","587.8999999999069","","","22","12324","5578","&#9789;","elianto","#f73b6a7A"," "," ","1","-10","[1438.1000000000931]","1","0","4","","","","","","","",""
"pit-trial","95","745977","0.0-2.0-17.2-4.2","battery-v0.2","","""event"",""trial"",""time""
""fullscreenenter"",""1"",""3897""
""blur"",""7"",""58354""
""focus"",""7"",""66505""
","""event"",""trial"",""time""
""blur"",""7"",""58354""
","""event"",""trial"",""time""
""focus"",""7"",""66505""
","""event"",""trial"",""time""
""fullscreenenter"",""1"",""3897""
","
","","","484.89999999990687","","","22","12324","5578","&#9789;","elianto","#f73b6a7A"," "," ","1","0","[1343]","1","0","4","","","","","","","",""
"pit-trial","96","749290","0.0-2.0-17.3-0.3","battery-v0.2","","""event"",""trial"",""time""
""fullscreenenter"",""1"",""3897""
""blur"",""7"",""58354""
""focus"",""7"",""66505""
","""event"",""trial"",""time""
""blur"",""7"",""58354""
","""event"",""trial"",""time""
""focus"",""7"",""66505""
","""event"",""trial"",""time""
""fullscreenenter"",""1"",""3897""
","
","","","458.19999999995343","","","22","12324","5578","&#9789;","elianto","#f73b6a7A"," "," ","1","0","[1308.8000000000466]","1","0","4","","","","","","","",""
"pit-trial","97","752597","0.0-2.0-17.3-1.3","battery-v0.2","","""event"",""trial"",""time""
""fullscreenenter"",""1"",""3897""
""blur"",""7"",""58354""
""focus"",""7"",""66505""
","""event"",""trial"",""time""
""blur"",""7"",""58354""
","""event"",""trial"",""time""
""focus"",""7"",""66505""
","""event"",""trial"",""time""
""fullscreenenter"",""1"",""3897""
","
","","","452.5","","","22","12324","5578","&#9789;","elianto","#f73b6a7A"," "," ","1","0","[1303.2999999998137]","1","0","4","","","","","","","",""
"pit-trial","98","755855","0.0-2.0-17.3-2.3","battery-v0.2","","""event"",""trial"",""time""
""fullscreenenter"",""1"",""3897""
""blur"",""7"",""58354""
""focus"",""7"",""66505""
","""event"",""trial"",""time""
""blur"",""7"",""58354""
","""event"",""trial"",""time""
""focus"",""7"",""66505""
","""event"",""trial"",""time""
""fullscreenenter"",""1"",""3897""
","
","","","404.0999999998603","","","22","12324","5578","&#9789;","elianto","#f73b6a7A"," "," ","1","0","[1254]","1","0","4","","","","","","","",""
"pit-trial","99","758887","0.0-2.0-17.3-3.3","battery-v0.2","","""event"",""trial"",""time""
""fullscreenenter"",""1"",""3897""
""blur"",""7"",""58354""
""focus"",""7"",""66505""
","""event"",""trial"",""time""
""blur"",""7"",""58354""
","""event"",""trial"",""time""
""focus"",""7"",""66505""
","""event"",""trial"",""time""
""fullscreenenter"",""1"",""3897""
","
","","","179.80000000004657","","","22","12324","5578","&#9789;","elianto","#f73b6a7A"," "," ","1","-10","[1030.1999999999534]","1","0","4","","","","","","","",""
"pit-trial","100","762214","0.0-2.0-17.3-4.3","battery-v0.2","","""event"",""trial"",""time""
""fullscreenenter"",""1"",""3897""
""blur"",""7"",""58354""
""focus"",""7"",""66505""
","""event"",""trial"",""time""
""blur"",""7"",""58354""
","""event"",""trial"",""time""
""focus"",""7"",""66505""
","""event"",""trial"",""time""
""fullscreenenter"",""1"",""3897""
","
","","","471.39999999990687","","","22","12324","5578","&#9789;","elianto","#f73b6a7A"," "," ","1","0","[1322.5999999998603]","1","0","4","","","","","","","",""
"call-function","101","762217","0.0-2.0-18.0","battery-v0.2","","""event"",""trial"",""time""
""fullscreenenter"",""1"",""3897""
""blur"",""7"",""58354""
""focus"",""7"",""66505""
","""event"",""trial"",""time""
""blur"",""7"",""58354""
","""event"",""trial"",""time""
""focus"",""7"",""66505""
","""event"",""trial"",""time""
""fullscreenenter"",""1"",""3897""
","
","","","","","","","","","","","","","","","","","","","","","","","","","","",""
"pit-instructions","102","837779","0.0-2.0-19.0","battery-v0.2","","""event"",""trial"",""time""
""fullscreenenter"",""1"",""3897""
""blur"",""7"",""58354""
""focus"",""7"",""66505""
","""event"",""trial"",""time""
""blur"",""7"",""58354""
","""event"",""trial"",""time""
""focus"",""7"",""66505""
","""event"",""trial"",""time""
""fullscreenenter"",""1"",""3897""
","
","","[{""page_index"":0,""viewing_time"":6843.300000000047},{""page_index"":1,""viewing_time"":6507},{""page_index"":2,""viewing_time"":15810.90000000014},{""page_index"":3,""viewing_time"":8518.299999999814},{""page_index"":4,""viewing_time"":9007.100000000093},{""page_index"":5,""viewing_time"":8876.300000000047},{""page_index"":6,""viewing_time"":9043.59999999986},{""page_index"":7,""viewing_time"":6673.40000000014},{""page_index"":8,""viewing_time"":4279.399999999907}]","75559.70000000019","","","","","","","","","","","","","","","","","","","","","","","",""
"pit-comprehension","103","843576","0.0-2.0-20.0-0.0","battery-v0.2","","""event"",""trial"",""time""
""fullscreenenter"",""1"",""3897""
""blur"",""7"",""58354""
""focus"",""7"",""66505""
","""event"",""trial"",""time""
""blur"",""7"",""58354""
","""event"",""trial"",""time""
""focus"",""7"",""66505""
","""event"",""trial"",""time""
""fullscreenenter"",""1"",""3897""
","
","","","5794.100000000093","[""SPACE""]","0","22","12324","5578","","","","","","","","","","","","","","","","","","",""
"pit-instructions","104","847894","0.0-2.0-20.0-1.0","battery-v0.2","","""event"",""trial"",""time""
""fullscreenenter"",""1"",""3897""
""blur"",""7"",""58354""
""focus"",""7"",""66505""
","""event"",""trial"",""time""
""blur"",""7"",""58354""
","""event"",""trial"",""time""
""focus"",""7"",""66505""
","""event"",""trial"",""time""
""fullscreenenter"",""1"",""3897""
","
","","[{""page_index"":0,""viewing_time"":4279.299999999814}]","4279.5","","","","","","","","","","","","","","","","","","","","","","","",""
"pit-comprehension","105","855510","0.0-2.0-21.0-0.0","battery-v0.2","","""event"",""trial"",""time""
""fullscreenenter"",""1"",""3897""
""blur"",""7"",""58354""
""focus"",""7"",""66505""
","""event"",""trial"",""time""
""blur"",""7"",""58354""
","""event"",""trial"",""time""
""focus"",""7"",""66505""
","""event"",""trial"",""time""
""fullscreenenter"",""1"",""3897""
","
","","","7612.899999999907","[""10""]","0","22","12324","5578","","","","","","","","","","","","","","","","","","",""
"pit-instructions","106","857495","0.0-2.0-21.0-1.0","battery-v0.2","","""event"",""trial"",""time""
""fullscreenenter"",""1"",""3897""
""blur"",""7"",""58354""
""focus"",""7"",""66505""
","""event"",""trial"",""time""
""blur"",""7"",""58354""
","""event"",""trial"",""time""
""focus"",""7"",""66505""
","""event"",""trial"",""time""
""fullscreenenter"",""1"",""3897""
","
","","[{""page_index"":0,""viewing_time"":1952}]","1952.1999999999534","","","","","","","","","","","","","","","","","","","","","","","",""
"pit-comprehension","107","864675","0.0-2.0-22.0-0.0","battery-v0.2","","""event"",""trial"",""time""
""fullscreenenter"",""1"",""3897""
""blur"",""7"",""58354""
""focus"",""7"",""66505""
","""event"",""trial"",""time""
""blur"",""7"",""58354""
","""event"",""trial"",""time""
""focus"",""7"",""66505""
","""event"",""trial"",""time""
""fullscreenenter"",""1"",""3897""
","
","","","7177","[""0""]","0","22","12324","5578","","","","","","","","","","","","","","","","","","",""
"pit-instructions","108","866431","0.0-2.0-22.0-1.0","battery-v0.2","","""event"",""trial"",""time""
""fullscreenenter"",""1"",""3897""
""blur"",""7"",""58354""
""focus"",""7"",""66505""
","""event"",""trial"",""time""
""blur"",""7"",""58354""
","""event"",""trial"",""time""
""focus"",""7"",""66505""
","""event"",""trial"",""time""
""fullscreenenter"",""1"",""3897""
","
","","[{""page_index"":0,""viewing_time"":1716.3999999999069}]","1716.5999999998603","","","","","","","","","","","","","","","","","","","","","","","",""
"pit-comprehension","109","876225","0.0-2.0-23.0-0.0","battery-v0.2","","""event"",""trial"",""time""
""fullscreenenter"",""1"",""3897""
""blur"",""7"",""58354""
""focus"",""7"",""66505""
","""event"",""trial"",""time""
""blur"",""7"",""58354""
","""event"",""trial"",""time""
""focus"",""7"",""66505""
","""event"",""trial"",""time""
""fullscreenenter"",""1"",""3897""
","
","","","9791.800000000047","[""True""]","0","22","12324","5578","","","","","","","","","","","","","","","","","","",""
"pit-instructions","110","877968","0.0-2.0-23.0-1.0","battery-v0.2","","""event"",""trial"",""time""
""fullscreenenter"",""1"",""3897""
""blur"",""7"",""58354""
""focus"",""7"",""66505""
","""event"",""trial"",""time""
""blur"",""7"",""58354""
","""event"",""trial"",""time""
""focus"",""7"",""66505""
","""event"",""trial"",""time""
""fullscreenenter"",""1"",""3897""
","
","","[{""page_index"":0,""viewing_time"":1705.4000000001397}]","1705.6999999999534","","","","","","","","","","","","","","","","","","","","","","","",""
"pit-comprehension","111","885712","0.0-2.0-24.0-0.0","battery-v0.2","","""event"",""trial"",""time""
""fullscreenenter"",""1"",""3897""
""blur"",""7"",""58354""
""focus"",""7"",""66505""
","""event"",""trial"",""time""
""blur"",""7"",""58354""
","""event"",""trial"",""time""
""focus"",""7"",""66505""
","""event"",""trial"",""time""
""fullscreenenter"",""1"",""3897""
","
","","","7741.899999999907","[""True""]","0","22","12324","5578","","","","","","","","","","","","","","","","","","",""
"pit-instructions","112","887454","0.0-2.0-24.0-1.0","battery-v0.2","","""event"",""trial"",""time""
""fullscreenenter"",""1"",""3897""
""blur"",""7"",""58354""
""focus"",""7"",""66505""
","""event"",""trial"",""time""
""blur"",""7"",""58354""
","""event"",""trial"",""time""
""focus"",""7"",""66505""
","""event"",""trial"",""time""
""fullscreenenter"",""1"",""3897""
","
","","[{""page_index"":0,""viewing_time"":1707.1000000000931}]","1707.3000000000466","","","","","","","","","","","","","","","","","","","","","","","",""
"pit-comprehension","113","894404","0.0-2.0-25.0-0.0","battery-v0.2","","""event"",""trial"",""time""
""fullscreenenter"",""1"",""3897""
""blur"",""7"",""58354""
""focus"",""7"",""66505""
","""event"",""trial"",""time""
""blur"",""7"",""58354""
","""event"",""trial"",""time""
""focus"",""7"",""66505""
","""event"",""trial"",""time""
""fullscreenenter"",""1"",""3897""
","
","","","6947.5","[""True""]","0","22","12324","5578","","","","","","","","","","","","","","","","","","",""
"pit-instructions","114","896210","0.0-2.0-25.0-1.0","battery-v0.2","","""event"",""trial"",""time""
""fullscreenenter"",""1"",""3897""
""blur"",""7"",""58354""
""focus"",""7"",""66505""
","""event"",""trial"",""time""
""blur"",""7"",""58354""
","""event"",""trial"",""time""
""focus"",""7"",""66505""
","""event"",""trial"",""time""
""fullscreenenter"",""1"",""3897""
","
","","[{""page_index"":0,""viewing_time"":1769.0999999998603}]","1769.3999999999069","","","","","","","","","","","","","","","","","","","","","","","",""
"pit-comprehension","115","901941","0.0-2.0-26.0-0.0","battery-v0.2","","""event"",""trial"",""time""
""fullscreenenter"",""1"",""3897""
""blur"",""7"",""58354""
""focus"",""7"",""66505""
","""event"",""trial"",""time""
""blur"",""7"",""58354""
","""event"",""trial"",""time""
""focus"",""7"",""66505""
","""event"",""trial"",""time""
""fullscreenenter"",""1"",""3897""
","
","","","5728.800000000047","[""False""]","0","22","12324","5578","","","","","","","","","","","","","","","","","","",""
"pit-instructions","116","907671","0.0-2.0-26.0-1.0","battery-v0.2","","""event"",""trial"",""time""
""fullscreenenter"",""1"",""3897""
""blur"",""7"",""58354""
""focus"",""7"",""66505""
","""event"",""trial"",""time""
""blur"",""7"",""58354""
","""event"",""trial"",""time""
""focus"",""7"",""66505""
","""event"",""trial"",""time""
""fullscreenenter"",""1"",""3897""
","
","","[{""page_index"":0,""viewing_time"":5691.600000000093}]","5691.800000000047","","","","","","","","","","","","","","","","","","","","","","","",""
"pit-instructions","117","925296","0.0-3.0","battery-v0.2","","""event"",""trial"",""time""
""fullscreenenter"",""1"",""3897""
""blur"",""7"",""58354""
""focus"",""7"",""66505""
","""event"",""trial"",""time""
""blur"",""7"",""58354""
","""event"",""trial"",""time""
""focus"",""7"",""66505""
","""event"",""trial"",""time""
""fullscreenenter"",""1"",""3897""
","
","","[{""page_index"":0,""viewing_time"":4253.5},{""page_index"":1,""viewing_time"":5383.5},{""page_index"":2,""viewing_time"":7986.5}]","17623.700000000186","","","","","","","","","","","","","","","","","","","","","","","",""
"pit-trial","118","929451","0.0-4.0","battery-v0.2","","""event"",""trial"",""time""
""fullscreenenter"",""1"",""3897""
""blur"",""7"",""58354""
""focus"",""7"",""66505""
","""event"",""trial"",""time""
""blur"",""7"",""58354""
","""event"",""trial"",""time""
""focus"",""7"",""66505""
","""event"",""trial"",""time""
""fullscreenenter"",""1"",""3897""
","
","","","1282.5","","","22","12324","5578","&#9730;","elianto","#3366ff99"," "," ","1","+10","[2136.8000000000466]","1","1","","","12324","1","1","1","win","go","0"
"pit-trial","119","934321","0.0-5.0","battery-v0.2","","""event"",""trial"",""time""
""fullscreenenter"",""1"",""3897""
""blur"",""7"",""58354""
""focus"",""7"",""66505""
","""event"",""trial"",""time""
""blur"",""7"",""58354""
","""event"",""trial"",""time""
""focus"",""7"",""66505""
","""event"",""trial"",""time""
""fullscreenenter"",""1"",""3897""
","
","","","-1","","","22","12324","5578","&#9728;","elianto","#f73b6a7A","-1","-1","1","-10","[]","0","1","","","12324","2","0","4","lose","no-go","1"
"pit-trial","120","939201","0.0-6.0","battery-v0.2","","""event"",""trial"",""time""
""fullscreenenter"",""1"",""3897""
""blur"",""7"",""58354""
""focus"",""7"",""66505""
","""event"",""trial"",""time""
""blur"",""7"",""58354""
","""event"",""trial"",""time""
""focus"",""7"",""66505""
","""event"",""trial"",""time""
""fullscreenenter"",""1"",""3897""
","
","","","-1","","","22","12324","5578","&#9733;","elianto","#3366ff99","-1","-1","1","+10","[]","0","1","","","12324","3","2","2","win","no-go","0"
"pit-trial","121","942960","0.0-7.0","battery-v0.2","","""event"",""trial"",""time""
""fullscreenenter"",""1"",""3897""
""blur"",""7"",""58354""
""focus"",""7"",""66505""
","""event"",""trial"",""time""
""blur"",""7"",""58354""
","""event"",""trial"",""time""
""focus"",""7"",""66505""
","""event"",""trial"",""time""
""fullscreenenter"",""1"",""3897""
","
","","","898.5","","","22","12324","5578","&#9752;","elianto","#f73b6a7A"," "," ","1","0","[1748.6999999999534]","1","1","","","12324","4","3","3","lose","go","0"
"pit-trial","122","946461","0.0-8.0","battery-v0.2","","""event"",""trial"",""time""
""fullscreenenter"",""1"",""3897""
""blur"",""7"",""58354""
""focus"",""7"",""66505""
","""event"",""trial"",""time""
""blur"",""7"",""58354""
","""event"",""trial"",""time""
""focus"",""7"",""66505""
","""event"",""trial"",""time""
""fullscreenenter"",""1"",""3897""
","
","","","631.3000000000466","","","22","12324","5578","&#9752;","elianto","#f73b6a7A"," "," ","1","0","[1488.1999999999534]","1","1","","","12324","5","3","3","lose","go","0"
"pit-trial","123","950101","0.0-9.0","battery-v0.2","","""event"",""trial"",""time""
""fullscreenenter"",""1"",""3897""
""blur"",""7"",""58354""
""focus"",""7"",""66505""
","""event"",""trial"",""time""
""blur"",""7"",""58354""
","""event"",""trial"",""time""
""focus"",""7"",""66505""
","""event"",""trial"",""time""
""fullscreenenter"",""1"",""3897""
","
","","","764","","","22","12324","5578","&#9730;","elianto","#3366ff99"," "," ","1","+10","[1619.5]","1","1","","","12324","6","1","1","win","go","0"
"pit-trial","124","954140","0.0-10.0","battery-v0.2","","""event"",""trial"",""time""
""fullscreenenter"",""1"",""3897""
""blur"",""7"",""58354""
""focus"",""7"",""66505""
","""event"",""trial"",""time""
""blur"",""7"",""58354""
","""event"",""trial"",""time""
""focus"",""7"",""66505""
","""event"",""trial"",""time""
""fullscreenenter"",""1"",""3897""
","
","","","1172.6999999999534","","","22","12324","5578","&#9728;","elianto","#f73b6a7A","-1"," ","0","-10","[2023.6999999999534]","1","1","","","12324","7","0","4","lose","no-go","0"
"pit-trial","125","958995","0.0-11.0","battery-v0.2","","""event"",""trial"",""time""
""fullscreenenter"",""1"",""3897""
""blur"",""7"",""58354""
""focus"",""7"",""66505""
","""event"",""trial"",""time""
""blur"",""7"",""58354""
","""event"",""trial"",""time""
""focus"",""7"",""66505""
","""event"",""trial"",""time""
""fullscreenenter"",""1"",""3897""
","
","","","-1","","","22","12324","5578","&#9733;","elianto","#3366ff99","-1","-1","1","+10","[]","0","1","","","12324","8","2","2","win","no-go","0"
"pit-trial","126","962740","0.0-12.0","battery-v0.2","","""event"",""trial"",""time""
""fullscreenenter"",""1"",""3897""
""blur"",""7"",""58354""
""focus"",""7"",""66505""
","""event"",""trial"",""time""
""blur"",""7"",""58354""
","""event"",""trial"",""time""
""focus"",""7"",""66505""
","""event"",""trial"",""time""
""fullscreenenter"",""1"",""3897""
","
","","","889.3999999999069","","","22","12324","5578","&#9752;","elianto","#f73b6a7A"," "," ","1","0","[1741.1999999999534]","1","1","","","12324","9","3","3","lose","go","0"
"pit-trial","127","966790","0.0-13.0","battery-v0.2","","""event"",""trial"",""time""
""fullscreenenter"",""1"",""3897""
""blur"",""7"",""58354""
""focus"",""7"",""66505""
","""event"",""trial"",""time""
""blur"",""7"",""58354""
","""event"",""trial"",""time""
""focus"",""7"",""66505""
","""event"",""trial"",""time""
""fullscreenenter"",""1"",""3897""
","
","","","1196.8000000000466","","","22","12324","5578","&#9728;","elianto","#f73b6a7A","-1"," ","0","-10","[2048]","1","1","","","12324","10","0","4","lose","no-go","0"
"pit-trial","128","971642","0.0-14.0","battery-v0.2","","""event"",""trial"",""time""
""fullscreenenter"",""1"",""3897""
""blur"",""7"",""58354""
""focus"",""7"",""66505""
","""event"",""trial"",""time""
""blur"",""7"",""58354""
","""event"",""trial"",""time""
""focus"",""7"",""66505""
","""event"",""trial"",""time""
""fullscreenenter"",""1"",""3897""
","
","","","-1","","","22","12324","5578","&#9733;","elianto","#3366ff99","-1","-1","1","+10","[]","0","1","","","12324","11","2","2","win","no-go","0"
"pit-trial","129","975414","0.0-15.0","battery-v0.2","","""event"",""trial"",""time""
""fullscreenenter"",""1"",""3897""
""blur"",""7"",""58354""
""focus"",""7"",""66505""
","""event"",""trial"",""time""
""blur"",""7"",""58354""
","""event"",""trial"",""time""
""focus"",""7"",""66505""
","""event"",""trial"",""time""
""fullscreenenter"",""1"",""3897""
","
","","","917.0999999998603","","","22","12324","5578","&#9730;","elianto","#3366ff99"," "," ","1","+10","[1767.8000000000466]","1","1","","","12324","12","1","1","win","go","0"
"pit-trial","130","979014","0.0-16.0","battery-v0.2","","""event"",""trial"",""time""
""fullscreenenter"",""1"",""3897""
""blur"",""7"",""58354""
""focus"",""7"",""66505""
","""event"",""trial"",""time""
""blur"",""7"",""58354""
","""event"",""trial"",""time""
""focus"",""7"",""66505""
","""event"",""trial"",""time""
""fullscreenenter"",""1"",""3897""
","
","","","746","","","22","12324","5578","&#9730;","elianto","#3366ff99"," "," ","1","+10","[1597.4000000001397]","1","1","","","12324","13","1","1","win","go","0"
"pit-trial","131","983866","0.0-17.0","battery-v0.2","","""event"",""trial"",""time""
""fullscreenenter"",""1"",""3897""
""blur"",""7"",""58354""
""focus"",""7"",""66505""
","""event"",""trial"",""time""
""blur"",""7"",""58354""
","""event"",""trial"",""time""
""focus"",""7"",""66505""
","""event"",""trial"",""time""
""fullscreenenter"",""1"",""3897""
","
","","","-1","","","22","12324","5578","&#9733;","elianto","#3366ff99","-1","-1","1","+10","[]","0","1","","","12324","14","2","2","win","no-go","0"
"pit-trial","132","988719","0.0-18.0","battery-v0.2","","""event"",""trial"",""time""
""fullscreenenter"",""1"",""3897""
""blur"",""7"",""58354""
""focus"",""7"",""66505""
","""event"",""trial"",""time""
""blur"",""7"",""58354""
","""event"",""trial"",""time""
""focus"",""7"",""66505""
","""event"",""trial"",""time""
""fullscreenenter"",""1"",""3897""
","
","","","-1","","","22","12324","5578","&#9728;","elianto","#f73b6a7A","-1","-1","1","0","[]","0","1","","","12324","15","0","4","lose","no-go","0"
"pit-trial","133","992394","0.0-19.0","battery-v0.2","","""event"",""trial"",""time""
""fullscreenenter"",""1"",""3897""
""blur"",""7"",""58354""
""focus"",""7"",""66505""
","""event"",""trial"",""time""
""blur"",""7"",""58354""
","""event"",""trial"",""time""
""focus"",""7"",""66505""
","""event"",""trial"",""time""
""fullscreenenter"",""1"",""3897""
","
","","","821.6999999999534","","","22","12324","5578","&#9752;","elianto","#f73b6a7A"," "," ","1","0","[1671.8999999999069]","1","1","","","12324","16","3","3","lose","go","0"
"pit-trial","134","997249","0.0-20.0","battery-v0.2","","""event"",""trial"",""time""
""fullscreenenter"",""1"",""3897""
""blur"",""7"",""58354""
""focus"",""7"",""66505""
","""event"",""trial"",""time""
""blur"",""7"",""58354""
","""event"",""trial"",""time""
""focus"",""7"",""66505""
","""event"",""trial"",""time""
""fullscreenenter"",""1"",""3897""
","
","","","-1","","","22","12324","5578","&#9728;","elianto","#f73b6a7A","-1","-1","1","0","[]","0","1","","","12324","17","0","4","lose","no-go","0"
"pit-trial","135","1000806","0.0-21.0","battery-v0.2","","""event"",""trial"",""time""
""fullscreenenter"",""1"",""3897""
""blur"",""7"",""58354""
""focus"",""7"",""66505""
","""event"",""trial"",""time""
""blur"",""7"",""58354""
","""event"",""trial"",""time""
""focus"",""7"",""66505""
","""event"",""trial"",""time""
""fullscreenenter"",""1"",""3897""
","
","","","701.8999999999069","","","22","12324","5578","&#9752;","elianto","#f73b6a7A"," "," ","1","-10","[1553.2999999998137]","1","1","","","12324","18","3","3","lose","go","1"
"pit-trial","136","1004311","0.0-22.0","battery-v0.2","","""event"",""trial"",""time""
""fullscreenenter"",""1"",""3897""
""blur"",""7"",""58354""
""focus"",""7"",""66505""
","""event"",""trial"",""time""
""blur"",""7"",""58354""
","""event"",""trial"",""time""
""focus"",""7"",""66505""
","""event"",""trial"",""time""
""fullscreenenter"",""1"",""3897""
","
","","","649.6999999999534","","","22","12324","5578","&#9730;","elianto","#3366ff99"," "," ","1","+10","[1500.9000000001397]","1","1","","","12324","19","1","1","win","go","0"
"pit-trial","137","1009165","0.0-23.0","battery-v0.2","","""event"",""trial"",""time""
""fullscreenenter"",""1"",""3897""
""blur"",""7"",""58354""
""focus"",""7"",""66505""
","""event"",""trial"",""time""
""blur"",""7"",""58354""
","""event"",""trial"",""time""
""focus"",""7"",""66505""
","""event"",""trial"",""time""
""fullscreenenter"",""1"",""3897""
","
","","","-1","","","22","12324","5578","&#9733;","elianto","#3366ff99","-1","-1","1","+10","[]","0","1","","","12324","20","2","2","win","no-go","0"
"pit-instructions","138","1023008","0.0-24.0","battery-v0.2","","""event"",""trial"",""time""
""fullscreenenter"",""1"",""3897""
""blur"",""7"",""58354""
""focus"",""7"",""66505""
","""event"",""trial"",""time""
""blur"",""7"",""58354""
","""event"",""trial"",""time""
""focus"",""7"",""66505""
","""event"",""trial"",""time""
""fullscreenenter"",""1"",""3897""
","
","","[{""page_index"":0,""viewing_time"":6128.09999999986},{""page_index"":1,""viewing_time"":7711.5}]","13839.799999999814","","","","","","","","","","","","","","","","","","","","","","","",""
"pit-trial","139","1026767","0.0-25.0","battery-v0.2","","""event"",""trial"",""time""
""fullscreenenter"",""1"",""3897""
""blur"",""7"",""58354""
""focus"",""7"",""66505""
","""event"",""trial"",""time""
""blur"",""7"",""58354""
","""event"",""trial"",""time""
""focus"",""7"",""66505""
","""event"",""trial"",""time""
""fullscreenenter"",""1"",""3897""
","
","","","892.6000000000931","","","22","12324","5578","b","elianto","#f73b6a7A","-1"," ","0","0","[1747.3000000000466]","1","2","","","12324","21","3","4","lose","no-go","1"
"pit-trial","140","1030787","0.0-26.0","battery-v0.2","","""event"",""trial"",""time""
""fullscreenenter"",""1"",""3897""
""blur"",""7"",""58354""
""focus"",""7"",""66505""
","""event"",""trial"",""time""
""blur"",""7"",""58354""
","""event"",""trial"",""time""
""focus"",""7"",""66505""
","""event"",""trial"",""time""
""fullscreenenter"",""1"",""3897""
","
","","","1142.8000000000466","","","22","12324","5578","n","elianto","#f73b6a7A"," "," ","1","0","[2004.8000000000466]","1","2","","","12324","22","0","3","lose","go","0"
"pit-trial","141","1035247","0.0-27.0","battery-v0.2","","""event"",""trial"",""time""
""fullscreenenter"",""1"",""3897""
""blur"",""7"",""58354""
""focus"",""7"",""66505""
","""event"",""trial"",""time""
""blur"",""7"",""58354""
","""event"",""trial"",""time""
""focus"",""7"",""66505""
","""event"",""trial"",""time""
""fullscreenenter"",""1"",""3897""
","
","","","1586.0999999998603","","","22","12324","5578","f","elianto","#3366ff99","-1"," ","0","0","[2444.5999999998603]","1","2","","","12324","23","1","2","win","no-go","0"
"pit-trial","142","1040127","0.0-28.0","battery-v0.2","","""event"",""trial"",""time""
""fullscreenenter"",""1"",""3897""
""blur"",""7"",""58354""
""focus"",""7"",""66505""
","""event"",""trial"",""time""
""blur"",""7"",""58354""
","""event"",""trial"",""time""
""focus"",""7"",""66505""
","""event"",""trial"",""time""
""fullscreenenter"",""1"",""3897""
","
","","","-1","","","22","12324","5578","t","elianto","#f73b6a7A"," ","-1","0","-10","[]","0","2","","","12324","24","2","3","lose","go","0"
"pit-trial","143","1044997","0.0-29.0","battery-v0.2","","""event"",""trial"",""time""
""fullscreenenter"",""1"",""3897""
""blur"",""7"",""58354""
""focus"",""7"",""66505""
","""event"",""trial"",""time""
""blur"",""7"",""58354""
","""event"",""trial"",""time""
""focus"",""7"",""66505""
","""event"",""trial"",""time""
""fullscreenenter"",""1"",""3897""
","
","","","-1","","","22","12324","5578","f","elianto","#3366ff99","-1","-1","1","+10","[]","0","2","","","12324","25","1","2","win","no-go","0"
"pit-trial","144","1049877","0.0-30.0","battery-v0.2","","""event"",""trial"",""time""
""fullscreenenter"",""1"",""3897""
""blur"",""7"",""58354""
""focus"",""7"",""66505""
","""event"",""trial"",""time""
""blur"",""7"",""58354""
","""event"",""trial"",""time""
""focus"",""7"",""66505""
","""event"",""trial"",""time""
""fullscreenenter"",""1"",""3897""
","
","","","-1","","","22","12324","5578","t","elianto","#f73b6a7A"," ","-1","0","-10","[]","0","2","","","12324","26","2","3","lose","go","0"
"pit-trial","145","1054624","0.0-31.0","battery-v0.2","","""event"",""trial"",""time""
""fullscreenenter"",""1"",""3897""
""blur"",""7"",""58354""
""focus"",""7"",""66505""
","""event"",""trial"",""time""
""blur"",""7"",""58354""
","""event"",""trial"",""time""
""focus"",""7"",""66505""
","""event"",""trial"",""time""
""fullscreenenter"",""1"",""3897""
","
","","","1892.5","","","22","12324","5578","n","elianto","#f73b6a7A"," "," ","1","0","[2743.399999999907]","1","2","","","12324","27","0","3","lose","go","0"
"pit-trial","146","1059478","0.0-32.0","battery-v0.2","","""event"",""trial"",""time""
""fullscreenenter"",""1"",""3897""
""blur"",""7"",""58354""
""focus"",""7"",""66505""
","""event"",""trial"",""time""
""blur"",""7"",""58354""
","""event"",""trial"",""time""
""focus"",""7"",""66505""
","""event"",""trial"",""time""
""fullscreenenter"",""1"",""3897""
","
","","","-1","","","22","12324","5578","b","elianto","#f73b6a7A","-1","-1","1","0","[]","0","2","","","12324","28","3","4","lose","no-go","0"
"pit-trial","147","1063561","0.0-33.0","battery-v0.2","","""event"",""trial"",""time""
""fullscreenenter"",""1"",""3897""
""blur"",""7"",""58354""
""focus"",""7"",""66505""
","""event"",""trial"",""time""
""blur"",""7"",""58354""
","""event"",""trial"",""time""
""focus"",""7"",""66505""
","""event"",""trial"",""time""
""fullscreenenter"",""1"",""3897""
","
","","","1224.6000000000931","","","22","12324","5578","n","elianto","#f73b6a7A"," "," ","1","0","[2076.9000000001397]","1","2","","","12324","29","0","3","lose","go","0"
"pit-trial","148","1067653","0.0-34.0","battery-v0.2","","""event"",""trial"",""time""
""fullscreenenter"",""1"",""3897""
""blur"",""7"",""58354""
""focus"",""7"",""66505""
","""event"",""trial"",""time""
""blur"",""7"",""58354""
","""event"",""trial"",""time""
""focus"",""7"",""66505""
","""event"",""trial"",""time""
""fullscreenenter"",""1"",""3897""
","
","","","1236.2000000001863","","","22","12324","5578","t","elianto","#f73b6a7A"," "," ","1","0","[2087.3000000000466]","1","2","","","12324","30","2","3","lose","go","0"
"pit-trial","149","1071951","0.0-35.0","battery-v0.2","","""event"",""trial"",""time""
""fullscreenenter"",""1"",""3897""
""blur"",""7"",""58354""
""focus"",""7"",""66505""
","""event"",""trial"",""time""
""blur"",""7"",""58354""
","""event"",""trial"",""time""
""focus"",""7"",""66505""
","""event"",""trial"",""time""
""fullscreenenter"",""1"",""3897""
","
","","","1442","","","22","12324","5578","b","elianto","#f73b6a7A","-1"," ","0","0","[2292.899999999907]","1","2","","","12324","31","3","4","lose","no-go","1"
"pit-trial","150","1076805","0.0-36.0","battery-v0.2","","""event"",""trial"",""time""
""fullscreenenter"",""1"",""3897""
""blur"",""7"",""58354""
""focus"",""7"",""66505""
","""event"",""trial"",""time""
""blur"",""7"",""58354""
","""event"",""trial"",""time""
""focus"",""7"",""66505""
","""event"",""trial"",""time""
""fullscreenenter"",""1"",""3897""
","
","","","-1","","","22","12324","5578","f","elianto","#3366ff99","-1","-1","1","+10","[]","0","2","","","12324","32","1","2","win","no-go","0"
"pit-trial","151","1081107","0.0-37.0","battery-v0.2","","""event"",""trial"",""time""
""fullscreenenter"",""1"",""3897""
""blur"",""7"",""58354""
""focus"",""7"",""66505""
","""event"",""trial"",""time""
""blur"",""7"",""58354""
","""event"",""trial"",""time""
""focus"",""7"",""66505""
","""event"",""trial"",""time""
""fullscreenenter"",""1"",""3897""
","
","","","1447.8999999999069","","","22","12324","5578","b","elianto","#f73b6a7A","-1"," ","0","-10","[2298.4000000001397]","1","2","","","12324","33","3","4","lose","no-go","0"
"pit-trial","152","1085578","0.0-38.0","battery-v0.2","","""event"",""trial"",""time""
""fullscreenenter"",""1"",""3897""
""blur"",""7"",""58354""
""focus"",""7"",""66505""
","""event"",""trial"",""time""
""blur"",""7"",""58354""
","""event"",""trial"",""time""
""focus"",""7"",""66505""
","""event"",""trial"",""time""
""fullscreenenter"",""1"",""3897""
","
","","","1617.3000000000466","","","22","12324","5578","t","elianto","#f73b6a7A"," "," ","1","0","[2468.8000000000466]","1","2","","","12324","34","2","3","lose","go","0"
"pit-trial","153","1090292","0.0-39.0","battery-v0.2","","""event"",""trial"",""time""
""fullscreenenter"",""1"",""3897""
""blur"",""7"",""58354""
""focus"",""7"",""66505""
","""event"",""trial"",""time""
""blur"",""7"",""58354""
","""event"",""trial"",""time""
""focus"",""7"",""66505""
","""event"",""trial"",""time""
""fullscreenenter"",""1"",""3897""
","
","","","1857.3000000000466","","","22","12324","5578","n","elianto","#f73b6a7A"," "," ","1","0","[2709.8000000000466]","1","2","","","12324","35","0","3","lose","go","0"
"pit-trial","154","1095147","0.0-40.0","battery-v0.2","","""event"",""trial"",""time""
""fullscreenenter"",""1"",""3897""
""blur"",""7"",""58354""
""focus"",""7"",""66505""
","""event"",""trial"",""time""
""blur"",""7"",""58354""
","""event"",""trial"",""time""
""focus"",""7"",""66505""
","""event"",""trial"",""time""
""fullscreenenter"",""1"",""3897""
","
","","","-1","","","22","12324","5578","f","elianto","#3366ff99","-1","-1","1","+10","[]","0","2","","","12324","36","1","2","win","no-go","0"
"pit-trial","155","1100003","0.0-41.0","battery-v0.2","","""event"",""trial"",""time""
""fullscreenenter"",""1"",""3897""
""blur"",""7"",""58354""
""focus"",""7"",""66505""
","""event"",""trial"",""time""
""blur"",""7"",""58354""
","""event"",""trial"",""time""
""focus"",""7"",""66505""
","""event"",""trial"",""time""
""fullscreenenter"",""1"",""3897""
","
","","","-1","","","22","12324","5578","n","elianto","#f73b6a7A"," ","-1","0","-10","[]","0","2","","","12324","37","0","3","lose","go","0"
"pit-trial","156","1104857","0.0-42.0","battery-v0.2","","""event"",""trial"",""time""
""fullscreenenter"",""1"",""3897""
""blur"",""7"",""58354""
""focus"",""7"",""66505""
","""event"",""trial"",""time""
""blur"",""7"",""58354""
","""event"",""trial"",""time""
""focus"",""7"",""66505""
","""event"",""trial"",""time""
""fullscreenenter"",""1"",""3897""
","
","","","-1","","","22","12324","5578","b","elianto","#f73b6a7A","-1","-1","1","0","[]","0","2","","","12324","38","3","4","lose","no-go","0"
"pit-trial","157","1109326","0.0-43.0","battery-v0.2","","""event"",""trial"",""time""
""fullscreenenter"",""1"",""3897""
""blur"",""7"",""58354""
""focus"",""7"",""66505""
","""event"",""trial"",""time""
""blur"",""7"",""58354""
","""event"",""trial"",""time""
""focus"",""7"",""66505""
","""event"",""trial"",""time""
""fullscreenenter"",""1"",""3897""
","
","","","1613.6999999999534","","","22","12324","5578","f","elianto","#3366ff99","-1"," ","0","+10","[2465.100000000093]","1","2","","","12324","39","1","2","win","no-go","1"
"pit-trial","158","1113380","0.0-44.0","battery-v0.2","","""event"",""trial"",""time""
""fullscreenenter"",""1"",""3897""
""blur"",""7"",""58354""
""focus"",""7"",""66505""
","""event"",""trial"",""time""
""blur"",""7"",""58354""
","""event"",""trial"",""time""
""focus"",""7"",""66505""
","""event"",""trial"",""time""
""fullscreenenter"",""1"",""3897""
","
","","","1196.6999999999534","","","22","12324","5578","t","elianto","#f73b6a7A"," "," ","1","0","[2049.9000000001397]","1","2","","","12324","40","2","3","lose","go","0"
"pit-trial","159","1116971","0.0-45.0","battery-v0.2","","""event"",""trial"",""time""
""fullscreenenter"",""1"",""3897""
""blur"",""7"",""58354""
""focus"",""7"",""66505""
","""event"",""trial"",""time""
""blur"",""7"",""58354""
","""event"",""trial"",""time""
""focus"",""7"",""66505""
","""event"",""trial"",""time""
""fullscreenenter"",""1"",""3897""
","
","","","737.5999999998603","","","22","12324","5578","t","elianto","#f73b6a7A"," "," ","1","0","[1588]","1","2","","","12324","41","2","3","lose","go","0"
"pit-trial","160","1121424","0.0-46.0","battery-v0.2","","""event"",""trial"",""time""
""fullscreenenter"",""1"",""3897""
""blur"",""7"",""58354""
""focus"",""7"",""66505""
","""event"",""trial"",""time""
""blur"",""7"",""58354""
","""event"",""trial"",""time""
""focus"",""7"",""66505""
","""event"",""trial"",""time""
""fullscreenenter"",""1"",""3897""
","
","","","1599.6999999999534","","","22","12324","5578","b","elianto","#f73b6a7A","-1"," ","0","0","[2450.0999999998603]","1","2","","","12324","42","3","4","lose","no-go","1"
"pit-trial","161","1126164","0.0-47.0","battery-v0.2","","""event"",""trial"",""time""
""fullscreenenter"",""1"",""3897""
""blur"",""7"",""58354""
""focus"",""7"",""66505""
","""event"",""trial"",""time""
""blur"",""7"",""58354""
","""event"",""trial"",""time""
""focus"",""7"",""66505""
","""event"",""trial"",""time""
""fullscreenenter"",""1"",""3897""
","
","","","1884.5999999998603","","","22","12324","5578","n","elianto","#f73b6a7A"," "," ","1","-10","[2735.399999999907]","1","2","","","12324","43","0","3","lose","go","1"
"pit-trial","162","1130109","0.0-48.0","battery-v0.2","","""event"",""trial"",""time""
""fullscreenenter"",""1"",""3897""
""blur"",""7"",""58354""
""focus"",""7"",""66505""
","""event"",""trial"",""time""
""blur"",""7"",""58354""
","""event"",""trial"",""time""
""focus"",""7"",""66505""
","""event"",""trial"",""time""
""fullscreenenter"",""1"",""3897""
","
","","","1089.8999999999069","","","22","12324","5578","f","elianto","#3366ff99","-1"," ","0","0","[1940.6999999999534]","1","2","","","12324","44","1","2","win","no-go","0"
"pit-trial","163","1134179","0.0-49.0","battery-v0.2","","""event"",""trial"",""time""
""fullscreenenter"",""1"",""3897""
""blur"",""7"",""58354""
""focus"",""7"",""66505""
","""event"",""trial"",""time""
""blur"",""7"",""58354""
","""event"",""trial"",""time""
""focus"",""7"",""66505""
","""event"",""trial"",""time""
""fullscreenenter"",""1"",""3897""
","
","","","1217.1000000000931","","","22","12324","5578","t","elianto","#f73b6a7A"," "," ","1","0","[2067.3000000000466]","1","2","","","12324","45","2","3","lose","go","0"
"pit-trial","164","1139034","0.0-50.0","battery-v0.2","","""event"",""trial"",""time""
""fullscreenenter"",""1"",""3897""
""blur"",""7"",""58354""
""focus"",""7"",""66505""
","""event"",""trial"",""time""
""blur"",""7"",""58354""
","""event"",""trial"",""time""
""focus"",""7"",""66505""
","""event"",""trial"",""time""
""fullscreenenter"",""1"",""3897""
","
","","","-1","","","22","12324","5578","b","elianto","#f73b6a7A","-1","-1","1","-10","[]","0","2","","","12324","46","3","4","lose","no-go","1"
"pit-trial","165","1143890","0.0-51.0","battery-v0.2","","""event"",""trial"",""time""
""fullscreenenter"",""1"",""3897""
""blur"",""7"",""58354""
""focus"",""7"",""66505""
","""event"",""trial"",""time""
""blur"",""7"",""58354""
","""event"",""trial"",""time""
""focus"",""7"",""66505""
","""event"",""trial"",""time""
""fullscreenenter"",""1"",""3897""
","
","","","-1","","","22","12324","5578","n","elianto","#f73b6a7A"," ","-1","0","0","[]","0","2","","","12324","47","0","3","lose","go","1"
"pit-trial","166","1147570","0.0-52.0","battery-v0.2","","""event"",""trial"",""time""
""fullscreenenter"",""1"",""3897""
""blur"",""7"",""58354""
""focus"",""7"",""66505""
","""event"",""trial"",""time""
""blur"",""7"",""58354""
","""event"",""trial"",""time""
""focus"",""7"",""66505""
","""event"",""trial"",""time""
""fullscreenenter"",""1"",""3897""
","
","","","820.3000000000466","","","22","12324","5578","f","elianto","#3366ff99","-1"," ","0","0","[1672.8999999999069]","1","2","","","12324","48","1","2","win","no-go","0"
"pit-trial","167","1151212","0.0-53.0","battery-v0.2","","""event"",""trial"",""time""
""fullscreenenter"",""1"",""3897""
""blur"",""7"",""58354""
""focus"",""7"",""66505""
","""event"",""trial"",""time""
""blur"",""7"",""58354""
","""event"",""trial"",""time""
""focus"",""7"",""66505""
","""event"",""trial"",""time""
""fullscreenenter"",""1"",""3897""
","
","","","787.5","","","22","12324","5578","f","elianto","#3366ff99","-1"," ","0","0","[1637.7000000001863]","1","2","","","12324","49","1","2","win","no-go","0"
"pit-trial","168","1156054","0.0-54.0","battery-v0.2","","""event"",""trial"",""time""
""fullscreenenter"",""1"",""3897""
""blur"",""7"",""58354""
""focus"",""7"",""66505""
","""event"",""trial"",""time""
""blur"",""7"",""58354""
","""event"",""trial"",""time""
""focus"",""7"",""66505""
","""event"",""trial"",""time""
""fullscreenenter"",""1"",""3897""
","
","","","1986.3000000000466","","","22","12324","5578","b","elianto","#f73b6a7A","-1"," ","0","-10","[2837.5]","1","2","","","12324","50","3","4","lose","no-go","0"
"pit-trial","169","1160908","0.0-55.0","battery-v0.2","","""event"",""trial"",""time""
""fullscreenenter"",""1"",""3897""
""blur"",""7"",""58354""
""focus"",""7"",""66505""
","""event"",""trial"",""time""
""blur"",""7"",""58354""
","""event"",""trial"",""time""
""focus"",""7"",""66505""
","""event"",""trial"",""time""
""fullscreenenter"",""1"",""3897""
","
","","","-1","","","22","12324","5578","n","elianto","#f73b6a7A"," ","-1","0","-10","[]","0","2","","","12324","51","0","3","lose","go","0"
"pit-trial","170","1165282","0.0-56.0","battery-v0.2","","""event"",""trial"",""time""
""fullscreenenter"",""1"",""3897""
""blur"",""7"",""58354""
""focus"",""7"",""66505""
","""event"",""trial"",""time""
""blur"",""7"",""58354""
","""event"",""trial"",""time""
""focus"",""7"",""66505""
","""event"",""trial"",""time""
""fullscreenenter"",""1"",""3897""
","
","","","1518.9000000001397","","","22","12324","5578","t","elianto","#f73b6a7A"," "," ","1","0","[2370]","1","2","","","12324","52","2","3","lose","go","0"
"pit-trial","171","1170142","0.0-57.0","battery-v0.2","","""event"",""trial"",""time""
""fullscreenenter"",""1"",""3897""
""blur"",""7"",""58354""
""focus"",""7"",""66505""
","""event"",""trial"",""time""
""blur"",""7"",""58354""
","""event"",""trial"",""time""
""focus"",""7"",""66505""
","""event"",""trial"",""time""
""fullscreenenter"",""1"",""3897""
","
","","","-1","","","22","12324","5578","b","elianto","#f73b6a7A","-1","-1","1","0","[]","0","2","","","12324","53","3","4","lose","no-go","0"
"pit-trial","172","1174996","0.0-58.0","battery-v0.2","","""event"",""trial"",""time""
""fullscreenenter"",""1"",""3897""
""blur"",""7"",""58354""
""focus"",""7"",""66505""
","""event"",""trial"",""time""
""blur"",""7"",""58354""
","""event"",""trial"",""time""
""focus"",""7"",""66505""
","""event"",""trial"",""time""
""fullscreenenter"",""1"",""3897""
","
","","","-1","","","22","12324","5578","n","elianto","#f73b6a7A"," ","-1","0","0","[]","0","2","","","12324","54","0","3","lose","go","1"
"pit-trial","173","1178757","0.0-59.0","battery-v0.2","","""event"",""trial"",""time""
""fullscreenenter"",""1"",""3897""
""blur"",""7"",""58354""
""focus"",""7"",""66505""
","""event"",""trial"",""time""
""blur"",""7"",""58354""
","""event"",""trial"",""time""
""focus"",""7"",""66505""
","""event"",""trial"",""time""
""fullscreenenter"",""1"",""3897""
","
","","","905.1000000000931","","","22","12324","5578","f","elianto","#3366ff99","-1"," ","0","0","[1755.6999999999534]","1","2","","","12324","55","1","2","win","no-go","0"
"pit-trial","174","1183612","0.0-60.0","battery-v0.2","","""event"",""trial"",""time""
""fullscreenenter"",""1"",""3897""
""blur"",""7"",""58354""
""focus"",""7"",""66505""
","""event"",""trial"",""time""
""blur"",""7"",""58354""
","""event"",""trial"",""time""
""focus"",""7"",""66505""
","""event"",""trial"",""time""
""fullscreenenter"",""1"",""3897""
","
","","","-1","","","22","12324","5578","t","elianto","#f73b6a7A"," ","-1","0","-10","[]","0","2","","","12324","56","2","3","lose","go","0"
"pit-trial","175","1187783","0.0-61.0","battery-v0.2","","""event"",""trial"",""time""
""fullscreenenter"",""1"",""3897""
""blur"",""7"",""58354""
""focus"",""7"",""66505""
","""event"",""trial"",""time""
""blur"",""7"",""58354""
","""event"",""trial"",""time""
""focus"",""7"",""66505""
","""event"",""trial"",""time""
""fullscreenenter"",""1"",""3897""
","
","","","1316.7999999998137","","","22","12324","5578","b","elianto","#f73b6a7A","-1"," ","0","-10","[2167.899999999907]","1","2","","","12324","57","3","4","lose","no-go","0"
"pit-trial","176","1191509","0.0-62.0","battery-v0.2","","""event"",""trial"",""time""
""fullscreenenter"",""1"",""3897""
""blur"",""7"",""58354""
""focus"",""7"",""66505""
","""event"",""trial"",""time""
""blur"",""7"",""58354""
","""event"",""trial"",""time""
""focus"",""7"",""66505""
","""event"",""trial"",""time""
""fullscreenenter"",""1"",""3897""
","
","","","872.0999999998603","","","22","12324","5578","c","elianto","#3366ff99"," "," ","1","0","[1722.5]","1","2","","","12324","58","4","1","win","go","1"
"pit-trial","177","1195972","0.0-63.0","battery-v0.2","","""event"",""trial"",""time""
""fullscreenenter"",""1"",""3897""
""blur"",""7"",""58354""
""focus"",""7"",""66505""
","""event"",""trial"",""time""
""blur"",""7"",""58354""
","""event"",""trial"",""time""
""focus"",""7"",""66505""
","""event"",""trial"",""time""
""fullscreenenter"",""1"",""3897""
","
","","","1608.3000000000466","","","22","12324","5578","t","elianto","#f73b6a7A"," "," ","1","0","[2459.600000000093]","1","2","","","12324","59","2","3","lose","go","0"
"pit-trial","178","1200826","0.0-64.0","battery-v0.2","","""event"",""trial"",""time""
""fullscreenenter"",""1"",""3897""
""blur"",""7"",""58354""
""focus"",""7"",""66505""
","""event"",""trial"",""time""
""blur"",""7"",""58354""
","""event"",""trial"",""time""
""focus"",""7"",""66505""
","""event"",""trial"",""time""
""fullscreenenter"",""1"",""3897""
","
","","","-1","","","22","12324","5578","n","elianto","#f73b6a7A"," ","-1","0","-10","[]","0","2","","","12324","60","0","3","lose","go","0"
"pit-trial","179","1204583","0.0-65.0","battery-v0.2","","""event"",""trial"",""time""
""fullscreenenter"",""1"",""3897""
""blur"",""7"",""58354""
""focus"",""7"",""66505""
","""event"",""trial"",""time""
""blur"",""7"",""58354""
","""event"",""trial"",""time""
""focus"",""7"",""66505""
","""event"",""trial"",""time""
""fullscreenenter"",""1"",""3897""
","
","","","901.5","","","22","12324","5578","b","elianto","#f73b6a7A","-1"," ","0","-10","[1752.5]","1","2","","","12324","61","3","4","lose","no-go","0"
"pit-trial","180","1209438","0.0-66.0","battery-v0.2","","""event"",""trial"",""time""
""fullscreenenter"",""1"",""3897""
""blur"",""7"",""58354""
""focus"",""7"",""66505""
","""event"",""trial"",""time""
""blur"",""7"",""58354""
","""event"",""trial"",""time""
""focus"",""7"",""66505""
","""event"",""trial"",""time""
""fullscreenenter"",""1"",""3897""
","
","","","-1","","","22","12324","5578","t","elianto","#f73b6a7A"," ","-1","0","-10","[2900]","1","2","","","12324","62","2","3","lose","go","0"
"pit-trial","181","1214291","0.0-67.0","battery-v0.2","","""event"",""trial"",""time""
""fullscreenenter"",""1"",""3897""
""blur"",""7"",""58354""
""focus"",""7"",""66505""
","""event"",""trial"",""time""
""blur"",""7"",""58354""
","""event"",""trial"",""time""
""focus"",""7"",""66505""
","""event"",""trial"",""time""
""fullscreenenter"",""1"",""3897""
","
","","","-1","","","22","12324","5578","c","elianto","#3366ff99"," ","-1","0","+10","[]","0","2","","","12324","63","4","1","win","go","1"
"pit-trial","182","1218791","0.0-68.0","battery-v0.2","","""event"",""trial"",""time""
""fullscreenenter"",""1"",""3897""
""blur"",""7"",""58354""
""focus"",""7"",""66505""
","""event"",""trial"",""time""
""blur"",""7"",""58354""
","""event"",""trial"",""time""
""focus"",""7"",""66505""
","""event"",""trial"",""time""
""fullscreenenter"",""1"",""3897""
","
","","","1646.3999999999069","","","22","12324","5578","f","elianto","#3366ff99","-1"," ","0","0","[2496.3000000000466]","1","2","","","12324","64","1","2","win","no-go","0"
"pit-trial","183","1223644","0.0-69.0","battery-v0.2","","""event"",""trial"",""time""
""fullscreenenter"",""1"",""3897""
""blur"",""7"",""58354""
""focus"",""7"",""66505""
","""event"",""trial"",""time""
""blur"",""7"",""58354""
","""event"",""trial"",""time""
""focus"",""7"",""66505""
","""event"",""trial"",""time""
""fullscreenenter"",""1"",""3897""
","
","","","-1","","","22","12324","5578","c","elianto","#3366ff99"," ","-1","0","0","[]","0","2","","","12324","65","4","1","win","go","0"
"pit-trial","184","1227538","0.0-70.0","battery-v0.2","","""event"",""trial"",""time""
""fullscreenenter"",""1"",""3897""
""blur"",""7"",""58354""
""focus"",""7"",""66505""
","""event"",""trial"",""time""
""blur"",""7"",""58354""
","""event"",""trial"",""time""
""focus"",""7"",""66505""
","""event"",""trial"",""time""
""fullscreenenter"",""1"",""3897""
","
","","","1038.4000000001397","","","22","12324","5578","z","elianto","#3366ff99","-1"," ","0","0","[1889.7000000001863]","1","2","","","12324","66","5","2","win","no-go","0"
"pit-trial","185","1232394","0.0-71.0","battery-v0.2","","""event"",""trial"",""time""
""fullscreenenter"",""1"",""3897""
""blur"",""7"",""58354""
""focus"",""7"",""66505""
","""event"",""trial"",""time""
""blur"",""7"",""58354""
","""event"",""trial"",""time""
""focus"",""7"",""66505""
","""event"",""trial"",""time""
""fullscreenenter"",""1"",""3897""
","
","","","-1","","","22","12324","5578","b","elianto","#f73b6a7A","-1","-1","1","0","[]","0","2","","","12324","67","3","4","lose","no-go","0"
"pit-trial","186","1237247","0.0-72.0","battery-v0.2","","""event"",""trial"",""time""
""fullscreenenter"",""1"",""3897""
""blur"",""7"",""58354""
""focus"",""7"",""66505""
","""event"",""trial"",""time""
""blur"",""7"",""58354""
","""event"",""trial"",""time""
""focus"",""7"",""66505""
","""event"",""trial"",""time""
""fullscreenenter"",""1"",""3897""
","
","","","-1","","","22","12324","5578","f","elianto","#3366ff99","-1","-1","1","+10","[]","0","2","","","12324","68","1","2","win","no-go","0"
"pit-trial","187","1242101","0.0-73.0","battery-v0.2","","""event"",""trial"",""time""
""fullscreenenter"",""1"",""3897""
""blur"",""7"",""58354""
