"trial_type","trial_index","time_elapsed","internal_node_id","task_version","subject_id","interactions","blur_events","focus_events","fullscreenenter_events","fullscreenexit_events","success","view_history","rt","responses","num_errors","age","subject","participantId","rune","rune_set","hex","correct","choice","accuracy","outcome","keys","total_keys","block","practice","value","sub","trial","stimulus","robot","valence","action","sham"
"pavlovia","0","6","0.0-0.0","battery-v0.2","","""event"",""trial"",""time""
""fullscreenenter"",""1"",""2474""
","
","
","""event"",""trial"",""time""
""fullscreenenter"",""1"",""2474""
","
","","","","","","","","","","","","","","","","","","","","","","","","","","",""
"fullscreen","1","3476","0.0-1.0","battery-v0.2","","""event"",""trial"",""time""
""fullscreenenter"",""1"",""2474""
","
","
","""event"",""trial"",""time""
""fullscreenenter"",""1"",""2474""
","
","true","","","","","","","","","","","","","","","","","","","","","","","","","",""
"pit-instructions","2","7810","0.0-2.0-0.0","battery-v0.2","","""event"",""trial"",""time""
""fullscreenenter"",""1"",""2474""
","
","
","""event"",""trial"",""time""
""fullscreenenter"",""1"",""2474""
","
","","[{""page_index"":0,""viewing_time"":4327.800000190735}]","4327.900000095367","","","","","","","","","","","","","","","","","","","","","","","",""
"pit-comprehension","3","10143","0.0-2.0-1.0-0.0","battery-v0.2","","""event"",""trial"",""time""
""fullscreenenter"",""1"",""2474""
","
","
","""event"",""trial"",""time""
""fullscreenenter"",""1"",""2474""
","
","","","2331.199999809265","[""shark""]","0","20","7258","3953","","","","","","","","","","","","","","","","","","",""
"pit-instructions","4","11132","0.0-2.0-1.0-1.0","battery-v0.2","","""event"",""trial"",""time""
""fullscreenenter"",""1"",""2474""
","
","
","""event"",""trial"",""time""
""fullscreenenter"",""1"",""2474""
","
","","[{""page_index"":0,""viewing_time"":981}]","981.0999999046326","","","","","","","","","","","","","","","","","","","","","","","",""
"pit-comprehension","5","14253","0.0-2.0-2.0-0.0","battery-v0.2","","""event"",""trial"",""time""
""fullscreenenter"",""1"",""2474""
","
","
","""event"",""trial"",""time""
""fullscreenenter"",""1"",""2474""
","
","","","3119.0999999046326","[""tiger""]","0","20","7258","3953","","","","","","","","","","","","","","","","","","",""
"pit-instructions","6","15136","0.0-2.0-2.0-1.0","battery-v0.2","","""event"",""trial"",""time""
""fullscreenenter"",""1"",""2474""
","
","
","""event"",""trial"",""time""
""fullscreenenter"",""1"",""2474""
","
","","[{""page_index"":0,""viewing_time"":880.6999998092651}]","880.8999996185303","","","","","","","","","","","","","","","","","","","","","","","",""
"pit-instructions","7","104193","0.0-2.0-3.0","battery-v0.2","","""event"",""trial"",""time""
""fullscreenenter"",""1"",""2474""
","
","
","""event"",""trial"",""time""
""fullscreenenter"",""1"",""2474""
","
","","[{""page_index"":0,""viewing_time"":9785.800000190735},{""page_index"":1,""viewing_time"":5919.900000095367},{""page_index"":2,""viewing_time"":6622.099999904633},{""page_index"":3,""viewing_time"":5581.900000095367},{""page_index"":4,""viewing_time"":5374},{""page_index"":5,""viewing_time"":5707.900000095367},{""page_index"":6,""viewing_time"":6003.199999809265},{""page_index"":7,""viewing_time"":6008.199999809265},{""page_index"":8,""viewing_time"":7487.800000190735},{""page_index"":9,""viewing_time"":5174.800000190735},{""page_index"":10,""viewing_time"":7167.599999904633},{""page_index"":11,""viewing_time"":7312.900000095367},{""page_index"":12,""viewing_time"":6391.5},{""page_index"":13,""viewing_time"":4517.89999961853}]","89055.7000002861","","","","","","","","","","","","","","","","","","","","","","","",""
"pit-trial","8","107793","0.0-2.0-4.0-0.0","battery-v0.2","","""event"",""trial"",""time""
""fullscreenenter"",""1"",""2474""
","
","
","""event"",""trial"",""time""
""fullscreenenter"",""1"",""2474""
","
","","","738.6999998092651","","","20","7258","3953","&#9784;","elianto","#FFFFF080"," "," ","1","&#10004","[1590]","1","0","0","","","","","","","",""
"pit-trial","9","111248","0.0-2.0-4.1-0.1","battery-v0.2","","""event"",""trial"",""time""
""fullscreenenter"",""1"",""2474""
","
","
","""event"",""trial"",""time""
""fullscreenenter"",""1"",""2474""
","
","","","594.6999998092651","","","20","7258","3953","&#9784;","elianto","#FFFFF080"," "," ","1","&#10004","[1445.4000000953674]","1","0","0","","","","","","","",""
"pit-trial","10","114702","0.0-2.0-4.2-0.2","battery-v0.2","","""event"",""trial"",""time""
""fullscreenenter"",""1"",""2474""
","
","
","""event"",""trial"",""time""
""fullscreenenter"",""1"",""2474""
","
","","","579.5","","","20","7258","3953","&#9784;","elianto","#FFFFF080"," "," ","1","&#10004","[1436.5]","1","0","0","","","","","","","",""
"pit-trial","11","118060","0.0-2.0-4.3-0.3","battery-v0.2","","""event"",""trial"",""time""
""fullscreenenter"",""1"",""2474""
","
","
","""event"",""trial"",""time""
""fullscreenenter"",""1"",""2474""
","
","","","503.7999997138977","","","20","7258","3953","&#9784;","elianto","#FFFFF080"," "," ","1","&#10004","[1353.8999996185303]","1","0","0","","","","","","","",""
"pit-trial","12","121417","0.0-2.0-4.4-0.4","battery-v0.2","","""event"",""trial"",""time""
""fullscreenenter"",""1"",""2474""
","
","
","""event"",""trial"",""time""
""fullscreenenter"",""1"",""2474""
","
","","","487.19999980926514","","","20","7258","3953","&#9784;","elianto","#FFFFF080"," "," ","1","&#10004","[1338.6000003814697]","1","0","0","","","","","","","",""
"pit-instructions","13","161251","0.0-2.0-5.0","battery-v0.2","","""event"",""trial"",""time""
""fullscreenenter"",""1"",""2474""
","
","
","""event"",""trial"",""time""
""fullscreenenter"",""1"",""2474""
","
","","[{""page_index"":0,""viewing_time"":8008.400000095367},{""page_index"":1,""viewing_time"":6992.699999809265},{""page_index"":2,""viewing_time"":17711.5},{""page_index"":3,""viewing_time"":7117.400000095367}]","39830.09999990463","","","","","","","","","","","","","","","","","","","","","","","",""
"pit-trial","14","166104","0.0-2.0-6.0-0.0","battery-v0.2","","""event"",""trial"",""time""
""fullscreenenter"",""1"",""2474""
""blur"",""15"",""168669""
""focus"",""15"",""170526""
","""event"",""trial"",""time""
""blur"",""15"",""168669""
","""event"",""trial"",""time""
""focus"",""15"",""170526""
","""event"",""trial"",""time""
""fullscreenenter"",""1"",""2474""
","
","","","-1","","","20","7258","3953","&#9854;","elianto","#FFFFF080","-1","-1","1","&#10004","[]","0","0","1","","","","","","","",""
"pit-trial","15","170958","0.0-2.0-6.1-0.1","battery-v0.2","","""event"",""trial"",""time""
""fullscreenenter"",""1"",""2474""
""blur"",""15"",""168669""
""focus"",""15"",""170526""
","""event"",""trial"",""time""
""blur"",""15"",""168669""
","""event"",""trial"",""time""
""focus"",""15"",""170526""
","""event"",""trial"",""time""
""fullscreenenter"",""1"",""2474""
","
","","","-1","","","20","7258","3953","&#9854;","elianto","#FFFFF080","-1","-1","1","&#10004","[]","0","0","1","","","","","","","",""
"pit-trial","16","175824","0.0-2.0-6.2-0.2","battery-v0.2","","""event"",""trial"",""time""
""fullscreenenter"",""1"",""2474""
""blur"",""15"",""168669""
""focus"",""15"",""170526""
","""event"",""trial"",""time""
""blur"",""15"",""168669""
","""event"",""trial"",""time""
""focus"",""15"",""170526""
","""event"",""trial"",""time""
""fullscreenenter"",""1"",""2474""
","
","","","-1","","","20","7258","3953","&#9854;","elianto","#FFFFF080","-1","-1","1","&#10004","[]","0","0","1","","","","","","","",""
"pit-trial","17","180690","0.0-2.0-6.3-0.3","battery-v0.2","","""event"",""trial"",""time""
""fullscreenenter"",""1"",""2474""
""blur"",""15"",""168669""
""focus"",""15"",""170526""
","""event"",""trial"",""time""
""blur"",""15"",""168669""
","""event"",""trial"",""time""
""focus"",""15"",""170526""
","""event"",""trial"",""time""
""fullscreenenter"",""1"",""2474""
","
","","","-1","","","20","7258","3953","&#9854;","elianto","#FFFFF080","-1","-1","1","&#10004","[]","0","0","1","","","","","","","",""
"pit-trial","18","185544","0.0-2.0-6.4-0.4","battery-v0.2","","""event"",""trial"",""time""
""fullscreenenter"",""1"",""2474""
""blur"",""15"",""168669""
""focus"",""15"",""170526""
""blur"",""19"",""273425""
""focus"",""19"",""278064""
","""event"",""trial"",""time""
""blur"",""15"",""168669""
""blur"",""19"",""273425""
","""event"",""trial"",""time""
""focus"",""15"",""170526""
""focus"",""19"",""278064""
","""event"",""trial"",""time""
""fullscreenenter"",""1"",""2474""
","
","","","-1","","","20","7258","3953","&#9854;","elianto","#FFFFF080","-1","-1","1","&#10004","[]","0","0","1","","","","","","","",""
"pit-instructions","19","323799","0.0-2.0-7.0","battery-v0.2","","""event"",""trial"",""time""
""fullscreenenter"",""1"",""2474""
""blur"",""15"",""168669""
""focus"",""15"",""170526""
""blur"",""19"",""273425""
""focus"",""19"",""278064""
","""event"",""trial"",""time""
""blur"",""15"",""168669""
""blur"",""19"",""273425""
","""event"",""trial"",""time""
""focus"",""15"",""170526""
""focus"",""19"",""278064""
","""event"",""trial"",""time""
""fullscreenenter"",""1"",""2474""
","
","","[{""page_index"":0,""viewing_time"":9913.299999713898},{""page_index"":1,""viewing_time"":12779.10000038147},{""page_index"":2,""viewing_time"":5009},{""page_index"":3,""viewing_time"":5324.199999809265},{""page_index"":4,""viewing_time"":6252.900000095367},{""page_index"":5,""viewing_time"":13309.799999713898},{""page_index"":6,""viewing_time"":4652.10000038147},{""page_index"":7,""viewing_time"":7451},{""page_index"":8,""viewing_time"":7989.89999961853},{""page_index"":9,""viewing_time"":5318.200000286102},{""page_index"":10,""viewing_time"":7331.099999904633},{""page_index"":11,""viewing_time"":9954.800000190735},{""page_index"":12,""viewing_time"":9841},{""page_index"":13,""viewing_time"":7261.89999961853},{""page_index"":14,""viewing_time"":6432.200000286102},{""page_index"":15,""viewing_time"":6136.900000095367},{""page_index"":16,""viewing_time"":6747.89999961853},{""page_index"":17,""viewing_time"":6548}]","138253.5","","","","","","","","","","","","","","","","","","","","","","","",""
"pit-trial","20","327238","0.0-2.0-8.0-0.0","battery-v0.2","","""event"",""trial"",""time""
""fullscreenenter"",""1"",""2474""
""blur"",""15"",""168669""
""focus"",""15"",""170526""
""blur"",""19"",""273425""
""focus"",""19"",""278064""
","""event"",""trial"",""time""
""blur"",""15"",""168669""
""blur"",""19"",""273425""
","""event"",""trial"",""time""
""focus"",""15"",""170526""
""focus"",""19"",""278064""
","""event"",""trial"",""time""
""fullscreenenter"",""1"",""2474""
","
","","","586.7999997138977","","","20","7258","3953","&#9776;","elianto","#3366ff99"," "," ","1","+10","[1437.3000001907349]","1","0","1","","","","","","","",""
"pit-trial","21","330540","0.0-2.0-8.0-1.0","battery-v0.2","","""event"",""trial"",""time""
""fullscreenenter"",""1"",""2474""
""blur"",""15"",""168669""
""focus"",""15"",""170526""
""blur"",""19"",""273425""
""focus"",""19"",""278064""
","""event"",""trial"",""time""
""blur"",""15"",""168669""
""blur"",""19"",""273425""
","""event"",""trial"",""time""
""focus"",""15"",""170526""
""focus"",""19"",""278064""
","""event"",""trial"",""time""
""fullscreenenter"",""1"",""2474""
","
","","","446.2999997138977","","","20","7258","3953","&#9776;","elianto","#3366ff99"," "," ","1","+10","[1298.5]","1","0","1","","","","","","","",""
"pit-trial","22","333758","0.0-2.0-8.0-2.0","battery-v0.2","","""event"",""trial"",""time""
""fullscreenenter"",""1"",""2474""
""blur"",""15"",""168669""
""focus"",""15"",""170526""
""blur"",""19"",""273425""
""focus"",""19"",""278064""
","""event"",""trial"",""time""
""blur"",""15"",""168669""
""blur"",""19"",""273425""
","""event"",""trial"",""time""
""focus"",""15"",""170526""
""focus"",""19"",""278064""
","""event"",""trial"",""time""
""fullscreenenter"",""1"",""2474""
","
","","","366.09999990463257","","","20","7258","3953","&#9776;","elianto","#3366ff99"," "," ","1","+10","[1216.5999999046326]","1","0","1","","","","","","","",""
"pit-trial","23","337019","0.0-2.0-8.0-3.0","battery-v0.2","","""event"",""trial"",""time""
""fullscreenenter"",""1"",""2474""
""blur"",""15"",""168669""
""focus"",""15"",""170526""
""blur"",""19"",""273425""
""focus"",""19"",""278064""
","""event"",""trial"",""time""
""blur"",""15"",""168669""
""blur"",""19"",""273425""
","""event"",""trial"",""time""
""focus"",""15"",""170526""
""focus"",""19"",""278064""
","""event"",""trial"",""time""
""fullscreenenter"",""1"",""2474""
","
","","","404.30000019073486","","","20","7258","3953","&#9776;","elianto","#3366ff99"," "," ","1","0","[1254.6999998092651]","1","0","1","","","","","","","",""
"pit-trial","24","340422","0.0-2.0-8.0-4.0","battery-v0.2","","""event"",""trial"",""time""
""fullscreenenter"",""1"",""2474""
""blur"",""15"",""168669""
""focus"",""15"",""170526""
""blur"",""19"",""273425""
""focus"",""19"",""278064""
","""event"",""trial"",""time""
""blur"",""15"",""168669""
""blur"",""19"",""273425""
","""event"",""trial"",""time""
""focus"",""15"",""170526""
""focus"",""19"",""278064""
","""event"",""trial"",""time""
""fullscreenenter"",""1"",""2474""
","
","","","540.9000000953674","","","20","7258","3953","&#9776;","elianto","#3366ff99"," "," ","1","+10","[1400.4000000953674]","1","0","1","","","","","","","",""
"pit-trial","25","343634","0.0-2.0-8.1-0.1","battery-v0.2","","""event"",""trial"",""time""
""fullscreenenter"",""1"",""2474""
""blur"",""15"",""168669""
""focus"",""15"",""170526""
""blur"",""19"",""273425""
""focus"",""19"",""278064""
","""event"",""trial"",""time""
""blur"",""15"",""168669""
""blur"",""19"",""273425""
","""event"",""trial"",""time""
""focus"",""15"",""170526""
""focus"",""19"",""278064""
","""event"",""trial"",""time""
""fullscreenenter"",""1"",""2474""
","
","","","344.5","","","20","7258","3953","&#9776;","elianto","#3366ff99"," "," ","1","+10","[1196.2000002861023]","1","0","1","","","","","","","",""
"pit-trial","26","346735","0.0-2.0-8.1-1.1","battery-v0.2","","""event"",""trial"",""time""
""fullscreenenter"",""1"",""2474""
""blur"",""15"",""168669""
""focus"",""15"",""170526""
""blur"",""19"",""273425""
""focus"",""19"",""278064""
","""event"",""trial"",""time""
""blur"",""15"",""168669""
""blur"",""19"",""273425""
","""event"",""trial"",""time""
""focus"",""15"",""170526""
""focus"",""19"",""278064""
","""event"",""trial"",""time""
""fullscreenenter"",""1"",""2474""
","
","","","240.19999980926514","","","20","7258","3953","&#9776;","elianto","#3366ff99"," "," ","1","+10","[1091.1999998092651]","1","0","1","","","","","","","",""
"pit-trial","27","350062","0.0-2.0-8.1-2.1","battery-v0.2","","""event"",""trial"",""time""
""fullscreenenter"",""1"",""2474""
""blur"",""15"",""168669""
""focus"",""15"",""170526""
""blur"",""19"",""273425""
""focus"",""19"",""278064""
","""event"",""trial"",""time""
""blur"",""15"",""168669""
""blur"",""19"",""273425""
","""event"",""trial"",""time""
""focus"",""15"",""170526""
""focus"",""19"",""278064""
","""event"",""trial"",""time""
""fullscreenenter"",""1"",""2474""
","
","","","471.80000019073486","","","20","7258","3953","&#9776;","elianto","#3366ff99"," "," ","1","+10","[1323]","1","0","1","","","","","","","",""
"pit-trial","28","353446","0.0-2.0-8.1-3.1","battery-v0.2","","""event"",""trial"",""time""
""fullscreenenter"",""1"",""2474""
""blur"",""15"",""168669""
""focus"",""15"",""170526""
""blur"",""19"",""273425""
""focus"",""19"",""278064""
","""event"",""trial"",""time""
""blur"",""15"",""168669""
""blur"",""19"",""273425""
","""event"",""trial"",""time""
""focus"",""15"",""170526""
""focus"",""19"",""278064""
","""event"",""trial"",""time""
""fullscreenenter"",""1"",""2474""
","
","","","521.0999999046326","","","20","7258","3953","&#9776;","elianto","#3366ff99"," "," ","1","0","[1380.2999997138977]","1","0","1","","","","","","","",""
"pit-trial","29","356761","0.0-2.0-8.1-4.1","battery-v0.2","","""event"",""trial"",""time""
""fullscreenenter"",""1"",""2474""
""blur"",""15"",""168669""
""focus"",""15"",""170526""
""blur"",""19"",""273425""
""focus"",""19"",""278064""
","""event"",""trial"",""time""
""blur"",""15"",""168669""
""blur"",""19"",""273425""
","""event"",""trial"",""time""
""focus"",""15"",""170526""
""focus"",""19"",""278064""
","""event"",""trial"",""time""
""fullscreenenter"",""1"",""2474""
","
","","","463","","","20","7258","3953","&#9776;","elianto","#3366ff99"," "," ","1","+10","[1313.8000001907349]","1","0","1","","","","","","","",""
"pit-trial","30","360074","0.0-2.0-8.2-0.2","battery-v0.2","","""event"",""trial"",""time""
""fullscreenenter"",""1"",""2474""
""blur"",""15"",""168669""
""focus"",""15"",""170526""
""blur"",""19"",""273425""
""focus"",""19"",""278064""
","""event"",""trial"",""time""
""blur"",""15"",""168669""
""blur"",""19"",""273425""
","""event"",""trial"",""time""
""focus"",""15"",""170526""
""focus"",""19"",""278064""
","""event"",""trial"",""time""
""fullscreenenter"",""1"",""2474""
","
","","","460.59999990463257","","","20","7258","3953","&#9776;","elianto","#3366ff99"," "," ","1","+10","[1311.4000000953674]","1","0","1","","","","","","","",""
"pit-trial","31","363367","0.0-2.0-8.2-1.2","battery-v0.2","","""event"",""trial"",""time""
""fullscreenenter"",""1"",""2474""
""blur"",""15"",""168669""
""focus"",""15"",""170526""
""blur"",""19"",""273425""
""focus"",""19"",""278064""
","""event"",""trial"",""time""
""blur"",""15"",""168669""
""blur"",""19"",""273425""
","""event"",""trial"",""time""
""focus"",""15"",""170526""
""focus"",""19"",""278064""
","""event"",""trial"",""time""
""fullscreenenter"",""1"",""2474""
","
","","","439.90000009536743","","","20","7258","3953","&#9776;","elianto","#3366ff99"," "," ","1","+10","[1290.1000003814697]","1","0","1","","","","","","","",""
"pit-trial","32","366487","0.0-2.0-8.2-2.2","battery-v0.2","","""event"",""trial"",""time""
""fullscreenenter"",""1"",""2474""
""blur"",""15"",""168669""
""focus"",""15"",""170526""
""blur"",""19"",""273425""
""focus"",""19"",""278064""
","""event"",""trial"",""time""
""blur"",""15"",""168669""
""blur"",""19"",""273425""
","""event"",""trial"",""time""
""focus"",""15"",""170526""
""focus"",""19"",""278064""
","""event"",""trial"",""time""
""fullscreenenter"",""1"",""2474""
","
","","","264.7000002861023","","","20","7258","3953","&#9776;","elianto","#3366ff99"," "," ","1","+10","[1115.7000002861023]","1","0","1","","","","","","","",""
"pit-trial","33","369674","0.0-2.0-8.2-3.2","battery-v0.2","","""event"",""trial"",""time""
""fullscreenenter"",""1"",""2474""
""blur"",""15"",""168669""
""focus"",""15"",""170526""
""blur"",""19"",""273425""
""focus"",""19"",""278064""
","""event"",""trial"",""time""
""blur"",""15"",""168669""
""blur"",""19"",""273425""
","""event"",""trial"",""time""
""focus"",""15"",""170526""
""focus"",""19"",""278064""
","""event"",""trial"",""time""
""fullscreenenter"",""1"",""2474""
","
","","","334.5","","","20","7258","3953","&#9776;","elianto","#3366ff99"," "," ","1","0","[1184.9000000953674]","1","0","1","","","","","","","",""
"pit-trial","34","372786","0.0-2.0-8.2-4.2","battery-v0.2","","""event"",""trial"",""time""
""fullscreenenter"",""1"",""2474""
""blur"",""15"",""168669""
""focus"",""15"",""170526""
""blur"",""19"",""273425""
""focus"",""19"",""278064""
","""event"",""trial"",""time""
""blur"",""15"",""168669""
""blur"",""19"",""273425""
","""event"",""trial"",""time""
""focus"",""15"",""170526""
""focus"",""19"",""278064""
","""event"",""trial"",""time""
""fullscreenenter"",""1"",""2474""
","
","","","260.09999990463257","","","20","7258","3953","&#9776;","elianto","#3366ff99"," "," ","1","+10","[1110.0999999046326]","1","0","1","","","","","","","",""
"call-function","35","372789","0.0-2.0-9.0","battery-v0.2","","""event"",""trial"",""time""
""fullscreenenter"",""1"",""2474""
""blur"",""15"",""168669""
""focus"",""15"",""170526""
""blur"",""19"",""273425""
""focus"",""19"",""278064""
","""event"",""trial"",""time""
""blur"",""15"",""168669""
""blur"",""19"",""273425""
","""event"",""trial"",""time""
""focus"",""15"",""170526""
""focus"",""19"",""278064""
","""event"",""trial"",""time""
""fullscreenenter"",""1"",""2474""
","
","","","","","","","","","","","","","","","","","","","","","","","","","","",""
"pit-instructions","36","412578","0.0-2.0-10.0","battery-v0.2","","""event"",""trial"",""time""
""fullscreenenter"",""1"",""2474""
""blur"",""15"",""168669""
""focus"",""15"",""170526""
""blur"",""19"",""273425""
""focus"",""19"",""278064""
","""event"",""trial"",""time""
""blur"",""15"",""168669""
""blur"",""19"",""273425""
","""event"",""trial"",""time""
""focus"",""15"",""170526""
""focus"",""19"",""278064""
","""event"",""trial"",""time""
""fullscreenenter"",""1"",""2474""
","
","","[{""page_index"":0,""viewing_time"":7209.5},{""page_index"":1,""viewing_time"":7062},{""page_index"":2,""viewing_time"":9285},{""page_index"":3,""viewing_time"":8579.900000095367},{""page_index"":4,""viewing_time"":7650.89999961853}]","39787.5","","","","","","","","","","","","","","","","","","","","","","","",""
"pit-trial","37","417431","0.0-2.0-11.0-0.0","battery-v0.2","","""event"",""trial"",""time""
""fullscreenenter"",""1"",""2474""
""blur"",""15"",""168669""
""focus"",""15"",""170526""
""blur"",""19"",""273425""
""focus"",""19"",""278064""
","""event"",""trial"",""time""
""blur"",""15"",""168669""
""blur"",""19"",""273425""
","""event"",""trial"",""time""
""focus"",""15"",""170526""
""focus"",""19"",""278064""
","""event"",""trial"",""time""
""fullscreenenter"",""1"",""2474""
","
","","","-1","","","20","7258","3953","&#9761;","elianto","#3366ff99","-1","-1","1","+10","[]","0","0","2","","","","","","","",""
"pit-trial","38","422283","0.0-2.0-11.0-1.0","battery-v0.2","","""event"",""trial"",""time""
""fullscreenenter"",""1"",""2474""
""blur"",""15"",""168669""
""focus"",""15"",""170526""
""blur"",""19"",""273425""
""focus"",""19"",""278064""
","""event"",""trial"",""time""
""blur"",""15"",""168669""
""blur"",""19"",""273425""
","""event"",""trial"",""time""
""focus"",""15"",""170526""
""focus"",""19"",""278064""
","""event"",""trial"",""time""
""fullscreenenter"",""1"",""2474""
","
","","","-1","","","20","7258","3953","&#9761;","elianto","#3366ff99","-1","-1","1","+10","[]","0","0","2","","","","","","","",""
"pit-trial","39","427157","0.0-2.0-11.0-2.0","battery-v0.2","","""event"",""trial"",""time""
""fullscreenenter"",""1"",""2474""
""blur"",""15"",""168669""
""focus"",""15"",""170526""
""blur"",""19"",""273425""
""focus"",""19"",""278064""
","""event"",""trial"",""time""
""blur"",""15"",""168669""
""blur"",""19"",""273425""
","""event"",""trial"",""time""
""focus"",""15"",""170526""
""focus"",""19"",""278064""
","""event"",""trial"",""time""
""fullscreenenter"",""1"",""2474""
","
","","","-1","","","20","7258","3953","&#9761;","elianto","#3366ff99","-1","-1","1","+10","[]","0","0","2","","","","","","","",""
"pit-trial","40","432020","0.0-2.0-11.0-3.0","battery-v0.2","","""event"",""trial"",""time""
""fullscreenenter"",""1"",""2474""
""blur"",""15"",""168669""
""focus"",""15"",""170526""
""blur"",""19"",""273425""
""focus"",""19"",""278064""
","""event"",""trial"",""time""
""blur"",""15"",""168669""
""blur"",""19"",""273425""
","""event"",""trial"",""time""
""focus"",""15"",""170526""
""focus"",""19"",""278064""
","""event"",""trial"",""time""
""fullscreenenter"",""1"",""2474""
","
","","","-1","","","20","7258","3953","&#9761;","elianto","#3366ff99","-1","-1","1","0","[]","0","0","2","","","","","","","",""
"pit-trial","41","436887","0.0-2.0-11.0-4.0","battery-v0.2","","""event"",""trial"",""time""
""fullscreenenter"",""1"",""2474""
""blur"",""15"",""168669""
""focus"",""15"",""170526""
""blur"",""19"",""273425""
""focus"",""19"",""278064""
","""event"",""trial"",""time""
""blur"",""15"",""168669""
""blur"",""19"",""273425""
","""event"",""trial"",""time""
""focus"",""15"",""170526""
""focus"",""19"",""278064""
","""event"",""trial"",""time""
""fullscreenenter"",""1"",""2474""
","
","","","-1","","","20","7258","3953","&#9761;","elianto","#3366ff99","-1","-1","1","+10","[]","0","0","2","","","","","","","",""
"pit-trial","42","441757","0.0-2.0-11.1-0.1","battery-v0.2","","""event"",""trial"",""time""
""fullscreenenter"",""1"",""2474""
""blur"",""15"",""168669""
""focus"",""15"",""170526""
""blur"",""19"",""273425""
""focus"",""19"",""278064""
","""event"",""trial"",""time""
""blur"",""15"",""168669""
""blur"",""19"",""273425""
","""event"",""trial"",""time""
""focus"",""15"",""170526""
""focus"",""19"",""278064""
","""event"",""trial"",""time""
""fullscreenenter"",""1"",""2474""
","
","","","-1","","","20","7258","3953","&#9761;","elianto","#3366ff99","-1","-1","1","+10","[]","0","0","2","","","","","","","",""
"pit-trial","43","446609","0.0-2.0-11.1-1.1","battery-v0.2","","""event"",""trial"",""time""
""fullscreenenter"",""1"",""2474""
""blur"",""15"",""168669""
""focus"",""15"",""170526""
""blur"",""19"",""273425""
""focus"",""19"",""278064""
","""event"",""trial"",""time""
""blur"",""15"",""168669""
""blur"",""19"",""273425""
","""event"",""trial"",""time""
""focus"",""15"",""170526""
""focus"",""19"",""278064""
","""event"",""trial"",""time""
""fullscreenenter"",""1"",""2474""
","
","","","-1","","","20","7258","3953","&#9761;","elianto","#3366ff99","-1","-1","1","+10","[]","0","0","2","","","","","","","",""
"pit-trial","44","451463","0.0-2.0-11.1-2.1","battery-v0.2","","""event"",""trial"",""time""
""fullscreenenter"",""1"",""2474""
""blur"",""15"",""168669""
""focus"",""15"",""170526""
""blur"",""19"",""273425""
""focus"",""19"",""278064""
","""event"",""trial"",""time""
""blur"",""15"",""168669""
""blur"",""19"",""273425""
","""event"",""trial"",""time""
""focus"",""15"",""170526""
""focus"",""19"",""278064""
","""event"",""trial"",""time""
""fullscreenenter"",""1"",""2474""
","
","","","-1","","","20","7258","3953","&#9761;","elianto","#3366ff99","-1","-1","1","+10","[]","0","0","2","","","","","","","",""
"pit-trial","45","456315","0.0-2.0-11.1-3.1","battery-v0.2","","""event"",""trial"",""time""
""fullscreenenter"",""1"",""2474""
""blur"",""15"",""168669""
""focus"",""15"",""170526""
""blur"",""19"",""273425""
""focus"",""19"",""278064""
","""event"",""trial"",""time""
""blur"",""15"",""168669""
""blur"",""19"",""273425""
","""event"",""trial"",""time""
""focus"",""15"",""170526""
""focus"",""19"",""278064""
","""event"",""trial"",""time""
""fullscreenenter"",""1"",""2474""
","
","","","-1","","","20","7258","3953","&#9761;","elianto","#3366ff99","-1","-1","1","0","[]","0","0","2","","","","","","","",""
"pit-trial","46","461167","0.0-2.0-11.1-4.1","battery-v0.2","","""event"",""trial"",""time""
""fullscreenenter"",""1"",""2474""
""blur"",""15"",""168669""
""focus"",""15"",""170526""
""blur"",""19"",""273425""
""focus"",""19"",""278064""
","""event"",""trial"",""time""
""blur"",""15"",""168669""
""blur"",""19"",""273425""
","""event"",""trial"",""time""
""focus"",""15"",""170526""
""focus"",""19"",""278064""
","""event"",""trial"",""time""
""fullscreenenter"",""1"",""2474""
","
","","","-1","","","20","7258","3953","&#9761;","elianto","#3366ff99","-1","-1","1","+10","[]","0","0","2","","","","","","","",""
"pit-trial","47","466022","0.0-2.0-11.2-0.2","battery-v0.2","","""event"",""trial"",""time""
""fullscreenenter"",""1"",""2474""
""blur"",""15"",""168669""
""focus"",""15"",""170526""
""blur"",""19"",""273425""
""focus"",""19"",""278064""
","""event"",""trial"",""time""
""blur"",""15"",""168669""
""blur"",""19"",""273425""
","""event"",""trial"",""time""
""focus"",""15"",""170526""
""focus"",""19"",""278064""
","""event"",""trial"",""time""
""fullscreenenter"",""1"",""2474""
","
","","","-1","","","20","7258","3953","&#9761;","elianto","#3366ff99","-1","-1","1","+10","[]","0","0","2","","","","","","","",""
"pit-trial","48","470877","0.0-2.0-11.2-1.2","battery-v0.2","","""event"",""trial"",""time""
""fullscreenenter"",""1"",""2474""
""blur"",""15"",""168669""
""focus"",""15"",""170526""
""blur"",""19"",""273425""
""focus"",""19"",""278064""
","""event"",""trial"",""time""
""blur"",""15"",""168669""
""blur"",""19"",""273425""
","""event"",""trial"",""time""
""focus"",""15"",""170526""
""focus"",""19"",""278064""
","""event"",""trial"",""time""
""fullscreenenter"",""1"",""2474""
","
","","","-1","","","20","7258","3953","&#9761;","elianto","#3366ff99","-1","-1","1","+10","[]","0","0","2","","","","","","","",""
"pit-trial","49","475730","0.0-2.0-11.2-2.2","battery-v0.2","","""event"",""trial"",""time""
""fullscreenenter"",""1"",""2474""
""blur"",""15"",""168669""
""focus"",""15"",""170526""
""blur"",""19"",""273425""
""focus"",""19"",""278064""
","""event"",""trial"",""time""
""blur"",""15"",""168669""
""blur"",""19"",""273425""
","""event"",""trial"",""time""
""focus"",""15"",""170526""
""focus"",""19"",""278064""
","""event"",""trial"",""time""
""fullscreenenter"",""1"",""2474""
","
","","","-1","","","20","7258","3953","&#9761;","elianto","#3366ff99","-1","-1","1","+10","[]","0","0","2","","","","","","","",""
"pit-trial","50","480582","0.0-2.0-11.2-3.2","battery-v0.2","","""event"",""trial"",""time""
""fullscreenenter"",""1"",""2474""
""blur"",""15"",""168669""
""focus"",""15"",""170526""
""blur"",""19"",""273425""
""focus"",""19"",""278064""
","""event"",""trial"",""time""
""blur"",""15"",""168669""
""blur"",""19"",""273425""
","""event"",""trial"",""time""
""focus"",""15"",""170526""
""focus"",""19"",""278064""
","""event"",""trial"",""time""
""fullscreenenter"",""1"",""2474""
","
","","","-1","","","20","7258","3953","&#9761;","elianto","#3366ff99","-1","-1","1","0","[]","0","0","2","","","","","","","",""
"pit-trial","51","485433","0.0-2.0-11.2-4.2","battery-v0.2","","""event"",""trial"",""time""
""fullscreenenter"",""1"",""2474""
""blur"",""15"",""168669""
""focus"",""15"",""170526""
""blur"",""19"",""273425""
""focus"",""19"",""278064""
","""event"",""trial"",""time""
""blur"",""15"",""168669""
""blur"",""19"",""273425""
","""event"",""trial"",""time""
""focus"",""15"",""170526""
""focus"",""19"",""278064""
","""event"",""trial"",""time""
""fullscreenenter"",""1"",""2474""
","
","","","-1","","","20","7258","3953","&#9761;","elianto","#3366ff99","-1","-1","1","+10","[]","0","0","2","","","","","","","",""
"pit-trial","52","490288","0.0-2.0-11.3-0.3","battery-v0.2","","""event"",""trial"",""time""
""fullscreenenter"",""1"",""2474""
""blur"",""15"",""168669""
""focus"",""15"",""170526""
""blur"",""19"",""273425""
""focus"",""19"",""278064""
","""event"",""trial"",""time""
""blur"",""15"",""168669""
""blur"",""19"",""273425""
","""event"",""trial"",""time""
""focus"",""15"",""170526""
""focus"",""19"",""278064""
","""event"",""trial"",""time""
""fullscreenenter"",""1"",""2474""
","
","","","-1","","","20","7258","3953","&#9761;","elianto","#3366ff99","-1","-1","1","+10","[]","0","0","2","","","","","","","",""
"pit-trial","53","495142","0.0-2.0-11.3-1.3","battery-v0.2","","""event"",""trial"",""time""
""fullscreenenter"",""1"",""2474""
""blur"",""15"",""168669""
""focus"",""15"",""170526""
""blur"",""19"",""273425""
""focus"",""19"",""278064""
","""event"",""trial"",""time""
""blur"",""15"",""168669""
""blur"",""19"",""273425""
","""event"",""trial"",""time""
""focus"",""15"",""170526""
""focus"",""19"",""278064""
","""event"",""trial"",""time""
""fullscreenenter"",""1"",""2474""
","
","","","-1","","","20","7258","3953","&#9761;","elianto","#3366ff99","-1","-1","1","+10","[]","0","0","2","","","","","","","",""
"pit-trial","54","499995","0.0-2.0-11.3-2.3","battery-v0.2","","""event"",""trial"",""time""
""fullscreenenter"",""1"",""2474""
""blur"",""15"",""168669""
""focus"",""15"",""170526""
""blur"",""19"",""273425""
""focus"",""19"",""278064""
","""event"",""trial"",""time""
""blur"",""15"",""168669""
""blur"",""19"",""273425""
","""event"",""trial"",""time""
""focus"",""15"",""170526""
""focus"",""19"",""278064""
","""event"",""trial"",""time""
""fullscreenenter"",""1"",""2474""
","
","","","-1","","","20","7258","3953","&#9761;","elianto","#3366ff99","-1","-1","1","+10","[]","0","0","2","","","","","","","",""
"pit-trial","55","504849","0.0-2.0-11.3-3.3","battery-v0.2","","""event"",""trial"",""time""
""fullscreenenter"",""1"",""2474""
""blur"",""15"",""168669""
""focus"",""15"",""170526""
""blur"",""19"",""273425""
""focus"",""19"",""278064""
","""event"",""trial"",""time""
""blur"",""15"",""168669""
""blur"",""19"",""273425""
","""event"",""trial"",""time""
""focus"",""15"",""170526""
""focus"",""19"",""278064""
","""event"",""trial"",""time""
""fullscreenenter"",""1"",""2474""
","
","","","-1","","","20","7258","3953","&#9761;","elianto","#3366ff99","-1","-1","1","0","[]","0","0","2","","","","","","","",""
"pit-trial","56","509702","0.0-2.0-11.3-4.3","battery-v0.2","","""event"",""trial"",""time""
""fullscreenenter"",""1"",""2474""
""blur"",""15"",""168669""
""focus"",""15"",""170526""
""blur"",""19"",""273425""
""focus"",""19"",""278064""
","""event"",""trial"",""time""
""blur"",""15"",""168669""
""blur"",""19"",""273425""
","""event"",""trial"",""time""
""focus"",""15"",""170526""
""focus"",""19"",""278064""
","""event"",""trial"",""time""
""fullscreenenter"",""1"",""2474""
","
","","","-1","","","20","7258","3953","&#9761;","elianto","#3366ff99","-1","-1","1","+10","[]","0","0","2","","","","","","","",""
"call-function","57","509705","0.0-2.0-12.0","battery-v0.2","","""event"",""trial"",""time""
""fullscreenenter"",""1"",""2474""
""blur"",""15"",""168669""
""focus"",""15"",""170526""
""blur"",""19"",""273425""
""focus"",""19"",""278064""
","""event"",""trial"",""time""
""blur"",""15"",""168669""
""blur"",""19"",""273425""
","""event"",""trial"",""time""
""focus"",""15"",""170526""
""focus"",""19"",""278064""
","""event"",""trial"",""time""
""fullscreenenter"",""1"",""2474""
","
","","","","","","","","","","","","","","","","","","","","","","","","","","",""
"pit-instructions","58","555775","0.0-2.0-13.0","battery-v0.2","","""event"",""trial"",""time""
""fullscreenenter"",""1"",""2474""
""blur"",""15"",""168669""
""focus"",""15"",""170526""
""blur"",""19"",""273425""
""focus"",""19"",""278064""
","""event"",""trial"",""time""
""blur"",""15"",""168669""
""blur"",""19"",""273425""
","""event"",""trial"",""time""
""focus"",""15"",""170526""
""focus"",""19"",""278064""
","""event"",""trial"",""time""
""fullscreenenter"",""1"",""2474""
","
","","[{""page_index"":0,""viewing_time"":10407.099999904633},{""page_index"":1,""viewing_time"":9101.799999713898},{""page_index"":2,""viewing_time"":11717.900000095367},{""page_index"":3,""viewing_time"":10459.200000286102},{""page_index"":4,""viewing_time"":4382.799999713898}]","46069","","","","","","","","","","","","","","","","","","","","","","","",""
"pit-trial","59","559079","0.0-2.0-14.0-0.0","battery-v0.2","","""event"",""trial"",""time""
""fullscreenenter"",""1"",""2474""
""blur"",""15"",""168669""
""focus"",""15"",""170526""
""blur"",""19"",""273425""
""focus"",""19"",""278064""
","""event"",""trial"",""time""
""blur"",""15"",""168669""
""blur"",""19"",""273425""
","""event"",""trial"",""time""
""focus"",""15"",""170526""
""focus"",""19"",""278064""
","""event"",""trial"",""time""
""fullscreenenter"",""1"",""2474""
","
","","","450.6000003814697","","","20","7258","3953","&#9826;","elianto","#f73b6a7A","-1"," ","0","-10","[1301.7000002861023]","1","0","3","","","","","","","",""
"pit-trial","60","562193","0.0-2.0-14.0-1.0","battery-v0.2","","""event"",""trial"",""time""
""fullscreenenter"",""1"",""2474""
""blur"",""15"",""168669""
""focus"",""15"",""170526""
""blur"",""19"",""273425""
""focus"",""19"",""278064""
","""event"",""trial"",""time""
""blur"",""15"",""168669""
""blur"",""19"",""273425""
","""event"",""trial"",""time""
""focus"",""15"",""170526""
""focus"",""19"",""278064""
","""event"",""trial"",""time""
""fullscreenenter"",""1"",""2474""
","
","","","259.30000019073486","","","20","7258","3953","&#9826;","elianto","#f73b6a7A","-1"," ","0","-10","[1110.3000001907349]","1","0","3","","","","","","","",""
"pit-trial","61","567057","0.0-2.0-14.0-2.0","battery-v0.2","","""event"",""trial"",""time""
""fullscreenenter"",""1"",""2474""
""blur"",""15"",""168669""
""focus"",""15"",""170526""
""blur"",""19"",""273425""
""focus"",""19"",""278064""
","""event"",""trial"",""time""
""blur"",""15"",""168669""
""blur"",""19"",""273425""
","""event"",""trial"",""time""
""focus"",""15"",""170526""
""focus"",""19"",""278064""
","""event"",""trial"",""time""
""fullscreenenter"",""1"",""2474""
","
","","","-1","","","20","7258","3953","&#9826;","elianto","#f73b6a7A","-1","-1","1","0","[]","0","0","3","","","","","","","",""
"pit-trial","62","571919","0.0-2.0-14.0-3.0","battery-v0.2","","""event"",""trial"",""time""
""fullscreenenter"",""1"",""2474""
""blur"",""15"",""168669""
""focus"",""15"",""170526""
""blur"",""19"",""273425""
""focus"",""19"",""278064""
","""event"",""trial"",""time""
""blur"",""15"",""168669""
""blur"",""19"",""273425""
","""event"",""trial"",""time""
""focus"",""15"",""170526""
""focus"",""19"",""278064""
","""event"",""trial"",""time""
""fullscreenenter"",""1"",""2474""
","
","","","-1","","","20","7258","3953","&#9826;","elianto","#f73b6a7A","-1","-1","1","-10","[]","0","0","3","","","","","","","",""
"pit-trial","63","576782","0.0-2.0-14.0-4.0","battery-v0.2","","""event"",""trial"",""time""
""fullscreenenter"",""1"",""2474""
""blur"",""15"",""168669""
""focus"",""15"",""170526""
""blur"",""19"",""273425""
""focus"",""19"",""278064""
","""event"",""trial"",""time""
""blur"",""15"",""168669""
""blur"",""19"",""273425""
","""event"",""trial"",""time""
""focus"",""15"",""170526""
""focus"",""19"",""278064""
","""event"",""trial"",""time""
""fullscreenenter"",""1"",""2474""
","
","","","-1","","","20","7258","3953","&#9826;","elianto","#f73b6a7A","-1","-1","1","0","[]","0","0","3","","","","","","","",""
"pit-trial","64","581658","0.0-2.0-14.1-0.1","battery-v0.2","","""event"",""trial"",""time""
""fullscreenenter"",""1"",""2474""
""blur"",""15"",""168669""
""focus"",""15"",""170526""
""blur"",""19"",""273425""
""focus"",""19"",""278064""
","""event"",""trial"",""time""
""blur"",""15"",""168669""
""blur"",""19"",""273425""
","""event"",""trial"",""time""
""focus"",""15"",""170526""
""focus"",""19"",""278064""
","""event"",""trial"",""time""
""fullscreenenter"",""1"",""2474""
","
","","","-1","","","20","7258","3953","&#9826;","elianto","#f73b6a7A","-1","-1","1","0","[]","0","0","3","","","","","","","",""
"pit-trial","65","586512","0.0-2.0-14.1-1.1","battery-v0.2","","""event"",""trial"",""time""
""fullscreenenter"",""1"",""2474""
""blur"",""15"",""168669""
""focus"",""15"",""170526""
""blur"",""19"",""273425""
""focus"",""19"",""278064""
","""event"",""trial"",""time""
""blur"",""15"",""168669""
""blur"",""19"",""273425""
","""event"",""trial"",""time""
""focus"",""15"",""170526""
""focus"",""19"",""278064""
","""event"",""trial"",""time""
""fullscreenenter"",""1"",""2474""
","
","","","-1","","","20","7258","3953","&#9826;","elianto","#f73b6a7A","-1","-1","1","0","[]","0","0","3","","","","","","","",""
"pit-trial","66","591365","0.0-2.0-14.1-2.1","battery-v0.2","","""event"",""trial"",""time""
""fullscreenenter"",""1"",""2474""
""blur"",""15"",""168669""
""focus"",""15"",""170526""
""blur"",""19"",""273425""
""focus"",""19"",""278064""
","""event"",""trial"",""time""
""blur"",""15"",""168669""
""blur"",""19"",""273425""
","""event"",""trial"",""time""
""focus"",""15"",""170526""
""focus"",""19"",""278064""
","""event"",""trial"",""time""
""fullscreenenter"",""1"",""2474""
","
","","","-1","","","20","7258","3953","&#9826;","elianto","#f73b6a7A","-1","-1","1","0","[]","0","0","3","","","","","","","",""
"pit-trial","67","596219","0.0-2.0-14.1-3.1","battery-v0.2","","""event"",""trial"",""time""
""fullscreenenter"",""1"",""2474""
""blur"",""15"",""168669""
""focus"",""15"",""170526""
""blur"",""19"",""273425""
""focus"",""19"",""278064""
","""event"",""trial"",""time""
""blur"",""15"",""168669""
""blur"",""19"",""273425""
","""event"",""trial"",""time""
""focus"",""15"",""170526""
""focus"",""19"",""278064""
","""event"",""trial"",""time""
""fullscreenenter"",""1"",""2474""
","
","","","-1","","","20","7258","3953","&#9826;","elianto","#f73b6a7A","-1","-1","1","-10","[]","0","0","3","","","","","","","",""
"pit-trial","68","601072","0.0-2.0-14.1-4.1","battery-v0.2","","""event"",""trial"",""time""
""fullscreenenter"",""1"",""2474""
""blur"",""15"",""168669""
""focus"",""15"",""170526""
""blur"",""19"",""273425""
""focus"",""19"",""278064""
","""event"",""trial"",""time""
""blur"",""15"",""168669""
""blur"",""19"",""273425""
","""event"",""trial"",""time""
""focus"",""15"",""170526""
""focus"",""19"",""278064""
","""event"",""trial"",""time""
""fullscreenenter"",""1"",""2474""
","
","","","-1","","","20","7258","3953","&#9826;","elianto","#f73b6a7A","-1","-1","1","0","[]","0","0","3","","","","","","","",""
"pit-trial","69","605927","0.0-2.0-14.2-0.2","battery-v0.2","","""event"",""trial"",""time""
""fullscreenenter"",""1"",""2474""
""blur"",""15"",""168669""
""focus"",""15"",""170526""
""blur"",""19"",""273425""
""focus"",""19"",""278064""
","""event"",""trial"",""time""
""blur"",""15"",""168669""
""blur"",""19"",""273425""
","""event"",""trial"",""time""
""focus"",""15"",""170526""
""focus"",""19"",""278064""
","""event"",""trial"",""time""
""fullscreenenter"",""1"",""2474""
","
","","","-1","","","20","7258","3953","&#9826;","elianto","#f73b6a7A","-1","-1","1","0","[]","0","0","3","","","","","","","",""
"pit-trial","70","610781","0.0-2.0-14.2-1.2","battery-v0.2","","""event"",""trial"",""time""
""fullscreenenter"",""1"",""2474""
""blur"",""15"",""168669""
""focus"",""15"",""170526""
""blur"",""19"",""273425""
""focus"",""19"",""278064""
","""event"",""trial"",""time""
""blur"",""15"",""168669""
""blur"",""19"",""273425""
","""event"",""trial"",""time""
""focus"",""15"",""170526""
""focus"",""19"",""278064""
","""event"",""trial"",""time""
""fullscreenenter"",""1"",""2474""
","
","","","-1","","","20","7258","3953","&#9826;","elianto","#f73b6a7A","-1","-1","1","0","[]","0","0","3","","","","","","","",""
"pit-trial","71","615633","0.0-2.0-14.2-2.2","battery-v0.2","","""event"",""trial"",""time""
""fullscreenenter"",""1"",""2474""
""blur"",""15"",""168669""
""focus"",""15"",""170526""
""blur"",""19"",""273425""
""focus"",""19"",""278064""
","""event"",""trial"",""time""
""blur"",""15"",""168669""
""blur"",""19"",""273425""
","""event"",""trial"",""time""
""focus"",""15"",""170526""
""focus"",""19"",""278064""
","""event"",""trial"",""time""
""fullscreenenter"",""1"",""2474""
","
","","","-1","","","20","7258","3953","&#9826;","elianto","#f73b6a7A","-1","-1","1","0","[]","0","0","3","","","","","","","",""
"pit-trial","72","620486","0.0-2.0-14.2-3.2","battery-v0.2","","""event"",""trial"",""time""
""fullscreenenter"",""1"",""2474""
""blur"",""15"",""168669""
""focus"",""15"",""170526""
""blur"",""19"",""273425""
""focus"",""19"",""278064""
","""event"",""trial"",""time""
""blur"",""15"",""168669""
""blur"",""19"",""273425""
","""event"",""trial"",""time""
""focus"",""15"",""170526""
""focus"",""19"",""278064""
","""event"",""trial"",""time""
""fullscreenenter"",""1"",""2474""
","
","","","-1","","","20","7258","3953","&#9826;","elianto","#f73b6a7A","-1","-1","1","-10","[]","0","0","3","","","","","","","",""
"pit-trial","73","625341","0.0-2.0-14.2-4.2","battery-v0.2","","""event"",""trial"",""time""
""fullscreenenter"",""1"",""2474""
""blur"",""15"",""168669""
""focus"",""15"",""170526""
""blur"",""19"",""273425""
""focus"",""19"",""278064""
","""event"",""trial"",""time""
""blur"",""15"",""168669""
""blur"",""19"",""273425""
","""event"",""trial"",""time""
""focus"",""15"",""170526""
""focus"",""19"",""278064""
","""event"",""trial"",""time""
""fullscreenenter"",""1"",""2474""
","
","","","-1","","","20","7258","3953","&#9826;","elianto","#f73b6a7A","-1","-1","1","0","[]","0","0","3","","","","","","","",""
"pit-trial","74","630196","0.0-2.0-14.3-0.3","battery-v0.2","","""event"",""trial"",""time""
""fullscreenenter"",""1"",""2474""
""blur"",""15"",""168669""
""focus"",""15"",""170526""
""blur"",""19"",""273425""
""focus"",""19"",""278064""
","""event"",""trial"",""time""
""blur"",""15"",""168669""
""blur"",""19"",""273425""
","""event"",""trial"",""time""
""focus"",""15"",""170526""
""focus"",""19"",""278064""
","""event"",""trial"",""time""
""fullscreenenter"",""1"",""2474""
","
","","","-1","","","20","7258","3953","&#9826;","elianto","#f73b6a7A","-1","-1","1","0","[]","0","0","3","","","","","","","",""
"pit-trial","75","635050","0.0-2.0-14.3-1.3","battery-v0.2","","""event"",""trial"",""time""
""fullscreenenter"",""1"",""2474""
""blur"",""15"",""168669""
""focus"",""15"",""170526""
""blur"",""19"",""273425""
""focus"",""19"",""278064""
","""event"",""trial"",""time""
""blur"",""15"",""168669""
""blur"",""19"",""273425""
","""event"",""trial"",""time""
""focus"",""15"",""170526""
""focus"",""19"",""278064""
","""event"",""trial"",""time""
""fullscreenenter"",""1"",""2474""
","
","","","-1","","","20","7258","3953","&#9826;","elianto","#f73b6a7A","-1","-1","1","0","[]","0","0","3","","","","","","","",""
"pit-trial","76","639904","0.0-2.0-14.3-2.3","battery-v0.2","","""event"",""trial"",""time""
""fullscreenenter"",""1"",""2474""
""blur"",""15"",""168669""
""focus"",""15"",""170526""
""blur"",""19"",""273425""
""focus"",""19"",""278064""
","""event"",""trial"",""time""
""blur"",""15"",""168669""
""blur"",""19"",""273425""
","""event"",""trial"",""time""
""focus"",""15"",""170526""
""focus"",""19"",""278064""
","""event"",""trial"",""time""
""fullscreenenter"",""1"",""2474""
","
","","","-1","","","20","7258","3953","&#9826;","elianto","#f73b6a7A","-1","-1","1","0","[]","0","0","3","","","","","","","",""
"pit-trial","77","644757","0.0-2.0-14.3-3.3","battery-v0.2","","""event"",""trial"",""time""
""fullscreenenter"",""1"",""2474""
""blur"",""15"",""168669""
""focus"",""15"",""170526""
""blur"",""19"",""273425""
""focus"",""19"",""278064""
","""event"",""trial"",""time""
""blur"",""15"",""168669""
""blur"",""19"",""273425""
","""event"",""trial"",""time""
""focus"",""15"",""170526""
""focus"",""19"",""278064""
","""event"",""trial"",""time""
""fullscreenenter"",""1"",""2474""
","
","","","-1","","","20","7258","3953","&#9826;","elianto","#f73b6a7A","-1","-1","1","-10","[]","0","0","3","","","","","","","",""
"pit-trial","78","649611","0.0-2.0-14.3-4.3","battery-v0.2","","""event"",""trial"",""time""
""fullscreenenter"",""1"",""2474""
""blur"",""15"",""168669""
""focus"",""15"",""170526""
""blur"",""19"",""273425""
""focus"",""19"",""278064""
","""event"",""trial"",""time""
""blur"",""15"",""168669""
""blur"",""19"",""273425""
","""event"",""trial"",""time""
""focus"",""15"",""170526""
""focus"",""19"",""278064""
","""event"",""trial"",""time""
""fullscreenenter"",""1"",""2474""
","
","","","-1","","","20","7258","3953","&#9826;","elianto","#f73b6a7A","-1","-1","1","0","[]","0","0","3","","","","","","","",""
"call-function","79","649614","0.0-2.0-15.0","battery-v0.2","","""event"",""trial"",""time""
""fullscreenenter"",""1"",""2474""
""blur"",""15"",""168669""
""focus"",""15"",""170526""
""blur"",""19"",""273425""
""focus"",""19"",""278064""
","""event"",""trial"",""time""
""blur"",""15"",""168669""
""blur"",""19"",""273425""
","""event"",""trial"",""time""
""focus"",""15"",""170526""
""focus"",""19"",""278064""
","""event"",""trial"",""time""
""fullscreenenter"",""1"",""2474""
","
","","","","","","","","","","","","","","","","","","","","","","","","","","",""
"pit-instructions","80","690972","0.0-2.0-16.0","battery-v0.2","","""event"",""trial"",""time""
""fullscreenenter"",""1"",""2474""
""blur"",""15"",""168669""
""focus"",""15"",""170526""
""blur"",""19"",""273425""
""focus"",""19"",""278064""
","""event"",""trial"",""time""
""blur"",""15"",""168669""
""blur"",""19"",""273425""
","""event"",""trial"",""time""
""focus"",""15"",""170526""
""focus"",""19"",""278064""
","""event"",""trial"",""time""
""fullscreenenter"",""1"",""2474""
","
","","[{""page_index"":0,""viewing_time"":24875.900000095367},{""page_index"":1,""viewing_time"":8196},{""page_index"":2,""viewing_time"":4243},{""page_index"":3,""viewing_time"":4041.7000002861023}]","41356.90000009537","","","","","","","","","","","","","","","","","","","","","","","",""
"pit-trial","81","695269","0.0-2.0-17.0-0.0","battery-v0.2","","""event"",""trial"",""time""
""fullscreenenter"",""1"",""2474""
""blur"",""15"",""168669""
""focus"",""15"",""170526""
""blur"",""19"",""273425""
""focus"",""19"",""278064""
","""event"",""trial"",""time""
""blur"",""15"",""168669""
""blur"",""19"",""273425""
","""event"",""trial"",""time""
""focus"",""15"",""170526""
""focus"",""19"",""278064""
","""event"",""trial"",""time""
""fullscreenenter"",""1"",""2474""
","
","","","1438","","","20","7258","3953","&#9789;","elianto","#f73b6a7A"," "," ","1","0","[2289.300000190735]","1","0","4","","","","","","","",""
"pit-trial","82","698723","0.0-2.0-17.0-1.0","battery-v0.2","","""event"",""trial"",""time""
""fullscreenenter"",""1"",""2474""
""blur"",""15"",""168669""
""focus"",""15"",""170526""
""blur"",""19"",""273425""
""focus"",""19"",""278064""
","""event"",""trial"",""time""
""blur"",""15"",""168669""
""blur"",""19"",""273425""
","""event"",""trial"",""time""
""focus"",""15"",""170526""
""focus"",""19"",""278064""
","""event"",""trial"",""time""
""fullscreenenter"",""1"",""2474""
","
","","","589.7999997138977","","","20","7258","3953","&#9789;","elianto","#f73b6a7A"," "," ","1","0","[1446]","1","0","4","","","","","","","",""
"pit-trial","83","701959","0.0-2.0-17.0-2.0","battery-v0.2","","""event"",""trial"",""time""
""fullscreenenter"",""1"",""2474""
""blur"",""15"",""168669""
""focus"",""15"",""170526""
""blur"",""19"",""273425""
""focus"",""19"",""278064""
","""event"",""trial"",""time""
""blur"",""15"",""168669""
""blur"",""19"",""273425""
","""event"",""trial"",""time""
""focus"",""15"",""170526""
""focus"",""19"",""278064""
","""event"",""trial"",""time""
""fullscreenenter"",""1"",""2474""
","
","","","371.90000009536743","","","20","7258","3953","&#9789;","elianto","#f73b6a7A"," "," ","1","0","[1222.2999997138977]","1","0","4","","","","","","","",""
"pit-trial","84","705092","0.0-2.0-17.0-3.0","battery-v0.2","","""event"",""trial"",""time""
""fullscreenenter"",""1"",""2474""
""blur"",""15"",""168669""
""focus"",""15"",""170526""
""blur"",""19"",""273425""
""focus"",""19"",""278064""
","""event"",""trial"",""time""
""blur"",""15"",""168669""
""blur"",""19"",""273425""
","""event"",""trial"",""time""
""focus"",""15"",""170526""
""focus"",""19"",""278064""
","""event"",""trial"",""time""
""fullscreenenter"",""1"",""2474""
","
","","","272.2999997138977","","","20","7258","3953","&#9789;","elianto","#f73b6a7A"," "," ","1","-10","[1125.2999997138977]","1","0","4","","","","","","","",""
"pit-trial","85","708238","0.0-2.0-17.0-4.0","battery-v0.2","","""event"",""trial"",""time""
""fullscreenenter"",""1"",""2474""
""blur"",""15"",""168669""
""focus"",""15"",""170526""
""blur"",""19"",""273425""
""focus"",""19"",""278064""
","""event"",""trial"",""time""
""blur"",""15"",""168669""
""blur"",""19"",""273425""
","""event"",""trial"",""time""
""focus"",""15"",""170526""
""focus"",""19"",""278064""
","""event"",""trial"",""time""
""fullscreenenter"",""1"",""2474""
","
","","","277.40000009536743","","","20","7258","3953","&#9789;","elianto","#f73b6a7A"," "," ","1","0","[1127.3000001907349]","1","0","4","","","","","","","",""
"pit-trial","86","711487","0.0-2.0-17.1-0.1","battery-v0.2","","""event"",""trial"",""time""
""fullscreenenter"",""1"",""2474""
""blur"",""15"",""168669""
""focus"",""15"",""170526""
""blur"",""19"",""273425""
""focus"",""19"",""278064""
","""event"",""trial"",""time""
""blur"",""15"",""168669""
""blur"",""19"",""273425""
","""event"",""trial"",""time""
""focus"",""15"",""170526""
""focus"",""19"",""278064""
","""event"",""trial"",""time""
""fullscreenenter"",""1"",""2474""
","
","","","380.90000009536743","","","20","7258","3953","&#9789;","elianto","#f73b6a7A"," "," ","1","0","[1237.7000002861023]","1","0","4","","","","","","","",""
"pit-trial","87","714785","0.0-2.0-17.1-1.1","battery-v0.2","","""event"",""trial"",""time""
""fullscreenenter"",""1"",""2474""
""blur"",""15"",""168669""
""focus"",""15"",""170526""
""blur"",""19"",""273425""
""focus"",""19"",""278064""
","""event"",""trial"",""time""
""blur"",""15"",""168669""
""blur"",""19"",""273425""
","""event"",""trial"",""time""
""focus"",""15"",""170526""
""focus"",""19"",""278064""
","""event"",""trial"",""time""
""fullscreenenter"",""1"",""2474""
","
","","","436.40000009536743","","","20","7258","3953","&#9789;","elianto","#f73b6a7A"," "," ","1","0","[1287.7000002861023]","1","0","4","","","","","","","",""
"pit-trial","88","718065","0.0-2.0-17.1-2.1","battery-v0.2","","""event"",""trial"",""time""
""fullscreenenter"",""1"",""2474""
""blur"",""15"",""168669""
""focus"",""15"",""170526""
""blur"",""19"",""273425""
""focus"",""19"",""278064""
","""event"",""trial"",""time""
""blur"",""15"",""168669""
""blur"",""19"",""273425""
","""event"",""trial"",""time""
""focus"",""15"",""170526""
""focus"",""19"",""278064""
","""event"",""trial"",""time""
""fullscreenenter"",""1"",""2474""
","
","","","426","","","20","7258","3953","&#9789;","elianto","#f73b6a7A"," "," ","1","0","[1276.6999998092651]","1","0","4","","","","","","","",""
"pit-trial","89","721455","0.0-2.0-17.1-3.1","battery-v0.2","","""event"",""trial"",""time""
""fullscreenenter"",""1"",""2474""
""blur"",""15"",""168669""
""focus"",""15"",""170526""
""blur"",""19"",""273425""
""focus"",""19"",""278064""
","""event"",""trial"",""time""
""blur"",""15"",""168669""
""blur"",""19"",""273425""
","""event"",""trial"",""time""
""focus"",""15"",""170526""
""focus"",""19"",""278064""
","""event"",""trial"",""time""
""fullscreenenter"",""1"",""2474""
","
","","","523.8000001907349","","","20","7258","3953","&#9789;","elianto","#f73b6a7A"," "," ","1","-10","[1374.1999998092651]","1","0","4","","","","","","","",""
"pit-trial","90","724734","0.0-2.0-17.1-4.1","battery-v0.2","","""event"",""trial"",""time""
""fullscreenenter"",""1"",""2474""
""blur"",""15"",""168669""
""focus"",""15"",""170526""
""blur"",""19"",""273425""
""focus"",""19"",""278064""
","""event"",""trial"",""time""
""blur"",""15"",""168669""
""blur"",""19"",""273425""
","""event"",""trial"",""time""
""focus"",""15"",""170526""
""focus"",""19"",""278064""
","""event"",""trial"",""time""
""fullscreenenter"",""1"",""2474""
","
","","","428.2999997138977","","","20","7258","3953","&#9789;","elianto","#f73b6a7A"," "," ","1","0","[1278.5999999046326]","1","0","4","","","","","","","",""
"pit-trial","91","727935","0.0-2.0-17.2-0.2","battery-v0.2","","""event"",""trial"",""time""
""fullscreenenter"",""1"",""2474""
""blur"",""15"",""168669""
""focus"",""15"",""170526""
""blur"",""19"",""273425""
""focus"",""19"",""278064""
","""event"",""trial"",""time""
""blur"",""15"",""168669""
""blur"",""19"",""273425""
","""event"",""trial"",""time""
""focus"",""15"",""170526""
""focus"",""19"",""278064""
","""event"",""trial"",""time""
""fullscreenenter"",""1"",""2474""
","
","","","345.30000019073486","","","20","7258","3953","&#9789;","elianto","#f73b6a7A"," "," ","1","0","[1195.4000000953674]","1","0","4","","","","","","","",""
"pit-trial","92","731055","0.0-2.0-17.2-1.2","battery-v0.2","","""event"",""trial"",""time""
""fullscreenenter"",""1"",""2474""
""blur"",""15"",""168669""
""focus"",""15"",""170526""
""blur"",""19"",""273425""
""focus"",""19"",""278064""
","""event"",""trial"",""time""
""blur"",""15"",""168669""
""blur"",""19"",""273425""
","""event"",""trial"",""time""
""focus"",""15"",""170526""
""focus"",""19"",""278064""
","""event"",""trial"",""time""
""fullscreenenter"",""1"",""2474""
","
","","","265.59999990463257","","","20","7258","3953","&#9789;","elianto","#f73b6a7A"," "," ","1","0","[1117.5]","1","0","4","","","","","","","",""
"pit-trial","93","734142","0.0-2.0-17.2-2.2","battery-v0.2","","""event"",""trial"",""time""
""fullscreenenter"",""1"",""2474""
""blur"",""15"",""168669""
""focus"",""15"",""170526""
""blur"",""19"",""273425""
""focus"",""19"",""278064""
","""event"",""trial"",""time""
""blur"",""15"",""168669""
""blur"",""19"",""273425""
","""event"",""trial"",""time""
""focus"",""15"",""170526""
""focus"",""19"",""278064""
","""event"",""trial"",""time""
""fullscreenenter"",""1"",""2474""
","
","","","233.80000019073486","","","20","7258","3953","&#9789;","elianto","#f73b6a7A"," "," ","1","0","[1084.4000000953674]","1","0","4","","","","","","","",""
"pit-trial","94","737529","0.0-2.0-17.2-3.2","battery-v0.2","","""event"",""trial"",""time""
""fullscreenenter"",""1"",""2474""
""blur"",""15"",""168669""
""focus"",""15"",""170526""
""blur"",""19"",""273425""
""focus"",""19"",""278064""
","""event"",""trial"",""time""
""blur"",""15"",""168669""
""blur"",""19"",""273425""
","""event"",""trial"",""time""
""focus"",""15"",""170526""
""focus"",""19"",""278064""
","""event"",""trial"",""time""
""fullscreenenter"",""1"",""2474""
","
","","","532.9000000953674","","","20","7258","3953","&#9789;","elianto","#f73b6a7A"," "," ","1","-10","[1383.0999999046326]","1","0","4","","","","","","","",""
"pit-trial","95","740635","0.0-2.0-17.2-4.2","battery-v0.2","","""event"",""trial"",""time""
""fullscreenenter"",""1"",""2474""
""blur"",""15"",""168669""
""focus"",""15"",""170526""
""blur"",""19"",""273425""
""focus"",""19"",""278064""
","""event"",""trial"",""time""
""blur"",""15"",""168669""
""blur"",""19"",""273425""
","""event"",""trial"",""time""
""focus"",""15"",""170526""
""focus"",""19"",""278064""
","""event"",""trial"",""time""
""fullscreenenter"",""1"",""2474""
","
","","","251.59999990463257","","","20","7258","3953","&#9789;","elianto","#f73b6a7A"," "," ","1","0","[1102.0999999046326]","1","0","4","","","","","","","",""
"pit-trial","96","743712","0.0-2.0-17.3-0.3","battery-v0.2","","""event"",""trial"",""time""
""fullscreenenter"",""1"",""2474""
""blur"",""15"",""168669""
""focus"",""15"",""170526""
""blur"",""19"",""273425""
""focus"",""19"",""278064""
","""event"",""trial"",""time""
""blur"",""15"",""168669""
""blur"",""19"",""273425""
","""event"",""trial"",""time""
""focus"",""15"",""170526""
""focus"",""19"",""278064""
","""event"",""trial"",""time""
""fullscreenenter"",""1"",""2474""
","
","","","223.40000009536743","","","20","7258","3953","&#9789;","elianto","#f73b6a7A"," "," ","1","0","[1073.5]","1","0","4","","","","","","","",""
"pit-trial","97","746744","0.0-2.0-17.3-1.3","battery-v0.2","","""event"",""trial"",""time""
""fullscreenenter"",""1"",""2474""
""blur"",""15"",""168669""
""focus"",""15"",""170526""
""blur"",""19"",""273425""
""focus"",""19"",""278064""
","""event"",""trial"",""time""
""blur"",""15"",""168669""
""blur"",""19"",""273425""
","""event"",""trial"",""time""
""focus"",""15"",""170526""
""focus"",""19"",""278064""
","""event"",""trial"",""time""
""fullscreenenter"",""1"",""2474""
","
","","","180.2999997138977","","","20","7258","3953","&#9789;","elianto","#f73b6a7A"," "," ","1","0","[1030.9000000953674]","1","0","4","","","","","","","",""
"pit-trial","98","749850","0.0-2.0-17.3-2.3","battery-v0.2","","""event"",""trial"",""time""
""fullscreenenter"",""1"",""2474""
""blur"",""15"",""168669""
""focus"",""15"",""170526""
""blur"",""19"",""273425""
""focus"",""19"",""278064""
","""event"",""trial"",""time""
""blur"",""15"",""168669""
""blur"",""19"",""273425""
","""event"",""trial"",""time""
""focus"",""15"",""170526""
""focus"",""19"",""278064""
","""event"",""trial"",""time""
""fullscreenenter"",""1"",""2474""
","
","","","254.2000002861023","","","20","7258","3953","&#9789;","elianto","#f73b6a7A"," "," ","1","0","[1104.7000002861023]","1","0","4","","","","","","","",""
"pit-trial","99","752977","0.0-2.0-17.3-3.3","battery-v0.2","","""event"",""trial"",""time""
""fullscreenenter"",""1"",""2474""
""blur"",""15"",""168669""
""focus"",""15"",""170526""
""blur"",""19"",""273425""
""focus"",""19"",""278064""
","""event"",""trial"",""time""
""blur"",""15"",""168669""
""blur"",""19"",""273425""
","""event"",""trial"",""time""
""focus"",""15"",""170526""
""focus"",""19"",""278064""
","""event"",""trial"",""time""
""fullscreenenter"",""1"",""2474""
","
","","","272.69999980926514","","","20","7258","3953","&#9789;","elianto","#f73b6a7A"," "," ","1","-10","[1123.1999998092651]","1","0","4","","","","","","","",""
"pit-trial","100","756105","0.0-2.0-17.3-4.3","battery-v0.2","","""event"",""trial"",""time""
""fullscreenenter"",""1"",""2474""
""blur"",""15"",""168669""
""focus"",""15"",""170526""
""blur"",""19"",""273425""
""focus"",""19"",""278064""
","""event"",""trial"",""time""
""blur"",""15"",""168669""
""blur"",""19"",""273425""
","""event"",""trial"",""time""
""focus"",""15"",""170526""
""focus"",""19"",""278064""
","""event"",""trial"",""time""
""fullscreenenter"",""1"",""2474""
","
","","","275.19999980926514","","","20","7258","3953","&#9789;","elianto","#f73b6a7A"," "," ","1","0","[1125.5]","1","0","4","","","","","","","",""
"call-function","101","756108","0.0-2.0-18.0","battery-v0.2","","""event"",""trial"",""time""
""fullscreenenter"",""1"",""2474""
""blur"",""15"",""168669""
""focus"",""15"",""170526""
""blur"",""19"",""273425""
""focus"",""19"",""278064""
","""event"",""trial"",""time""
""blur"",""15"",""168669""
""blur"",""19"",""273425""
","""event"",""trial"",""time""
""focus"",""15"",""170526""
""focus"",""19"",""278064""
","""event"",""trial"",""time""
""fullscreenenter"",""1"",""2474""
","
","","","","","","","","","","","","","","","","","","","","","","","","","","",""
"pit-instructions","102","818724","0.0-2.0-19.0","battery-v0.2","","""event"",""trial"",""time""
""fullscreenenter"",""1"",""2474""
""blur"",""15"",""168669""
""focus"",""15"",""170526""
""blur"",""19"",""273425""
""focus"",""19"",""278064""
","""event"",""trial"",""time""
""blur"",""15"",""168669""
""blur"",""19"",""273425""
","""event"",""trial"",""time""
""focus"",""15"",""170526""
""focus"",""19"",""278064""
","""event"",""trial"",""time""
""fullscreenenter"",""1"",""2474""
","
","","[{""page_index"":0,""viewing_time"":6076.400000095367},{""page_index"":1,""viewing_time"":8269.700000286102},{""page_index"":2,""viewing_time"":11850.099999904633},{""page_index"":3,""viewing_time"":7382.199999809265},{""page_index"":4,""viewing_time"":7594.900000095367},{""page_index"":5,""viewing_time"":8828},{""page_index"":6,""viewing_time"":4790},{""page_index"":7,""viewing_time"":4156.099999904633},{""page_index"":8,""viewing_time"":3666.800000190735}]","62614.40000009537","","","","","","","","","","","","","","","","","","","","","","","",""
"pit-comprehension","103","822885","0.0-2.0-20.0-0.0","battery-v0.2","","""event"",""trial"",""time""
""fullscreenenter"",""1"",""2474""
""blur"",""15"",""168669""
""focus"",""15"",""170526""
""blur"",""19"",""273425""
""focus"",""19"",""278064""
","""event"",""trial"",""time""
""blur"",""15"",""168669""
""blur"",""19"",""273425""
","""event"",""trial"",""time""
""focus"",""15"",""170526""
""focus"",""19"",""278064""
","""event"",""trial"",""time""
""fullscreenenter"",""1"",""2474""
","
","","","4159.5","[""SPACE""]","0","20","7258","3953","","","","","","","","","","","","","","","","","","",""
"pit-instructions","104","825083","0.0-2.0-20.0-1.0","battery-v0.2","","""event"",""trial"",""time""
""fullscreenenter"",""1"",""2474""
""blur"",""15"",""168669""
""focus"",""15"",""170526""
""blur"",""19"",""273425""
""focus"",""19"",""278064""
","""event"",""trial"",""time""
""blur"",""15"",""168669""
""blur"",""19"",""273425""
","""event"",""trial"",""time""
""focus"",""15"",""170526""
""focus"",""19"",""278064""
","""event"",""trial"",""time""
""fullscreenenter"",""1"",""2474""
","
","","[{""page_index"":0,""viewing_time"":2164.5}]","2164.699999809265","","","","","","","","","","","","","","","","","","","","","","","",""
"pit-comprehension","105","829526","0.0-2.0-21.0-0.0","battery-v0.2","","""event"",""trial"",""time""
""fullscreenenter"",""1"",""2474""
""blur"",""15"",""168669""
""focus"",""15"",""170526""
""blur"",""19"",""273425""
""focus"",""19"",""278064""
","""event"",""trial"",""time""
""blur"",""15"",""168669""
""blur"",""19"",""273425""
","""event"",""trial"",""time""
""focus"",""15"",""170526""
""focus"",""19"",""278064""
","""event"",""trial"",""time""
""fullscreenenter"",""1"",""2474""
","
","","","4441.89999961853","[""10""]","0","20","7258","3953","","","","","","","","","","","","","","","","","","",""
"pit-instructions","106","830991","0.0-2.0-21.0-1.0","battery-v0.2","","""event"",""trial"",""time""
""fullscreenenter"",""1"",""2474""
""blur"",""15"",""168669""
""focus"",""15"",""170526""
""blur"",""19"",""273425""
""focus"",""19"",""278064""
","""event"",""trial"",""time""
""blur"",""15"",""168669""
""blur"",""19"",""273425""
","""event"",""trial"",""time""
""focus"",""15"",""170526""
""focus"",""19"",""278064""
","""event"",""trial"",""time""
""fullscreenenter"",""1"",""2474""
","
","","[{""page_index"":0,""viewing_time"":1434.4000000953674}]","1434.5","","","","","","","","","","","","","","","","","","","","","","","",""
"pit-comprehension","107","837258","0.0-2.0-22.0-0.0","battery-v0.2","","""event"",""trial"",""time""
""fullscreenenter"",""1"",""2474""
""blur"",""15"",""168669""
""focus"",""15"",""170526""
""blur"",""19"",""273425""
""focus"",""19"",""278064""
","""event"",""trial"",""time""
""blur"",""15"",""168669""
""blur"",""19"",""273425""
","""event"",""trial"",""time""
""focus"",""15"",""170526""
""focus"",""19"",""278064""
","""event"",""trial"",""time""
""fullscreenenter"",""1"",""2474""
","
","","","6266","[""0""]","0","20","7258","3953","","","","","","","","","","","","","","","","","","",""
"pit-instructions","108","838389","0.0-2.0-22.0-1.0","battery-v0.2","","""event"",""trial"",""time""
""fullscreenenter"",""1"",""2474""
""blur"",""15"",""168669""
""focus"",""15"",""170526""
""blur"",""19"",""273425""
""focus"",""19"",""278064""
","""event"",""trial"",""time""
""blur"",""15"",""168669""
""blur"",""19"",""273425""
","""event"",""trial"",""time""
""focus"",""15"",""170526""
""focus"",""19"",""278064""
","""event"",""trial"",""time""
""fullscreenenter"",""1"",""2474""
","
","","[{""page_index"":0,""viewing_time"":1101.1999998092651}]","1101.4000000953674","","","","","","","","","","","","","","","","","","","","","","","",""
"pit-comprehension","109","846745","0.0-2.0-23.0-0.0","battery-v0.2","","""event"",""trial"",""time""
""fullscreenenter"",""1"",""2474""
""blur"",""15"",""168669""
""focus"",""15"",""170526""
""blur"",""19"",""273425""
""focus"",""19"",""278064""
","""event"",""trial"",""time""
""blur"",""15"",""168669""
""blur"",""19"",""273425""
","""event"",""trial"",""time""
""focus"",""15"",""170526""
""focus"",""19"",""278064""
","""event"",""trial"",""time""
""fullscreenenter"",""1"",""2474""
","
","","","8353.800000190735","[""True""]","0","20","7258","3953","","","","","","","","","","","","","","","","","","",""
"pit-instructions","110","850241","0.0-2.0-23.0-1.0","battery-v0.2","","""event"",""trial"",""time""
""fullscreenenter"",""1"",""2474""
""blur"",""15"",""168669""
""focus"",""15"",""170526""
""blur"",""19"",""273425""
""focus"",""19"",""278064""
","""event"",""trial"",""time""
""blur"",""15"",""168669""
""blur"",""19"",""273425""
","""event"",""trial"",""time""
""focus"",""15"",""170526""
""focus"",""19"",""278064""
","""event"",""trial"",""time""
""fullscreenenter"",""1"",""2474""
","
","","[{""page_index"":0,""viewing_time"":3464.300000190735}]","3464.4000000953674","","","","","","","","","","","","","","","","","","","","","","","",""
"pit-comprehension","111","857541","0.0-2.0-24.0-0.0","battery-v0.2","","""event"",""trial"",""time""
""fullscreenenter"",""1"",""2474""
""blur"",""15"",""168669""
""focus"",""15"",""170526""
""blur"",""19"",""273425""
""focus"",""19"",""278064""
","""event"",""trial"",""time""
""blur"",""15"",""168669""
""blur"",""19"",""273425""
","""event"",""trial"",""time""
""focus"",""15"",""170526""
""focus"",""19"",""278064""
","""event"",""trial"",""time""
""fullscreenenter"",""1"",""2474""
","
","","","7298.699999809265","[""True""]","0","20","7258","3953","","","","","","","","","","","","","","","","","","",""
"pit-instructions","112","859119","0.0-2.0-24.0-1.0","battery-v0.2","","""event"",""trial"",""time""
""fullscreenenter"",""1"",""2474""
""blur"",""15"",""168669""
""focus"",""15"",""170526""
""blur"",""19"",""273425""
""focus"",""19"",""278064""
","""event"",""trial"",""time""
""blur"",""15"",""168669""
""blur"",""19"",""273425""
","""event"",""trial"",""time""
""focus"",""15"",""170526""
""focus"",""19"",""278064""
","""event"",""trial"",""time""
""fullscreenenter"",""1"",""2474""
","
","","[{""page_index"":0,""viewing_time"":1545.8000001907349}]","1546.0999999046326","","","","","","","","","","","","","","","","","","","","","","","",""
"pit-comprehension","113","865449","0.0-2.0-25.0-0.0","battery-v0.2","","""event"",""trial"",""time""
""fullscreenenter"",""1"",""2474""
""blur"",""15"",""168669""
""focus"",""15"",""170526""
""blur"",""19"",""273425""
""focus"",""19"",""278064""
","""event"",""trial"",""time""
""blur"",""15"",""168669""
""blur"",""19"",""273425""
","""event"",""trial"",""time""
""focus"",""15"",""170526""
""focus"",""19"",""278064""
","""event"",""trial"",""time""
""fullscreenenter"",""1"",""2474""
","
","","","6328.300000190735","[""True""]","0","20","7258","3953","","","","","","","","","","","","","","","","","","",""
"pit-instructions","114","868668","0.0-2.0-25.0-1.0","battery-v0.2","","""event"",""trial"",""time""
""fullscreenenter"",""1"",""2474""
""blur"",""15"",""168669""
""focus"",""15"",""170526""
""blur"",""19"",""273425""
""focus"",""19"",""278064""
","""event"",""trial"",""time""
""blur"",""15"",""168669""
""blur"",""19"",""273425""
","""event"",""trial"",""time""
""focus"",""15"",""170526""
""focus"",""19"",""278064""
","""event"",""trial"",""time""
""fullscreenenter"",""1"",""2474""
","
","","[{""page_index"":0,""viewing_time"":3187.699999809265}]","3187.800000190735","","","","","","","","","","","","","","","","","","","","","","","",""
"pit-comprehension","115","872828","0.0-2.0-26.0-0.0","battery-v0.2","","""event"",""trial"",""time""
""fullscreenenter"",""1"",""2474""
""blur"",""15"",""168669""
""focus"",""15"",""170526""
""blur"",""19"",""273425""
""focus"",""19"",""278064""
","""event"",""trial"",""time""
""blur"",""15"",""168669""
""blur"",""19"",""273425""
","""event"",""trial"",""time""
""focus"",""15"",""170526""
""focus"",""19"",""278064""
","""event"",""trial"",""time""
""fullscreenenter"",""1"",""2474""
","
","","","4158.300000190735","[""False""]","0","20","7258","3953","","","","","","","","","","","","","","","","","","",""
"pit-instructions","116","874510","0.0-2.0-26.0-1.0","battery-v0.2","","""event"",""trial"",""time""
""fullscreenenter"",""1"",""2474""
""blur"",""15"",""168669""
""focus"",""15"",""170526""
""blur"",""19"",""273425""
""focus"",""19"",""278064""
","""event"",""trial"",""time""
""blur"",""15"",""168669""
""blur"",""19"",""273425""
","""event"",""trial"",""time""
""focus"",""15"",""170526""
""focus"",""19"",""278064""
","""event"",""trial"",""time""
""fullscreenenter"",""1"",""2474""
","
","","[{""page_index"":0,""viewing_time"":1643.5}]","1643.6999998092651","","","","","","","","","","","","","","","","","","","","","","","",""
"pit-instructions","117","889896","0.0-3.0","battery-v0.2","","""event"",""trial"",""time""
""fullscreenenter"",""1"",""2474""
""blur"",""15"",""168669""
""focus"",""15"",""170526""
""blur"",""19"",""273425""
""focus"",""19"",""278064""
","""event"",""trial"",""time""
""blur"",""15"",""168669""
""blur"",""19"",""273425""
","""event"",""trial"",""time""
""focus"",""15"",""170526""
""focus"",""19"",""278064""
","""event"",""trial"",""time""
""fullscreenenter"",""1"",""2474""
","
","","[{""page_index"":0,""viewing_time"":3020.800000190735},{""page_index"":1,""viewing_time"":5600},{""page_index"":2,""viewing_time"":6764.299999713898}]","15385.200000286102","","","","","","","","","","","","","","","","","","","","","","","",""
"pit-trial","118","893345","0.0-4.0","battery-v0.2","","""event"",""trial"",""time""
""fullscreenenter"",""1"",""2474""
""blur"",""15"",""168669""
""focus"",""15"",""170526""
""blur"",""19"",""273425""
""focus"",""19"",""278064""
","""event"",""trial"",""time""
""blur"",""15"",""168669""
""blur"",""19"",""273425""
","""event"",""trial"",""time""
""focus"",""15"",""170526""
""focus"",""19"",""278064""
","""event"",""trial"",""time""
""fullscreenenter"",""1"",""2474""
","
","","","589.7999997138977","","","20","7258","3953","&#9728;","elianto","#f73b6a7A","-1"," ","0","-10","[1443.6999998092651]","1","1","","","7258","1","0","4","lose","no-go","0"
"pit-trial","119","896877","0.0-5.0","battery-v0.2","","""event"",""trial"",""time""
""fullscreenenter"",""1"",""2474""
""blur"",""15"",""168669""
""focus"",""15"",""170526""
""blur"",""19"",""273425""
""focus"",""19"",""278064""
","""event"",""trial"",""time""
""blur"",""15"",""168669""
""blur"",""19"",""273425""
","""event"",""trial"",""time""
""focus"",""15"",""170526""
""focus"",""19"",""278064""
","""event"",""trial"",""time""
""fullscreenenter"",""1"",""2474""
","
","","","666.9000000953674","","","20","7258","3953","&#9733;","elianto","#3366ff99","-1"," ","0","0","[1527.9000000953674]","1","1","","","7258","2","2","2","win","no-go","0"
"pit-trial","120","900717","0.0-6.0","battery-v0.2","","""event"",""trial"",""time""
""fullscreenenter"",""1"",""2474""
""blur"",""15"",""168669""
""focus"",""15"",""170526""
""blur"",""19"",""273425""
""focus"",""19"",""278064""
","""event"",""trial"",""time""
""blur"",""15"",""168669""
""blur"",""19"",""273425""
","""event"",""trial"",""time""
""focus"",""15"",""170526""
""focus"",""19"",""278064""
","""event"",""trial"",""time""
""fullscreenenter"",""1"",""2474""
","
","","","977.6000003814697","","","20","7258","3953","&#9752;","elianto","#f73b6a7A"," "," ","1","-10","[1832.6999998092651]","1","1","","","7258","3","3","3","lose","go","1"
"pit-trial","121","904448","0.0-7.0","battery-v0.2","","""event"",""trial"",""time""
""fullscreenenter"",""1"",""2474""
""blur"",""15"",""168669""
""focus"",""15"",""170526""
""blur"",""19"",""273425""
""focus"",""19"",""278064""
","""event"",""trial"",""time""
""blur"",""15"",""168669""
""blur"",""19"",""273425""
","""event"",""trial"",""time""
""focus"",""15"",""170526""
""focus"",""19"",""278064""
","""event"",""trial"",""time""
""fullscreenenter"",""1"",""2474""
","
","","","869.5999999046326","","","20","7258","3953","&#9730;","elianto","#3366ff99"," "," ","1","+10","[1727.5999999046326]","1","1","","","7258","4","1","1","win","go","0"
"pit-trial","122","909315","0.0-8.0","battery-v0.2","","""event"",""trial"",""time""
""fullscreenenter"",""1"",""2474""
""blur"",""15"",""168669""
""focus"",""15"",""170526""
""blur"",""19"",""273425""
""focus"",""19"",""278064""
","""event"",""trial"",""time""
""blur"",""15"",""168669""
""blur"",""19"",""273425""
","""event"",""trial"",""time""
""focus"",""15"",""170526""
""focus"",""19"",""278064""
","""event"",""trial"",""time""
""fullscreenenter"",""1"",""2474""
","
","","","-1","","","20","7258","3953","&#9733;","elianto","#3366ff99","-1","-1","1","+10","[]","0","1","","","7258","5","2","2","win","no-go","0"
"pit-trial","123","913024","0.0-9.0","battery-v0.2","","""event"",""trial"",""time""
""fullscreenenter"",""1"",""2474""
""blur"",""15"",""168669""
""focus"",""15"",""170526""
""blur"",""19"",""273425""
""focus"",""19"",""278064""
","""event"",""trial"",""time""
""blur"",""15"",""168669""
""blur"",""19"",""273425""
","""event"",""trial"",""time""
""focus"",""15"",""170526""
""focus"",""19"",""278064""
","""event"",""trial"",""time""
""fullscreenenter"",""1"",""2474""
","
","","","839.5","","","20","7258","3953","&#9730;","elianto","#3366ff99"," "," ","1","+10","[1692.4000000953674]","1","1","","","7258","6","1","1","win","go","0"
"pit-trial","124","917887","0.0-10.0","battery-v0.2","","""event"",""trial"",""time""
""fullscreenenter"",""1"",""2474""
""blur"",""15"",""168669""
""focus"",""15"",""170526""
""blur"",""19"",""273425""
""focus"",""19"",""278064""
","""event"",""trial"",""time""
""blur"",""15"",""168669""
""blur"",""19"",""273425""
","""event"",""trial"",""time""
""focus"",""15"",""170526""
""focus"",""19"",""278064""
","""event"",""trial"",""time""
""fullscreenenter"",""1"",""2474""
","
","","","-1","","","20","7258","3953","&#9728;","elianto","#f73b6a7A","-1","-1","1","0","[]","0","1","","","7258","7","0","4","lose","no-go","0"
"pit-trial","125","922739","0.0-11.0","battery-v0.2","","""event"",""trial"",""time""
""fullscreenenter"",""1"",""2474""
""blur"",""15"",""168669""
""focus"",""15"",""170526""
""blur"",""19"",""273425""
""focus"",""19"",""278064""
","""event"",""trial"",""time""
""blur"",""15"",""168669""
""blur"",""19"",""273425""
","""event"",""trial"",""time""
""focus"",""15"",""170526""
""focus"",""19"",""278064""
","""event"",""trial"",""time""
""fullscreenenter"",""1"",""2474""
","
","","","-1","","","20","7258","3953","&#9752;","elianto","#f73b6a7A"," ","-1","0","-10","[]","0","1","","","7258","8","3","3","lose","go","0"
"pit-trial","126","926765","0.0-12.0","battery-v0.2","","""event"",""trial"",""time""
""fullscreenenter"",""1"",""2474""
""blur"",""15"",""168669""
""focus"",""15"",""170526""
""blur"",""19"",""273425""
""focus"",""19"",""278064""
","""event"",""trial"",""time""
""blur"",""15"",""168669""
""blur"",""19"",""273425""
","""event"",""trial"",""time""
""focus"",""15"",""170526""
""focus"",""19"",""278064""
","""event"",""trial"",""time""
""fullscreenenter"",""1"",""2474""
","
","","","1172.4000000953674","","","20","7258","3953","&#9752;","elianto","#f73b6a7A"," "," ","1","0","[2022.5999999046326]","1","1","","","7258","9","3","3","lose","go","0"
"pit-trial","127","931619","0.0-13.0","battery-v0.2","","""event"",""trial"",""time""
""fullscreenenter"",""1"",""2474""
""blur"",""15"",""168669""
""focus"",""15"",""170526""
""blur"",""19"",""273425""
""focus"",""19"",""278064""
","""event"",""trial"",""time""
""blur"",""15"",""168669""
""blur"",""19"",""273425""
","""event"",""trial"",""time""
""focus"",""15"",""170526""
""focus"",""19"",""278064""
","""event"",""trial"",""time""
""fullscreenenter"",""1"",""2474""
","
","","","-1","","","20","7258","3953","&#9728;","elianto","#f73b6a7A","-1","-1","1","-10","[]","0","1","","","7258","10","0","4","lose","no-go","1"
"pit-trial","128","935281","0.0-14.0","battery-v0.2","","""event"",""trial"",""time""
""fullscreenenter"",""1"",""2474""
""blur"",""15"",""168669""
""focus"",""15"",""170526""
""blur"",""19"",""273425""
""focus"",""19"",""278064""
","""event"",""trial"",""time""
""blur"",""15"",""168669""
""blur"",""19"",""273425""
","""event"",""trial"",""time""
""focus"",""15"",""170526""
""focus"",""19"",""278064""
","""event"",""trial"",""time""
""fullscreenenter"",""1"",""2474""
","
","","","808.9000000953674","","","20","7258","3953","&#9730;","elianto","#3366ff99"," "," ","1","+10","[1659.7000002861023]","1","1","","","7258","11","1","1","win","go","0"
"pit-trial","129","940134","0.0-15.0","battery-v0.2","","""event"",""trial"",""time""
""fullscreenenter"",""1"",""2474""
""blur"",""15"",""168669""
""focus"",""15"",""170526""
""blur"",""19"",""273425""
""focus"",""19"",""278064""
","""event"",""trial"",""time""
""blur"",""15"",""168669""
""blur"",""19"",""273425""
","""event"",""trial"",""time""
""focus"",""15"",""170526""
""focus"",""19"",""278064""
","""event"",""trial"",""time""
""fullscreenenter"",""1"",""2474""
","
","","","-1","","","20","7258","3953","&#9733;","elianto","#3366ff99","-1","-1","1","0","[]","0","1","","","7258","12","2","2","win","no-go","1"
"pit-trial","130","944988","0.0-16.0","battery-v0.2","","""event"",""trial"",""time""
""fullscreenenter"",""1"",""2474""
""blur"",""15"",""168669""
""focus"",""15"",""170526""
""blur"",""19"",""273425""
""focus"",""19"",""278064""
","""event"",""trial"",""time""
""blur"",""15"",""168669""
""blur"",""19"",""273425""
","""event"",""trial"",""time""
""focus"",""15"",""170526""
""focus"",""19"",""278064""
","""event"",""trial"",""time""
""fullscreenenter"",""1"",""2474""
","
","","","-1","","","20","7258","3953","&#9733;","elianto","#3366ff99","-1","-1","1","+10","[]","0","1","","","7258","13","2","2","win","no-go","0"
"pit-trial","131","949345","0.0-17.0","battery-v0.2","","""event"",""trial"",""time""
""fullscreenenter"",""1"",""2474""
""blur"",""15"",""168669""
""focus"",""15"",""170526""
""blur"",""19"",""273425""
""focus"",""19"",""278064""
","""event"",""trial"",""time""
""blur"",""15"",""168669""
""blur"",""19"",""273425""
","""event"",""trial"",""time""
""focus"",""15"",""170526""
""focus"",""19"",""278064""
","""event"",""trial"",""time""
""fullscreenenter"",""1"",""2474""
","
","","","1504.6999998092651","","","20","7258","3953","&#9752;","elianto","#f73b6a7A"," "," ","1","0","[2355.199999809265]","1","1","","","7258","14","3","3","lose","go","0"
"pit-trial","132","954199","0.0-18.0","battery-v0.2","","""event"",""trial"",""time""
""fullscreenenter"",""1"",""2474""
""blur"",""15"",""168669""
""focus"",""15"",""170526""
""blur"",""19"",""273425""
""focus"",""19"",""278064""
","""event"",""trial"",""time""
""blur"",""15"",""168669""
""blur"",""19"",""273425""
","""event"",""trial"",""time""
""focus"",""15"",""170526""
""focus"",""19"",""278064""
","""event"",""trial"",""time""
""fullscreenenter"",""1"",""2474""
","
","","","-1","","","20","7258","3953","&#9728;","elianto","#f73b6a7A","-1","-1","1","0","[]","0","1","","","7258","15","0","4","lose","no-go","0"
"pit-trial","133","957977","0.0-19.0","battery-v0.2","","""event"",""trial"",""time""
""fullscreenenter"",""1"",""2474""
""blur"",""15"",""168669""
""focus"",""15"",""170526""
""blur"",""19"",""273425""
""focus"",""19"",""278064""
","""event"",""trial"",""time""
""blur"",""15"",""168669""
""blur"",""19"",""273425""
","""event"",""trial"",""time""
""focus"",""15"",""170526""
""focus"",""19"",""278064""
","""event"",""trial"",""time""
""fullscreenenter"",""1"",""2474""
","
","","","923.5999999046326","","","20","7258","3953","&#9730;","elianto","#3366ff99"," "," ","1","+10","[1773.9000000953674]","1","1","","","7258","16","1","1","win","go","0"
"pit-trial","134","962831","0.0-20.0","battery-v0.2","","""event"",""trial"",""time""
""fullscreenenter"",""1"",""2474""
""blur"",""15"",""168669""
""focus"",""15"",""170526""
""blur"",""19"",""273425""
""focus"",""19"",""278064""
","""event"",""trial"",""time""
""blur"",""15"",""168669""
""blur"",""19"",""273425""
","""event"",""trial"",""time""
""focus"",""15"",""170526""
""focus"",""19"",""278064""
","""event"",""trial"",""time""
""fullscreenenter"",""1"",""2474""
","
","","","-1","","","20","7258","3953","&#9728;","elianto","#f73b6a7A","-1","-1","1","0","[]","0","1","","","7258","17","0","4","lose","no-go","0"
"pit-trial","135","966986","0.0-21.0","battery-v0.2","","""event"",""trial"",""time""
""fullscreenenter"",""1"",""2474""
""blur"",""15"",""168669""
""focus"",""15"",""170526""
""blur"",""19"",""273425""
""focus"",""19"",""278064""
","""event"",""trial"",""time""
""blur"",""15"",""168669""
""blur"",""19"",""273425""
","""event"",""trial"",""time""
""focus"",""15"",""170526""
""focus"",""19"",""278064""
","""event"",""trial"",""time""
""fullscreenenter"",""1"",""2474""
","
","","","1302.4000000953674","","","20","7258","3953","&#9752;","elianto","#f73b6a7A"," "," ","1","0","[2153.5999999046326]","1","1","","","7258","18","3","3","lose","go","0"
"pit-trial","136","971840","0.0-22.0","battery-v0.2","","""event"",""trial"",""time""
""fullscreenenter"",""1"",""2474""
""blur"",""15"",""168669""
""focus"",""15"",""170526""
""blur"",""19"",""273425""
""focus"",""19"",""278064""
","""event"",""trial"",""time""
""blur"",""15"",""168669""
""blur"",""19"",""273425""
","""event"",""trial"",""time""
""focus"",""15"",""170526""
""focus"",""19"",""278064""
","""event"",""trial"",""time""
""fullscreenenter"",""1"",""2474""
","
","","","-1","","","20","7258","3953","&#9733;","elianto","#3366ff99","-1","-1","1","+10","[]","0","1","","","7258","19","2","2","win","no-go","0"
"pit-trial","137","975399","0.0-23.0","battery-v0.2","","""event"",""trial"",""time""
""fullscreenenter"",""1"",""2474""
""blur"",""15"",""168669""
""focus"",""15"",""170526""
""blur"",""19"",""273425""
""focus"",""19"",""278064""
","""event"",""trial"",""time""
""blur"",""15"",""168669""
""blur"",""19"",""273425""
","""event"",""trial"",""time""
""focus"",""15"",""170526""
""focus"",""19"",""278064""
","""event"",""trial"",""time""
""fullscreenenter"",""1"",""2474""
","
","","","705.1999998092651","","","20","7258","3953","&#9730;","elianto","#3366ff99"," "," ","1","0","[1555.9000000953674]","1","1","","","7258","20","1","1","win","go","1"
"pit-instructions","138","1063357","0.0-24.0","battery-v0.2","","""event"",""trial"",""time""
""fullscreenenter"",""1"",""2474""
""blur"",""15"",""168669""
""focus"",""15"",""170526""
""blur"",""19"",""273425""
""focus"",""19"",""278064""
","""event"",""trial"",""time""
""blur"",""15"",""168669""
""blur"",""19"",""273425""
","""event"",""trial"",""time""
""focus"",""15"",""170526""
""focus"",""19"",""278064""
","""event"",""trial"",""time""
""fullscreenenter"",""1"",""2474""
","
","","[{""page_index"":0,""viewing_time"":80745.09999990463},{""page_index"":1,""viewing_time"":7210.199999809265}]","87955.39999961853","","","","","","","","","","","","","","","","","","","","","","","",""
"pit-trial","139","1066803","0.0-25.0","battery-v0.2","","""event"",""trial"",""time""
""fullscreenenter"",""1"",""2474""
""blur"",""15"",""168669""
""focus"",""15"",""170526""
""blur"",""19"",""273425""
""focus"",""19"",""278064""
","""event"",""trial"",""time""
""blur"",""15"",""168669""
""blur"",""19"",""273425""
","""event"",""trial"",""time""
""focus"",""15"",""170526""
""focus"",""19"",""278064""
","""event"",""trial"",""time""
""fullscreenenter"",""1"",""2474""
","
","","","581.5999999046326","","","20","7258","3953","b","elianto","#f73b6a7A"," "," ","1","0","[1432.1999998092651]","1","2","","","7258","21","3","3","lose","go","0"
"pit-trial","140","1071666","0.0-26.0","battery-v0.2","","""event"",""trial"",""time""
""fullscreenenter"",""1"",""2474""
""blur"",""15"",""168669""
""focus"",""15"",""170526""
""blur"",""19"",""273425""
""focus"",""19"",""278064""
","""event"",""trial"",""time""
""blur"",""15"",""168669""
""blur"",""19"",""273425""
","""event"",""trial"",""time""
""focus"",""15"",""170526""
""focus"",""19"",""278064""
","""event"",""trial"",""time""
""fullscreenenter"",""1"",""2474""
","
","","","-1","","","20","7258","3953","n","elianto","#f73b6a7A","-1","-1","1","0","[]","0","2","","","7258","22","0","4","lose","no-go","0"
"pit-trial","141","1075791","0.0-27.0","battery-v0.2","","""event"",""trial"",""time""
""fullscreenenter"",""1"",""2474""
""blur"",""15"",""168669""
""focus"",""15"",""170526""
""blur"",""19"",""273425""
""focus"",""19"",""278064""
","""event"",""trial"",""time""
""blur"",""15"",""168669""
""blur"",""19"",""273425""
","""event"",""trial"",""time""
""focus"",""15"",""170526""
""focus"",""19"",""278064""
","""event"",""trial"",""time""
""fullscreenenter"",""1"",""2474""
","
","","","1266.9000000953674","","","20","7258","3953","f","elianto","#3366ff99"," "," ","1","+10","[2118.5]","1","2","","","7258","23","1","1","win","go","0"
"pit-trial","142","1080654","0.0-28.0","battery-v0.2","","""event"",""trial"",""time""
""fullscreenenter"",""1"",""2474""
""blur"",""15"",""168669""
""focus"",""15"",""170526""
""blur"",""19"",""273425""
""focus"",""19"",""278064""
","""event"",""trial"",""time""
""blur"",""15"",""168669""
""blur"",""19"",""273425""
","""event"",""trial"",""time""
""focus"",""15"",""170526""
""focus"",""19"",""278064""
","""event"",""trial"",""time""
""fullscreenenter"",""1"",""2474""
","
","","","-1","","","20","7258","3953","t","elianto","#f73b6a7A","-1","-1","1","0","[]","0","2","","","7258","24","2","4","lose","no-go","0"
"pit-trial","143","1085516","0.0-29.0","battery-v0.2","","""event"",""trial"",""time""
""fullscreenenter"",""1"",""2474""
""blur"",""15"",""168669""
""focus"",""15"",""170526""
""blur"",""19"",""273425""
""focus"",""19"",""278064""
","""event"",""trial"",""time""
""blur"",""15"",""168669""
""blur"",""19"",""273425""
","""event"",""trial"",""time""
""focus"",""15"",""170526""
""focus"",""19"",""278064""
","""event"",""trial"",""time""
""fullscreenenter"",""1"",""2474""
","
","","","-1","","","20","7258","3953","t","elianto","#f73b6a7A","-1","-1","1","0","[]","0","2","","","7258","25","2","4","lose","no-go","0"
"pit-trial","144","1089519","0.0-30.0","battery-v0.2","","""event"",""trial"",""time""
""fullscreenenter"",""1"",""2474""
""blur"",""15"",""168669""
""focus"",""15"",""170526""
""blur"",""19"",""273425""
""focus"",""19"",""278064""
","""event"",""trial"",""time""
""blur"",""15"",""168669""
""blur"",""19"",""273425""
","""event"",""trial"",""time""
""focus"",""15"",""170526""
""focus"",""19"",""278064""
","""event"",""trial"",""time""
""fullscreenenter"",""1"",""2474""
","
","","","1146.4000000953674","","","20","7258","3953","b","elianto","#f73b6a7A"," "," ","1","-10","[1998.8000001907349]","1","2","","","7258","26","3","3","lose","go","1"
"pit-trial","145","1093485","0.0-31.0","battery-v0.2","","""event"",""trial"",""time""
""fullscreenenter"",""1"",""2474""
""blur"",""15"",""168669""
""focus"",""15"",""170526""
""blur"",""19"",""273425""
""focus"",""19"",""278064""
","""event"",""trial"",""time""
""blur"",""15"",""168669""
""blur"",""19"",""273425""
","""event"",""trial"",""time""
""focus"",""15"",""170526""
""focus"",""19"",""278064""
","""event"",""trial"",""time""
""fullscreenenter"",""1"",""2474""
","
","","","1111.6999998092651","","","20","7258","3953","f","elianto","#3366ff99"," "," ","1","+10","[1962.3999996185303]","1","2","","","7258","27","1","1","win","go","0"
"pit-trial","146","1098338","0.0-32.0","battery-v0.2","","""event"",""trial"",""time""
""fullscreenenter"",""1"",""2474""
""blur"",""15"",""168669""
""focus"",""15"",""170526""
""blur"",""19"",""273425""
""focus"",""19"",""278064""
","""event"",""trial"",""time""
""blur"",""15"",""168669""
""blur"",""19"",""273425""
","""event"",""trial"",""time""
""focus"",""15"",""170526""
""focus"",""19"",""278064""
","""event"",""trial"",""time""
""fullscreenenter"",""1"",""2474""
","
","","","-1","","","20","7258","3953","n","elianto","#f73b6a7A","-1","-1","1","0","[]","0","2","","","7258","28","0","4","lose","no-go","0"
"pit-trial","147","1103192","0.0-33.0","battery-v0.2","","""event"",""trial"",""time""
""fullscreenenter"",""1"",""2474""
""blur"",""15"",""168669""
""focus"",""15"",""170526""
""blur"",""19"",""273425""
""focus"",""19"",""278064""
","""event"",""trial"",""time""
""blur"",""15"",""168669""
""blur"",""19"",""273425""
","""event"",""trial"",""time""
""focus"",""15"",""170526""
""focus"",""19"",""278064""
","""event"",""trial"",""time""
""fullscreenenter"",""1"",""2474""
","
","","","-1","","","20","7258","3953","n","elianto","#f73b6a7A","-1","-1","1","0","[]","0","2","","","7258","29","0","4","lose","no-go","0"
"pit-trial","148","1108047","0.0-34.0","battery-v0.2","","""event"",""trial"",""time""
""fullscreenenter"",""1"",""2474""
""blur"",""15"",""168669""
""focus"",""15"",""170526""
""blur"",""19"",""273425""
""focus"",""19"",""278064""
","""event"",""trial"",""time""
""blur"",""15"",""168669""
""blur"",""19"",""273425""
","""event"",""trial"",""time""
""focus"",""15"",""170526""
""focus"",""19"",""278064""
","""event"",""trial"",""time""
""fullscreenenter"",""1"",""2474""
","
","","","-1","","","20","7258","3953","t","elianto","#f73b6a7A","-1","-1","1","0","[]","0","2","","","7258","30","2","4","lose","no-go","0"
"pit-trial","149","1112328","0.0-35.0","battery-v0.2","","""event"",""trial"",""time""
""fullscreenenter"",""1"",""2474""
""blur"",""15"",""168669""
""focus"",""15"",""170526""
""blur"",""19"",""273425""
""focus"",""19"",""278064""
","""event"",""trial"",""time""
""blur"",""15"",""168669""
""blur"",""19"",""273425""
","""event"",""trial"",""time""
""focus"",""15"",""170526""
""focus"",""19"",""278064""
","""event"",""trial"",""time""
""fullscreenenter"",""1"",""2474""
","
","","","1426.9000000953674","","","20","7258","3953","b","elianto","#f73b6a7A"," "," ","1","0","[2277.5]","1","2","","","7258","31","3","3","lose","go","0"
"pit-trial","150","1115891","0.0-36.0","battery-v0.2","","""event"",""trial"",""time""
""fullscreenenter"",""1"",""2474""
""blur"",""15"",""168669""
""focus"",""15"",""170526""
""blur"",""19"",""273425""
""focus"",""19"",""278064""
","""event"",""trial"",""time""
""blur"",""15"",""168669""
""blur"",""19"",""273425""
","""event"",""trial"",""time""
""focus"",""15"",""170526""
""focus"",""19"",""278064""
","""event"",""trial"",""time""
""fullscreenenter"",""1"",""2474""
","
","","","709.8999996185303","","","20","7258","3953","f","elianto","#3366ff99"," "," ","1","+10","[1560.0999999046326]","1","2","","","7258","32","1","1","win","go","0"
"pit-trial","151","1120745","0.0-37.0","battery-v0.2","","""event"",""trial"",""time""
""fullscreenenter"",""1"",""2474""
""blur"",""15"",""168669""
""focus"",""15"",""170526""
""blur"",""19"",""273425""
""focus"",""19"",""278064""
","""event"",""trial"",""time""
""blur"",""15"",""168669""
""blur"",""19"",""273425""
","""event"",""trial"",""time""
""focus"",""15"",""170526""
""focus"",""19"",""278064""
","""event"",""trial"",""time""
""fullscreenenter"",""1"",""2474""
","
","","","-1","","","20","7258","3953","n","elianto","#f73b6a7A","-1","-1","1","0","[]","0","2","","","7258","33","0","4","lose","no-go","0"
"pit-trial","152","1124359","0.0-38.0","battery-v0.2","","""event"",""trial"",""time""
""fullscreenenter"",""1"",""2474""
""blur"",""15"",""168669""
""focus"",""15"",""170526""
""blur"",""19"",""273425""
""focus"",""19"",""278064""
","""event"",""trial"",""time""
""blur"",""15"",""168669""
""blur"",""19"",""273425""
","""event"",""trial"",""time""
""focus"",""15"",""170526""
""focus"",""19"",""278064""
","""event"",""trial"",""time""
""fullscreenenter"",""1"",""2474""
","
","","","757.8000001907349","","","20","7258","3953","f","elianto","#3366ff99"," "," ","1","+10","[1610]","1","2","","","7258","34","1","1","win","go","0"
"pit-trial","153","1128634","0.0-39.0","battery-v0.2","","""event"",""trial"",""time""
""fullscreenenter"",""1"",""2474""
""blur"",""15"",""168669""
""focus"",""15"",""170526""
""blur"",""19"",""273425""
""focus"",""19"",""278064""
","""event"",""trial"",""time""
""blur"",""15"",""168669""
""blur"",""19"",""273425""
","""event"",""trial"",""time""
""focus"",""15"",""170526""
""focus"",""19"",""278064""
","""event"",""trial"",""time""
""fullscreenenter"",""1"",""2474""
","
","","","1421.2000002861023","","","20","7258","3953","b","elianto","#f73b6a7A"," "," ","1","-10","[2271.800000190735]","1","2","","","7258","35","3","3","lose","go","1"
"pit-trial","154","1133488","0.0-40.0","battery-v0.2","","""event"",""trial"",""time""
""fullscreenenter"",""1"",""2474""
""blur"",""15"",""168669""
""focus"",""15"",""170526""
""blur"",""19"",""273425""
""focus"",""19"",""278064""
","""event"",""trial"",""time""
""blur"",""15"",""168669""
""blur"",""19"",""273425""
","""event"",""trial"",""time""
""focus"",""15"",""170526""
""focus"",""19"",""278064""
","""event"",""trial"",""time""
""fullscreenenter"",""1"",""2474""
","
","","","-1","","","20","7258","3953","t","elianto","#f73b6a7A","-1","-1","1","-10","[]","0","2","","","7258","36","2","4","lose","no-go","1"
"pit-trial","155","1137132","0.0-41.0","battery-v0.2","","""event"",""trial"",""time""
""fullscreenenter"",""1"",""2474""
""blur"",""15"",""168669""
""focus"",""15"",""170526""
""blur"",""19"",""273425""
""focus"",""19"",""278064""
","""event"",""trial"",""time""
""blur"",""15"",""168669""
""blur"",""19"",""273425""
","""event"",""trial"",""time""
""focus"",""15"",""170526""
""focus"",""19"",""278064""
","""event"",""trial"",""time""
""fullscreenenter"",""1"",""2474""
","
","","","787.2999997138977","","","20","7258","3953","f","elianto","#3366ff99"," "," ","1","+10","[1640.3999996185303]","1","2","","","7258","37","1","1","win","go","0"
"pit-trial","156","1141985","0.0-42.0","battery-v0.2","","""event"",""trial"",""time""
""fullscreenenter"",""1"",""2474""
""blur"",""15"",""168669""
""focus"",""15"",""170526""
""blur"",""19"",""273425""
""focus"",""19"",""278064""
","""event"",""trial"",""time""
""blur"",""15"",""168669""
""blur"",""19"",""273425""
","""event"",""trial"",""time""
""focus"",""15"",""170526""
""focus"",""19"",""278064""
","""event"",""trial"",""time""
""fullscreenenter"",""1"",""2474""
","
","","","-1","","","20","7258","3953","n","elianto","#f73b6a7A","-1","-1","1","0","[]","0","2","","","7258","38","0","4","lose","no-go","0"
"pit-trial","157","1146617","0.0-43.0","battery-v0.2","","""event"",""trial"",""time""
""fullscreenenter"",""1"",""2474""
""blur"",""15"",""168669""
""focus"",""15"",""170526""
""blur"",""19"",""273425""
""focus"",""19"",""278064""
","""event"",""trial"",""time""
""blur"",""15"",""168669""
""blur"",""19"",""273425""
