"trial_type","trial_index","time_elapsed","internal_node_id","task_version","subject_id","interactions","blur_events","focus_events","fullscreenenter_events","fullscreenexit_events","success","view_history","rt","responses","num_errors","age","subject","participantId","rune","rune_set","hex","correct","choice","accuracy","outcome","keys","total_keys","block","practice","value","sub","trial","stimulus","robot","valence","action","sham"
"pavlovia","0","10","0.0-0.0","battery-v0.2","","""event"",""trial"",""time""
""fullscreenenter"",""1"",""11084""
","
","
","""event"",""trial"",""time""
""fullscreenenter"",""1"",""11084""
","
","","","","","","","","","","","","","","","","","","","","","","","","","","",""
"fullscreen","1","11986","0.0-1.0","battery-v0.2","","""event"",""trial"",""time""
""fullscreenenter"",""1"",""11084""
","
","
","""event"",""trial"",""time""
""fullscreenenter"",""1"",""11084""
","
","true","","","","","","","","","","","","","","","","","","","","","","","","","",""
"pit-instructions","2","43484","0.0-2.0-0.0","battery-v0.2","","""event"",""trial"",""time""
""fullscreenenter"",""1"",""11084""
","
","
","""event"",""trial"",""time""
""fullscreenenter"",""1"",""11084""
","
","","[{""page_index"":0,""viewing_time"":31494}]","31495","","","","","","","","","","","","","","","","","","","","","","","",""
"pit-comprehension","3","46106","0.0-2.0-1.0-0.0","battery-v0.2","","""event"",""trial"",""time""
""fullscreenenter"",""1"",""11084""
","
","
","""event"",""trial"",""time""
""fullscreenenter"",""1"",""11084""
","
","","","2300","[""shark""]","0","21","5950","3516","","","","","","","","","","","","","","","","","","",""
"pit-instructions","4","47167","0.0-2.0-1.0-1.0","battery-v0.2","","""event"",""trial"",""time""
""fullscreenenter"",""1"",""11084""
","
","
","""event"",""trial"",""time""
""fullscreenenter"",""1"",""11084""
","
","","[{""page_index"":0,""viewing_time"":1049}]","1049","","","","","","","","","","","","","","","","","","","","","","","",""
"pit-comprehension","5","49254","0.0-2.0-2.0-0.0","battery-v0.2","","""event"",""trial"",""time""
""fullscreenenter"",""1"",""11084""
","
","
","""event"",""trial"",""time""
""fullscreenenter"",""1"",""11084""
","
","","","2084","[""tiger""]","0","21","5950","3516","","","","","","","","","","","","","","","","","","",""
"pit-instructions","6","51135","0.0-2.0-2.0-1.0","battery-v0.2","","""event"",""trial"",""time""
""fullscreenenter"",""1"",""11084""
","
","
","""event"",""trial"",""time""
""fullscreenenter"",""1"",""11084""
","
","","[{""page_index"":0,""viewing_time"":1876}]","1876","","","","","","","","","","","","","","","","","","","","","","","",""
"pit-instructions","7","146426","0.0-2.0-3.0","battery-v0.2","","""event"",""trial"",""time""
""fullscreenenter"",""1"",""11084""
","
","
","""event"",""trial"",""time""
""fullscreenenter"",""1"",""11084""
","
","","[{""page_index"":0,""viewing_time"":10110},{""page_index"":1,""viewing_time"":6102},{""page_index"":2,""viewing_time"":6277},{""page_index"":3,""viewing_time"":5483},{""page_index"":4,""viewing_time"":6580.000000000015},{""page_index"":5,""viewing_time"":6238.999999999985},{""page_index"":6,""viewing_time"":6544.000000000015},{""page_index"":7,""viewing_time"":7675.999999999985},{""page_index"":8,""viewing_time"":6160.000000000015},{""page_index"":9,""viewing_time"":7911},{""page_index"":10,""viewing_time"":7231.999999999985},{""page_index"":11,""viewing_time"":7024},{""page_index"":12,""viewing_time"":7157},{""page_index"":13,""viewing_time"":4793}]","95288","","","","","","","","","","","","","","","","","","","","","","","",""
"pit-trial","8","149818","0.0-2.0-4.0-0.0","battery-v0.2","","""event"",""trial"",""time""
""fullscreenenter"",""1"",""11084""
","
","
","""event"",""trial"",""time""
""fullscreenenter"",""1"",""11084""
","
","","","538","","","21","5950","3516","&#9784;","elianto","#FFFFF080"," "," ","1","&#10004","[1388]","1","0","0","","","","","","","",""
"pit-trial","9","153146","0.0-2.0-4.1-0.1","battery-v0.2","","""event"",""trial"",""time""
""fullscreenenter"",""1"",""11084""
","
","
","""event"",""trial"",""time""
""fullscreenenter"",""1"",""11084""
","
","","","473","","","21","5950","3516","&#9784;","elianto","#FFFFF080"," "," ","1","&#10004","[1324]","1","0","0","","","","","","","",""
"pit-trial","10","156457","0.0-2.0-4.2-0.2","battery-v0.2","","""event"",""trial"",""time""
""fullscreenenter"",""1"",""11084""
","
","
","""event"",""trial"",""time""
""fullscreenenter"",""1"",""11084""
","
","","","456","","","21","5950","3516","&#9784;","elianto","#FFFFF080"," "," ","1","&#10004","[1307]","1","0","0","","","","","","","",""
"pit-trial","11","159721","0.0-2.0-4.3-0.3","battery-v0.2","","""event"",""trial"",""time""
""fullscreenenter"",""1"",""11084""
","
","
","""event"",""trial"",""time""
""fullscreenenter"",""1"",""11084""
","
","","","411","","","21","5950","3516","&#9784;","elianto","#FFFFF080"," "," ","1","&#10004","[1261]","1","0","0","","","","","","","",""
"pit-trial","12","163209","0.0-2.0-4.4-0.4","battery-v0.2","","""event"",""trial"",""time""
""fullscreenenter"",""1"",""11084""
","
","
","""event"",""trial"",""time""
""fullscreenenter"",""1"",""11084""
","
","","","635","","","21","5950","3516","&#9784;","elianto","#FFFFF080"," "," ","1","&#10004","[1485]","1","0","0","","","","","","","",""
"pit-instructions","13","184878","0.0-2.0-5.0","battery-v0.2","","""event"",""trial"",""time""
""fullscreenenter"",""1"",""11084""
","
","
","""event"",""trial"",""time""
""fullscreenenter"",""1"",""11084""
","
","","[{""page_index"":0,""viewing_time"":5215.000000000029},{""page_index"":1,""viewing_time"":5099.999999999971},{""page_index"":2,""viewing_time"":5464},{""page_index"":3,""viewing_time"":5887}]","21667.00000000003","","","","","","","","","","","","","","","","","","","","","","","",""
"pit-trial","14","189731","0.0-2.0-6.0-0.0","battery-v0.2","","""event"",""trial"",""time""
""fullscreenenter"",""1"",""11084""
","
","
","""event"",""trial"",""time""
""fullscreenenter"",""1"",""11084""
","
","","","-1","","","21","5950","3516","&#9854;","elianto","#FFFFF080","-1","-1","1","&#10004","[]","0","0","1","","","","","","","",""
"pit-trial","15","194585","0.0-2.0-6.1-0.1","battery-v0.2","","""event"",""trial"",""time""
""fullscreenenter"",""1"",""11084""
","
","
","""event"",""trial"",""time""
""fullscreenenter"",""1"",""11084""
","
","","","-1","","","21","5950","3516","&#9854;","elianto","#FFFFF080","-1","-1","1","&#10004","[]","0","0","1","","","","","","","",""
"pit-trial","16","199439","0.0-2.0-6.2-0.2","battery-v0.2","","""event"",""trial"",""time""
""fullscreenenter"",""1"",""11084""
","
","
","""event"",""trial"",""time""
""fullscreenenter"",""1"",""11084""
","
","","","-1","","","21","5950","3516","&#9854;","elianto","#FFFFF080","-1","-1","1","&#10004","[]","0","0","1","","","","","","","",""
"pit-trial","17","204292","0.0-2.0-6.3-0.3","battery-v0.2","","""event"",""trial"",""time""
""fullscreenenter"",""1"",""11084""
","
","
","""event"",""trial"",""time""
""fullscreenenter"",""1"",""11084""
","
","","","-1","","","21","5950","3516","&#9854;","elianto","#FFFFF080","-1","-1","1","&#10004","[]","0","0","1","","","","","","","",""
"pit-trial","18","209148","0.0-2.0-6.4-0.4","battery-v0.2","","""event"",""trial"",""time""
""fullscreenenter"",""1"",""11084""
""blur"",""19"",""475865""
""focus"",""19"",""485282""
","""event"",""trial"",""time""
""blur"",""19"",""475865""
","""event"",""trial"",""time""
""focus"",""19"",""485282""
","""event"",""trial"",""time""
""fullscreenenter"",""1"",""11084""
","
","","","-1","","","21","5950","3516","&#9854;","elianto","#FFFFF080","-1","-1","1","&#10004","[]","0","0","1","","","","","","","",""
"pit-instructions","19","772764","0.0-2.0-7.0","battery-v0.2","","""event"",""trial"",""time""
""fullscreenenter"",""1"",""11084""
""blur"",""19"",""475865""
""focus"",""19"",""485282""
","""event"",""trial"",""time""
""blur"",""19"",""475865""
","""event"",""trial"",""time""
""focus"",""19"",""485282""
","""event"",""trial"",""time""
""fullscreenenter"",""1"",""11084""
","
","","[{""page_index"":0,""viewing_time"":7432},{""page_index"":1,""viewing_time"":455172},{""page_index"":2,""viewing_time"":8036},{""page_index"":3,""viewing_time"":6068},{""page_index"":4,""viewing_time"":5180},{""page_index"":5,""viewing_time"":5430},{""page_index"":6,""viewing_time"":4496},{""page_index"":7,""viewing_time"":7407},{""page_index"":8,""viewing_time"":6330},{""page_index"":9,""viewing_time"":5614},{""page_index"":10,""viewing_time"":6693.000000000116},{""page_index"":11,""viewing_time"":4261.999999999884},{""page_index"":12,""viewing_time"":6579},{""page_index"":13,""viewing_time"":6964},{""page_index"":14,""viewing_time"":6973},{""page_index"":15,""viewing_time"":6327},{""page_index"":16,""viewing_time"":7802},{""page_index"":17,""viewing_time"":6848.000000000116}]","563614","","","","","","","","","","","","","","","","","","","","","","","",""
"pit-trial","20","776177","0.0-2.0-8.0-0.0","battery-v0.2","","""event"",""trial"",""time""
""fullscreenenter"",""1"",""11084""
""blur"",""19"",""475865""
""focus"",""19"",""485282""
","""event"",""trial"",""time""
""blur"",""19"",""475865""
","""event"",""trial"",""time""
""focus"",""19"",""485282""
","""event"",""trial"",""time""
""fullscreenenter"",""1"",""11084""
","
","","","558","","","21","5950","3516","&#9776;","elianto","#3366ff99"," "," ","1","+10","[1409]","1","0","1","","","","","","","",""
"pit-trial","21","779602","0.0-2.0-8.0-1.0","battery-v0.2","","""event"",""trial"",""time""
""fullscreenenter"",""1"",""11084""
""blur"",""19"",""475865""
""focus"",""19"",""485282""
","""event"",""trial"",""time""
""blur"",""19"",""475865""
","""event"",""trial"",""time""
""focus"",""19"",""485282""
","""event"",""trial"",""time""
""fullscreenenter"",""1"",""11084""
","
","","","572","","","21","5950","3516","&#9776;","elianto","#3366ff99"," "," ","1","+10","[1422]","1","0","1","","","","","","","",""
"pit-trial","22","782892","0.0-2.0-8.0-2.0","battery-v0.2","","""event"",""trial"",""time""
""fullscreenenter"",""1"",""11084""
""blur"",""19"",""475865""
""focus"",""19"",""485282""
","""event"",""trial"",""time""
""blur"",""19"",""475865""
","""event"",""trial"",""time""
""focus"",""19"",""485282""
","""event"",""trial"",""time""
""fullscreenenter"",""1"",""11084""
","
","","","436","","","21","5950","3516","&#9776;","elianto","#3366ff99"," "," ","1","+10","[1287]","1","0","1","","","","","","","",""
"pit-trial","23","786142","0.0-2.0-8.0-3.0","battery-v0.2","","""event"",""trial"",""time""
""fullscreenenter"",""1"",""11084""
""blur"",""19"",""475865""
""focus"",""19"",""485282""
","""event"",""trial"",""time""
""blur"",""19"",""475865""
","""event"",""trial"",""time""
""focus"",""19"",""485282""
","""event"",""trial"",""time""
""fullscreenenter"",""1"",""11084""
","
","","","395","","","21","5950","3516","&#9776;","elianto","#3366ff99"," "," ","1","0","[1247]","1","0","1","","","","","","","",""
"pit-trial","24","789429","0.0-2.0-8.0-4.0","battery-v0.2","","""event"",""trial"",""time""
""fullscreenenter"",""1"",""11084""
""blur"",""19"",""475865""
""focus"",""19"",""485282""
","""event"",""trial"",""time""
""blur"",""19"",""475865""
","""event"",""trial"",""time""
""focus"",""19"",""485282""
","""event"",""trial"",""time""
""fullscreenenter"",""1"",""11084""
","
","","","432","","","21","5950","3516","&#9776;","elianto","#3366ff99"," "," ","1","+10","[1284]","1","0","1","","","","","","","",""
"pit-trial","25","792668","0.0-2.0-8.1-0.1","battery-v0.2","","""event"",""trial"",""time""
""fullscreenenter"",""1"",""11084""
""blur"",""19"",""475865""
""focus"",""19"",""485282""
","""event"",""trial"",""time""
""blur"",""19"",""475865""
","""event"",""trial"",""time""
""focus"",""19"",""485282""
","""event"",""trial"",""time""
""fullscreenenter"",""1"",""11084""
","
","","","386.0000000001164","","","21","5950","3516","&#9776;","elianto","#3366ff99"," "," ","1","+10","[1236]","1","0","1","","","","","","","",""
"pit-trial","26","795892","0.0-2.0-8.1-1.1","battery-v0.2","","""event"",""trial"",""time""
""fullscreenenter"",""1"",""11084""
""blur"",""19"",""475865""
""focus"",""19"",""485282""
","""event"",""trial"",""time""
""blur"",""19"",""475865""
","""event"",""trial"",""time""
""focus"",""19"",""485282""
","""event"",""trial"",""time""
""fullscreenenter"",""1"",""11084""
","
","","","371","","","21","5950","3516","&#9776;","elianto","#3366ff99"," "," ","1","+10","[1222]","1","0","1","","","","","","","",""
"pit-trial","27","799164","0.0-2.0-8.1-2.1","battery-v0.2","","""event"",""trial"",""time""
""fullscreenenter"",""1"",""11084""
""blur"",""19"",""475865""
""focus"",""19"",""485282""
","""event"",""trial"",""time""
""blur"",""19"",""475865""
","""event"",""trial"",""time""
""focus"",""19"",""485282""
","""event"",""trial"",""time""
""fullscreenenter"",""1"",""11084""
","
","","","419","","","21","5950","3516","&#9776;","elianto","#3366ff99"," "," ","1","+10","[1269]","1","0","1","","","","","","","",""
"pit-trial","28","802389","0.0-2.0-8.1-3.1","battery-v0.2","","""event"",""trial"",""time""
""fullscreenenter"",""1"",""11084""
""blur"",""19"",""475865""
""focus"",""19"",""485282""
","""event"",""trial"",""time""
""blur"",""19"",""475865""
","""event"",""trial"",""time""
""focus"",""19"",""485282""
","""event"",""trial"",""time""
""fullscreenenter"",""1"",""11084""
","
","","","372.0000000001164","","","21","5950","3516","&#9776;","elianto","#3366ff99"," "," ","1","0","[1223.0000000001164]","1","0","1","","","","","","","",""
"pit-trial","29","805617","0.0-2.0-8.1-4.1","battery-v0.2","","""event"",""trial"",""time""
""fullscreenenter"",""1"",""11084""
""blur"",""19"",""475865""
""focus"",""19"",""485282""
","""event"",""trial"",""time""
""blur"",""19"",""475865""
","""event"",""trial"",""time""
""focus"",""19"",""485282""
","""event"",""trial"",""time""
""fullscreenenter"",""1"",""11084""
","
","","","374","","","21","5950","3516","&#9776;","elianto","#3366ff99"," "," ","1","+10","[1224]","1","0","1","","","","","","","",""
"pit-trial","30","808915","0.0-2.0-8.2-0.2","battery-v0.2","","""event"",""trial"",""time""
""fullscreenenter"",""1"",""11084""
""blur"",""19"",""475865""
""focus"",""19"",""485282""
","""event"",""trial"",""time""
""blur"",""19"",""475865""
","""event"",""trial"",""time""
""focus"",""19"",""485282""
","""event"",""trial"",""time""
""fullscreenenter"",""1"",""11084""
","
","","","444","","","21","5950","3516","&#9776;","elianto","#3366ff99"," "," ","1","+10","[1295]","1","0","1","","","","","","","",""
"pit-trial","31","812121","0.0-2.0-8.2-1.2","battery-v0.2","","""event"",""trial"",""time""
""fullscreenenter"",""1"",""11084""
""blur"",""19"",""475865""
""focus"",""19"",""485282""
","""event"",""trial"",""time""
""blur"",""19"",""475865""
","""event"",""trial"",""time""
""focus"",""19"",""485282""
","""event"",""trial"",""time""
""fullscreenenter"",""1"",""11084""
","
","","","353","","","21","5950","3516","&#9776;","elianto","#3366ff99"," "," ","1","+10","[1202.9999999998836]","1","0","1","","","","","","","",""
"pit-trial","32","815481","0.0-2.0-8.2-2.2","battery-v0.2","","""event"",""trial"",""time""
""fullscreenenter"",""1"",""11084""
""blur"",""19"",""475865""
""focus"",""19"",""485282""
","""event"",""trial"",""time""
""blur"",""19"",""475865""
","""event"",""trial"",""time""
""focus"",""19"",""485282""
","""event"",""trial"",""time""
""fullscreenenter"",""1"",""11084""
","
","","","505.0000000001164","","","21","5950","3516","&#9776;","elianto","#3366ff99"," "," ","1","+10","[1356.0000000001164]","1","0","1","","","","","","","",""
"pit-trial","33","818739","0.0-2.0-8.2-3.2","battery-v0.2","","""event"",""trial"",""time""
""fullscreenenter"",""1"",""11084""
""blur"",""19"",""475865""
""focus"",""19"",""485282""
","""event"",""trial"",""time""
""blur"",""19"",""475865""
","""event"",""trial"",""time""
""focus"",""19"",""485282""
","""event"",""trial"",""time""
""fullscreenenter"",""1"",""11084""
","
","","","404","","","21","5950","3516","&#9776;","elianto","#3366ff99"," "," ","1","0","[1255]","1","0","1","","","","","","","",""
"pit-trial","34","821961","0.0-2.0-8.2-4.2","battery-v0.2","","""event"",""trial"",""time""
""fullscreenenter"",""1"",""11084""
""blur"",""19"",""475865""
""focus"",""19"",""485282""
","""event"",""trial"",""time""
""blur"",""19"",""475865""
","""event"",""trial"",""time""
""focus"",""19"",""485282""
","""event"",""trial"",""time""
""fullscreenenter"",""1"",""11084""
","
","","","369.0000000001164","","","21","5950","3516","&#9776;","elianto","#3366ff99"," "," ","1","+10","[1220.0000000001164]","1","0","1","","","","","","","",""
"call-function","35","821964","0.0-2.0-9.0","battery-v0.2","","""event"",""trial"",""time""
""fullscreenenter"",""1"",""11084""
""blur"",""19"",""475865""
""focus"",""19"",""485282""
","""event"",""trial"",""time""
""blur"",""19"",""475865""
","""event"",""trial"",""time""
""focus"",""19"",""485282""
","""event"",""trial"",""time""
""fullscreenenter"",""1"",""11084""
","
","","","","","","","","","","","","","","","","","","","","","","","","","","",""
"pit-instructions","36","860008","0.0-2.0-10.0","battery-v0.2","","""event"",""trial"",""time""
""fullscreenenter"",""1"",""11084""
""blur"",""19"",""475865""
""focus"",""19"",""485282""
","""event"",""trial"",""time""
""blur"",""19"",""475865""
","""event"",""trial"",""time""
""focus"",""19"",""485282""
","""event"",""trial"",""time""
""fullscreenenter"",""1"",""11084""
","
","","[{""page_index"":0,""viewing_time"":5948.000000000116},{""page_index"":1,""viewing_time"":6702},{""page_index"":2,""viewing_time"":9371.999999999884},{""page_index"":3,""viewing_time"":8645},{""page_index"":4,""viewing_time"":7376}]","38044.00000000012","","","","","","","","","","","","","","","","","","","","","","","",""
"pit-trial","37","863431","0.0-2.0-11.0-0.0","battery-v0.2","","""event"",""trial"",""time""
""fullscreenenter"",""1"",""11084""
""blur"",""19"",""475865""
""focus"",""19"",""485282""
","""event"",""trial"",""time""
""blur"",""19"",""475865""
","""event"",""trial"",""time""
""focus"",""19"",""485282""
","""event"",""trial"",""time""
""fullscreenenter"",""1"",""11084""
","
","","","569","","","21","5950","3516","&#9761;","elianto","#3366ff99","-1"," ","0","0","[1419]","1","0","2","","","","","","","",""
"pit-trial","38","866614","0.0-2.0-11.0-1.0","battery-v0.2","","""event"",""trial"",""time""
""fullscreenenter"",""1"",""11084""
""blur"",""19"",""475865""
""focus"",""19"",""485282""
","""event"",""trial"",""time""
""blur"",""19"",""475865""
","""event"",""trial"",""time""
""focus"",""19"",""485282""
","""event"",""trial"",""time""
""fullscreenenter"",""1"",""11084""
","
","","","329","","","21","5950","3516","&#9761;","elianto","#3366ff99","-1"," ","0","0","[1179]","1","0","2","","","","","","","",""
"pit-trial","39","869772","0.0-2.0-11.0-2.0","battery-v0.2","","""event"",""trial"",""time""
""fullscreenenter"",""1"",""11084""
""blur"",""19"",""475865""
""focus"",""19"",""485282""
","""event"",""trial"",""time""
""blur"",""19"",""475865""
","""event"",""trial"",""time""
""focus"",""19"",""485282""
","""event"",""trial"",""time""
""fullscreenenter"",""1"",""11084""
","
","","","304.9999999998836","","","21","5950","3516","&#9761;","elianto","#3366ff99","-1"," ","0","0","[1155]","1","0","2","","","","","","","",""
"pit-trial","40","874626","0.0-2.0-11.0-3.0","battery-v0.2","","""event"",""trial"",""time""
""fullscreenenter"",""1"",""11084""
""blur"",""19"",""475865""
""focus"",""19"",""485282""
","""event"",""trial"",""time""
""blur"",""19"",""475865""
","""event"",""trial"",""time""
""focus"",""19"",""485282""
","""event"",""trial"",""time""
""fullscreenenter"",""1"",""11084""
","
","","","-1","","","21","5950","3516","&#9761;","elianto","#3366ff99","-1","-1","1","0","[]","0","0","2","","","","","","","",""
"pit-trial","41","879480","0.0-2.0-11.0-4.0","battery-v0.2","","""event"",""trial"",""time""
""fullscreenenter"",""1"",""11084""
""blur"",""19"",""475865""
""focus"",""19"",""485282""
","""event"",""trial"",""time""
""blur"",""19"",""475865""
","""event"",""trial"",""time""
""focus"",""19"",""485282""
","""event"",""trial"",""time""
""fullscreenenter"",""1"",""11084""
","
","","","-1","","","21","5950","3516","&#9761;","elianto","#3366ff99","-1","-1","1","+10","[]","0","0","2","","","","","","","",""
"pit-trial","42","884335","0.0-2.0-11.1-0.1","battery-v0.2","","""event"",""trial"",""time""
""fullscreenenter"",""1"",""11084""
""blur"",""19"",""475865""
""focus"",""19"",""485282""
","""event"",""trial"",""time""
""blur"",""19"",""475865""
","""event"",""trial"",""time""
""focus"",""19"",""485282""
","""event"",""trial"",""time""
""fullscreenenter"",""1"",""11084""
","
","","","-1","","","21","5950","3516","&#9761;","elianto","#3366ff99","-1","-1","1","+10","[]","0","0","2","","","","","","","",""
"pit-trial","43","889188","0.0-2.0-11.1-1.1","battery-v0.2","","""event"",""trial"",""time""
""fullscreenenter"",""1"",""11084""
""blur"",""19"",""475865""
""focus"",""19"",""485282""
","""event"",""trial"",""time""
""blur"",""19"",""475865""
","""event"",""trial"",""time""
""focus"",""19"",""485282""
","""event"",""trial"",""time""
""fullscreenenter"",""1"",""11084""
","
","","","-1","","","21","5950","3516","&#9761;","elianto","#3366ff99","-1","-1","1","+10","[]","0","0","2","","","","","","","",""
"pit-trial","44","894054","0.0-2.0-11.1-2.1","battery-v0.2","","""event"",""trial"",""time""
""fullscreenenter"",""1"",""11084""
""blur"",""19"",""475865""
""focus"",""19"",""485282""
","""event"",""trial"",""time""
""blur"",""19"",""475865""
","""event"",""trial"",""time""
""focus"",""19"",""485282""
","""event"",""trial"",""time""
""fullscreenenter"",""1"",""11084""
","
","","","-1","","","21","5950","3516","&#9761;","elianto","#3366ff99","-1","-1","1","+10","[]","0","0","2","","","","","","","",""
"pit-trial","45","898945","0.0-2.0-11.1-3.1","battery-v0.2","","""event"",""trial"",""time""
""fullscreenenter"",""1"",""11084""
""blur"",""19"",""475865""
""focus"",""19"",""485282""
","""event"",""trial"",""time""
""blur"",""19"",""475865""
","""event"",""trial"",""time""
""focus"",""19"",""485282""
","""event"",""trial"",""time""
""fullscreenenter"",""1"",""11084""
","
","","","-1","","","21","5950","3516","&#9761;","elianto","#3366ff99","-1","-1","1","0","[]","0","0","2","","","","","","","",""
"pit-trial","46","903835","0.0-2.0-11.1-4.1","battery-v0.2","","""event"",""trial"",""time""
""fullscreenenter"",""1"",""11084""
""blur"",""19"",""475865""
""focus"",""19"",""485282""
","""event"",""trial"",""time""
""blur"",""19"",""475865""
","""event"",""trial"",""time""
""focus"",""19"",""485282""
","""event"",""trial"",""time""
""fullscreenenter"",""1"",""11084""
","
","","","-1","","","21","5950","3516","&#9761;","elianto","#3366ff99","-1","-1","1","+10","[]","0","0","2","","","","","","","",""
"pit-trial","47","908724","0.0-2.0-11.2-0.2","battery-v0.2","","""event"",""trial"",""time""
""fullscreenenter"",""1"",""11084""
""blur"",""19"",""475865""
""focus"",""19"",""485282""
","""event"",""trial"",""time""
""blur"",""19"",""475865""
","""event"",""trial"",""time""
""focus"",""19"",""485282""
","""event"",""trial"",""time""
""fullscreenenter"",""1"",""11084""
","
","","","-1","","","21","5950","3516","&#9761;","elianto","#3366ff99","-1","-1","1","+10","[]","0","0","2","","","","","","","",""
"pit-trial","48","913613","0.0-2.0-11.2-1.2","battery-v0.2","","""event"",""trial"",""time""
""fullscreenenter"",""1"",""11084""
""blur"",""19"",""475865""
""focus"",""19"",""485282""
","""event"",""trial"",""time""
""blur"",""19"",""475865""
","""event"",""trial"",""time""
""focus"",""19"",""485282""
","""event"",""trial"",""time""
""fullscreenenter"",""1"",""11084""
","
","","","-1","","","21","5950","3516","&#9761;","elianto","#3366ff99","-1","-1","1","+10","[]","0","0","2","","","","","","","",""
"pit-trial","49","918504","0.0-2.0-11.2-2.2","battery-v0.2","","""event"",""trial"",""time""
""fullscreenenter"",""1"",""11084""
""blur"",""19"",""475865""
""focus"",""19"",""485282""
","""event"",""trial"",""time""
""blur"",""19"",""475865""
","""event"",""trial"",""time""
""focus"",""19"",""485282""
","""event"",""trial"",""time""
""fullscreenenter"",""1"",""11084""
","
","","","-1","","","21","5950","3516","&#9761;","elianto","#3366ff99","-1","-1","1","+10","[]","0","0","2","","","","","","","",""
"pit-trial","50","923394","0.0-2.0-11.2-3.2","battery-v0.2","","""event"",""trial"",""time""
""fullscreenenter"",""1"",""11084""
""blur"",""19"",""475865""
""focus"",""19"",""485282""
","""event"",""trial"",""time""
""blur"",""19"",""475865""
","""event"",""trial"",""time""
""focus"",""19"",""485282""
","""event"",""trial"",""time""
""fullscreenenter"",""1"",""11084""
","
","","","-1","","","21","5950","3516","&#9761;","elianto","#3366ff99","-1","-1","1","0","[]","0","0","2","","","","","","","",""
"pit-trial","51","928285","0.0-2.0-11.2-4.2","battery-v0.2","","""event"",""trial"",""time""
""fullscreenenter"",""1"",""11084""
""blur"",""19"",""475865""
""focus"",""19"",""485282""
","""event"",""trial"",""time""
""blur"",""19"",""475865""
","""event"",""trial"",""time""
""focus"",""19"",""485282""
","""event"",""trial"",""time""
""fullscreenenter"",""1"",""11084""
","
","","","-1","","","21","5950","3516","&#9761;","elianto","#3366ff99","-1","-1","1","+10","[]","0","0","2","","","","","","","",""
"pit-trial","52","933174","0.0-2.0-11.3-0.3","battery-v0.2","","""event"",""trial"",""time""
""fullscreenenter"",""1"",""11084""
""blur"",""19"",""475865""
""focus"",""19"",""485282""
","""event"",""trial"",""time""
""blur"",""19"",""475865""
","""event"",""trial"",""time""
""focus"",""19"",""485282""
","""event"",""trial"",""time""
""fullscreenenter"",""1"",""11084""
","
","","","-1","","","21","5950","3516","&#9761;","elianto","#3366ff99","-1","-1","1","+10","[]","0","0","2","","","","","","","",""
"pit-trial","53","938064","0.0-2.0-11.3-1.3","battery-v0.2","","""event"",""trial"",""time""
""fullscreenenter"",""1"",""11084""
""blur"",""19"",""475865""
""focus"",""19"",""485282""
","""event"",""trial"",""time""
""blur"",""19"",""475865""
","""event"",""trial"",""time""
""focus"",""19"",""485282""
","""event"",""trial"",""time""
""fullscreenenter"",""1"",""11084""
","
","","","-1","","","21","5950","3516","&#9761;","elianto","#3366ff99","-1","-1","1","+10","[]","0","0","2","","","","","","","",""
"pit-trial","54","942954","0.0-2.0-11.3-2.3","battery-v0.2","","""event"",""trial"",""time""
""fullscreenenter"",""1"",""11084""
""blur"",""19"",""475865""
""focus"",""19"",""485282""
","""event"",""trial"",""time""
""blur"",""19"",""475865""
","""event"",""trial"",""time""
""focus"",""19"",""485282""
","""event"",""trial"",""time""
""fullscreenenter"",""1"",""11084""
","
","","","-1","","","21","5950","3516","&#9761;","elianto","#3366ff99","-1","-1","1","+10","[]","0","0","2","","","","","","","",""
"pit-trial","55","947844","0.0-2.0-11.3-3.3","battery-v0.2","","""event"",""trial"",""time""
""fullscreenenter"",""1"",""11084""
""blur"",""19"",""475865""
""focus"",""19"",""485282""
","""event"",""trial"",""time""
""blur"",""19"",""475865""
","""event"",""trial"",""time""
""focus"",""19"",""485282""
","""event"",""trial"",""time""
""fullscreenenter"",""1"",""11084""
","
","","","-1","","","21","5950","3516","&#9761;","elianto","#3366ff99","-1","-1","1","0","[]","0","0","2","","","","","","","",""
"pit-trial","56","952734","0.0-2.0-11.3-4.3","battery-v0.2","","""event"",""trial"",""time""
""fullscreenenter"",""1"",""11084""
""blur"",""19"",""475865""
""focus"",""19"",""485282""
","""event"",""trial"",""time""
""blur"",""19"",""475865""
","""event"",""trial"",""time""
""focus"",""19"",""485282""
","""event"",""trial"",""time""
""fullscreenenter"",""1"",""11084""
","
","","","-1","","","21","5950","3516","&#9761;","elianto","#3366ff99","-1","-1","1","+10","[]","0","0","2","","","","","","","",""
"call-function","57","952736","0.0-2.0-12.0","battery-v0.2","","""event"",""trial"",""time""
""fullscreenenter"",""1"",""11084""
""blur"",""19"",""475865""
""focus"",""19"",""485282""
","""event"",""trial"",""time""
""blur"",""19"",""475865""
","""event"",""trial"",""time""
""focus"",""19"",""485282""
","""event"",""trial"",""time""
""fullscreenenter"",""1"",""11084""
","
","","","","","","","","","","","","","","","","","","","","","","","","","","",""
"pit-instructions","58","986285","0.0-2.0-13.0","battery-v0.2","","""event"",""trial"",""time""
""fullscreenenter"",""1"",""11084""
""blur"",""19"",""475865""
""focus"",""19"",""485282""
","""event"",""trial"",""time""
""blur"",""19"",""475865""
","""event"",""trial"",""time""
""focus"",""19"",""485282""
","""event"",""trial"",""time""
""fullscreenenter"",""1"",""11084""
","
","","[{""page_index"":0,""viewing_time"":7861},{""page_index"":1,""viewing_time"":7332},{""page_index"":2,""viewing_time"":3821},{""page_index"":3,""viewing_time"":10064},{""page_index"":4,""viewing_time"":4471}]","33549","","","","","","","","","","","","","","","","","","","","","","","",""
"pit-trial","59","991141","0.0-2.0-14.0-0.0","battery-v0.2","","""event"",""trial"",""time""
""fullscreenenter"",""1"",""11084""
""blur"",""19"",""475865""
""focus"",""19"",""485282""
","""event"",""trial"",""time""
""blur"",""19"",""475865""
","""event"",""trial"",""time""
""focus"",""19"",""485282""
","""event"",""trial"",""time""
""fullscreenenter"",""1"",""11084""
","
","","","-1","","","21","5950","3516","&#9826;","elianto","#f73b6a7A","-1","-1","1","0","[]","0","0","3","","","","","","","",""
"pit-trial","60","994431","0.0-2.0-14.0-1.0","battery-v0.2","","""event"",""trial"",""time""
""fullscreenenter"",""1"",""11084""
""blur"",""19"",""475865""
""focus"",""19"",""485282""
","""event"",""trial"",""time""
""blur"",""19"",""475865""
","""event"",""trial"",""time""
""focus"",""19"",""485282""
","""event"",""trial"",""time""
""fullscreenenter"",""1"",""11084""
","
","","","437","","","21","5950","3516","&#9826;","elianto","#f73b6a7A","-1"," ","0","-10","[1288]","1","0","3","","","","","","","",""
"pit-trial","61","999285","0.0-2.0-14.0-2.0","battery-v0.2","","""event"",""trial"",""time""
""fullscreenenter"",""1"",""11084""
""blur"",""19"",""475865""
""focus"",""19"",""485282""
","""event"",""trial"",""time""
""blur"",""19"",""475865""
","""event"",""trial"",""time""
""focus"",""19"",""485282""
","""event"",""trial"",""time""
""fullscreenenter"",""1"",""11084""
","
","","","-1","","","21","5950","3516","&#9826;","elianto","#f73b6a7A","-1","-1","1","0","[]","0","0","3","","","","","","","",""
"pit-trial","62","1004140","0.0-2.0-14.0-3.0","battery-v0.2","","""event"",""trial"",""time""
""fullscreenenter"",""1"",""11084""
""blur"",""19"",""475865""
""focus"",""19"",""485282""
","""event"",""trial"",""time""
""blur"",""19"",""475865""
","""event"",""trial"",""time""
""focus"",""19"",""485282""
","""event"",""trial"",""time""
""fullscreenenter"",""1"",""11084""
","
","","","-1","","","21","5950","3516","&#9826;","elianto","#f73b6a7A","-1","-1","1","-10","[]","0","0","3","","","","","","","",""
"pit-trial","63","1008994","0.0-2.0-14.0-4.0","battery-v0.2","","""event"",""trial"",""time""
""fullscreenenter"",""1"",""11084""
""blur"",""19"",""475865""
""focus"",""19"",""485282""
","""event"",""trial"",""time""
""blur"",""19"",""475865""
","""event"",""trial"",""time""
""focus"",""19"",""485282""
","""event"",""trial"",""time""
""fullscreenenter"",""1"",""11084""
","
","","","-1","","","21","5950","3516","&#9826;","elianto","#f73b6a7A","-1","-1","1","0","[]","0","0","3","","","","","","","",""
"pit-trial","64","1013848","0.0-2.0-14.1-0.1","battery-v0.2","","""event"",""trial"",""time""
""fullscreenenter"",""1"",""11084""
""blur"",""19"",""475865""
""focus"",""19"",""485282""
","""event"",""trial"",""time""
""blur"",""19"",""475865""
","""event"",""trial"",""time""
""focus"",""19"",""485282""
","""event"",""trial"",""time""
""fullscreenenter"",""1"",""11084""
","
","","","-1","","","21","5950","3516","&#9826;","elianto","#f73b6a7A","-1","-1","1","0","[]","0","0","3","","","","","","","",""
"pit-trial","65","1018704","0.0-2.0-14.1-1.1","battery-v0.2","","""event"",""trial"",""time""
""fullscreenenter"",""1"",""11084""
""blur"",""19"",""475865""
""focus"",""19"",""485282""
","""event"",""trial"",""time""
""blur"",""19"",""475865""
","""event"",""trial"",""time""
""focus"",""19"",""485282""
","""event"",""trial"",""time""
""fullscreenenter"",""1"",""11084""
","
","","","-1","","","21","5950","3516","&#9826;","elianto","#f73b6a7A","-1","-1","1","0","[]","0","0","3","","","","","","","",""
"pit-trial","66","1023594","0.0-2.0-14.1-2.1","battery-v0.2","","""event"",""trial"",""time""
""fullscreenenter"",""1"",""11084""
""blur"",""19"",""475865""
""focus"",""19"",""485282""
","""event"",""trial"",""time""
""blur"",""19"",""475865""
","""event"",""trial"",""time""
""focus"",""19"",""485282""
","""event"",""trial"",""time""
""fullscreenenter"",""1"",""11084""
","
","","","-1","","","21","5950","3516","&#9826;","elianto","#f73b6a7A","-1","-1","1","0","[]","0","0","3","","","","","","","",""
"pit-trial","67","1028484","0.0-2.0-14.1-3.1","battery-v0.2","","""event"",""trial"",""time""
""fullscreenenter"",""1"",""11084""
""blur"",""19"",""475865""
""focus"",""19"",""485282""
","""event"",""trial"",""time""
""blur"",""19"",""475865""
","""event"",""trial"",""time""
""focus"",""19"",""485282""
","""event"",""trial"",""time""
""fullscreenenter"",""1"",""11084""
","
","","","-1","","","21","5950","3516","&#9826;","elianto","#f73b6a7A","-1","-1","1","-10","[]","0","0","3","","","","","","","",""
"pit-trial","68","1033374","0.0-2.0-14.1-4.1","battery-v0.2","","""event"",""trial"",""time""
""fullscreenenter"",""1"",""11084""
""blur"",""19"",""475865""
""focus"",""19"",""485282""
","""event"",""trial"",""time""
""blur"",""19"",""475865""
","""event"",""trial"",""time""
""focus"",""19"",""485282""
","""event"",""trial"",""time""
""fullscreenenter"",""1"",""11084""
","
","","","-1","","","21","5950","3516","&#9826;","elianto","#f73b6a7A","-1","-1","1","0","[]","0","0","3","","","","","","","",""
"pit-trial","69","1038264","0.0-2.0-14.2-0.2","battery-v0.2","","""event"",""trial"",""time""
""fullscreenenter"",""1"",""11084""
""blur"",""19"",""475865""
""focus"",""19"",""485282""
","""event"",""trial"",""time""
""blur"",""19"",""475865""
","""event"",""trial"",""time""
""focus"",""19"",""485282""
","""event"",""trial"",""time""
""fullscreenenter"",""1"",""11084""
","
","","","-1","","","21","5950","3516","&#9826;","elianto","#f73b6a7A","-1","-1","1","0","[]","0","0","3","","","","","","","",""
"pit-trial","70","1043154","0.0-2.0-14.2-1.2","battery-v0.2","","""event"",""trial"",""time""
""fullscreenenter"",""1"",""11084""
""blur"",""19"",""475865""
""focus"",""19"",""485282""
","""event"",""trial"",""time""
""blur"",""19"",""475865""
","""event"",""trial"",""time""
""focus"",""19"",""485282""
","""event"",""trial"",""time""
""fullscreenenter"",""1"",""11084""
","
","","","-1","","","21","5950","3516","&#9826;","elianto","#f73b6a7A","-1","-1","1","0","[]","0","0","3","","","","","","","",""
"pit-trial","71","1048043","0.0-2.0-14.2-2.2","battery-v0.2","","""event"",""trial"",""time""
""fullscreenenter"",""1"",""11084""
""blur"",""19"",""475865""
""focus"",""19"",""485282""
","""event"",""trial"",""time""
""blur"",""19"",""475865""
","""event"",""trial"",""time""
""focus"",""19"",""485282""
","""event"",""trial"",""time""
""fullscreenenter"",""1"",""11084""
","
","","","-1","","","21","5950","3516","&#9826;","elianto","#f73b6a7A","-1","-1","1","0","[]","0","0","3","","","","","","","",""
"pit-trial","72","1052934","0.0-2.0-14.2-3.2","battery-v0.2","","""event"",""trial"",""time""
""fullscreenenter"",""1"",""11084""
""blur"",""19"",""475865""
""focus"",""19"",""485282""
","""event"",""trial"",""time""
""blur"",""19"",""475865""
","""event"",""trial"",""time""
""focus"",""19"",""485282""
","""event"",""trial"",""time""
""fullscreenenter"",""1"",""11084""
","
","","","-1","","","21","5950","3516","&#9826;","elianto","#f73b6a7A","-1","-1","1","-10","[]","0","0","3","","","","","","","",""
"pit-trial","73","1057824","0.0-2.0-14.2-4.2","battery-v0.2","","""event"",""trial"",""time""
""fullscreenenter"",""1"",""11084""
""blur"",""19"",""475865""
""focus"",""19"",""485282""
","""event"",""trial"",""time""
""blur"",""19"",""475865""
","""event"",""trial"",""time""
""focus"",""19"",""485282""
","""event"",""trial"",""time""
""fullscreenenter"",""1"",""11084""
","
","","","-1","","","21","5950","3516","&#9826;","elianto","#f73b6a7A","-1","-1","1","0","[]","0","0","3","","","","","","","",""
"pit-trial","74","1062714","0.0-2.0-14.3-0.3","battery-v0.2","","""event"",""trial"",""time""
""fullscreenenter"",""1"",""11084""
""blur"",""19"",""475865""
""focus"",""19"",""485282""
","""event"",""trial"",""time""
""blur"",""19"",""475865""
","""event"",""trial"",""time""
""focus"",""19"",""485282""
","""event"",""trial"",""time""
""fullscreenenter"",""1"",""11084""
","
","","","-1","","","21","5950","3516","&#9826;","elianto","#f73b6a7A","-1","-1","1","0","[]","0","0","3","","","","","","","",""
"pit-trial","75","1067603","0.0-2.0-14.3-1.3","battery-v0.2","","""event"",""trial"",""time""
""fullscreenenter"",""1"",""11084""
""blur"",""19"",""475865""
""focus"",""19"",""485282""
","""event"",""trial"",""time""
""blur"",""19"",""475865""
","""event"",""trial"",""time""
""focus"",""19"",""485282""
","""event"",""trial"",""time""
""fullscreenenter"",""1"",""11084""
","
","","","-1","","","21","5950","3516","&#9826;","elianto","#f73b6a7A","-1","-1","1","0","[]","0","0","3","","","","","","","",""
"pit-trial","76","1072493","0.0-2.0-14.3-2.3","battery-v0.2","","""event"",""trial"",""time""
""fullscreenenter"",""1"",""11084""
""blur"",""19"",""475865""
""focus"",""19"",""485282""
","""event"",""trial"",""time""
""blur"",""19"",""475865""
","""event"",""trial"",""time""
""focus"",""19"",""485282""
","""event"",""trial"",""time""
""fullscreenenter"",""1"",""11084""
","
","","","-1","","","21","5950","3516","&#9826;","elianto","#f73b6a7A","-1","-1","1","0","[]","0","0","3","","","","","","","",""
"pit-trial","77","1077383","0.0-2.0-14.3-3.3","battery-v0.2","","""event"",""trial"",""time""
""fullscreenenter"",""1"",""11084""
""blur"",""19"",""475865""
""focus"",""19"",""485282""
","""event"",""trial"",""time""
""blur"",""19"",""475865""
","""event"",""trial"",""time""
""focus"",""19"",""485282""
","""event"",""trial"",""time""
""fullscreenenter"",""1"",""11084""
","
","","","-1","","","21","5950","3516","&#9826;","elianto","#f73b6a7A","-1","-1","1","-10","[]","0","0","3","","","","","","","",""
"pit-trial","78","1082274","0.0-2.0-14.3-4.3","battery-v0.2","","""event"",""trial"",""time""
""fullscreenenter"",""1"",""11084""
""blur"",""19"",""475865""
""focus"",""19"",""485282""
","""event"",""trial"",""time""
""blur"",""19"",""475865""
","""event"",""trial"",""time""
""focus"",""19"",""485282""
","""event"",""trial"",""time""
""fullscreenenter"",""1"",""11084""
","
","","","-1","","","21","5950","3516","&#9826;","elianto","#f73b6a7A","-1","-1","1","0","[]","0","0","3","","","","","","","",""
"call-function","79","1082277","0.0-2.0-15.0","battery-v0.2","","""event"",""trial"",""time""
""fullscreenenter"",""1"",""11084""
""blur"",""19"",""475865""
""focus"",""19"",""485282""
","""event"",""trial"",""time""
""blur"",""19"",""475865""
","""event"",""trial"",""time""
""focus"",""19"",""485282""
","""event"",""trial"",""time""
""fullscreenenter"",""1"",""11084""
","
","","","","","","","","","","","","","","","","","","","","","","","","","","",""
"pit-instructions","80","1106506","0.0-2.0-16.0","battery-v0.2","","""event"",""trial"",""time""
""fullscreenenter"",""1"",""11084""
""blur"",""19"",""475865""
""focus"",""19"",""485282""
","""event"",""trial"",""time""
""blur"",""19"",""475865""
","""event"",""trial"",""time""
""focus"",""19"",""485282""
","""event"",""trial"",""time""
""fullscreenenter"",""1"",""11084""
","
","","[{""page_index"":0,""viewing_time"":6655},{""page_index"":1,""viewing_time"":8333.000000000233},{""page_index"":2,""viewing_time"":4024.999999999767},{""page_index"":3,""viewing_time"":5216}]","24229","","","","","","","","","","","","","","","","","","","","","","","",""
"pit-trial","81","1109911","0.0-2.0-17.0-0.0","battery-v0.2","","""event"",""trial"",""time""
""fullscreenenter"",""1"",""11084""
""blur"",""19"",""475865""
""focus"",""19"",""485282""
","""event"",""trial"",""time""
""blur"",""19"",""475865""
","""event"",""trial"",""time""
""focus"",""19"",""485282""
","""event"",""trial"",""time""
""fullscreenenter"",""1"",""11084""
","
","","","552","","","21","5950","3516","&#9789;","elianto","#f73b6a7A"," "," ","1","0","[1402]","1","0","4","","","","","","","",""
"pit-trial","82","1112929","0.0-2.0-17.0-1.0","battery-v0.2","","""event"",""trial"",""time""
""fullscreenenter"",""1"",""11084""
""blur"",""19"",""475865""
""focus"",""19"",""485282""
","""event"",""trial"",""time""
""blur"",""19"",""475865""
","""event"",""trial"",""time""
""focus"",""19"",""485282""
","""event"",""trial"",""time""
""fullscreenenter"",""1"",""11084""
","
","","","166","","","21","5950","3516","&#9789;","elianto","#f73b6a7A"," "," ","1","0","[1017]","1","0","4","","","","","","","",""
"pit-trial","83","1115913","0.0-2.0-17.0-2.0","battery-v0.2","","""event"",""trial"",""time""
""fullscreenenter"",""1"",""11084""
""blur"",""19"",""475865""
""focus"",""19"",""485282""
","""event"",""trial"",""time""
""blur"",""19"",""475865""
","""event"",""trial"",""time""
""focus"",""19"",""485282""
","""event"",""trial"",""time""
""fullscreenenter"",""1"",""11084""
","
","","","131","","","21","5950","3516","&#9789;","elianto","#f73b6a7A"," "," ","1","0","[982]","1","0","4","","","","","","","",""
"pit-trial","84","1119103","0.0-2.0-17.0-3.0","battery-v0.2","","""event"",""trial"",""time""
""fullscreenenter"",""1"",""11084""
""blur"",""19"",""475865""
""focus"",""19"",""485282""
","""event"",""trial"",""time""
""blur"",""19"",""475865""
","""event"",""trial"",""time""
""focus"",""19"",""485282""
","""event"",""trial"",""time""
""fullscreenenter"",""1"",""11084""
","
","","","336.00000000023283","","","21","5950","3516","&#9789;","elianto","#f73b6a7A"," "," ","1","-10","[1186.0000000002328]","1","0","4","","","","","","","",""
"pit-trial","85","1122362","0.0-2.0-17.0-4.0","battery-v0.2","","""event"",""trial"",""time""
""fullscreenenter"",""1"",""11084""
""blur"",""19"",""475865""
""focus"",""19"",""485282""
","""event"",""trial"",""time""
""blur"",""19"",""475865""
","""event"",""trial"",""time""
""focus"",""19"",""485282""
","""event"",""trial"",""time""
""fullscreenenter"",""1"",""11084""
","
","","","404","","","21","5950","3516","&#9789;","elianto","#f73b6a7A"," "," ","1","0","[1256.0000000002328]","1","0","4","","","","","","","",""
"pit-trial","86","1125641","0.0-2.0-17.1-0.1","battery-v0.2","","""event"",""trial"",""time""
""fullscreenenter"",""1"",""11084""
""blur"",""19"",""475865""
""focus"",""19"",""485282""
","""event"",""trial"",""time""
""blur"",""19"",""475865""
","""event"",""trial"",""time""
""focus"",""19"",""485282""
","""event"",""trial"",""time""
""fullscreenenter"",""1"",""11084""
","
","","","425","","","21","5950","3516","&#9789;","elianto","#f73b6a7A"," "," ","1","0","[1275]","1","0","4","","","","","","","",""
"pit-trial","87","1128928","0.0-2.0-17.1-1.1","battery-v0.2","","""event"",""trial"",""time""
""fullscreenenter"",""1"",""11084""
""blur"",""19"",""475865""
""focus"",""19"",""485282""
","""event"",""trial"",""time""
""blur"",""19"",""475865""
","""event"",""trial"",""time""
""focus"",""19"",""485282""
","""event"",""trial"",""time""
""fullscreenenter"",""1"",""11084""
","
","","","433","","","21","5950","3516","&#9789;","elianto","#f73b6a7A"," "," ","1","0","[1284]","1","0","4","","","","","","","",""
"pit-trial","88","1132118","0.0-2.0-17.1-2.1","battery-v0.2","","""event"",""trial"",""time""
""fullscreenenter"",""1"",""11084""
""blur"",""19"",""475865""
""focus"",""19"",""485282""
","""event"",""trial"",""time""
""blur"",""19"",""475865""
","""event"",""trial"",""time""
""focus"",""19"",""485282""
","""event"",""trial"",""time""
""fullscreenenter"",""1"",""11084""
","
","","","337","","","21","5950","3516","&#9789;","elianto","#f73b6a7A"," "," ","1","0","[1188]","1","0","4","","","","","","","",""
"pit-trial","89","1135291","0.0-2.0-17.1-3.1","battery-v0.2","","""event"",""trial"",""time""
""fullscreenenter"",""1"",""11084""
""blur"",""19"",""475865""
""focus"",""19"",""485282""
","""event"",""trial"",""time""
""blur"",""19"",""475865""
","""event"",""trial"",""time""
""focus"",""19"",""485282""
","""event"",""trial"",""time""
""fullscreenenter"",""1"",""11084""
","
","","","319","","","21","5950","3516","&#9789;","elianto","#f73b6a7A"," "," ","1","-10","[1170]","1","0","4","","","","","","","",""
"pit-trial","90","1138848","0.0-2.0-17.1-4.1","battery-v0.2","","""event"",""trial"",""time""
""fullscreenenter"",""1"",""11084""
""blur"",""19"",""475865""
""focus"",""19"",""485282""
","""event"",""trial"",""time""
""blur"",""19"",""475865""
","""event"",""trial"",""time""
""focus"",""19"",""485282""
","""event"",""trial"",""time""
""fullscreenenter"",""1"",""11084""
","
","","","703","","","21","5950","3516","&#9789;","elianto","#f73b6a7A"," "," ","1","0","[1554]","1","0","4","","","","","","","",""
"pit-trial","91","1142165","0.0-2.0-17.2-0.2","battery-v0.2","","""event"",""trial"",""time""
""fullscreenenter"",""1"",""11084""
""blur"",""19"",""475865""
""focus"",""19"",""485282""
","""event"",""trial"",""time""
""blur"",""19"",""475865""
","""event"",""trial"",""time""
""focus"",""19"",""485282""
","""event"",""trial"",""time""
""fullscreenenter"",""1"",""11084""
","
","","","463","","","21","5950","3516","&#9789;","elianto","#f73b6a7A"," "," ","1","0","[1314]","1","0","4","","","","","","","",""
"pit-trial","92","1145371","0.0-2.0-17.2-1.2","battery-v0.2","","""event"",""trial"",""time""
""fullscreenenter"",""1"",""11084""
""blur"",""19"",""475865""
""focus"",""19"",""485282""
","""event"",""trial"",""time""
""blur"",""19"",""475865""
","""event"",""trial"",""time""
""focus"",""19"",""485282""
","""event"",""trial"",""time""
""fullscreenenter"",""1"",""11084""
","
","","","352","","","21","5950","3516","&#9789;","elianto","#f73b6a7A"," "," ","1","0","[1203]","1","0","4","","","","","","","",""
"pit-trial","93","1149751","0.0-2.0-17.2-2.2","battery-v0.2","","""event"",""trial"",""time""
""fullscreenenter"",""1"",""11084""
""blur"",""19"",""475865""
""focus"",""19"",""485282""
","""event"",""trial"",""time""
""blur"",""19"",""475865""
","""event"",""trial"",""time""
""focus"",""19"",""485282""
","""event"",""trial"",""time""
""fullscreenenter"",""1"",""11084""
","
","","","1527","","","21","5950","3516","&#9789;","elianto","#f73b6a7A"," "," ","1","0","[2377]","1","0","4","","","","","","","",""
"pit-trial","94","1152991","0.0-2.0-17.2-3.2","battery-v0.2","","""event"",""trial"",""time""
""fullscreenenter"",""1"",""11084""
""blur"",""19"",""475865""
""focus"",""19"",""485282""
","""event"",""trial"",""time""
""blur"",""19"",""475865""
","""event"",""trial"",""time""
""focus"",""19"",""485282""
","""event"",""trial"",""time""
""fullscreenenter"",""1"",""11084""
","
","","","386","","","21","5950","3516","&#9789;","elianto","#f73b6a7A"," "," ","1","-10","[1236]","1","0","4","","","","","","","",""
"pit-trial","95","1156282","0.0-2.0-17.2-4.2","battery-v0.2","","""event"",""trial"",""time""
""fullscreenenter"",""1"",""11084""
""blur"",""19"",""475865""
""focus"",""19"",""485282""
","""event"",""trial"",""time""
""blur"",""19"",""475865""
","""event"",""trial"",""time""
""focus"",""19"",""485282""
","""event"",""trial"",""time""
""fullscreenenter"",""1"",""11084""
","
","","","438","","","21","5950","3516","&#9789;","elianto","#f73b6a7A"," "," ","1","0","[1290]","1","0","4","","","","","","","",""
"pit-trial","96","1159357","0.0-2.0-17.3-0.3","battery-v0.2","","""event"",""trial"",""time""
""fullscreenenter"",""1"",""11084""
""blur"",""19"",""475865""
""focus"",""19"",""485282""
","""event"",""trial"",""time""
""blur"",""19"",""475865""
","""event"",""trial"",""time""
""focus"",""19"",""485282""
","""event"",""trial"",""time""
""fullscreenenter"",""1"",""11084""
","
","","","221","","","21","5950","3516","&#9789;","elianto","#f73b6a7A"," "," ","1","0","[1071.9999999997672]","1","0","4","","","","","","","",""
"pit-trial","97","1162513","0.0-2.0-17.3-1.3","battery-v0.2","","""event"",""trial"",""time""
""fullscreenenter"",""1"",""11084""
""blur"",""19"",""475865""
""focus"",""19"",""485282""
","""event"",""trial"",""time""
""blur"",""19"",""475865""
","""event"",""trial"",""time""
""focus"",""19"",""485282""
","""event"",""trial"",""time""
""fullscreenenter"",""1"",""11084""
","
","","","303","","","21","5950","3516","&#9789;","elianto","#f73b6a7A"," "," ","1","0","[1153]","1","0","4","","","","","","","",""
"pit-trial","98","1165792","0.0-2.0-17.3-2.3","battery-v0.2","","""event"",""trial"",""time""
""fullscreenenter"",""1"",""11084""
""blur"",""19"",""475865""
""focus"",""19"",""485282""
","""event"",""trial"",""time""
""blur"",""19"",""475865""
","""event"",""trial"",""time""
""focus"",""19"",""485282""
","""event"",""trial"",""time""
""fullscreenenter"",""1"",""11084""
","
","","","426","","","21","5950","3516","&#9789;","elianto","#f73b6a7A"," "," ","1","0","[1274.9999999997672]","1","0","4","","","","","","","",""
"pit-trial","99","1168989","0.0-2.0-17.3-3.3","battery-v0.2","","""event"",""trial"",""time""
""fullscreenenter"",""1"",""11084""
""blur"",""19"",""475865""
""focus"",""19"",""485282""
","""event"",""trial"",""time""
""blur"",""19"",""475865""
","""event"",""trial"",""time""
""focus"",""19"",""485282""
","""event"",""trial"",""time""
""fullscreenenter"",""1"",""11084""
","
","","","345","","","21","5950","3516","&#9789;","elianto","#f73b6a7A"," "," ","1","-10","[1196]","1","0","4","","","","","","","",""
"pit-trial","100","1172183","0.0-2.0-17.3-4.3","battery-v0.2","","""event"",""trial"",""time""
""fullscreenenter"",""1"",""11084""
""blur"",""19"",""475865""
""focus"",""19"",""485282""
","""event"",""trial"",""time""
""blur"",""19"",""475865""
","""event"",""trial"",""time""
""focus"",""19"",""485282""
","""event"",""trial"",""time""
""fullscreenenter"",""1"",""11084""
","
","","","338","","","21","5950","3516","&#9789;","elianto","#f73b6a7A"," "," ","1","0","[1185]","1","0","4","","","","","","","",""
"call-function","101","1172200","0.0-2.0-18.0","battery-v0.2","","""event"",""trial"",""time""
""fullscreenenter"",""1"",""11084""
""blur"",""19"",""475865""
""focus"",""19"",""485282""
","""event"",""trial"",""time""
""blur"",""19"",""475865""
","""event"",""trial"",""time""
""focus"",""19"",""485282""
","""event"",""trial"",""time""
""fullscreenenter"",""1"",""11084""
","
","","","","","","","","","","","","","","","","","","","","","","","","","","",""
"pit-instructions","102","1247645","0.0-2.0-19.0","battery-v0.2","","""event"",""trial"",""time""
""fullscreenenter"",""1"",""11084""
""blur"",""19"",""475865""
""focus"",""19"",""485282""
","""event"",""trial"",""time""
""blur"",""19"",""475865""
","""event"",""trial"",""time""
""focus"",""19"",""485282""
","""event"",""trial"",""time""
""fullscreenenter"",""1"",""11084""
","
","","[{""page_index"":0,""viewing_time"":8514},{""page_index"":1,""viewing_time"":8690},{""page_index"":2,""viewing_time"":10910},{""page_index"":3,""viewing_time"":7138},{""page_index"":4,""viewing_time"":8133},{""page_index"":5,""viewing_time"":9416},{""page_index"":6,""viewing_time"":10868},{""page_index"":7,""viewing_time"":6054},{""page_index"":8,""viewing_time"":5721}]","75444","","","","","","","","","","","","","","","","","","","","","","","",""
"pit-comprehension","103","1252810","0.0-2.0-20.0-0.0","battery-v0.2","","""event"",""trial"",""time""
""fullscreenenter"",""1"",""11084""
""blur"",""19"",""475865""
""focus"",""19"",""485282""
","""event"",""trial"",""time""
""blur"",""19"",""475865""
","""event"",""trial"",""time""
""focus"",""19"",""485282""
","""event"",""trial"",""time""
""fullscreenenter"",""1"",""11084""
","
","","","5161","[""SPACE""]","0","21","5950","3516","","","","","","","","","","","","","","","","","","",""
"pit-instructions","104","1259983","0.0-2.0-20.0-1.0","battery-v0.2","","""event"",""trial"",""time""
""fullscreenenter"",""1"",""11084""
""blur"",""19"",""475865""
""focus"",""19"",""485282""
","""event"",""trial"",""time""
""blur"",""19"",""475865""
","""event"",""trial"",""time""
""focus"",""19"",""485282""
","""event"",""trial"",""time""
""fullscreenenter"",""1"",""11084""
","
","","[{""page_index"":0,""viewing_time"":7107}]","7108","","","","","","","","","","","","","","","","","","","","","","","",""
"pit-comprehension","105","1264895","0.0-2.0-21.0-0.0","battery-v0.2","","""event"",""trial"",""time""
""fullscreenenter"",""1"",""11084""
""blur"",""19"",""475865""
""focus"",""19"",""485282""
","""event"",""trial"",""time""
""blur"",""19"",""475865""
","""event"",""trial"",""time""
""focus"",""19"",""485282""
","""event"",""trial"",""time""
""fullscreenenter"",""1"",""11084""
","
","","","4906","[""10""]","0","21","5950","3516","","","","","","","","","","","","","","","","","","",""
"pit-instructions","106","1269235","0.0-2.0-21.0-1.0","battery-v0.2","","""event"",""trial"",""time""
""fullscreenenter"",""1"",""11084""
""blur"",""19"",""475865""
""focus"",""19"",""485282""
","""event"",""trial"",""time""
""blur"",""19"",""475865""
","""event"",""trial"",""time""
""focus"",""19"",""485282""
","""event"",""trial"",""time""
""fullscreenenter"",""1"",""11084""
","
","","[{""page_index"":0,""viewing_time"":4280}]","4280","","","","","","","","","","","","","","","","","","","","","","","",""
"pit-comprehension","107","1278108","0.0-2.0-22.0-0.0","battery-v0.2","","""event"",""trial"",""time""
""fullscreenenter"",""1"",""11084""
""blur"",""19"",""475865""
""focus"",""19"",""485282""
","""event"",""trial"",""time""
""blur"",""19"",""475865""
","""event"",""trial"",""time""
""focus"",""19"",""485282""
","""event"",""trial"",""time""
""fullscreenenter"",""1"",""11084""
","
","","","8870","[""0""]","0","21","5950","3516","","","","","","","","","","","","","","","","","","",""
"pit-instructions","108","1279807","0.0-2.0-22.0-1.0","battery-v0.2","","""event"",""trial"",""time""
""fullscreenenter"",""1"",""11084""
""blur"",""19"",""475865""
""focus"",""19"",""485282""
","""event"",""trial"",""time""
""blur"",""19"",""475865""
","""event"",""trial"",""time""
""focus"",""19"",""485282""
","""event"",""trial"",""time""
""fullscreenenter"",""1"",""11084""
","
","","[{""page_index"":0,""viewing_time"":1642}]","1642","","","","","","","","","","","","","","","","","","","","","","","",""
"pit-comprehension","109","1288456","0.0-2.0-23.0-0.0","battery-v0.2","","""event"",""trial"",""time""
""fullscreenenter"",""1"",""11084""
""blur"",""19"",""475865""
""focus"",""19"",""485282""
","""event"",""trial"",""time""
""blur"",""19"",""475865""
","""event"",""trial"",""time""
""focus"",""19"",""485282""
","""event"",""trial"",""time""
""fullscreenenter"",""1"",""11084""
","
","","","8646","[""False""]","1","21","5950","3516","","","","","","","","","","","","","","","","","","",""
"pit-instructions","110","1294845","0.0-2.0-23.0-1.0","battery-v0.2","","""event"",""trial"",""time""
""fullscreenenter"",""1"",""11084""
""blur"",""19"",""475865""
""focus"",""19"",""485282""
","""event"",""trial"",""time""
""blur"",""19"",""475865""
","""event"",""trial"",""time""
""focus"",""19"",""485282""
","""event"",""trial"",""time""
""fullscreenenter"",""1"",""11084""
","
","","[{""page_index"":0,""viewing_time"":6329.999999999767}]","6329.999999999767","","","","","","","","","","","","","","","","","","","","","","","",""
"pit-instructions","111","1295757","0.0-2.0-23.0-2.0-0.0","battery-v0.2","","""event"",""trial"",""time""
""fullscreenenter"",""1"",""11084""
""blur"",""19"",""475865""
""focus"",""19"",""485282""
","""event"",""trial"",""time""
""blur"",""19"",""475865""
","""event"",""trial"",""time""
""focus"",""19"",""485282""
","""event"",""trial"",""time""
""fullscreenenter"",""1"",""11084""
","
","","[{""page_index"":0,""viewing_time"":907}]","907","","","","","","","","","","","","","","","","","","","","","","","",""
"pit-comprehension","112","1304251","0.0-2.0-23.1-0.1","battery-v0.2","","""event"",""trial"",""time""
""fullscreenenter"",""1"",""11084""
""blur"",""19"",""475865""
""focus"",""19"",""485282""
","""event"",""trial"",""time""
""blur"",""19"",""475865""
","""event"",""trial"",""time""
""focus"",""19"",""485282""
","""event"",""trial"",""time""
""fullscreenenter"",""1"",""11084""
","
","","","8490","[""True""]","0","21","5950","3516","","","","","","","","","","","","","","","","","","",""
"pit-instructions","113","1309320","0.0-2.0-23.1-1.1","battery-v0.2","","""event"",""trial"",""time""
""fullscreenenter"",""1"",""11084""
""blur"",""19"",""475865""
""focus"",""19"",""485282""
","""event"",""trial"",""time""
""blur"",""19"",""475865""
","""event"",""trial"",""time""
""focus"",""19"",""485282""
","""event"",""trial"",""time""
""fullscreenenter"",""1"",""11084""
","
","","[{""page_index"":0,""viewing_time"":5009}]","5010","","","","","","","","","","","","","","","","","","","","","","","",""
"pit-comprehension","114","1316823","0.0-2.0-24.0-0.0","battery-v0.2","","""event"",""trial"",""time""
""fullscreenenter"",""1"",""11084""
""blur"",""19"",""475865""
""focus"",""19"",""485282""
","""event"",""trial"",""time""
""blur"",""19"",""475865""
","""event"",""trial"",""time""
""focus"",""19"",""485282""
","""event"",""trial"",""time""
""fullscreenenter"",""1"",""11084""
","
","","","7498.000000000233","[""True""]","0","21","5950","3516","","","","","","","","","","","","","","","","","","",""
"pit-instructions","115","1319067","0.0-2.0-24.0-1.0","battery-v0.2","","""event"",""trial"",""time""
""fullscreenenter"",""1"",""11084""
""blur"",""19"",""475865""
""focus"",""19"",""485282""
","""event"",""trial"",""time""
""blur"",""19"",""475865""
","""event"",""trial"",""time""
""focus"",""19"",""485282""
","""event"",""trial"",""time""
""fullscreenenter"",""1"",""11084""
","
","","[{""page_index"":0,""viewing_time"":2183}]","2184","","","","","","","","","","","","","","","","","","","","","","","",""
"pit-comprehension","116","1325507","0.0-2.0-25.0-0.0","battery-v0.2","","""event"",""trial"",""time""
""fullscreenenter"",""1"",""11084""
""blur"",""19"",""475865""
""focus"",""19"",""485282""
","""event"",""trial"",""time""
""blur"",""19"",""475865""
","""event"",""trial"",""time""
""focus"",""19"",""485282""
","""event"",""trial"",""time""
""fullscreenenter"",""1"",""11084""
","
","","","6436","[""True""]","0","21","5950","3516","","","","","","","","","","","","","","","","","","",""
"pit-instructions","117","1327107","0.0-2.0-25.0-1.0","battery-v0.2","","""event"",""trial"",""time""
""fullscreenenter"",""1"",""11084""
""blur"",""19"",""475865""
""focus"",""19"",""485282""
","""event"",""trial"",""time""
""blur"",""19"",""475865""
","""event"",""trial"",""time""
""focus"",""19"",""485282""
","""event"",""trial"",""time""
""fullscreenenter"",""1"",""11084""
","
","","[{""page_index"":0,""viewing_time"":1535}]","1536","","","","","","","","","","","","","","","","","","","","","","","",""
"pit-comprehension","118","1331964","0.0-2.0-26.0-0.0","battery-v0.2","","""event"",""trial"",""time""
""fullscreenenter"",""1"",""11084""
""blur"",""19"",""475865""
""focus"",""19"",""485282""
","""event"",""trial"",""time""
""blur"",""19"",""475865""
","""event"",""trial"",""time""
""focus"",""19"",""485282""
","""event"",""trial"",""time""
""fullscreenenter"",""1"",""11084""
","
","","","4853","[""False""]","0","21","5950","3516","","","","","","","","","","","","","","","","","","",""
"pit-instructions","119","1333607","0.0-2.0-26.0-1.0","battery-v0.2","","""event"",""trial"",""time""
""fullscreenenter"",""1"",""11084""
""blur"",""19"",""475865""
""focus"",""19"",""485282""
","""event"",""trial"",""time""
""blur"",""19"",""475865""
","""event"",""trial"",""time""
""focus"",""19"",""485282""
","""event"",""trial"",""time""
""fullscreenenter"",""1"",""11084""
","
","","[{""page_index"":0,""viewing_time"":1581}]","1582","","","","","","","","","","","","","","","","","","","","","","","",""
"pit-instructions","120","1350982","0.0-3.0","battery-v0.2","","""event"",""trial"",""time""
""fullscreenenter"",""1"",""11084""
""blur"",""19"",""475865""
""focus"",""19"",""485282""
","""event"",""trial"",""time""
""blur"",""19"",""475865""
","""event"",""trial"",""time""
""focus"",""19"",""485282""
","""event"",""trial"",""time""
""fullscreenenter"",""1"",""11084""
","
","","[{""page_index"":0,""viewing_time"":4658},{""page_index"":1,""viewing_time"":5009},{""page_index"":2,""viewing_time"":7705}]","17373","","","","","","","","","","","","","","","","","","","","","","","",""
"pit-trial","121","1354874","0.0-4.0","battery-v0.2","","""event"",""trial"",""time""
""fullscreenenter"",""1"",""11084""
""blur"",""19"",""475865""
""focus"",""19"",""485282""
","""event"",""trial"",""time""
""blur"",""19"",""475865""
","""event"",""trial"",""time""
""focus"",""19"",""485282""
","""event"",""trial"",""time""
""fullscreenenter"",""1"",""11084""
","
","","","1025","","","21","5950","3516","&#9733;","elianto","#3366ff99","-1"," ","0","0","[1876]","1","1","","","5950","1","2","2","win","no-go","0"
"pit-trial","122","1358529","0.0-5.0","battery-v0.2","","""event"",""trial"",""time""
""fullscreenenter"",""1"",""11084""
""blur"",""19"",""475865""
""focus"",""19"",""485282""
","""event"",""trial"",""time""
""blur"",""19"",""475865""
","""event"",""trial"",""time""
""focus"",""19"",""485282""
","""event"",""trial"",""time""
""fullscreenenter"",""1"",""11084""
","
","","","799","","","21","5950","3516","&#9728;","elianto","#f73b6a7A","-1"," ","0","-10","[1650]","1","1","","","5950","2","0","4","lose","no-go","0"
"pit-trial","123","1362148","0.0-6.0","battery-v0.2","","""event"",""trial"",""time""
""fullscreenenter"",""1"",""11084""
""blur"",""19"",""475865""
""focus"",""19"",""485282""
","""event"",""trial"",""time""
""blur"",""19"",""475865""
","""event"",""trial"",""time""
""focus"",""19"",""485282""
","""event"",""trial"",""time""
""fullscreenenter"",""1"",""11084""
","
","","","764","","","21","5950","3516","&#9752;","elianto","#f73b6a7A"," "," ","1","0","[1615]","1","1","","","5950","3","3","3","lose","go","0"
"pit-trial","124","1365936","0.0-7.0","battery-v0.2","","""event"",""trial"",""time""
""fullscreenenter"",""1"",""11084""
""blur"",""19"",""475865""
""focus"",""19"",""485282""
","""event"",""trial"",""time""
""blur"",""19"",""475865""
","""event"",""trial"",""time""
""focus"",""19"",""485282""
","""event"",""trial"",""time""
""fullscreenenter"",""1"",""11084""
","
","","","934","","","21","5950","3516","&#9730;","elianto","#3366ff99"," "," ","1","+10","[1784]","1","1","","","5950","4","1","1","win","go","0"
"pit-trial","125","1369454","0.0-8.0","battery-v0.2","","""event"",""trial"",""time""
""fullscreenenter"",""1"",""11084""
""blur"",""19"",""475865""
""focus"",""19"",""485282""
","""event"",""trial"",""time""
""blur"",""19"",""475865""
","""event"",""trial"",""time""
""focus"",""19"",""485282""
","""event"",""trial"",""time""
""fullscreenenter"",""1"",""11084""
","
","","","662","","","21","5950","3516","&#9733;","elianto","#3366ff99","-1"," ","0","0","[1512]","1","1","","","5950","5","2","2","win","no-go","0"
"pit-trial","126","1373152","0.0-9.0","battery-v0.2","","""event"",""trial"",""time""
""fullscreenenter"",""1"",""11084""
""blur"",""19"",""475865""
""focus"",""19"",""485282""
","""event"",""trial"",""time""
""blur"",""19"",""475865""
","""event"",""trial"",""time""
""focus"",""19"",""485282""
","""event"",""trial"",""time""
""fullscreenenter"",""1"",""11084""
","
","","","844","","","21","5950","3516","&#9752;","elianto","#f73b6a7A"," "," ","1","0","[1693.9999999997672]","1","1","","","5950","6","3","3","lose","go","0"
"pit-trial","127","1376637","0.0-10.0","battery-v0.2","","""event"",""trial"",""time""
""fullscreenenter"",""1"",""11084""
""blur"",""19"",""475865""
""focus"",""19"",""485282""
","""event"",""trial"",""time""
""blur"",""19"",""475865""
","""event"",""trial"",""time""
""focus"",""19"",""485282""
","""event"",""trial"",""time""
""fullscreenenter"",""1"",""11084""
","
","","","629","","","21","5950","3516","&#9730;","elianto","#3366ff99"," "," ","1","+10","[1480]","1","1","","","5950","7","1","1","win","go","0"
"pit-trial","128","1380453","0.0-11.0","battery-v0.2","","""event"",""trial"",""time""
""fullscreenenter"",""1"",""11084""
""blur"",""19"",""475865""
""focus"",""19"",""485282""
","""event"",""trial"",""time""
""blur"",""19"",""475865""
","""event"",""trial"",""time""
""focus"",""19"",""485282""
","""event"",""trial"",""time""
""fullscreenenter"",""1"",""11084""
","
","","","962","","","21","5950","3516","&#9728;","elianto","#f73b6a7A","-1"," ","0","-10","[1811.9999999997672]","1","1","","","5950","8","0","4","lose","no-go","0"
"pit-trial","129","1385310","0.0-12.0","battery-v0.2","","""event"",""trial"",""time""
""fullscreenenter"",""1"",""11084""
""blur"",""19"",""475865""
""focus"",""19"",""485282""
","""event"",""trial"",""time""
""blur"",""19"",""475865""
","""event"",""trial"",""time""
""focus"",""19"",""485282""
","""event"",""trial"",""time""
""fullscreenenter"",""1"",""11084""
","
","","","-1","","","21","5950","3516","&#9728;","elianto","#f73b6a7A","-1","-1","1","0","[]","0","1","","","5950","9","0","4","lose","no-go","0"
"pit-trial","130","1390164","0.0-13.0","battery-v0.2","","""event"",""trial"",""time""
""fullscreenenter"",""1"",""11084""
""blur"",""19"",""475865""
""focus"",""19"",""485282""
","""event"",""trial"",""time""
""blur"",""19"",""475865""
","""event"",""trial"",""time""
""focus"",""19"",""485282""
","""event"",""trial"",""time""
""fullscreenenter"",""1"",""11084""
","
","","","-1","","","21","5950","3516","&#9733;","elianto","#3366ff99","-1","-1","1","+10","[]","0","1","","","5950","10","2","2","win","no-go","0"
"pit-trial","131","1393864","0.0-14.0","battery-v0.2","","""event"",""trial"",""time""
""fullscreenenter"",""1"",""11084""
""blur"",""19"",""475865""
""focus"",""19"",""485282""
","""event"",""trial"",""time""
""blur"",""19"",""475865""
","""event"",""trial"",""time""
""focus"",""19"",""485282""
","""event"",""trial"",""time""
""fullscreenenter"",""1"",""11084""
","
","","","845","","","21","5950","3516","&#9752;","elianto","#f73b6a7A"," "," ","1","0","[1696]","1","1","","","5950","11","3","3","lose","go","0"
"pit-trial","132","1397409","0.0-15.0","battery-v0.2","","""event"",""trial"",""time""
""fullscreenenter"",""1"",""11084""
""blur"",""19"",""475865""
""focus"",""19"",""485282""
","""event"",""trial"",""time""
""blur"",""19"",""475865""
","""event"",""trial"",""time""
""focus"",""19"",""485282""
","""event"",""trial"",""time""
""fullscreenenter"",""1"",""11084""
","
","","","690.9999999997672","","","21","5950","3516","&#9730;","elianto","#3366ff99"," "," ","1","+10","[1541]","1","1","","","5950","12","1","1","win","go","0"
"pit-trial","133","1401012","0.0-16.0","battery-v0.2","","""event"",""trial"",""time""
""fullscreenenter"",""1"",""11084""
""blur"",""19"",""475865""
""focus"",""19"",""485282""
","""event"",""trial"",""time""
""blur"",""19"",""475865""
","""event"",""trial"",""time""
""focus"",""19"",""485282""
","""event"",""trial"",""time""
""fullscreenenter"",""1"",""11084""
","
","","","748","","","21","5950","3516","&#9730;","elianto","#3366ff99"," "," ","1","+10","[1598]","1","1","","","5950","13","1","1","win","go","0"
"pit-trial","134","1405869","0.0-17.0","battery-v0.2","","""event"",""trial"",""time""
""fullscreenenter"",""1"",""11084""
""blur"",""19"",""475865""
""focus"",""19"",""485282""
","""event"",""trial"",""time""
""blur"",""19"",""475865""
","""event"",""trial"",""time""
""focus"",""19"",""485282""
","""event"",""trial"",""time""
""fullscreenenter"",""1"",""11084""
","
","","","-1","","","21","5950","3516","&#9733;","elianto","#3366ff99","-1","-1","1","0","[]","0","1","","","5950","14","2","2","win","no-go","1"
"pit-trial","135","1409543","0.0-18.0","battery-v0.2","","""event"",""trial"",""time""
""fullscreenenter"",""1"",""11084""
""blur"",""19"",""475865""
""focus"",""19"",""485282""
","""event"",""trial"",""time""
""blur"",""19"",""475865""
","""event"",""trial"",""time""
""focus"",""19"",""485282""
","""event"",""trial"",""time""
""fullscreenenter"",""1"",""11084""
","
","","","820","","","21","5950","3516","&#9752;","elianto","#f73b6a7A"," "," ","1","0","[1670]","1","1","","","5950","15","3","3","lose","go","0"
"pit-trial","136","1414399","0.0-19.0","battery-v0.2","","""event"",""trial"",""time""
""fullscreenenter"",""1"",""11084""
""blur"",""19"",""475865""
""focus"",""19"",""485282""
","""event"",""trial"",""time""
""blur"",""19"",""475865""
","""event"",""trial"",""time""
""focus"",""19"",""485282""
","""event"",""trial"",""time""
""fullscreenenter"",""1"",""11084""
","
","","","-1","","","21","5950","3516","&#9728;","elianto","#f73b6a7A","-1","-1","1","0","[]","0","1","","","5950","16","0","4","lose","no-go","0"
"pit-trial","137","1417814","0.0-20.0","battery-v0.2","","""event"",""trial"",""time""
""fullscreenenter"",""1"",""11084""
""blur"",""19"",""475865""
""focus"",""19"",""485282""
","""event"",""trial"",""time""
""blur"",""19"",""475865""
","""event"",""trial"",""time""
""focus"",""19"",""485282""
","""event"",""trial"",""time""
""fullscreenenter"",""1"",""11084""
","
","","","560.0000000002328","","","21","5950","3516","&#9730;","elianto","#3366ff99"," "," ","1","+10","[1411.0000000002328]","1","1","","","5950","17","1","1","win","go","0"
"pit-trial","138","1422670","0.0-21.0","battery-v0.2","","""event"",""trial"",""time""
""fullscreenenter"",""1"",""11084""
""blur"",""19"",""475865""
""focus"",""19"",""485282""
","""event"",""trial"",""time""
""blur"",""19"",""475865""
","""event"",""trial"",""time""
""focus"",""19"",""485282""
","""event"",""trial"",""time""
""fullscreenenter"",""1"",""11084""
","
","","","-1","","","21","5950","3516","&#9728;","elianto","#f73b6a7A","-1","-1","1","0","[]","0","1","","","5950","18","0","4","lose","no-go","0"
"pit-trial","139","1426299","0.0-22.0","battery-v0.2","","""event"",""trial"",""time""
""fullscreenenter"",""1"",""11084""
""blur"",""19"",""475865""
""focus"",""19"",""485282""
","""event"",""trial"",""time""
""blur"",""19"",""475865""
","""event"",""trial"",""time""
""focus"",""19"",""485282""
","""event"",""trial"",""time""
""fullscreenenter"",""1"",""11084""
","
","","","774","","","21","5950","3516","&#9752;","elianto","#f73b6a7A"," "," ","1","0","[1625]","1","1","","","5950","19","3","3","lose","go","0"
"pit-trial","140","1429801","0.0-23.0","battery-v0.2","","""event"",""trial"",""time""
""fullscreenenter"",""1"",""11084""
""blur"",""19"",""475865""
""focus"",""19"",""485282""
","""event"",""trial"",""time""
""blur"",""19"",""475865""
","""event"",""trial"",""time""
""focus"",""19"",""485282""
","""event"",""trial"",""time""
""fullscreenenter"",""1"",""11084""
","
","","","647","","","21","5950","3516","&#9733;","elianto","#3366ff99","-1"," ","0","+10","[1496.9999999997672]","1","1","","","5950","20","2","2","win","no-go","1"
"pit-instructions","141","1490557","0.0-24.0","battery-v0.2","","""event"",""trial"",""time""
""fullscreenenter"",""1"",""11084""
""blur"",""19"",""475865""
""focus"",""19"",""485282""
","""event"",""trial"",""time""
""blur"",""19"",""475865""
","""event"",""trial"",""time""
""focus"",""19"",""485282""
","""event"",""trial"",""time""
""fullscreenenter"",""1"",""11084""
","
","","[{""page_index"":0,""viewing_time"":5866},{""page_index"":1,""viewing_time"":54850}]","60746","","","","","","","","","","","","","","","","","","","","","","","",""
"pit-trial","142","1495466","0.0-25.0","battery-v0.2","","""event"",""trial"",""time""
""fullscreenenter"",""1"",""11084""
""blur"",""19"",""475865""
""focus"",""19"",""485282""
","""event"",""trial"",""time""
""blur"",""19"",""475865""
","""event"",""trial"",""time""
""focus"",""19"",""485282""
","""event"",""trial"",""time""
""fullscreenenter"",""1"",""11084""
","
","","","-1","","","21","5950","3516","e","elianto","#f73b6a7A"," ","-1","0","-10","[]","0","2","","","5950","21","2","3","lose","go","0"
"pit-trial","143","1500321","0.0-26.0","battery-v0.2","","""event"",""trial"",""time""
""fullscreenenter"",""1"",""11084""
""blur"",""19"",""475865""
""focus"",""19"",""485282""
","""event"",""trial"",""time""
""blur"",""19"",""475865""
","""event"",""trial"",""time""
""focus"",""19"",""485282""
","""event"",""trial"",""time""
""fullscreenenter"",""1"",""11084""
","
","","","-1","","","21","5950","3516","j","elianto","#f73b6a7A"," ","-1","0","-10","[]","0","2","","","5950","22","0","3","lose","go","0"
"pit-trial","144","1505176","0.0-27.0","battery-v0.2","","""event"",""trial"",""time""
""fullscreenenter"",""1"",""11084""
""blur"",""19"",""475865""
""focus"",""19"",""485282""
","""event"",""trial"",""time""
""blur"",""19"",""475865""
","""event"",""trial"",""time""
""focus"",""19"",""485282""
","""event"",""trial"",""time""
""fullscreenenter"",""1"",""11084""
","
","","","-1","","","21","5950","3516","w","elianto","#f73b6a7A","-1","-1","1","0","[]","0","2","","","5950","23","3","4","lose","no-go","0"
"pit-trial","145","1509231","0.0-28.0","battery-v0.2","","""event"",""trial"",""time""
""fullscreenenter"",""1"",""11084""
""blur"",""19"",""475865""
""focus"",""19"",""485282""
","""event"",""trial"",""time""
""blur"",""19"",""475865""
","""event"",""trial"",""time""
""focus"",""19"",""485282""
","""event"",""trial"",""time""
""fullscreenenter"",""1"",""11084""
","
","","","1202","","","21","5950","3516","d","elianto","#3366ff99","-1"," ","0","0","[2046]","1","2","","","5950","24","1","2","win","no-go","0"
"pit-trial","146","1513055","0.0-29.0","battery-v0.2","","""event"",""trial"",""time""
""fullscreenenter"",""1"",""11084""
""blur"",""19"",""475865""
""focus"",""19"",""485282""
","""event"",""trial"",""time""
""blur"",""19"",""475865""
","""event"",""trial"",""time""
""focus"",""19"",""485282""
","""event"",""trial"",""time""
""fullscreenenter"",""1"",""11084""
","
","","","970","","","21","5950","3516","j","elianto","#f73b6a7A"," "," ","1","0","[1820]","1","2","","","5950","25","0","3","lose","go","0"
"pit-trial","147","1516462","0.0-30.0","battery-v0.2","","""event"",""trial"",""time""
""fullscreenenter"",""1"",""11084""
""blur"",""19"",""475865""
""focus"",""19"",""485282""
","""event"",""trial"",""time""
""blur"",""19"",""475865""
","""event"",""trial"",""time""
""focus"",""19"",""485282""
","""event"",""trial"",""time""
""fullscreenenter"",""1"",""11084""
","
","","","553","","","21","5950","3516","e","elianto","#f73b6a7A"," "," ","1","0","[1403]","1","2","","","5950","26","2","3","lose","go","0"
"pit-trial","148","1520213","0.0-31.0","battery-v0.2","","""event"",""trial"",""time""
""fullscreenenter"",""1"",""11084""
""blur"",""19"",""475865""
""focus"",""19"",""485282""
","""event"",""trial"",""time""
""blur"",""19"",""475865""
","""event"",""trial"",""time""
""focus"",""19"",""485282""
","""event"",""trial"",""time""
""fullscreenenter"",""1"",""11084""
","
","","","889","","","21","5950","3516","d","elianto","#3366ff99","-1"," ","0","0","[1740]","1","2","","","5950","27","1","2","win","no-go","0"
"pit-trial","149","1524225","0.0-32.0","battery-v0.2","","""event"",""trial"",""time""
""fullscreenenter"",""1"",""11084""
""blur"",""19"",""475865""
""focus"",""19"",""485282""
","""event"",""trial"",""time""
""blur"",""19"",""475865""
","""event"",""trial"",""time""
""focus"",""19"",""485282""
","""event"",""trial"",""time""
""fullscreenenter"",""1"",""11084""
","
","","","1151","","","21","5950","3516","w","elianto","#f73b6a7A","-1"," ","0","-10","[2003]","1","2","","","5950","28","3","4","lose","no-go","0"
"pit-trial","150","1527711","0.0-33.0","battery-v0.2","","""event"",""trial"",""time""
""fullscreenenter"",""1"",""11084""
""blur"",""19"",""475865""
""focus"",""19"",""485282""
","""event"",""trial"",""time""
""blur"",""19"",""475865""
","""event"",""trial"",""time""
""focus"",""19"",""485282""
","""event"",""trial"",""time""
""fullscreenenter"",""1"",""11084""
","
","","","624","","","21","5950","3516","e","elianto","#f73b6a7A"," "," ","1","0","[1475]","1","2","","","5950","29","2","3","lose","go","0"
"pit-trial","151","1532565","0.0-34.0","battery-v0.2","","""event"",""trial"",""time""
""fullscreenenter"",""1"",""11084""
""blur"",""19"",""475865""
""focus"",""19"",""485282""
","""event"",""trial"",""time""
""blur"",""19"",""475865""
","""event"",""trial"",""time""
""focus"",""19"",""485282""
","""event"",""trial"",""time""
""fullscreenenter"",""1"",""11084""
","
","","","-1","","","21","5950","3516","d","elianto","#3366ff99","-1","-1","1","+10","[]","0","2","","","5950","30","1","2","win","no-go","0"
"pit-trial","152","1536762","0.0-35.0","battery-v0.2","","""event"",""trial"",""time""
""fullscreenenter"",""1"",""11084""
""blur"",""19"",""475865""
""focus"",""19"",""485282""
","""event"",""trial"",""time""
""blur"",""19"",""475865""
","""event"",""trial"",""time""
""focus"",""19"",""485282""
","""event"",""trial"",""time""
""fullscreenenter"",""1"",""11084""
","
","","","1341","","","21","5950","3516","j","elianto","#f73b6a7A"," "," ","1","0","[2191]","1","2","","","5950","31","0","3","lose","go","0"
"pit-trial","153","1541617","0.0-36.0","battery-v0.2","","""event"",""trial"",""time""
""fullscreenenter"",""1"",""11084""
""blur"",""19"",""475865""
""focus"",""19"",""485282""
","""event"",""trial"",""time""
""blur"",""19"",""475865""
","""event"",""trial"",""time""
""focus"",""19"",""485282""
","""event"",""trial"",""time""
""fullscreenenter"",""1"",""11084""
","
","","","-1","","","21","5950","3516","w","elianto","#f73b6a7A","-1","-1","1","0","[]","0","2","","","5950","32","3","4","lose","no-go","0"
"pit-trial","154","1546472","0.0-37.0","battery-v0.2","","""event"",""trial"",""time""
""fullscreenenter"",""1"",""11084""
""blur"",""19"",""475865""
""focus"",""19"",""485282""
","""event"",""trial"",""time""
""blur"",""19"",""475865""
","""event"",""trial"",""time""
""focus"",""19"",""485282""
","""event"",""trial"",""time""
""fullscreenenter"",""1"",""11084""
","
","","","-1","","","21","5950","3516","w","elianto","#f73b6a7A","-1","-1","1","0","[]","0","2","","","5950","33","3","4","lose","no-go","0"
"pit-trial","155","1551327","0.0-38.0","battery-v0.2","","""event"",""trial"",""time""
""fullscreenenter"",""1"",""11084""
""blur"",""19"",""475865""
""focus"",""19"",""485282""
","""event"",""trial"",""time""
""blur"",""19"",""475865""
","""event"",""trial"",""time""
""focus"",""19"",""485282""
","""event"",""trial"",""time""
""fullscreenenter"",""1"",""11084""
","
","","","-1","","","21","5950","3516","d","elianto","#3366ff99","-1","-1","1","+10","[]","0","2","","","5950","34","1","2","win","no-go","0"
"pit-trial","156","1554821","0.0-39.0","battery-v0.2","","""event"",""trial"",""time""
""fullscreenenter"",""1"",""11084""
""blur"",""19"",""475865""
""focus"",""19"",""485282""
","""event"",""trial"",""time""
""blur"",""19"",""475865""
","""event"",""trial"",""time""
""focus"",""19"",""485282""
","""event"",""trial"",""time""
""fullscreenenter"",""1"",""11084""
","
","","","638","","","21","5950","3516","e","elianto","#f73b6a7A"," "," ","1","-10","[1489]","1","2","","","5950","35","2","3","lose","go","1"
"pit-trial","157","1558264","0.0-40.0","battery-v0.2","","""event"",""trial"",""time""
""fullscreenenter"",""1"",""11084""
""blur"",""19"",""475865""
""focus"",""19"",""485282""
","""event"",""trial"",""time""
""blur"",""19"",""475865""
","""event"",""trial"",""time""
""focus"",""19"",""485282""
","""event"",""trial"",""time""
""fullscreenenter"",""1"",""11084""
","
","","","589","","","21","5950","3516","j","elianto","#f73b6a7A"," "," ","1","0","[1440]","1","2","","","5950","36","0","3","lose","go","0"
"pit-trial","158","1561867","0.0-41.0","battery-v0.2","","""event"",""trial"",""time""
""fullscreenenter"",""1"",""11084""
""blur"",""19"",""475865""
""focus"",""19"",""485282""
","""event"",""trial"",""time""
""blur"",""19"",""475865""
","""event"",""trial"",""time""
""focus"",""19"",""485282""
","""event"",""trial"",""time""
""fullscreenenter"",""1"",""11084""
","
","","","749","","","21","5950","3516","j","elianto","#f73b6a7A"," "," ","1","0","[1600]","1","2","","","5950","37","0","3","lose","go","0"
"pit-trial","159","1566723","0.0-42.0","battery-v0.2","","""event"",""trial"",""time""
""fullscreenenter"",""1"",""11084""
""blur"",""19"",""475865""
""focus"",""19"",""485282""
","""event"",""trial"",""time""
""blur"",""19"",""475865""
","""event"",""trial"",""time""
""focus"",""19"",""485282""
","""event"",""trial"",""time""
""fullscreenenter"",""1"",""11084""
","
","","","-1","","","21","5950","3516","d","elianto","#3366ff99","-1","-1","1","+10","[]","0","2","","","5950","38","1","2","win","no-go","0"
"pit-trial","160","1570495","0.0-43.0","battery-v0.2","","""event"",""trial"",""time""
""fullscreenenter"",""1"",""11084""
""blur"",""19"",""475865""
""focus"",""19"",""485282""
","""event"",""trial"",""time""
""blur"",""19"",""475865""
","""event"",""trial"",""time""
""focus"",""19"",""485282""
","""event"",""trial"",""time""
""fullscreenenter"",""1"",""11084""
","
","","","918","","","21","5950","3516","e","elianto","#f73b6a7A"," "," ","1","-10","[1767.9999999997672]","1","2","","","5950","39","2","3","lose","go","1"
"pit-trial","161","1575350","0.0-44.0","battery-v0.2","","""event"",""trial"",""time""
""fullscreenenter"",""1"",""11084""
""blur"",""19"",""475865""
""focus"",""19"",""485282""
","""event"",""trial"",""time""
""blur"",""19"",""475865""
","""event"",""trial"",""time""
""focus"",""19"",""485282""
","""event"",""trial"",""time""
""fullscreenenter"",""1"",""11084""
","
","","","-1","","","21","5950","3516","w","elianto","#f73b6a7A","-1","-1","1","0","[]","0","2","","","5950","40","3","4","lose","no-go","0"
"pit-trial","162","1578750","0.0-45.0","battery-v0.2","","""event"",""trial"",""time""
""fullscreenenter"",""1"",""11084""
""blur"",""19"",""475865""
""focus"",""19"",""485282""
","""event"",""trial"",""time""
""blur"",""19"",""475865""
","""event"",""trial"",""time""
""focus"",""19"",""485282""
","""event"",""trial"",""time""
""fullscreenenter"",""1"",""11084""
","
","","","546","","","21","5950","3516","e","elianto","#f73b6a7A"," "," ","1","0","[1396]","1","2","","","5950","41","2","3","lose","go","0"
"pit-trial","163","1583606","0.0-46.0","battery-v0.2","","""event"",""trial"",""time""
""fullscreenenter"",""1"",""11084""
""blur"",""19"",""475865""
""focus"",""19"",""485282""
","""event"",""trial"",""time""
""blur"",""19"",""475865""
","""event"",""trial"",""time""
""focus"",""19"",""485282""
","""event"",""trial"",""time""
""fullscreenenter"",""1"",""11084""
","
","","","-1","","","21","5950","3516","w","elianto","#f73b6a7A","-1","-1","1","0","[]","0","2","","","5950","42","3","4","lose","no-go","0"
"pit-trial","164","1587164","0.0-47.0","battery-v0.2","","""event"",""trial"",""time""
""fullscreenenter"",""1"",""11084""
""blur"",""19"",""475865""
""focus"",""19"",""485282""
","""event"",""trial"",""time""
""blur"",""19"",""475865""
","""event"",""trial"",""time""
""focus"",""19"",""485282""
","""event"",""trial"",""time""
""fullscreenenter"",""1"",""11084""
","
","","","703","","","21","5950","3516","j","elianto","#f73b6a7A"," "," ","1","0","[1554]","1","2","","","5950","43","0","3","lose","go","0"
"pit-trial","165","1592019","0.0-48.0","battery-v0.2","","""event"",""trial"",""time""
""fullscreenenter"",""1"",""11084""
""blur"",""19"",""475865""
""focus"",""19"",""485282""
","""event"",""trial"",""time""
""blur"",""19"",""475865""
","""event"",""trial"",""time""
""focus"",""19"",""485282""
","""event"",""trial"",""time""
""fullscreenenter"",""1"",""11084""
","
","","","-1","","","21","5950","3516","d","elianto","#3366ff99","-1","-1","1","+10","[]","0","2","","","5950","44","1","2","win","no-go","0"
"pit-trial","166","1596874","0.0-49.0","battery-v0.2","","""event"",""trial"",""time""
""fullscreenenter"",""1"",""11084""
""blur"",""19"",""475865""
""focus"",""19"",""485282""
","""event"",""trial"",""time""
""blur"",""19"",""475865""
","""event"",""trial"",""time""
""focus"",""19"",""485282""
","""event"",""trial"",""time""
""fullscreenenter"",""1"",""11084""
","
","","","-1","","","21","5950","3516","d","elianto","#3366ff99","-1","-1","1","+10","[]","0","2","","","5950","45","1","2","win","no-go","0"
"pit-trial","167","1600430","0.0-50.0","battery-v0.2","","""event"",""trial"",""time""
""fullscreenenter"",""1"",""11084""
""blur"",""19"",""475865""
""focus"",""19"",""485282""
","""event"",""trial"",""time""
""blur"",""19"",""475865""
","""event"",""trial"",""time""
""focus"",""19"",""485282""
","""event"",""trial"",""time""
""fullscreenenter"",""1"",""11084""
","
","","","702.9999999997672","","","21","5950","3516","j","elianto","#f73b6a7A"," "," ","1","0","[1553]","1","2","","","5950","46","0","3","lose","go","0"
"pit-trial","168","1603983","0.0-51.0","battery-v0.2","","""event"",""trial"",""time""
""fullscreenenter"",""1"",""11084""
""blur"",""19"",""475865""
""focus"",""19"",""485282""
","""event"",""trial"",""time""
""blur"",""19"",""475865""
","""event"",""trial"",""time""
""focus"",""19"",""485282""
","""event"",""trial"",""time""
""fullscreenenter"",""1"",""11084""
","
","","","698","","","21","5950","3516","e","elianto","#f73b6a7A"," "," ","1","0","[1548]","1","2","","","5950","47","2","3","lose","go","0"
"pit-trial","169","1608840","0.0-52.0","battery-v0.2","","""event"",""trial"",""time""
""fullscreenenter"",""1"",""11084""
""blur"",""19"",""475865""
""focus"",""19"",""485282""
","""event"",""trial"",""time""
""blur"",""19"",""475865""
","""event"",""trial"",""time""
""focus"",""19"",""485282""
","""event"",""trial"",""time""
""fullscreenenter"",""1"",""11084""
","
","","","-1","","","21","5950","3516","w","elianto","#f73b6a7A","-1","-1","1","0","[]","0","2","","","5950","48","3","4","lose","no-go","0"
"pit-trial","170","1613696","0.0-53.0","battery-v0.2","","""event"",""trial"",""time""
""fullscreenenter"",""1"",""11084""
""blur"",""19"",""475865""
""focus"",""19"",""485282""
","""event"",""trial"",""time""
""blur"",""19"",""475865""
","""event"",""trial"",""time""
""focus"",""19"",""485282""
","""event"",""trial"",""time""
""fullscreenenter"",""1"",""11084""
","
","","","-1","","","21","5950","3516","d","elianto","#3366ff99","-1","-1","1","+10","[]","0","2","","","5950","49","1","2","win","no-go","0"
"pit-trial","171","1617198","0.0-54.0","battery-v0.2","","""event"",""trial"",""time""
""fullscreenenter"",""1"",""11084""
""blur"",""19"",""475865""
""focus"",""19"",""485282""
","""event"",""trial"",""time""
""blur"",""19"",""475865""
","""event"",""trial"",""time""
""focus"",""19"",""485282""
","""event"",""trial"",""time""
""fullscreenenter"",""1"",""11084""
","
","","","649.0000000002328","","","21","5950","3516","j","elianto","#f73b6a7A"," "," ","1","0","[1499.0000000002328]","1","2","","","5950","50","0","3","lose","go","0"
"pit-trial","172","1620751","0.0-55.0","battery-v0.2","","""event"",""trial"",""time""
""fullscreenenter"",""1"",""11084""
""blur"",""19"",""475865""
""focus"",""19"",""485282""
","""event"",""trial"",""time""
""blur"",""19"",""475865""
","""event"",""trial"",""time""
""focus"",""19"",""485282""
","""event"",""trial"",""time""
""fullscreenenter"",""1"",""11084""
","
","","","698","","","21","5950","3516","e","elianto","#f73b6a7A"," "," ","1","0","[1549]","1","2","","","5950","51","2","3","lose","go","0"
"pit-trial","173","1625607","0.0-56.0","battery-v0.2","","""event"",""trial"",""time""
""fullscreenenter"",""1"",""11084""
""blur"",""19"",""475865""
""focus"",""19"",""485282""
","""event"",""trial"",""time""
""blur"",""19"",""475865""
","""event"",""trial"",""time""
""focus"",""19"",""485282""
","""event"",""trial"",""time""
""fullscreenenter"",""1"",""11084""
","
","","","-1","","","21","5950","3516","w","elianto","#f73b6a7A","-1","-1","1","-10","[]","0","2","","","5950","52","3","4","lose","no-go","1"
"pit-trial","174","1629062","0.0-57.0","battery-v0.2","","""event"",""trial"",""time""
""fullscreenenter"",""1"",""11084""
""blur"",""19"",""475865""
""focus"",""19"",""485282""
","""event"",""trial"",""time""
""blur"",""19"",""475865""
","""event"",""trial"",""time""
""focus"",""19"",""485282""
","""event"",""trial"",""time""
""fullscreenenter"",""1"",""11084""
","
","","","599","","","21","5950","3516","e","elianto","#f73b6a7A"," "," ","1","-10","[1449.9999999997672]","1","2","","","5950","53","2","3","lose","go","1"
"pit-trial","175","1633916","0.0-58.0","battery-v0.2","","""event"",""trial"",""time""
""fullscreenenter"",""1"",""11084""
""blur"",""19"",""475865""
""focus"",""19"",""485282""
","""event"",""trial"",""time""
""blur"",""19"",""475865""
","""event"",""trial"",""time""
""focus"",""19"",""485282""
","""event"",""trial"",""time""
""fullscreenenter"",""1"",""11084""
","
","","","-1","","","21","5950","3516","w","elianto","#f73b6a7A","-1","-1","1","0","[]","0","2","","","5950","54","3","4","lose","no-go","0"
"pit-trial","176","1638772","0.0-59.0","battery-v0.2","","""event"",""trial"",""time""
""fullscreenenter"",""1"",""11084""
""blur"",""19"",""475865""
""focus"",""19"",""485282""
","""event"",""trial"",""time""
""blur"",""19"",""475865""
","""event"",""trial"",""time""
""focus"",""19"",""485282""
","""event"",""trial"",""time""
""fullscreenenter"",""1"",""11084""
","
","","","-1","","","21","5950","3516","d","elianto","#3366ff99","-1","-1","1","+10","[]","0","2","","","5950","55","1","2","win","no-go","0"
"pit-trial","177","1642203","0.0-60.0","battery-v0.2","","""event"",""trial"",""time""
""fullscreenenter"",""1"",""11084""
""blur"",""19"",""475865""
""focus"",""19"",""485282""
","""event"",""trial"",""time""
""blur"",""19"",""475865""
","""event"",""trial"",""time""
""focus"",""19"",""485282""
","""event"",""trial"",""time""
""fullscreenenter"",""1"",""11084""
","
","","","575","","","21","5950","3516","j","elianto","#f73b6a7A"," "," ","1","-10","[1425]","1","2","","","5950","56","0","3","lose","go","1"
"pit-trial","178","1647057","0.0-61.0","battery-v0.2","","""event"",""trial"",""time""
""fullscreenenter"",""1"",""11084""
""blur"",""19"",""475865""
""focus"",""19"",""485282""
","""event"",""trial"",""time""
""blur"",""19"",""475865""
","""event"",""trial"",""time""
""focus"",""19"",""485282""
","""event"",""trial"",""time""
""fullscreenenter"",""1"",""11084""
","
","","","-1","","","21","5950","3516","w","elianto","#f73b6a7A","-1","-1","1","-10","[]","0","2","","","5950","57","3","4","lose","no-go","1"
"pit-trial","179","1651912","0.0-62.0","battery-v0.2","","""event"",""trial"",""time""
""fullscreenenter"",""1"",""11084""
""blur"",""19"",""475865""
""focus"",""19"",""485282""
","""event"",""trial"",""time""
""blur"",""19"",""475865""
","""event"",""trial"",""time""
""focus"",""19"",""485282""
","""event"",""trial"",""time""
""fullscreenenter"",""1"",""11084""
","
","","","-1","","","21","5950","3516","s","elianto","#3366ff99"," ","-1","0","0","[]","0","2","","","5950","58","4","1","win","go","0"
"pit-trial","180","1655428","0.0-63.0","battery-v0.2","","""event"",""trial"",""time""
""fullscreenenter"",""1"",""11084""
""blur"",""19"",""475865""
""focus"",""19"",""485282""
","""event"",""trial"",""time""
""blur"",""19"",""475865""
","""event"",""trial"",""time""
""focus"",""19"",""485282""
","""event"",""trial"",""time""
""fullscreenenter"",""1"",""11084""
","
","","","661","","","21","5950","3516","e","elianto","#f73b6a7A"," "," ","1","-10","[1512]","1","2","","","5950","59","2","3","lose","go","1"
"pit-trial","181","1659277","0.0-64.0","battery-v0.2","","""event"",""trial"",""time""
""fullscreenenter"",""1"",""11084""
""blur"",""19"",""475865""
""focus"",""19"",""485282""
","""event"",""trial"",""time""
""blur"",""19"",""475865""
","""event"",""trial"",""time""
""focus"",""19"",""485282""
","""event"",""trial"",""time""
""fullscreenenter"",""1"",""11084""
","
","","","994","","","21","5950","3516","j","elianto","#f73b6a7A"," "," ","1","-10","[1845]","1","2","","","5950","60","0","3","lose","go","1"
"pit-trial","182","1662715","0.0-65.0","battery-v0.2","","""event"",""trial"",""time""
""fullscreenenter"",""1"",""11084""
""blur"",""19"",""475865""
""focus"",""19"",""485282""
","""event"",""trial"",""time""
""blur"",""19"",""475865""
","""event"",""trial"",""time""
""focus"",""19"",""485282""
","""event"",""trial"",""time""
""fullscreenenter"",""1"",""11084""
","
","","","583.9999999997672","","","21","5950","3516","s","elianto","#3366ff99"," "," ","1","+10","[1434]","1","2","","","5950","61","4","1","win","go","0"
"pit-trial","183","1667571","0.0-66.0","battery-v0.2","","""event"",""trial"",""time""
""fullscreenenter"",""1"",""11084""
""blur"",""19"",""475865""
""focus"",""19"",""485282""
","""event"",""trial"",""time""
""blur"",""19"",""475865""
","""event"",""trial"",""time""
""focus"",""19"",""485282""
","""event"",""trial"",""time""
""fullscreenenter"",""1"",""11084""
","
","","","-1","","","21","5950","3516","e","elianto","#f73b6a7A"," ","-1","0","-10","[]","0","2","","","5950","62","2","3","lose","go","0"
"pit-trial","184","1670863","0.0-67.0","battery-v0.2","","""event"",""trial"",""time""
""fullscreenenter"",""1"",""11084""
""blur"",""19"",""475865""
""focus"",""19"",""485282""
","""event"",""trial"",""time""
""blur"",""19"",""475865""
","""event"",""trial"",""time""
""focus"",""19"",""485282""
","""event"",""trial"",""time""
""fullscreenenter"",""1"",""11084""
","
","","","436","","","21","5950","3516","w","elianto","#f73b6a7A","-1"," ","0","0","[1287]","1","2","","","5950","63","3","4","lose","no-go","1"
"pit-trial","185","1675718","0.0-68.0","battery-v0.2","","""event"",""trial"",""time""
""fullscreenenter"",""1"",""11084""
""blur"",""19"",""475865""
""focus"",""19"",""485282""
","""event"",""trial"",""time""
""blur"",""19"",""475865""
","""event"",""trial"",""time""
""focus"",""19"",""485282""
","""event"",""trial"",""time""
""fullscreenenter"",""1"",""11084""
","
","","","-1","","","21","5950","3516","d","elianto","#3366ff99","-1","-1","1","+10","[]","0","2","","","5950","64","1","2","win","no-go","0"
"pit-trial","186","1679156","0.0-69.0","battery-v0.2","","""event"",""trial"",""time""
""fullscreenenter"",""1"",""11084""
""blur"",""19"",""475865""
""focus"",""19"",""485282""
","""event"",""trial"",""time""
""blur"",""19"",""475865""
","""event"",""trial"",""time""
""focus"",""19"",""485282""
","""event"",""trial"",""time""
""fullscreenenter"",""1"",""11084""
","
","","","583.9999999997672","","","21","5950","3516","s","elianto","#3366ff99"," "," ","1","+10","[1434]","1","2","","","5950","65","4","1","win","go","0"
"pit-trial","187","1684010","0.0-70.0","battery-v0.2","","""event"",""trial"",""time""
""fullscreenenter"",""1"",""11084""
""blur"",""19"",""475865""
""focus"",""19"",""485282""
","""event"",""trial"",""time""
""blur"",""19"",""475865""
","""event"",""trial"",""time""
""focus"",""19"",""485282""
","""event"",""trial"",""time""
""fullscreenenter"",""1"",""11084""
","
","","","-1","","","21","5950","3516","d","elianto","#3366ff99","-1","-1","1","+10","[]","0","2","","","5950","66","1","2","win","no-go","0"
"pit-trial","188","1688116","0.0-71.0","battery-v0.2","","""event"",""trial"",""time""
""fullscreenenter"",""1"",""11084""
""blur"",""19"",""475865""
""focus"",""19"",""485282""
","""event"",""trial"",""time""
""blur"",""19"",""475865""
","""event"",""trial"",""time""
""focus"",""19"",""485282""
","""event"",""trial"",""time""
""fullscreenenter"",""1"",""11084""
","
","","","1251","","","21","5950","3516","w","elianto","#f73b6a7A","-1"," ","0","-10","[2102]","1","2","","","5950","67","3","4","lose","no-go","0"
"pit-trial","189","1692022","0.0-72.0","battery-v0.2","","""event"",""trial"",""time""
""fullscreenenter"",""1"",""11084""
""blur"",""19"",""475865""
""focus"",""19"",""485282""
","""event"",""trial"",""time""
""blur"",""19"",""475865""
","""event"",""trial"",""time""
""focus"",""19"",""485282""
","""event"",""trial"",""time""
""fullscreenenter"",""1"",""11084""
","
","","","1052","","","21","5950","3516","p","elianto","#3366ff99","-1"," ","0","0","[1902]","1","2","","","5950","68","5","2","win","no-go","0"
"pit-trial","190","1696342","0.0-73.0","battery-v0.2","","""event"",""trial"",""time""
""fullscreenenter"",""1"",""11084""
""blur"",""19"",""475865""
""focus"",""19"",""485282""
","""event"",""trial"",""time""
""blur"",""19"",""475865""
","""event"",""trial"",""time""
""focus"",""19"",""485282""
","""event"",""trial"",""time""
""fullscreenenter"",""1"",""11084""
","
","","","1466.0000000002328","","","21","5950","3516","e","elianto","#f73b6a7A"," "," ","1","-10","[2317]","1","2","","","5950","69","2","3","lose","go","1"
"pit-trial","191","1699824","0.0-74.0","battery-v0.2","","""event"",""trial"",""time""
""fullscreenenter"",""1"",""11084""
""blur"",""19"",""475865""
""focus"",""19"",""485282""
","""event"",""trial"",""time""
""blur"",""19"",""475865""
","""event"",""trial"",""time""
""focus"",""19"",""485282""
","""event"",""trial"",""time""
""fullscreenenter"",""1"",""11084""
","
","","","627.0000000002328","","","21","5950","3516","s","elianto","#3366ff99"," "," ","1","+10","[1478.0000000002328]","1","2","","","5950","70","4","1","win","go","0"
