"trial_type","trial_index","time_elapsed","internal_node_id","task_version","subject_id","interactions","blur_events","focus_events","fullscreenenter_events","fullscreenexit_events","success","view_history","rt","responses","num_errors","age","subject","participantId","rune","rune_set","hex","correct","choice","accuracy","outcome","keys","total_keys","block","practice","value","sub","trial","stimulus","robot","valence","action","sham"
"pavlovia","0","7","0.0-0.0","battery-v0.2","","""event"",""trial"",""time""
""fullscreenenter"",""1"",""1413""
","
","
","""event"",""trial"",""time""
""fullscreenenter"",""1"",""1413""
","
","","","","","","","","","","","","","","","","","","","","","","","","","","",""
"fullscreen","1","2364","0.0-1.0","battery-v0.2","","""event"",""trial"",""time""
""fullscreenenter"",""1"",""1413""
","
","
","""event"",""trial"",""time""
""fullscreenenter"",""1"",""1413""
","
","true","","","","","","","","","","","","","","","","","","","","","","","","","",""
"pit-instructions","2","6114","0.0-2.0-0.0","battery-v0.2","","""event"",""trial"",""time""
""fullscreenenter"",""1"",""1413""
","
","
","""event"",""trial"",""time""
""fullscreenenter"",""1"",""1413""
","
","","[{""page_index"":0,""viewing_time"":3744.399999976158}]","3744.899999976158","","","","","","","","","","","","","","","","","","","","","","","",""
"pit-comprehension","3","10661","0.0-2.0-1.0-0.0","battery-v0.2","","""event"",""trial"",""time""
""fullscreenenter"",""1"",""1413""
","
","
","""event"",""trial"",""time""
""fullscreenenter"",""1"",""1413""
","
","","","4541.300000011921","[""shark""]","0","21","13773","5893","","","","","","","","","","","","","","","","","","",""
"pit-instructions","4","13143","0.0-2.0-1.0-1.0","battery-v0.2","","""event"",""trial"",""time""
""fullscreenenter"",""1"",""1413""
","
","
","""event"",""trial"",""time""
""fullscreenenter"",""1"",""1413""
","
","","[{""page_index"":0,""viewing_time"":2475.199999988079}]","2475.800000011921","","","","","","","","","","","","","","","","","","","","","","","",""
"pit-comprehension","5","15480","0.0-2.0-2.0-0.0","battery-v0.2","","""event"",""trial"",""time""
""fullscreenenter"",""1"",""1413""
","
","
","""event"",""trial"",""time""
""fullscreenenter"",""1"",""1413""
","
","","","2332.0999999940395","[""tiger""]","0","21","13773","5893","","","","","","","","","","","","","","","","","","",""
"pit-instructions","6","16728","0.0-2.0-2.0-1.0","battery-v0.2","","""event"",""trial"",""time""
""fullscreenenter"",""1"",""1413""
","
","
","""event"",""trial"",""time""
""fullscreenenter"",""1"",""1413""
","
","","[{""page_index"":0,""viewing_time"":1244.0999999940395}]","1244.5999999940395","","","","","","","","","","","","","","","","","","","","","","","",""
"pit-instructions","7","119845","0.0-2.0-3.0","battery-v0.2","","""event"",""trial"",""time""
""fullscreenenter"",""1"",""1413""
","
","
","""event"",""trial"",""time""
""fullscreenenter"",""1"",""1413""
","
","","[{""page_index"":0,""viewing_time"":10257.800000011921},{""page_index"":1,""viewing_time"":8279.399999976158},{""page_index"":2,""viewing_time"":6449.700000017881},{""page_index"":3,""viewing_time"":5925.799999982119},{""page_index"":4,""viewing_time"":6870},{""page_index"":5,""viewing_time"":7793.4000000059605},{""page_index"":6,""viewing_time"":7346.800000011921},{""page_index"":7,""viewing_time"":6735.299999982119},{""page_index"":8,""viewing_time"":8346.90000000596},{""page_index"":9,""viewing_time"":8706.59999999404},{""page_index"":10,""viewing_time"":7788.800000011921},{""page_index"":11,""viewing_time"":7284.699999988079},{""page_index"":12,""viewing_time"":6841},{""page_index"":13,""viewing_time"":4486.300000011921}]","103112.59999999404","","","","","","","","","","","","","","","","","","","","","","","",""
"pit-trial","8","123269","0.0-2.0-4.0-0.0","battery-v0.2","","""event"",""trial"",""time""
""fullscreenenter"",""1"",""1413""
","
","
","""event"",""trial"",""time""
""fullscreenenter"",""1"",""1413""
","
","","","569.2999999821186","","","21","13773","5893","&#9784;","elianto","#FFFFF080"," "," ","1","&#10004","[1420.0999999940395]","1","0","0","","","","","","","",""
"pit-trial","9","126702","0.0-2.0-4.1-0.1","battery-v0.2","","""event"",""trial"",""time""
""fullscreenenter"",""1"",""1413""
","
","
","""event"",""trial"",""time""
""fullscreenenter"",""1"",""1413""
","
","","","577.3999999761581","","","21","13773","5893","&#9784;","elianto","#FFFFF080"," "," ","1","&#10004","[1428]","1","0","0","","","","","","","",""
"pit-trial","10","130127","0.0-2.0-4.2-0.2","battery-v0.2","","""event"",""trial"",""time""
""fullscreenenter"",""1"",""1413""
","
","
","""event"",""trial"",""time""
""fullscreenenter"",""1"",""1413""
","
","","","571.3000000119209","","","21","13773","5893","&#9784;","elianto","#FFFFF080"," "," ","1","&#10004","[1421.300000011921]","1","0","0","","","","","","","",""
"pit-trial","11","133468","0.0-2.0-4.3-0.3","battery-v0.2","","""event"",""trial"",""time""
""fullscreenenter"",""1"",""1413""
","
","
","""event"",""trial"",""time""
""fullscreenenter"",""1"",""1413""
","
","","","487.19999998807907","","","21","13773","5893","&#9784;","elianto","#FFFFF080"," "," ","1","&#10004","[1337.800000011921]","1","0","0","","","","","","","",""
"pit-trial","12","136810","0.0-2.0-4.4-0.4","battery-v0.2","","""event"",""trial"",""time""
""fullscreenenter"",""1"",""1413""
","
","
","""event"",""trial"",""time""
""fullscreenenter"",""1"",""1413""
","
","","","485.5","","","21","13773","5893","&#9784;","elianto","#FFFFF080"," "," ","1","&#10004","[1336]","1","0","0","","","","","","","",""
"pit-instructions","13","158492","0.0-2.0-5.0","battery-v0.2","","""event"",""trial"",""time""
""fullscreenenter"",""1"",""1413""
","
","
","""event"",""trial"",""time""
""fullscreenenter"",""1"",""1413""
","
","","[{""page_index"":0,""viewing_time"":5659.300000011921},{""page_index"":1,""viewing_time"":6181},{""page_index"":2,""viewing_time"":4476.9000000059605},{""page_index"":3,""viewing_time"":5359.399999976158}]","21677.30000001192","","","","","","","","","","","","","","","","","","","","","","","",""
"pit-trial","14","163348","0.0-2.0-6.0-0.0","battery-v0.2","","""event"",""trial"",""time""
""fullscreenenter"",""1"",""1413""
","
","
","""event"",""trial"",""time""
""fullscreenenter"",""1"",""1413""
","
","","","-1","","","21","13773","5893","&#9854;","elianto","#FFFFF080","-1","-1","1","&#10004","[]","0","0","1","","","","","","","",""
"pit-trial","15","168203","0.0-2.0-6.1-0.1","battery-v0.2","","""event"",""trial"",""time""
""fullscreenenter"",""1"",""1413""
","
","
","""event"",""trial"",""time""
""fullscreenenter"",""1"",""1413""
","
","","","-1","","","21","13773","5893","&#9854;","elianto","#FFFFF080","-1","-1","1","&#10004","[]","0","0","1","","","","","","","",""
"pit-trial","16","173060","0.0-2.0-6.2-0.2","battery-v0.2","","""event"",""trial"",""time""
""fullscreenenter"",""1"",""1413""
","
","
","""event"",""trial"",""time""
""fullscreenenter"",""1"",""1413""
","
","","","-1","","","21","13773","5893","&#9854;","elianto","#FFFFF080","-1","-1","1","&#10004","[]","0","0","1","","","","","","","",""
"pit-trial","17","177915","0.0-2.0-6.3-0.3","battery-v0.2","","""event"",""trial"",""time""
""fullscreenenter"",""1"",""1413""
","
","
","""event"",""trial"",""time""
""fullscreenenter"",""1"",""1413""
","
","","","-1","","","21","13773","5893","&#9854;","elianto","#FFFFF080","-1","-1","1","&#10004","[]","0","0","1","","","","","","","",""
"pit-trial","18","182770","0.0-2.0-6.4-0.4","battery-v0.2","","""event"",""trial"",""time""
""fullscreenenter"",""1"",""1413""
","
","
","""event"",""trial"",""time""
""fullscreenenter"",""1"",""1413""
","
","","","-1","","","21","13773","5893","&#9854;","elianto","#FFFFF080","-1","-1","1","&#10004","[]","0","0","1","","","","","","","",""
"pit-instructions","19","297334","0.0-2.0-7.0","battery-v0.2","","""event"",""trial"",""time""
""fullscreenenter"",""1"",""1413""
","
","
","""event"",""trial"",""time""
""fullscreenenter"",""1"",""1413""
","
","","[{""page_index"":0,""viewing_time"":7128.5999999940395},{""page_index"":1,""viewing_time"":7030.199999988079},{""page_index"":2,""viewing_time"":5293.9000000059605},{""page_index"":3,""viewing_time"":5134.5},{""page_index"":4,""viewing_time"":6524.5},{""page_index"":5,""viewing_time"":6190.4000000059605},{""page_index"":6,""viewing_time"":4640.0999999940395},{""page_index"":7,""viewing_time"":7839.5},{""page_index"":8,""viewing_time"":6663},{""page_index"":9,""viewing_time"":5529.0999999940395},{""page_index"":10,""viewing_time"":6044.5},{""page_index"":11,""viewing_time"":4312.5},{""page_index"":12,""viewing_time"":8226.5},{""page_index"":13,""viewing_time"":6993.800000011921},{""page_index"":14,""viewing_time"":6746},{""page_index"":15,""viewing_time"":6451.799999982119},{""page_index"":16,""viewing_time"":6844.9000000059605},{""page_index"":17,""viewing_time"":6965.9000000059605}]","114559.89999997616","","","","","","","","","","","","","","","","","","","","","","","",""
"pit-trial","20","300798","0.0-2.0-8.0-0.0","battery-v0.2","","""event"",""trial"",""time""
""fullscreenenter"",""1"",""1413""
","
","
","""event"",""trial"",""time""
""fullscreenenter"",""1"",""1413""
","
","","","611.4000000059605","","","21","13773","5893","&#9776;","elianto","#3366ff99"," "," ","1","+10","[1461.5]","1","0","1","","","","","","","",""
"pit-trial","21","304165","0.0-2.0-8.0-1.0","battery-v0.2","","""event"",""trial"",""time""
""fullscreenenter"",""1"",""1413""
","
","
","""event"",""trial"",""time""
""fullscreenenter"",""1"",""1413""
","
","","","512.1999999880791","","","21","13773","5893","&#9776;","elianto","#3366ff99"," "," ","1","+10","[1362.5]","1","0","1","","","","","","","",""
"pit-trial","22","307454","0.0-2.0-8.0-2.0","battery-v0.2","","""event"",""trial"",""time""
""fullscreenenter"",""1"",""1413""
","
","
","""event"",""trial"",""time""
""fullscreenenter"",""1"",""1413""
","
","","","433","","","21","13773","5893","&#9776;","elianto","#3366ff99"," "," ","1","+10","[1283.2000000178814]","1","0","1","","","","","","","",""
"pit-trial","23","310760","0.0-2.0-8.0-3.0","battery-v0.2","","""event"",""trial"",""time""
""fullscreenenter"",""1"",""1413""
","
","
","""event"",""trial"",""time""
""fullscreenenter"",""1"",""1413""
","
","","","450.60000002384186","","","21","13773","5893","&#9776;","elianto","#3366ff99"," "," ","1","0","[1301.4000000059605]","1","0","1","","","","","","","",""
"pit-trial","24","314110","0.0-2.0-8.0-4.0","battery-v0.2","","""event"",""trial"",""time""
""fullscreenenter"",""1"",""1413""
","
","
","""event"",""trial"",""time""
""fullscreenenter"",""1"",""1413""
","
","","","494.40000000596046","","","21","13773","5893","&#9776;","elianto","#3366ff99"," "," ","1","+10","[1344.9000000059605]","1","0","1","","","","","","","",""
"pit-trial","25","317417","0.0-2.0-8.1-0.1","battery-v0.2","","""event"",""trial"",""time""
""fullscreenenter"",""1"",""1413""
","
","
","""event"",""trial"",""time""
""fullscreenenter"",""1"",""1413""
","
","","","453","","","21","13773","5893","&#9776;","elianto","#3366ff99"," "," ","1","+10","[1303.199999988079]","1","0","1","","","","","","","",""
"pit-trial","26","320741","0.0-2.0-8.1-1.1","battery-v0.2","","""event"",""trial"",""time""
""fullscreenenter"",""1"",""1413""
","
","
","""event"",""trial"",""time""
""fullscreenenter"",""1"",""1413""
","
","","","469.5","","","21","13773","5893","&#9776;","elianto","#3366ff99"," "," ","1","+10","[1319.5]","1","0","1","","","","","","","",""
"pit-trial","27","324071","0.0-2.0-8.1-2.1","battery-v0.2","","""event"",""trial"",""time""
""fullscreenenter"",""1"",""1413""
","
","
","""event"",""trial"",""time""
""fullscreenenter"",""1"",""1413""
","
","","","473","","","21","13773","5893","&#9776;","elianto","#3366ff99"," "," ","1","+10","[1323.9000000059605]","1","0","1","","","","","","","",""
"pit-trial","28","327348","0.0-2.0-8.1-3.1","battery-v0.2","","""event"",""trial"",""time""
""fullscreenenter"",""1"",""1413""
","
","
","""event"",""trial"",""time""
""fullscreenenter"",""1"",""1413""
","
","","","422.09999999403954","","","21","13773","5893","&#9776;","elianto","#3366ff99"," "," ","1","0","[1272.4000000059605]","1","0","1","","","","","","","",""
"pit-trial","29","330456","0.0-2.0-8.1-4.1","battery-v0.2","","""event"",""trial"",""time""
""fullscreenenter"",""1"",""1413""
","
","
","""event"",""trial"",""time""
""fullscreenenter"",""1"",""1413""
","
","","","252.30000001192093","","","21","13773","5893","&#9776;","elianto","#3366ff99"," "," ","1","+10","[1102.800000011921]","1","0","1","","","","","","","",""
"pit-trial","30","333666","0.0-2.0-8.2-0.2","battery-v0.2","","""event"",""trial"",""time""
""fullscreenenter"",""1"",""1413""
","
","
","""event"",""trial"",""time""
""fullscreenenter"",""1"",""1413""
","
","","","354.5","","","21","13773","5893","&#9776;","elianto","#3366ff99"," "," ","1","+10","[1205.5999999940395]","1","0","1","","","","","","","",""
"pit-trial","31","336841","0.0-2.0-8.2-1.2","battery-v0.2","","""event"",""trial"",""time""
""fullscreenenter"",""1"",""1413""
","
","
","""event"",""trial"",""time""
""fullscreenenter"",""1"",""1413""
","
","","","319.7000000178814","","","21","13773","5893","&#9776;","elianto","#3366ff99"," "," ","1","+10","[1169.8999999761581]","1","0","1","","","","","","","",""
"pit-trial","32","340153","0.0-2.0-8.2-2.2","battery-v0.2","","""event"",""trial"",""time""
""fullscreenenter"",""1"",""1413""
","
","
","""event"",""trial"",""time""
""fullscreenenter"",""1"",""1413""
","
","","","457.10000002384186","","","21","13773","5893","&#9776;","elianto","#3366ff99"," "," ","1","+10","[1307.699999988079]","1","0","1","","","","","","","",""
"pit-trial","33","343413","0.0-2.0-8.2-3.2","battery-v0.2","","""event"",""trial"",""time""
""fullscreenenter"",""1"",""1413""
","
","
","""event"",""trial"",""time""
""fullscreenenter"",""1"",""1413""
","
","","","405.7000000178814","","","21","13773","5893","&#9776;","elianto","#3366ff99"," "," ","1","0","[1256.0999999940395]","1","0","1","","","","","","","",""
"pit-trial","34","346855","0.0-2.0-8.2-4.2","battery-v0.2","","""event"",""trial"",""time""
""fullscreenenter"",""1"",""1413""
","
","
","""event"",""trial"",""time""
""fullscreenenter"",""1"",""1413""
","
","","","588","","","21","13773","5893","&#9776;","elianto","#3366ff99"," "," ","1","+10","[1438.199999988079]","1","0","1","","","","","","","",""
"call-function","35","346859","0.0-2.0-9.0","battery-v0.2","","""event"",""trial"",""time""
""fullscreenenter"",""1"",""1413""
","
","
","""event"",""trial"",""time""
""fullscreenenter"",""1"",""1413""
","
","","","","","","","","","","","","","","","","","","","","","","","","","","",""
"pit-instructions","36","386092","0.0-2.0-10.0","battery-v0.2","","""event"",""trial"",""time""
""fullscreenenter"",""1"",""1413""
","
","
","""event"",""trial"",""time""
""fullscreenenter"",""1"",""1413""
","
","","[{""page_index"":0,""viewing_time"":5581.5},{""page_index"":1,""viewing_time"":6882.800000011921},{""page_index"":2,""viewing_time"":9271.299999982119},{""page_index"":3,""viewing_time"":10197.800000011921},{""page_index"":4,""viewing_time"":7298.5}]","39232.09999999404","","","","","","","","","","","","","","","","","","","","","","","",""
"pit-trial","37","390945","0.0-2.0-11.0-0.0","battery-v0.2","","""event"",""trial"",""time""
""fullscreenenter"",""1"",""1413""
","
","
","""event"",""trial"",""time""
""fullscreenenter"",""1"",""1413""
","
","","","-1","","","21","13773","5893","&#9761;","elianto","#3366ff99","-1","-1","1","+10","[]","0","0","2","","","","","","","",""
"pit-trial","38","395799","0.0-2.0-11.0-1.0","battery-v0.2","","""event"",""trial"",""time""
""fullscreenenter"",""1"",""1413""
","
","
","""event"",""trial"",""time""
""fullscreenenter"",""1"",""1413""
","
","","","-1","","","21","13773","5893","&#9761;","elianto","#3366ff99","-1","-1","1","+10","[]","0","0","2","","","","","","","",""
"pit-trial","39","400654","0.0-2.0-11.0-2.0","battery-v0.2","","""event"",""trial"",""time""
""fullscreenenter"",""1"",""1413""
","
","
","""event"",""trial"",""time""
""fullscreenenter"",""1"",""1413""
","
","","","-1","","","21","13773","5893","&#9761;","elianto","#3366ff99","-1","-1","1","+10","[]","0","0","2","","","","","","","",""
"pit-trial","40","405509","0.0-2.0-11.0-3.0","battery-v0.2","","""event"",""trial"",""time""
""fullscreenenter"",""1"",""1413""
","
","
","""event"",""trial"",""time""
""fullscreenenter"",""1"",""1413""
","
","","","-1","","","21","13773","5893","&#9761;","elianto","#3366ff99","-1","-1","1","0","[]","0","0","2","","","","","","","",""
"pit-trial","41","410365","0.0-2.0-11.0-4.0","battery-v0.2","","""event"",""trial"",""time""
""fullscreenenter"",""1"",""1413""
","
","
","""event"",""trial"",""time""
""fullscreenenter"",""1"",""1413""
","
","","","-1","","","21","13773","5893","&#9761;","elianto","#3366ff99","-1","-1","1","+10","[]","0","0","2","","","","","","","",""
"pit-trial","42","415221","0.0-2.0-11.1-0.1","battery-v0.2","","""event"",""trial"",""time""
""fullscreenenter"",""1"",""1413""
","
","
","""event"",""trial"",""time""
""fullscreenenter"",""1"",""1413""
","
","","","-1","","","21","13773","5893","&#9761;","elianto","#3366ff99","-1","-1","1","+10","[]","0","0","2","","","","","","","",""
"pit-trial","43","420076","0.0-2.0-11.1-1.1","battery-v0.2","","""event"",""trial"",""time""
""fullscreenenter"",""1"",""1413""
","
","
","""event"",""trial"",""time""
""fullscreenenter"",""1"",""1413""
","
","","","-1","","","21","13773","5893","&#9761;","elianto","#3366ff99","-1","-1","1","+10","[]","0","0","2","","","","","","","",""
"pit-trial","44","424932","0.0-2.0-11.1-2.1","battery-v0.2","","""event"",""trial"",""time""
""fullscreenenter"",""1"",""1413""
","
","
","""event"",""trial"",""time""
""fullscreenenter"",""1"",""1413""
","
","","","-1","","","21","13773","5893","&#9761;","elianto","#3366ff99","-1","-1","1","+10","[]","0","0","2","","","","","","","",""
"pit-trial","45","429785","0.0-2.0-11.1-3.1","battery-v0.2","","""event"",""trial"",""time""
""fullscreenenter"",""1"",""1413""
","
","
","""event"",""trial"",""time""
""fullscreenenter"",""1"",""1413""
","
","","","-1","","","21","13773","5893","&#9761;","elianto","#3366ff99","-1","-1","1","0","[]","0","0","2","","","","","","","",""
"pit-trial","46","434641","0.0-2.0-11.1-4.1","battery-v0.2","","""event"",""trial"",""time""
""fullscreenenter"",""1"",""1413""
","
","
","""event"",""trial"",""time""
""fullscreenenter"",""1"",""1413""
","
","","","-1","","","21","13773","5893","&#9761;","elianto","#3366ff99","-1","-1","1","+10","[]","0","0","2","","","","","","","",""
"pit-trial","47","439497","0.0-2.0-11.2-0.2","battery-v0.2","","""event"",""trial"",""time""
""fullscreenenter"",""1"",""1413""
","
","
","""event"",""trial"",""time""
""fullscreenenter"",""1"",""1413""
","
","","","-1","","","21","13773","5893","&#9761;","elianto","#3366ff99","-1","-1","1","+10","[]","0","0","2","","","","","","","",""
"pit-trial","48","444352","0.0-2.0-11.2-1.2","battery-v0.2","","""event"",""trial"",""time""
""fullscreenenter"",""1"",""1413""
","
","
","""event"",""trial"",""time""
""fullscreenenter"",""1"",""1413""
","
","","","-1","","","21","13773","5893","&#9761;","elianto","#3366ff99","-1","-1","1","+10","[]","0","0","2","","","","","","","",""
"pit-trial","49","449207","0.0-2.0-11.2-2.2","battery-v0.2","","""event"",""trial"",""time""
""fullscreenenter"",""1"",""1413""
","
","
","""event"",""trial"",""time""
""fullscreenenter"",""1"",""1413""
","
","","","-1","","","21","13773","5893","&#9761;","elianto","#3366ff99","-1","-1","1","+10","[]","0","0","2","","","","","","","",""
"pit-trial","50","454063","0.0-2.0-11.2-3.2","battery-v0.2","","""event"",""trial"",""time""
""fullscreenenter"",""1"",""1413""
","
","
","""event"",""trial"",""time""
""fullscreenenter"",""1"",""1413""
","
","","","-1","","","21","13773","5893","&#9761;","elianto","#3366ff99","-1","-1","1","0","[]","0","0","2","","","","","","","",""
"pit-trial","51","458918","0.0-2.0-11.2-4.2","battery-v0.2","","""event"",""trial"",""time""
""fullscreenenter"",""1"",""1413""
","
","
","""event"",""trial"",""time""
""fullscreenenter"",""1"",""1413""
","
","","","-1","","","21","13773","5893","&#9761;","elianto","#3366ff99","-1","-1","1","+10","[]","0","0","2","","","","","","","",""
"pit-trial","52","463771","0.0-2.0-11.3-0.3","battery-v0.2","","""event"",""trial"",""time""
""fullscreenenter"",""1"",""1413""
","
","
","""event"",""trial"",""time""
""fullscreenenter"",""1"",""1413""
","
","","","-1","","","21","13773","5893","&#9761;","elianto","#3366ff99","-1","-1","1","+10","[]","0","0","2","","","","","","","",""
"pit-trial","53","468625","0.0-2.0-11.3-1.3","battery-v0.2","","""event"",""trial"",""time""
""fullscreenenter"",""1"",""1413""
","
","
","""event"",""trial"",""time""
""fullscreenenter"",""1"",""1413""
","
","","","-1","","","21","13773","5893","&#9761;","elianto","#3366ff99","-1","-1","1","+10","[]","0","0","2","","","","","","","",""
"pit-trial","54","473480","0.0-2.0-11.3-2.3","battery-v0.2","","""event"",""trial"",""time""
""fullscreenenter"",""1"",""1413""
","
","
","""event"",""trial"",""time""
""fullscreenenter"",""1"",""1413""
","
","","","-1","","","21","13773","5893","&#9761;","elianto","#3366ff99","-1","-1","1","+10","[]","0","0","2","","","","","","","",""
"pit-trial","55","478335","0.0-2.0-11.3-3.3","battery-v0.2","","""event"",""trial"",""time""
""fullscreenenter"",""1"",""1413""
","
","
","""event"",""trial"",""time""
""fullscreenenter"",""1"",""1413""
","
","","","-1","","","21","13773","5893","&#9761;","elianto","#3366ff99","-1","-1","1","0","[]","0","0","2","","","","","","","",""
"pit-trial","56","483189","0.0-2.0-11.3-4.3","battery-v0.2","","""event"",""trial"",""time""
""fullscreenenter"",""1"",""1413""
","
","
","""event"",""trial"",""time""
""fullscreenenter"",""1"",""1413""
","
","","","-1","","","21","13773","5893","&#9761;","elianto","#3366ff99","-1","-1","1","+10","[]","0","0","2","","","","","","","",""
"call-function","57","483191","0.0-2.0-12.0","battery-v0.2","","""event"",""trial"",""time""
""fullscreenenter"",""1"",""1413""
","
","
","""event"",""trial"",""time""
""fullscreenenter"",""1"",""1413""
","
","","","","","","","","","","","","","","","","","","","","","","","","","","",""
"pit-instructions","58","522016","0.0-2.0-13.0","battery-v0.2","","""event"",""trial"",""time""
""fullscreenenter"",""1"",""1413""
","
","
","""event"",""trial"",""time""
""fullscreenenter"",""1"",""1413""
","
","","[{""page_index"":0,""viewing_time"":9763.199999988079},{""page_index"":1,""viewing_time"":8080.200000017881},{""page_index"":2,""viewing_time"":4312.5},{""page_index"":3,""viewing_time"":10619},{""page_index"":4,""viewing_time"":6048}]","38823.40000000596","","","","","","","","","","","","","","","","","","","","","","","",""
"pit-trial","59","526146","0.0-2.0-14.0-0.0","battery-v0.2","","""event"",""trial"",""time""
""fullscreenenter"",""1"",""1413""
","
","
","""event"",""trial"",""time""
""fullscreenenter"",""1"",""1413""
","
","","","1275.9000000059605","","","21","13773","5893","&#9826;","elianto","#f73b6a7A","-1"," ","0","-10","[2126.7000000178814]","1","0","3","","","","","","","",""
"pit-trial","60","531001","0.0-2.0-14.0-1.0","battery-v0.2","","""event"",""trial"",""time""
""fullscreenenter"",""1"",""1413""
","
","
","""event"",""trial"",""time""
""fullscreenenter"",""1"",""1413""
","
","","","-1","","","21","13773","5893","&#9826;","elianto","#f73b6a7A","-1","-1","1","0","[]","0","0","3","","","","","","","",""
"pit-trial","61","535857","0.0-2.0-14.0-2.0","battery-v0.2","","""event"",""trial"",""time""
""fullscreenenter"",""1"",""1413""
","
","
","""event"",""trial"",""time""
""fullscreenenter"",""1"",""1413""
","
","","","-1","","","21","13773","5893","&#9826;","elianto","#f73b6a7A","-1","-1","1","0","[]","0","0","3","","","","","","","",""
"pit-trial","62","540712","0.0-2.0-14.0-3.0","battery-v0.2","","""event"",""trial"",""time""
""fullscreenenter"",""1"",""1413""
","
","
","""event"",""trial"",""time""
""fullscreenenter"",""1"",""1413""
","
","","","-1","","","21","13773","5893","&#9826;","elianto","#f73b6a7A","-1","-1","1","-10","[]","0","0","3","","","","","","","",""
"pit-trial","63","545567","0.0-2.0-14.0-4.0","battery-v0.2","","""event"",""trial"",""time""
""fullscreenenter"",""1"",""1413""
","
","
","""event"",""trial"",""time""
""fullscreenenter"",""1"",""1413""
","
","","","-1","","","21","13773","5893","&#9826;","elianto","#f73b6a7A","-1","-1","1","0","[]","0","0","3","","","","","","","",""
"pit-trial","64","550425","0.0-2.0-14.1-0.1","battery-v0.2","","""event"",""trial"",""time""
""fullscreenenter"",""1"",""1413""
","
","
","""event"",""trial"",""time""
""fullscreenenter"",""1"",""1413""
","
","","","-1","","","21","13773","5893","&#9826;","elianto","#f73b6a7A","-1","-1","1","0","[]","0","0","3","","","","","","","",""
"pit-trial","65","555280","0.0-2.0-14.1-1.1","battery-v0.2","","""event"",""trial"",""time""
""fullscreenenter"",""1"",""1413""
","
","
","""event"",""trial"",""time""
""fullscreenenter"",""1"",""1413""
","
","","","-1","","","21","13773","5893","&#9826;","elianto","#f73b6a7A","-1","-1","1","0","[]","0","0","3","","","","","","","",""
"pit-trial","66","560133","0.0-2.0-14.1-2.1","battery-v0.2","","""event"",""trial"",""time""
""fullscreenenter"",""1"",""1413""
","
","
","""event"",""trial"",""time""
""fullscreenenter"",""1"",""1413""
","
","","","-1","","","21","13773","5893","&#9826;","elianto","#f73b6a7A","-1","-1","1","0","[]","0","0","3","","","","","","","",""
"pit-trial","67","564989","0.0-2.0-14.1-3.1","battery-v0.2","","""event"",""trial"",""time""
""fullscreenenter"",""1"",""1413""
","
","
","""event"",""trial"",""time""
""fullscreenenter"",""1"",""1413""
","
","","","-1","","","21","13773","5893","&#9826;","elianto","#f73b6a7A","-1","-1","1","-10","[]","0","0","3","","","","","","","",""
"pit-trial","68","569843","0.0-2.0-14.1-4.1","battery-v0.2","","""event"",""trial"",""time""
""fullscreenenter"",""1"",""1413""
","
","
","""event"",""trial"",""time""
""fullscreenenter"",""1"",""1413""
","
","","","-1","","","21","13773","5893","&#9826;","elianto","#f73b6a7A","-1","-1","1","0","[]","0","0","3","","","","","","","",""
"pit-trial","69","574700","0.0-2.0-14.2-0.2","battery-v0.2","","""event"",""trial"",""time""
""fullscreenenter"",""1"",""1413""
","
","
","""event"",""trial"",""time""
""fullscreenenter"",""1"",""1413""
","
","","","-1","","","21","13773","5893","&#9826;","elianto","#f73b6a7A","-1","-1","1","0","[]","0","0","3","","","","","","","",""
"pit-trial","70","579555","0.0-2.0-14.2-1.2","battery-v0.2","","""event"",""trial"",""time""
""fullscreenenter"",""1"",""1413""
","
","
","""event"",""trial"",""time""
""fullscreenenter"",""1"",""1413""
","
","","","-1","","","21","13773","5893","&#9826;","elianto","#f73b6a7A","-1","-1","1","0","[]","0","0","3","","","","","","","",""
"pit-trial","71","584409","0.0-2.0-14.2-2.2","battery-v0.2","","""event"",""trial"",""time""
""fullscreenenter"",""1"",""1413""
","
","
","""event"",""trial"",""time""
""fullscreenenter"",""1"",""1413""
","
","","","-1","","","21","13773","5893","&#9826;","elianto","#f73b6a7A","-1","-1","1","0","[]","0","0","3","","","","","","","",""
"pit-trial","72","589263","0.0-2.0-14.2-3.2","battery-v0.2","","""event"",""trial"",""time""
""fullscreenenter"",""1"",""1413""
","
","
","""event"",""trial"",""time""
""fullscreenenter"",""1"",""1413""
","
","","","-1","","","21","13773","5893","&#9826;","elianto","#f73b6a7A","-1","-1","1","-10","[]","0","0","3","","","","","","","",""
"pit-trial","73","594117","0.0-2.0-14.2-4.2","battery-v0.2","","""event"",""trial"",""time""
""fullscreenenter"",""1"",""1413""
","
","
","""event"",""trial"",""time""
""fullscreenenter"",""1"",""1413""
","
","","","-1","","","21","13773","5893","&#9826;","elianto","#f73b6a7A","-1","-1","1","0","[]","0","0","3","","","","","","","",""
"pit-trial","74","598972","0.0-2.0-14.3-0.3","battery-v0.2","","""event"",""trial"",""time""
""fullscreenenter"",""1"",""1413""
","
","
","""event"",""trial"",""time""
""fullscreenenter"",""1"",""1413""
","
","","","-1","","","21","13773","5893","&#9826;","elianto","#f73b6a7A","-1","-1","1","0","[]","0","0","3","","","","","","","",""
"pit-trial","75","603827","0.0-2.0-14.3-1.3","battery-v0.2","","""event"",""trial"",""time""
""fullscreenenter"",""1"",""1413""
","
","
","""event"",""trial"",""time""
""fullscreenenter"",""1"",""1413""
","
","","","-1","","","21","13773","5893","&#9826;","elianto","#f73b6a7A","-1","-1","1","0","[]","0","0","3","","","","","","","",""
"pit-trial","76","608682","0.0-2.0-14.3-2.3","battery-v0.2","","""event"",""trial"",""time""
""fullscreenenter"",""1"",""1413""
","
","
","""event"",""trial"",""time""
""fullscreenenter"",""1"",""1413""
","
","","","-1","","","21","13773","5893","&#9826;","elianto","#f73b6a7A","-1","-1","1","0","[]","0","0","3","","","","","","","",""
"pit-trial","77","613537","0.0-2.0-14.3-3.3","battery-v0.2","","""event"",""trial"",""time""
""fullscreenenter"",""1"",""1413""
","
","
","""event"",""trial"",""time""
""fullscreenenter"",""1"",""1413""
","
","","","-1","","","21","13773","5893","&#9826;","elianto","#f73b6a7A","-1","-1","1","-10","[]","0","0","3","","","","","","","",""
"pit-trial","78","618393","0.0-2.0-14.3-4.3","battery-v0.2","","""event"",""trial"",""time""
""fullscreenenter"",""1"",""1413""
","
","
","""event"",""trial"",""time""
""fullscreenenter"",""1"",""1413""
","
","","","-1","","","21","13773","5893","&#9826;","elianto","#f73b6a7A","-1","-1","1","0","[]","0","0","3","","","","","","","",""
"call-function","79","618396","0.0-2.0-15.0","battery-v0.2","","""event"",""trial"",""time""
""fullscreenenter"",""1"",""1413""
","
","
","""event"",""trial"",""time""
""fullscreenenter"",""1"",""1413""
","
","","","","","","","","","","","","","","","","","","","","","","","","","","",""
"pit-instructions","80","654140","0.0-2.0-16.0","battery-v0.2","","""event"",""trial"",""time""
""fullscreenenter"",""1"",""1413""
","
","
","""event"",""trial"",""time""
""fullscreenenter"",""1"",""1413""
","
","","[{""page_index"":0,""viewing_time"":7614.899999976158},{""page_index"":1,""viewing_time"":10974.100000023842},{""page_index"":2,""viewing_time"":9567.699999988079},{""page_index"":3,""viewing_time"":7585.5}]","35742.79999998212","","","","","","","","","","","","","","","","","","","","","","","",""
"pit-trial","81","657723","0.0-2.0-17.0-0.0","battery-v0.2","","""event"",""trial"",""time""
""fullscreenenter"",""1"",""1413""
","
","
","""event"",""trial"",""time""
""fullscreenenter"",""1"",""1413""
","
","","","730.5999999940395","","","21","13773","5893","&#9789;","elianto","#f73b6a7A"," "," ","1","0","[1580.699999988079]","1","0","4","","","","","","","",""
"pit-trial","82","660875","0.0-2.0-17.0-1.0","battery-v0.2","","""event"",""trial"",""time""
""fullscreenenter"",""1"",""1413""
","
","
","""event"",""trial"",""time""
""fullscreenenter"",""1"",""1413""
","
","","","298.69999998807907","","","21","13773","5893","&#9789;","elianto","#f73b6a7A"," "," ","1","0","[1149.0999999940395]","1","0","4","","","","","","","",""
"pit-trial","83","664101","0.0-2.0-17.0-2.0","battery-v0.2","","""event"",""trial"",""time""
""fullscreenenter"",""1"",""1413""
","
","
","""event"",""trial"",""time""
""fullscreenenter"",""1"",""1413""
","
","","","372.7999999821186","","","21","13773","5893","&#9789;","elianto","#f73b6a7A"," "," ","1","0","[1223]","1","0","4","","","","","","","",""
"pit-trial","84","667369","0.0-2.0-17.0-3.0","battery-v0.2","","""event"",""trial"",""time""
""fullscreenenter"",""1"",""1413""
","
","
","""event"",""trial"",""time""
""fullscreenenter"",""1"",""1413""
","
","","","412","","","21","13773","5893","&#9789;","elianto","#f73b6a7A"," "," ","1","-10","[1263.1000000238419]","1","0","4","","","","","","","",""
"pit-trial","85","670626","0.0-2.0-17.0-4.0","battery-v0.2","","""event"",""trial"",""time""
""fullscreenenter"",""1"",""1413""
","
","
","""event"",""trial"",""time""
""fullscreenenter"",""1"",""1413""
","
","","","402.5","","","21","13773","5893","&#9789;","elianto","#f73b6a7A"," "," ","1","0","[1252.699999988079]","1","0","4","","","","","","","",""
"pit-trial","86","674077","0.0-2.0-17.1-0.1","battery-v0.2","","""event"",""trial"",""time""
""fullscreenenter"",""1"",""1413""
","
","
","""event"",""trial"",""time""
""fullscreenenter"",""1"",""1413""
","
","","","595.5","","","21","13773","5893","&#9789;","elianto","#f73b6a7A"," "," ","1","0","[1446.300000011921]","1","0","4","","","","","","","",""
"pit-trial","87","677497","0.0-2.0-17.1-1.1","battery-v0.2","","""event"",""trial"",""time""
""fullscreenenter"",""1"",""1413""
","
","
","""event"",""trial"",""time""
""fullscreenenter"",""1"",""1413""
","
","","","565.0999999940395","","","21","13773","5893","&#9789;","elianto","#f73b6a7A"," "," ","1","0","[1416]","1","0","4","","","","","","","",""
"pit-trial","88","680861","0.0-2.0-17.1-2.1","battery-v0.2","","""event"",""trial"",""time""
""fullscreenenter"",""1"",""1413""
","
","
","""event"",""trial"",""time""
""fullscreenenter"",""1"",""1413""
","
","","","508.80000001192093","","","21","13773","5893","&#9789;","elianto","#f73b6a7A"," "," ","1","0","[1359.5999999940395]","1","0","4","","","","","","","",""
"pit-trial","89","684308","0.0-2.0-17.1-3.1","battery-v0.2","","""event"",""trial"",""time""
""fullscreenenter"",""1"",""1413""
","
","
","""event"",""trial"",""time""
""fullscreenenter"",""1"",""1413""
","
","","","590.7999999821186","","","21","13773","5893","&#9789;","elianto","#f73b6a7A"," "," ","1","-10","[1441.199999988079]","1","0","4","","","","","","","",""
"pit-trial","90","687742","0.0-2.0-17.1-4.1","battery-v0.2","","""event"",""trial"",""time""
""fullscreenenter"",""1"",""1413""
","
","
","""event"",""trial"",""time""
""fullscreenenter"",""1"",""1413""
","
","","","578.8000000119209","","","21","13773","5893","&#9789;","elianto","#f73b6a7A"," "," ","1","0","[1429.4000000059605]","1","0","4","","","","","","","",""
"pit-trial","91","691133","0.0-2.0-17.2-0.2","battery-v0.2","","""event"",""trial"",""time""
""fullscreenenter"",""1"",""1413""
","
","
","""event"",""trial"",""time""
""fullscreenenter"",""1"",""1413""
","
","","","536.8999999761581","","","21","13773","5893","&#9789;","elianto","#f73b6a7A"," "," ","1","0","[1387.199999988079]","1","0","4","","","","","","","",""
"pit-trial","92","694424","0.0-2.0-17.2-1.2","battery-v0.2","","""event"",""trial"",""time""
""fullscreenenter"",""1"",""1413""
","
","
","""event"",""trial"",""time""
""fullscreenenter"",""1"",""1413""
","
","","","436.09999999403954","","","21","13773","5893","&#9789;","elianto","#f73b6a7A"," "," ","1","0","[1286.7000000178814]","1","0","4","","","","","","","",""
"pit-trial","93","697804","0.0-2.0-17.2-2.2","battery-v0.2","","""event"",""trial"",""time""
""fullscreenenter"",""1"",""1413""
","
","
","""event"",""trial"",""time""
""fullscreenenter"",""1"",""1413""
","
","","","523.7000000178814","","","21","13773","5893","&#9789;","elianto","#f73b6a7A"," "," ","1","0","[1374.9000000059605]","1","0","4","","","","","","","",""
"pit-trial","94","700804","0.0-2.0-17.2-3.2","battery-v0.2","","""event"",""trial"",""time""
""fullscreenenter"",""1"",""1413""
","
","
","""event"",""trial"",""time""
""fullscreenenter"",""1"",""1413""
","
","","","145.09999999403954","","","21","13773","5893","&#9789;","elianto","#f73b6a7A"," "," ","1","-10","[995.9000000059605]","1","0","4","","","","","","","",""
"pit-trial","95","703996","0.0-2.0-17.2-4.2","battery-v0.2","","""event"",""trial"",""time""
""fullscreenenter"",""1"",""1413""
","
","
","""event"",""trial"",""time""
""fullscreenenter"",""1"",""1413""
","
","","","337","","","21","13773","5893","&#9789;","elianto","#f73b6a7A"," "," ","1","0","[1188]","1","0","4","","","","","","","",""
"pit-trial","96","707386","0.0-2.0-17.3-0.3","battery-v0.2","","""event"",""trial"",""time""
""fullscreenenter"",""1"",""1413""
","
","
","""event"",""trial"",""time""
""fullscreenenter"",""1"",""1413""
","
","","","534.6999999880791","","","21","13773","5893","&#9789;","elianto","#f73b6a7A"," "," ","1","0","[1386]","1","0","4","","","","","","","",""
"pit-trial","97","710726","0.0-2.0-17.3-1.3","battery-v0.2","","""event"",""trial"",""time""
""fullscreenenter"",""1"",""1413""
","
","
","""event"",""trial"",""time""
""fullscreenenter"",""1"",""1413""
","
","","","484.5","","","21","13773","5893","&#9789;","elianto","#f73b6a7A"," "," ","1","0","[1334.800000011921]","1","0","4","","","","","","","",""
"pit-trial","98","714143","0.0-2.0-17.3-2.3","battery-v0.2","","""event"",""trial"",""time""
""fullscreenenter"",""1"",""1413""
","
","
","""event"",""trial"",""time""
""fullscreenenter"",""1"",""1413""
","
","","","561.8000000119209","","","21","13773","5893","&#9789;","elianto","#f73b6a7A"," "," ","1","0","[1413.199999988079]","1","0","4","","","","","","","",""
"pit-trial","99","717380","0.0-2.0-17.3-3.3","battery-v0.2","","""event"",""trial"",""time""
""fullscreenenter"",""1"",""1413""
","
","
","""event"",""trial"",""time""
""fullscreenenter"",""1"",""1413""
","
","","","382.5","","","21","13773","5893","&#9789;","elianto","#f73b6a7A"," "," ","1","-10","[1233]","1","0","4","","","","","","","",""
"pit-trial","100","720614","0.0-2.0-17.3-4.3","battery-v0.2","","""event"",""trial"",""time""
""fullscreenenter"",""1"",""1413""
","
","
","""event"",""trial"",""time""
""fullscreenenter"",""1"",""1413""
","
","","","381.7999999821186","","","21","13773","5893","&#9789;","elianto","#f73b6a7A"," "," ","1","0","[1232.5999999940395]","1","0","4","","","","","","","",""
"call-function","101","720617","0.0-2.0-18.0","battery-v0.2","","""event"",""trial"",""time""
""fullscreenenter"",""1"",""1413""
","
","
","""event"",""trial"",""time""
""fullscreenenter"",""1"",""1413""
","
","","","","","","","","","","","","","","","","","","","","","","","","","","",""
"pit-instructions","102","804505","0.0-2.0-19.0","battery-v0.2","","""event"",""trial"",""time""
""fullscreenenter"",""1"",""1413""
","
","
","""event"",""trial"",""time""
""fullscreenenter"",""1"",""1413""
","
","","[{""page_index"":0,""viewing_time"":6393.700000017881},{""page_index"":1,""viewing_time"":8125.899999976158},{""page_index"":2,""viewing_time"":10448.200000017881},{""page_index"":3,""viewing_time"":7384.699999988079},{""page_index"":4,""viewing_time"":8343.5},{""page_index"":5,""viewing_time"":8702.09999999404},{""page_index"":6,""viewing_time"":8987},{""page_index"":7,""viewing_time"":6673.100000023842},{""page_index"":8,""viewing_time"":18827.899999976158}]","83886.80000001192","","","","","","","","","","","","","","","","","","","","","","","",""
"pit-comprehension","103","808878","0.0-2.0-20.0-0.0","battery-v0.2","","""event"",""trial"",""time""
""fullscreenenter"",""1"",""1413""
","
","
","""event"",""trial"",""time""
""fullscreenenter"",""1"",""1413""
","
","","","4367.800000011921","[""ENTER""]","1","21","13773","5893","","","","","","","","","","","","","","","","","","",""
"pit-instructions","104","811944","0.0-2.0-20.0-1.0","battery-v0.2","","""event"",""trial"",""time""
""fullscreenenter"",""1"",""1413""
","
","
","""event"",""trial"",""time""
""fullscreenenter"",""1"",""1413""
","
","","[{""page_index"":0,""viewing_time"":3049}]","3049.300000011921","","","","","","","","","","","","","","","","","","","","","","","",""
"pit-instructions","105","813359","0.0-2.0-20.0-2.0-0.0","battery-v0.2","","""event"",""trial"",""time""
""fullscreenenter"",""1"",""1413""
","
","
","""event"",""trial"",""time""
""fullscreenenter"",""1"",""1413""
","
","","[{""page_index"":0,""viewing_time"":1412.699999988079}]","1413.4000000059605","","","","","","","","","","","","","","","","","","","","","","","",""
"pit-comprehension","106","817364","0.0-2.0-20.1-0.1","battery-v0.2","","""event"",""trial"",""time""
""fullscreenenter"",""1"",""1413""
","
","
","""event"",""trial"",""time""
""fullscreenenter"",""1"",""1413""
","
","","","4000.9000000059605","[""SPACE""]","0","21","13773","5893","","","","","","","","","","","","","","","","","","",""
"pit-instructions","107","819951","0.0-2.0-20.1-1.1","battery-v0.2","","""event"",""trial"",""time""
""fullscreenenter"",""1"",""1413""
","
","
","""event"",""trial"",""time""
""fullscreenenter"",""1"",""1413""
","
","","[{""page_index"":0,""viewing_time"":2572}]","2572.2999999821186","","","","","","","","","","","","","","","","","","","","","","","",""
"pit-comprehension","108","824597","0.0-2.0-21.0-0.0","battery-v0.2","","""event"",""trial"",""time""
""fullscreenenter"",""1"",""1413""
","
","
","""event"",""trial"",""time""
""fullscreenenter"",""1"",""1413""
","
","","","4643.299999982119","[""10""]","0","21","13773","5893","","","","","","","","","","","","","","","","","","",""
"pit-instructions","109","826512","0.0-2.0-21.0-1.0","battery-v0.2","","""event"",""trial"",""time""
""fullscreenenter"",""1"",""1413""
","
","
","""event"",""trial"",""time""
""fullscreenenter"",""1"",""1413""
","
","","[{""page_index"":0,""viewing_time"":1899.199999988079}]","1899.3999999761581","","","","","","","","","","","","","","","","","","","","","","","",""
"pit-comprehension","110","832859","0.0-2.0-22.0-0.0","battery-v0.2","","""event"",""trial"",""time""
""fullscreenenter"",""1"",""1413""
","
","
","""event"",""trial"",""time""
""fullscreenenter"",""1"",""1413""
","
","","","6345.0999999940395","[""0""]","0","21","13773","5893","","","","","","","","","","","","","","","","","","",""
"pit-instructions","111","833953","0.0-2.0-22.0-1.0","battery-v0.2","","""event"",""trial"",""time""
""fullscreenenter"",""1"",""1413""
","
","
","""event"",""trial"",""time""
""fullscreenenter"",""1"",""1413""
","
","","[{""page_index"":0,""viewing_time"":1080.199999988079}]","1080.2999999821186","","","","","","","","","","","","","","","","","","","","","","","",""
"pit-comprehension","112","841976","0.0-2.0-23.0-0.0","battery-v0.2","","""event"",""trial"",""time""
""fullscreenenter"",""1"",""1413""
","
","
","""event"",""trial"",""time""
""fullscreenenter"",""1"",""1413""
","
","","","8021.699999988079","[""True""]","0","21","13773","5893","","","","","","","","","","","","","","","","","","",""
"pit-instructions","113","846346","0.0-2.0-23.0-1.0","battery-v0.2","","""event"",""trial"",""time""
""fullscreenenter"",""1"",""1413""
","
","
","""event"",""trial"",""time""
""fullscreenenter"",""1"",""1413""
","
","","[{""page_index"":0,""viewing_time"":4354.699999988079}]","4355.199999988079","","","","","","","","","","","","","","","","","","","","","","","",""
"pit-comprehension","114","853991","0.0-2.0-24.0-0.0","battery-v0.2","","""event"",""trial"",""time""
""fullscreenenter"",""1"",""1413""
","
","
","""event"",""trial"",""time""
""fullscreenenter"",""1"",""1413""
","
","","","7640.799999982119","[""True""]","0","21","13773","5893","","","","","","","","","","","","","","","","","","",""
"pit-instructions","115","855629","0.0-2.0-24.0-1.0","battery-v0.2","","""event"",""trial"",""time""
""fullscreenenter"",""1"",""1413""
","
","
","""event"",""trial"",""time""
""fullscreenenter"",""1"",""1413""
","
","","[{""page_index"":0,""viewing_time"":1618.199999988079}]","1618.5999999940395","","","","","","","","","","","","","","","","","","","","","","","",""
"pit-comprehension","116","861847","0.0-2.0-25.0-0.0","battery-v0.2","","""event"",""trial"",""time""
""fullscreenenter"",""1"",""1413""
","
","
","""event"",""trial"",""time""
""fullscreenenter"",""1"",""1413""
","
","","","6215.4000000059605","[""True""]","0","21","13773","5893","","","","","","","","","","","","","","","","","","",""
"pit-instructions","117","862900","0.0-2.0-25.0-1.0","battery-v0.2","","""event"",""trial"",""time""
""fullscreenenter"",""1"",""1413""
","
","
","""event"",""trial"",""time""
""fullscreenenter"",""1"",""1413""
","
","","[{""page_index"":0,""viewing_time"":1032.9000000059605}]","1033.0999999940395","","","","","","","","","","","","","","","","","","","","","","","",""
"pit-comprehension","118","867338","0.0-2.0-26.0-0.0","battery-v0.2","","""event"",""trial"",""time""
""fullscreenenter"",""1"",""1413""
","
","
","""event"",""trial"",""time""
""fullscreenenter"",""1"",""1413""
","
","","","4436.4000000059605","[""False""]","0","21","13773","5893","","","","","","","","","","","","","","","","","","",""
"pit-instructions","119","868401","0.0-2.0-26.0-1.0","battery-v0.2","","""event"",""trial"",""time""
""fullscreenenter"",""1"",""1413""
","
","
","""event"",""trial"",""time""
""fullscreenenter"",""1"",""1413""
","
","","[{""page_index"":0,""viewing_time"":1049.5999999940395}]","1049.7999999821186","","","","","","","","","","","","","","","","","","","","","","","",""
"pit-instructions","120","885008","0.0-3.0","battery-v0.2","","""event"",""trial"",""time""
""fullscreenenter"",""1"",""1413""
","
","
","""event"",""trial"",""time""
""fullscreenenter"",""1"",""1413""
","
","","[{""page_index"":0,""viewing_time"":4589.199999988079},{""page_index"":1,""viewing_time"":5114.9000000059605},{""page_index"":2,""viewing_time"":6901.199999988079}]","16605.5","","","","","","","","","","","","","","","","","","","","","","","",""
"pit-trial","121","889007","0.0-4.0","battery-v0.2","","""event"",""trial"",""time""
""fullscreenenter"",""1"",""1413""
","
","
","""event"",""trial"",""time""
""fullscreenenter"",""1"",""1413""
","
","","","1145.0999999940395","","","21","13773","5893","&#9730;","elianto","#3366ff99"," "," ","1","0","[1995.5]","1","1","","","13773","1","1","1","win","go","1"
"pit-trial","122","892507","0.0-5.0","battery-v0.2","","""event"",""trial"",""time""
""fullscreenenter"",""1"",""1413""
","
","
","""event"",""trial"",""time""
""fullscreenenter"",""1"",""1413""
","
","","","645.0999999940395","","","21","13773","5893","&#9752;","elianto","#f73b6a7A"," "," ","1","-10","[1495.5]","1","1","","","13773","2","3","3","lose","go","1"
"pit-trial","123","896384","0.0-6.0","battery-v0.2","","""event"",""trial"",""time""
""fullscreenenter"",""1"",""1413""
","
","
","""event"",""trial"",""time""
""fullscreenenter"",""1"",""1413""
","
","","","1021.4000000059605","","","21","13773","5893","&#9733;","elianto","#3366ff99","-1"," ","0","0","[1872]","1","1","","","13773","3","2","2","win","no-go","0"
"pit-trial","124","900517","0.0-7.0","battery-v0.2","","""event"",""trial"",""time""
""fullscreenenter"",""1"",""1413""
","
","
","""event"",""trial"",""time""
""fullscreenenter"",""1"",""1413""
","
","","","1279.1000000238419","","","21","13773","5893","&#9728;","elianto","#f73b6a7A","-1"," ","0","-10","[2129.300000011921]","1","1","","","13773","4","0","4","lose","no-go","0"
"pit-trial","125","905373","0.0-8.0","battery-v0.2","","""event"",""trial"",""time""
""fullscreenenter"",""1"",""1413""
","
","
","""event"",""trial"",""time""
""fullscreenenter"",""1"",""1413""
","
","","","-1","","","21","13773","5893","&#9730;","elianto","#3366ff99"," ","-1","0","0","[]","0","1","","","13773","5","1","1","win","go","0"
"pit-trial","126","910229","0.0-9.0","battery-v0.2","","""event"",""trial"",""time""
""fullscreenenter"",""1"",""1413""
","
","
","""event"",""trial"",""time""
""fullscreenenter"",""1"",""1413""
","
","","","-1","","","21","13773","5893","&#9752;","elianto","#f73b6a7A"," ","-1","0","-10","[]","0","1","","","13773","6","3","3","lose","go","0"
"pit-trial","127","914989","0.0-10.0","battery-v0.2","","""event"",""trial"",""time""
""fullscreenenter"",""1"",""1413""
","
","
","""event"",""trial"",""time""
""fullscreenenter"",""1"",""1413""
","
","","","1904.800000011921","","","21","13773","5893","&#9733;","elianto","#3366ff99","-1"," ","0","0","[2755.800000011921]","1","1","","","13773","7","2","2","win","no-go","0"
"pit-trial","128","919844","0.0-11.0","battery-v0.2","","""event"",""trial"",""time""
""fullscreenenter"",""1"",""1413""
","
","
","""event"",""trial"",""time""
""fullscreenenter"",""1"",""1413""
","
","","","-1","","","21","13773","5893","&#9728;","elianto","#f73b6a7A","-1","-1","1","0","[]","0","1","","","13773","8","0","4","lose","no-go","0"
"pit-trial","129","924543","0.0-12.0","battery-v0.2","","""event"",""trial"",""time""
""fullscreenenter"",""1"",""1413""
","
","
","""event"",""trial"",""time""
""fullscreenenter"",""1"",""1413""
","
","","","1843.5999999940395","","","21","13773","5893","&#9752;","elianto","#f73b6a7A"," "," ","1","0","[2694.5999999940395]","1","1","","","13773","9","3","3","lose","go","0"
"pit-trial","130","928778","0.0-13.0","battery-v0.2","","""event"",""trial"",""time""
""fullscreenenter"",""1"",""1413""
","
","
","""event"",""trial"",""time""
""fullscreenenter"",""1"",""1413""
","
","","","1380.2999999821186","","","21","13773","5893","&#9728;","elianto","#f73b6a7A","-1"," ","0","-10","[2230.7999999821186]","1","1","","","13773","10","0","4","lose","no-go","0"
"pit-trial","131","933634","0.0-14.0","battery-v0.2","","""event"",""trial"",""time""
""fullscreenenter"",""1"",""1413""
","
","
","""event"",""trial"",""time""
""fullscreenenter"",""1"",""1413""
","
","","","-1","","","21","13773","5893","&#9730;","elianto","#3366ff99"," ","-1","0","0","[]","0","1","","","13773","11","1","1","win","go","0"
"pit-trial","132","938490","0.0-15.0","battery-v0.2","","""event"",""trial"",""time""
""fullscreenenter"",""1"",""1413""
","
","
","""event"",""trial"",""time""
""fullscreenenter"",""1"",""1413""
","
","","","-1","","","21","13773","5893","&#9733;","elianto","#3366ff99","-1","-1","1","+10","[]","0","1","","","13773","12","2","2","win","no-go","0"
"pit-trial","133","943345","0.0-16.0","battery-v0.2","","""event"",""trial"",""time""
""fullscreenenter"",""1"",""1413""
","
","
","""event"",""trial"",""time""
""fullscreenenter"",""1"",""1413""
","
","","","-1","","","21","13773","5893","&#9752;","elianto","#f73b6a7A"," ","-1","0","0","[3082.300000011921]","1","1","","","13773","13","3","3","lose","go","1"
"pit-trial","134","947994","0.0-17.0","battery-v0.2","","""event"",""trial"",""time""
""fullscreenenter"",""1"",""1413""
","
","
","""event"",""trial"",""time""
""fullscreenenter"",""1"",""1413""
","
","","","1793.5999999940395","","","21","13773","5893","&#9733;","elianto","#3366ff99","-1"," ","0","+10","[2644.7000000178814]","1","1","","","13773","14","2","2","win","no-go","1"
"pit-trial","135","952850","0.0-18.0","battery-v0.2","","""event"",""trial"",""time""
""fullscreenenter"",""1"",""1413""
","
","
","""event"",""trial"",""time""
""fullscreenenter"",""1"",""1413""
","
","","","-1","","","21","13773","5893","&#9730;","elianto","#3366ff99"," ","-1","0","0","[3460.300000011921]","1","1","","","13773","15","1","1","win","go","0"
"pit-trial","136","957239","0.0-19.0","battery-v0.2","","""event"",""trial"",""time""
""fullscreenenter"",""1"",""1413""
","
","
","""event"",""trial"",""time""
""fullscreenenter"",""1"",""1413""
","
","","","1535.0999999940395","","","21","13773","5893","&#9728;","elianto","#f73b6a7A","-1"," ","0","-10","[2385.2000000178814]","1","1","","","13773","16","0","4","lose","no-go","0"
"pit-trial","137","961881","0.0-20.0","battery-v0.2","","""event"",""trial"",""time""
""fullscreenenter"",""1"",""1413""
","
","
","""event"",""trial"",""time""
""fullscreenenter"",""1"",""1413""
","
","","","1788.800000011921","","","21","13773","5893","&#9752;","elianto","#f73b6a7A"," "," ","1","0","[2639.9000000059605]","1","1","","","13773","17","3","3","lose","go","0"
"pit-trial","138","966117","0.0-21.0","battery-v0.2","","""event"",""trial"",""time""
""fullscreenenter"",""1"",""1413""
","
","
","""event"",""trial"",""time""
""fullscreenenter"",""1"",""1413""
","
","","","1381.4000000059605","","","21","13773","5893","&#9730;","elianto","#3366ff99"," "," ","1","+10","[2231.800000011921]","1","1","","","13773","18","1","1","win","go","0"
"pit-trial","139","969778","0.0-22.0","battery-v0.2","","""event"",""trial"",""time""
""fullscreenenter"",""1"",""1413""
","
","
","""event"",""trial"",""time""
""fullscreenenter"",""1"",""1413""
","
","","","805.7000000178814","","","21","13773","5893","&#9733;","elianto","#3366ff99","-1"," ","0","0","[1655.9000000059605]","1","1","","","13773","19","2","2","win","no-go","0"
"pit-trial","140","974464","0.0-23.0","battery-v0.2","","""event"",""trial"",""time""
""fullscreenenter"",""1"",""1413""
","
","
","""event"",""trial"",""time""
""fullscreenenter"",""1"",""1413""
","
","","","1830","","","21","13773","5893","&#9728;","elianto","#f73b6a7A","-1"," ","0","-10","[2680.800000011921]","1","1","","","13773","20","0","4","lose","no-go","0"
"pit-instructions","141","986144","0.0-24.0","battery-v0.2","","""event"",""trial"",""time""
""fullscreenenter"",""1"",""1413""
","
","
","""event"",""trial"",""time""
""fullscreenenter"",""1"",""1413""
","
","","[{""page_index"":0,""viewing_time"":5377.0999999940395},{""page_index"":1,""viewing_time"":6299.5999999940395}]","11676.799999982119","","","","","","","","","","","","","","","","","","","","","","","",""
"pit-trial","142","989899","0.0-25.0","battery-v0.2","","""event"",""trial"",""time""
""fullscreenenter"",""1"",""1413""
","
","
","""event"",""trial"",""time""
""fullscreenenter"",""1"",""1413""
","
","","","901.8000000119209","","","21","13773","5893","g","elianto","#f73b6a7A","-1"," ","0","-10","[1752.699999988079]","1","2","","","13773","21","3","4","lose","no-go","0"
"pit-trial","143","993595","0.0-26.0","battery-v0.2","","""event"",""trial"",""time""
""fullscreenenter"",""1"",""1413""
","
","
","""event"",""trial"",""time""
""fullscreenenter"",""1"",""1413""
","
","","","842.3000000119209","","","21","13773","5893","l","elianto","#3366ff99","-1"," ","0","0","[1693.6000000238419]","1","2","","","13773","22","1","2","win","no-go","0"
"pit-trial","144","997563","0.0-27.0","battery-v0.2","","""event"",""trial"",""time""
""fullscreenenter"",""1"",""1413""
","
","
","""event"",""trial"",""time""
""fullscreenenter"",""1"",""1413""
","
","","","1112.9000000059605","","","21","13773","5893","u","elianto","#f73b6a7A"," "," ","1","0","[1963.300000011921]","1","2","","","13773","23","0","3","lose","go","0"
"pit-trial","145","1001382","0.0-28.0","battery-v0.2","","""event"",""trial"",""time""
""fullscreenenter"",""1"",""1413""
","
","
","""event"",""trial"",""time""
""fullscreenenter"",""1"",""1413""
","
","","","962.6999999880791","","","21","13773","5893","a","elianto","#f73b6a7A"," "," ","1","-10","[1813.5999999940395]","1","2","","","13773","24","2","3","lose","go","1"
"pit-trial","146","1006237","0.0-29.0","battery-v0.2","","""event"",""trial"",""time""
""fullscreenenter"",""1"",""1413""
","
","
","""event"",""trial"",""time""
""fullscreenenter"",""1"",""1413""
","
","","","-1","","","21","13773","5893","a","elianto","#f73b6a7A"," ","-1","0","-10","[]","0","2","","","13773","25","2","3","lose","go","0"
"pit-trial","147","1011093","0.0-30.0","battery-v0.2","","""event"",""trial"",""time""
""fullscreenenter"",""1"",""1413""
","
","
","""event"",""trial"",""time""
""fullscreenenter"",""1"",""1413""
","
","","","-1","","","21","13773","5893","l","elianto","#3366ff99","-1","-1","1","0","[]","0","2","","","13773","26","1","2","win","no-go","1"
"pit-trial","148","1015948","0.0-31.0","battery-v0.2","","""event"",""trial"",""time""
""fullscreenenter"",""1"",""1413""
","
","
","""event"",""trial"",""time""
""fullscreenenter"",""1"",""1413""
","
","","","-1","","","21","13773","5893","g","elianto","#f73b6a7A","-1","-1","1","-10","[]","0","2","","","13773","27","3","4","lose","no-go","1"
"pit-trial","149","1020075","0.0-32.0","battery-v0.2","","""event"",""trial"",""time""
""fullscreenenter"",""1"",""1413""
","
","
","""event"",""trial"",""time""
""fullscreenenter"",""1"",""1413""
","
","","","1271.6000000238419","","","21","13773","5893","u","elianto","#f73b6a7A"," "," ","1","0","[2122.5]","1","2","","","13773","28","0","3","lose","go","0"
"pit-trial","150","1024022","0.0-33.0","battery-v0.2","","""event"",""trial"",""time""
""fullscreenenter"",""1"",""1413""
","
","
","""event"",""trial"",""time""
""fullscreenenter"",""1"",""1413""
","
","","","1092.4000000059605","","","21","13773","5893","a","elianto","#f73b6a7A"," "," ","1","-10","[1943.300000011921]","1","2","","","13773","29","2","3","lose","go","1"
"pit-trial","151","1028035","0.0-34.0","battery-v0.2","","""event"",""trial"",""time""
""fullscreenenter"",""1"",""1413""
","
","
","""event"",""trial"",""time""
""fullscreenenter"",""1"",""1413""
","
","","","1156.800000011921","","","21","13773","5893","l","elianto","#3366ff99","-1"," ","0","0","[2007.800000011921]","1","2","","","13773","30","1","2","win","no-go","0"
"pit-trial","152","1032774","0.0-35.0","battery-v0.2","","""event"",""trial"",""time""
""fullscreenenter"",""1"",""1413""
","
","
","""event"",""trial"",""time""
""fullscreenenter"",""1"",""1413""
","
","","","1885.5999999940395","","","21","13773","5893","u","elianto","#f73b6a7A"," "," ","1","0","[2735.9000000059605]","1","2","","","13773","31","0","3","lose","go","0"
"pit-trial","153","1037629","0.0-36.0","battery-v0.2","","""event"",""trial"",""time""
""fullscreenenter"",""1"",""1413""
","
","
","""event"",""trial"",""time""
""fullscreenenter"",""1"",""1413""
","
","","","-1","","","21","13773","5893","g","elianto","#f73b6a7A","-1","-1","1","0","[]","0","2","","","13773","32","3","4","lose","no-go","0"
"pit-trial","154","1042484","0.0-37.0","battery-v0.2","","""event"",""trial"",""time""
""fullscreenenter"",""1"",""1413""
","
","
","""event"",""trial"",""time""
""fullscreenenter"",""1"",""1413""
","
","","","-1","","","21","13773","5893","l","elianto","#3366ff99","-1","-1","1","+10","[]","0","2","","","13773","33","1","2","win","no-go","0"
"pit-trial","155","1047339","0.0-38.0","battery-v0.2","","""event"",""trial"",""time""
""fullscreenenter"",""1"",""1413""
","
","
","""event"",""trial"",""time""
""fullscreenenter"",""1"",""1413""
","
","","","-1","","","21","13773","5893","g","elianto","#f73b6a7A","-1","-1","1","0","[]","0","2","","","13773","34","3","4","lose","no-go","0"
"pit-trial","156","1051309","0.0-39.0","battery-v0.2","","""event"",""trial"",""time""
""fullscreenenter"",""1"",""1413""
","
","
","""event"",""trial"",""time""
""fullscreenenter"",""1"",""1413""
","
","","","1114.5999999940395","","","21","13773","5893","u","elianto","#f73b6a7A"," "," ","1","0","[1964.800000011921]","1","2","","","13773","35","0","3","lose","go","0"
"pit-trial","157","1056165","0.0-40.0","battery-v0.2","","""event"",""trial"",""time""
""fullscreenenter"",""1"",""1413""
","
","
","""event"",""trial"",""time""
""fullscreenenter"",""1"",""1413""
","
","","","-1","","","21","13773","5893","a","elianto","#f73b6a7A"," ","-1","0","0","[]","0","2","","","13773","36","2","3","lose","go","1"
"pit-trial","158","1060247","0.0-41.0","battery-v0.2","","""event"",""trial"",""time""
""fullscreenenter"",""1"",""1413""
","
","
","""event"",""trial"",""time""
""fullscreenenter"",""1"",""1413""
","
","","","1226.5","","","21","13773","5893","u","elianto","#f73b6a7A"," "," ","1","0","[2077.100000023842]","1","2","","","13773","37","0","3","lose","go","0"
"pit-trial","159","1065102","0.0-42.0","battery-v0.2","","""event"",""trial"",""time""
""fullscreenenter"",""1"",""1413""
","
","
","""event"",""trial"",""time""
""fullscreenenter"",""1"",""1413""
","
","","","-1","","","21","13773","5893","g","elianto","#f73b6a7A","-1","-1","1","0","[]","0","2","","","13773","38","3","4","lose","no-go","0"
"pit-trial","160","1069958","0.0-43.0","battery-v0.2","","""event"",""trial"",""time""
""fullscreenenter"",""1"",""1413""
","
","
","""event"",""trial"",""time""
""fullscreenenter"",""1"",""1413""
","
","","","-1","","","21","13773","5893","a","elianto","#f73b6a7A"," ","-1","0","-10","[]","0","2","","","13773","39","2","3","lose","go","0"
"pit-trial","161","1074814","0.0-44.0","battery-v0.2","","""event"",""trial"",""time""
""fullscreenenter"",""1"",""1413""
","
","
","""event"",""trial"",""time""
""fullscreenenter"",""1"",""1413""
","
","","","-1","","","21","13773","5893","l","elianto","#3366ff99","-1","-1","1","+10","[]","0","2","","","13773","40","1","2","win","no-go","0"
"pit-trial","162","1079668","0.0-45.0","battery-v0.2","","""event"",""trial"",""time""
""fullscreenenter"",""1"",""1413""
","
","
","""event"",""trial"",""time""
""fullscreenenter"",""1"",""1413""
","
","","","-1","","","21","13773","5893","a","elianto","#f73b6a7A"," ","-1","0","-10","[]","0","2","","","13773","41","2","3","lose","go","0"
"pit-trial","163","1083318","0.0-46.0","battery-v0.2","","""event"",""trial"",""time""
""fullscreenenter"",""1"",""1413""
","
","
","""event"",""trial"",""time""
""fullscreenenter"",""1"",""1413""
","
","","","794.1999999880791","","","21","13773","5893","u","elianto","#f73b6a7A"," "," ","1","-10","[1644.5999999940395]","1","2","","","13773","42","0","3","lose","go","1"
"pit-trial","164","1088173","0.0-47.0","battery-v0.2","","""event"",""trial"",""time""
""fullscreenenter"",""1"",""1413""
","
","
","""event"",""trial"",""time""
""fullscreenenter"",""1"",""1413""
","
","","","-1","","","21","13773","5893","g","elianto","#f73b6a7A","-1","-1","1","0","[]","0","2","","","13773","43","3","4","lose","no-go","0"
"pit-trial","165","1093027","0.0-48.0","battery-v0.2","","""event"",""trial"",""time""
""fullscreenenter"",""1"",""1413""
","
","
","""event"",""trial"",""time""
""fullscreenenter"",""1"",""1413""
","
","","","-1","","","21","13773","5893","l","elianto","#3366ff99","-1","-1","1","+10","[]","0","2","","","13773","44","1","2","win","no-go","0"
"pit-trial","166","1097882","0.0-49.0","battery-v0.2","","""event"",""trial"",""time""
""fullscreenenter"",""1"",""1413""
","
","
","""event"",""trial"",""time""
""fullscreenenter"",""1"",""1413""
","
","","","-1","","","21","13773","5893","g","elianto","#f73b6a7A","-1","-1","1","0","[]","0","2","","","13773","45","3","4","lose","no-go","0"
"pit-trial","167","1102734","0.0-50.0","battery-v0.2","","""event"",""trial"",""time""
""fullscreenenter"",""1"",""1413""
","
","
","""event"",""trial"",""time""
""fullscreenenter"",""1"",""1413""
","
","","","-1","","","21","13773","5893","l","elianto","#3366ff99","-1","-1","1","+10","[]","0","2","","","13773","46","1","2","win","no-go","0"
"pit-trial","168","1107590","0.0-51.0","battery-v0.2","","""event"",""trial"",""time""
""fullscreenenter"",""1"",""1413""
","
","
","""event"",""trial"",""time""
""fullscreenenter"",""1"",""1413""
","
","","","-1","","","21","13773","5893","a","elianto","#f73b6a7A"," ","-1","0","-10","[]","0","2","","","13773","47","2","3","lose","go","0"
"pit-trial","169","1111127","0.0-52.0","battery-v0.2","","""event"",""trial"",""time""
""fullscreenenter"",""1"",""1413""
","
","
","""event"",""trial"",""time""
""fullscreenenter"",""1"",""1413""
","
","","","682.3000000119209","","","21","13773","5893","u","elianto","#f73b6a7A"," "," ","1","0","[1533.0999999940395]","1","2","","","13773","48","0","3","lose","go","0"
"pit-trial","170","1115982","0.0-53.0","battery-v0.2","","""event"",""trial"",""time""
""fullscreenenter"",""1"",""1413""
","
","
","""event"",""trial"",""time""
""fullscreenenter"",""1"",""1413""
","
","","","-1","","","21","13773","5893","g","elianto","#f73b6a7A","-1","-1","1","-10","[]","0","2","","","13773","49","3","4","lose","no-go","1"
"pit-trial","171","1120838","0.0-54.0","battery-v0.2","","""event"",""trial"",""time""
""fullscreenenter"",""1"",""1413""
","
","
","""event"",""trial"",""time""
""fullscreenenter"",""1"",""1413""
","
","","","-1","","","21","13773","5893","a","elianto","#f73b6a7A"," ","-1","0","-10","[]","0","2","","","13773","50","2","3","lose","go","0"
"pit-trial","172","1125693","0.0-55.0","battery-v0.2","","""event"",""trial"",""time""
""fullscreenenter"",""1"",""1413""
","
","
","""event"",""trial"",""time""
""fullscreenenter"",""1"",""1413""
","
","","","-1","","","21","13773","5893","l","elianto","#3366ff99","-1","-1","1","0","[]","0","2","","","13773","51","1","2","win","no-go","1"
"pit-trial","173","1129105","0.0-56.0","battery-v0.2","","""event"",""trial"",""time""
""fullscreenenter"",""1"",""1413""
","
","
","""event"",""trial"",""time""
""fullscreenenter"",""1"",""1413""
","
","","","557.2000000178814","","","21","13773","5893","u","elianto","#f73b6a7A"," "," ","1","0","[1407.6000000238419]","1","2","","","13773","52","0","3","lose","go","0"
"pit-trial","174","1133960","0.0-57.0","battery-v0.2","","""event"",""trial"",""time""
""fullscreenenter"",""1"",""1413""
","
","
","""event"",""trial"",""time""
""fullscreenenter"",""1"",""1413""
","
","","","-1","","","21","13773","5893","l","elianto","#3366ff99","-1","-1","1","+10","[]","0","2","","","13773","53","1","2","win","no-go","0"
"pit-trial","175","1138815","0.0-58.0","battery-v0.2","","""event"",""trial"",""time""
""fullscreenenter"",""1"",""1413""
","
","
","""event"",""trial"",""time""
""fullscreenenter"",""1"",""1413""
","
","","","-1","","","21","13773","5893","g","elianto","#f73b6a7A","-1","-1","1","0","[]","0","2","","","13773","54","3","4","lose","no-go","0"
"pit-trial","176","1142632","0.0-59.0","battery-v0.2","","""event"",""trial"",""time""
""fullscreenenter"",""1"",""1413""
","
","
","""event"",""trial"",""time""
""fullscreenenter"",""1"",""1413""
","
","","","961","","","21","13773","5893","u","elianto","#f73b6a7A"," "," ","1","0","[1812.199999988079]","1","2","","","13773","55","0","3","lose","go","0"
"pit-trial","177","1147487","0.0-60.0","battery-v0.2","","""event"",""trial"",""time""
""fullscreenenter"",""1"",""1413""
","
","
","""event"",""trial"",""time""
""fullscreenenter"",""1"",""1413""
","
","","","-1","","","21","13773","5893","a","elianto","#f73b6a7A"," ","-1","0","-10","[]","0","2","","","13773","56","2","3","lose","go","0"
"pit-trial","178","1151070","0.0-61.0","battery-v0.2","","""event"",""trial"",""time""
""fullscreenenter"",""1"",""1413""
","
","
","""event"",""trial"",""time""
""fullscreenenter"",""1"",""1413""
","
","","","725.9000000059605","","","21","13773","5893","u","elianto","#f73b6a7A"," "," ","1","0","[1577.199999988079]","1","2","","","13773","57","0","3","lose","go","0"
"pit-trial","179","1155924","0.0-62.0","battery-v0.2","","""event"",""trial"",""time""
""fullscreenenter"",""1"",""1413""
","
","
","""event"",""trial"",""time""
""fullscreenenter"",""1"",""1413""
","
","","","-1","","","21","13773","5893","g","elianto","#f73b6a7A","-1","-1","1","0","[]","0","2","","","13773","58","3","4","lose","no-go","0"
"pit-trial","180","1160777","0.0-63.0","battery-v0.2","","""event"",""trial"",""time""
""fullscreenenter"",""1"",""1413""
","
","
","""event"",""trial"",""time""
""fullscreenenter"",""1"",""1413""
","
","","","-1","","","21","13773","5893","a","elianto","#f73b6a7A"," ","-1","0","-10","[]","0","2","","","13773","59","2","3","lose","go","0"
"pit-trial","181","1164778","0.0-64.0","battery-v0.2","","""event"",""trial"",""time""
""fullscreenenter"",""1"",""1413""
","
","
","""event"",""trial"",""time""
""fullscreenenter"",""1"",""1413""
","
","","","1147.5","","","21","13773","5893","p","elianto","#3366ff99"," "," ","1","+10","[1998.0999999940395]","1","2","","","13773","60","4","1","win","go","0"
"pit-trial","182","1168315","0.0-65.0","battery-v0.2","","""event"",""trial"",""time""
""fullscreenenter"",""1"",""1413""
","
","
","""event"",""trial"",""time""
""fullscreenenter"",""1"",""1413""
","
","","","682.0999999940395","","","21","13773","5893","a","elianto","#f73b6a7A"," "," ","1","0","[1533.300000011921]","1","2","","","13773","61","2","3","lose","go","0"
"pit-trial","183","1173171","0.0-66.0","battery-v0.2","","""event"",""trial"",""time""
""fullscreenenter"",""1"",""1413""
","
","
","""event"",""trial"",""time""
""fullscreenenter"",""1"",""1413""
","
","","","-1","","","21","13773","5893","g","elianto","#f73b6a7A","-1","-1","1","0","[]","0","2","","","13773","62","3","4","lose","no-go","0"
"pit-trial","184","1176857","0.0-67.0","battery-v0.2","","""event"",""trial"",""time""
""fullscreenenter"",""1"",""1413""
","
","
","""event"",""trial"",""time""
""fullscreenenter"",""1"",""1413""
","
","","","830.4000000059605","","","21","13773","5893","p","elianto","#3366ff99"," "," ","1","+10","[1680.5999999940395]","1","2","","","13773","63","4","1","win","go","0"
"pit-trial","185","1181712","0.0-68.0","battery-v0.2","","""event"",""trial"",""time""
""fullscreenenter"",""1"",""1413""
","
","
","""event"",""trial"",""time""
""fullscreenenter"",""1"",""1413""
","
","","","-1","","","21","13773","5893","l","elianto","#3366ff99","-1","-1","1","+10","[]","0","2","","","13773","64","1","2","win","no-go","0"
"pit-trial","186","1186568","0.0-69.0","battery-v0.2","","""event"",""trial"",""time""
""fullscreenenter"",""1"",""1413""
","
","
","""event"",""trial"",""time""
""fullscreenenter"",""1"",""1413""
","
","","","-1","","","21","13773","5893","l","elianto","#3366ff99","-1","-1","1","+10","[]","0","2","","","13773","65","1","2","win","no-go","0"
"pit-trial","187","1190281","0.0-70.0","battery-v0.2","","""event"",""trial"",""time""
""fullscreenenter"",""1"",""1413""
","
","
","""event"",""trial"",""time""
""fullscreenenter"",""1"",""1413""
","
","","","857.9000000059605","","","21","13773","5893","s","elianto","#3366ff99","-1"," ","0","0","[1708.199999988079]","1","2","","","13773","66","5","2","win","no-go","0"
"pit-trial","188","1195136","0.0-71.0","battery-v0.2","","""event"",""trial"",""time""
""fullscreenenter"",""1"",""1413""
","
","
","""event"",""trial"",""time""
""fullscreenenter"",""1"",""1413""
","
","","","-1","","","21","13773","5893","g","elianto","#f73b6a7A","-1","-1","1","-10","[]","0","2","","","13773","67","3","4","lose","no-go","1"
"pit-trial","189","1199078","0.0-72.0","battery-v0.2","","""event"",""trial"",""time""
""fullscreenenter"",""1"",""1413""
","
","
","""event"",""trial"",""time""
""fullscreenenter"",""1"",""1413""
","
","","","1086.199999988079","","","21","13773","5893","p","elianto","#3366ff99"," "," ","1","+10","[1937.300000011921]","1","2","","","13773","68","4","1","win","go","0"
"pit-trial","190","1203076","0.0-73.0","battery-v0.2","","""event"",""trial"",""time""
""fullscreenenter"",""1"",""1413""
","
","
","""event"",""trial"",""time""
""fullscreenenter"",""1"",""1413""
","
","","","1142.800000011921","","","21","13773","5893","s","elianto","#3366ff99","-1"," ","0","0","[1993.800000011921]","1","2","","","13773","69","5","2","win","no-go","0"
"pit-trial","191","1207933","0.0-74.0","battery-v0.2","","""event"",""trial"",""time""
""fullscreenenter"",""1"",""1413""
","
","
","""event"",""trial"",""time""
""fullscreenenter"",""1"",""1413""
","
","","","-1","","","21","13773","5893","l","elianto","#3366ff99","-1","-1","1","+10","[]","0","2","","","13773","70","1","2","win","no-go","0"
"pit-trial","192","1211567","0.0-75.0","battery-v0.2","","""event"",""trial"",""time""
""fullscreenenter"",""1"",""1413""
","
","
","""event"",""trial"",""time""
""fullscreenenter"",""1"",""1413""
","
","","","778.5","","","21","13773","5893","p","elianto","#3366ff99"," "," ","1","+10","[1629.4000000059605]","1","2","","","13773","71","4","1","win","go","0"
"pit-trial","193","1215307","0.0-76.0","battery-v0.2","","""event"",""trial"",""time""
""fullscreenenter"",""1"",""1413""
","
","
","""event"",""trial"",""time""
""fullscreenenter"",""1"",""1413""
","
","","","883.5999999940395","","","21","13773","5893","a","elianto","#f73b6a7A"," "," ","1","0","[1734.4000000059605]","1","2","","","13773","72","2","3","lose","go","0"
"pit-trial","194","1219093","0.0-77.0","battery-v0.2","","""event"",""trial"",""time""
""fullscreenenter"",""1"",""1413""
","
","
","""event"",""trial"",""time""
""fullscreenenter"",""1"",""1413""
","
","","","930.8000000119209","","","21","13773","5893","p","elianto","#3366ff99"," "," ","1","+10","[1781.9000000059605]","1","2","","","13773","73","4","1","win","go","0"
"pit-trial","195","1223949","0.0-78.0","battery-v0.2","","""event"",""trial"",""time""
""fullscreenenter"",""1"",""1413""
","
","
","""event"",""trial"",""time""
""fullscreenenter"",""1"",""1413""
","
","","","-1","","","21","13773","5893","s","elianto","#3366ff99","-1","-1","1","+10","[]","0","2","","","13773","74","5","2","win","no-go","0"
"pit-trial","196","1228804","0.0-79.0","battery-v0.2","","""event"",""trial"",""time""
""fullscreenenter"",""1"",""1413""
","
","
","""event"",""trial"",""time""
""fullscreenenter"",""1"",""1413""
","
","","","-1","","","21","13773","5893","g","elianto","#f73b6a7A","-1","-1","1","-10","[]","0","2","","","13773","75","3","4","lose","no-go","1"
"pit-trial","197","1233661","0.0-80.0","battery-v0.2","","""event"",""trial"",""time""
""fullscreenenter"",""1"",""1413""
","
","
","""event"",""trial"",""time""
""fullscreenenter"",""1"",""1413""
","
","","","-1","","","21","13773","5893","l","elianto","#3366ff99","-1","-1","1","0","[]","0","2","","","13773","76","1","2","win","no-go","1"
"pit-trial","198","1237461","0.0-81.0","battery-v0.2","","""event"",""trial"",""time""
""fullscreenenter"",""1"",""1413""
","
","
","""event"",""trial"",""time""
""fullscreenenter"",""1"",""1413""
","
","","","945.5","","","21","13773","5893","p","elianto","#3366ff99"," "," ","1","+10","[1795.9000000059605]","1","2","","","13773","77","4","1","win","go","0"
"pit-trial","199","1240957","0.0-82.0","battery-v0.2","","""event"",""trial"",""time""
""fullscreenenter"",""1"",""1413""
","
","
","""event"",""trial"",""time""
""fullscreenenter"",""1"",""1413""
","
","","","641.5","","","21","13773","5893","g","elianto","#f73b6a7A","-1"," ","0","-10","[1491.7000000178814]","1","2","","","13773","78","3","4","lose","no-go","0"
"pit-trial","200","1245812","0.0-83.0","battery-v0.2","","""event"",""trial"",""time""
""fullscreenenter"",""1"",""1413""
","
","
","""event"",""trial"",""time""
""fullscreenenter"",""1"",""1413""
","
","","","-1","","","21","13773","5893","s","elianto","#3366ff99","-1","-1","1","+10","[]","0","2","","","13773","79","5","2","win","no-go","0"
"pit-trial","201","1249411","0.0-84.0","battery-v0.2","","""event"",""trial"",""time""
""fullscreenenter"",""1"",""1413""
","
","
","""event"",""trial"",""time""
""fullscreenenter"",""1"",""1413""
","
","","","743.3000000119209","","","21","13773","5893","p","elianto","#3366ff99"," "," ","1","+10","[1593.699999988079]","1","2","","","13773","80","4","1","win","go","0"
"pit-trial","202","1254267","0.0-85.0","battery-v0.2","","""event"",""trial"",""time""
""fullscreenenter"",""1"",""1413""
","
","
","""event"",""trial"",""time""
""fullscreenenter"",""1"",""1413""
","
","","","-1","","","21","13773","5893","s","elianto","#3366ff99","-1","-1","1","+10","[]","0","2","","","13773","81","5","2","win","no-go","0"
"pit-trial","203","1258114","0.0-86.0","battery-v0.2","","""event"",""trial"",""time""
""fullscreenenter"",""1"",""1413""
","
","
","""event"",""trial"",""time""
""fullscreenenter"",""1"",""1413""
","
","","","990.7999999821186","","","21","13773","5893","e","elianto","#f73b6a7A","-1"," ","0","-10","[1842.199999988079,3408.199999988079]","2","2","","","13773","82","7","4","lose","no-go","0"
"pit-trial","204","1261682","0.0-87.0","battery-v0.2","","""event"",""trial"",""time""
""fullscreenenter"",""1"",""1413""
","
","
","""event"",""trial"",""time""
""fullscreenenter"",""1"",""1413""
","
","","","713.2999999821186","","","21","13773","5893","p","elianto","#3366ff99"," "," ","1","+10","[1564.199999988079]","1","2","","","13773","83","4","1","win","go","0"
"pit-trial","205","1266536","0.0-88.0","battery-v0.2","","""event"",""trial"",""time""
""fullscreenenter"",""1"",""1413""
","
","
","""event"",""trial"",""time""
""fullscreenenter"",""1"",""1413""
","
","","","-1","","","21","13773","5893","g","elianto","#f73b6a7A","-1","-1","1","0","[]","0","2","","","13773","84","3","4","lose","no-go","0"
"pit-trial","206","1271392","0.0-89.0","battery-v0.2","","""event"",""trial"",""time""
""fullscreenenter"",""1"",""1413""
","
","
","""event"",""trial"",""time""
""fullscreenenter"",""1"",""1413""
","
","","","-1","","","21","13773","5893","e","elianto","#f73b6a7A","-1","-1","1","0","[]","0","2","","","13773","85","7","4","lose","no-go","0"
"pit-trial","207","1276247","0.0-90.0","battery-v0.2","","""event"",""trial"",""time""
""fullscreenenter"",""1"",""1413""
","
","
","""event"",""trial"",""time""
""fullscreenenter"",""1"",""1413""
","
","","","-1","","","21","13773","5893","s","elianto","#3366ff99","-1","-1","1","+10","[]","0","2","","","13773","86","5","2","win","no-go","0"
"pit-trial","208","1279996","0.0-91.0","battery-v0.2","","""event"",""trial"",""time""
""fullscreenenter"",""1"",""1413""
","
","
","""event"",""trial"",""time""
""fullscreenenter"",""1"",""1413""
","
","","","893.2000000178814","","","21","13773","5893","w","elianto","#f73b6a7A"," "," ","1","0","[1743.7000000178814]","1","2","","","13773","87","6","3","lose","go","0"
"pit-trial","209","1283496","0.0-92.0","battery-v0.2","","""event"",""trial"",""time""
""fullscreenenter"",""1"",""1413""
","
","
","""event"",""trial"",""time""
""fullscreenenter"",""1"",""1413""
","
","","","644.7000000178814","","","21","13773","5893","p","elianto","#3366ff99"," "," ","1","+10","[1495.300000011921]","1","2","","","13773","88","4","1","win","go","0"
"pit-trial","210","1288352","0.0-93.0","battery-v0.2","","""event"",""trial"",""time""
""fullscreenenter"",""1"",""1413""
","
","
","""event"",""trial"",""time""
""fullscreenenter"",""1"",""1413""
","
","","","-1","","","21","13773","5893","s","elianto","#3366ff99","-1","-1","1","0","[]","0","2","","","13773","89","5","2","win","no-go","1"
"pit-trial","211","1293207","0.0-94.0","battery-v0.2","","""event"",""trial"",""time""
""fullscreenenter"",""1"",""1413""
","
","
","""event"",""trial"",""time""
""fullscreenenter"",""1"",""1413""
","
","","","-1","","","21","13773","5893","e","elianto","#f73b6a7A","-1","-1","1","0","[]","0","2","","","13773","90","7","4","lose","no-go","0"
"pit-trial","212","1298062","0.0-95.0","battery-v0.2","","""event"",""trial"",""time""
""fullscreenenter"",""1"",""1413""
","
","
","""event"",""trial"",""time""
""fullscreenenter"",""1"",""1413""
","
","","","-1","","","21","13773","5893","p","elianto","#3366ff99"," ","-1","0","0","[2947]","1","2","","","13773","91","4","1","win","go","0"
"pit-trial","213","1302918","0.0-96.0","battery-v0.2","","""event"",""trial"",""time""
""fullscreenenter"",""1"",""1413""
","
","
","""event"",""trial"",""time""
""fullscreenenter"",""1"",""1413""
","
","","","-1","","","21","13773","5893","w","elianto","#f73b6a7A"," ","-1","0","0","[3319.0999999940395]","1","2","","","13773","92","6","3","lose","go","1"
"pit-trial","214","1307771","0.0-97.0","battery-v0.2","","""event"",""trial"",""time""
""fullscreenenter"",""1"",""1413""
","
","
","""event"",""trial"",""time""
""fullscreenenter"",""1"",""1413""
","
","","","-1","","","21","13773","5893","w","elianto","#f73b6a7A"," ","-1","0","-10","[]","0","2","","","13773","93","6","3","lose","go","0"
"pit-trial","215","1312624","0.0-98.0","battery-v0.2","","""event"",""trial"",""time""
""fullscreenenter"",""1"",""1413""
","
","
","""event"",""trial"",""time""
""fullscreenenter"",""1"",""1413""
","
","","","-1","","","21","13773","5893","e","elianto","#f73b6a7A","-1","-1","1","-10","[]","0","2","","","13773","94","7","4","lose","no-go","1"
"pit-trial","216","1317479","0.0-99.0","battery-v0.2","","""event"",""trial"",""time""
""fullscreenenter"",""1"",""1413""
","
","
","""event"",""trial"",""time""
""fullscreenenter"",""1"",""1413""
","
","","","-1","","","21","13773","5893","s","elianto","#3366ff99","-1","-1","1","+10","[]","0","2","","","13773","95","5","2","win","no-go","0"
"pit-trial","217","1321250","0.0-100.0","battery-v0.2","","""event"",""trial"",""time""
""fullscreenenter"",""1"",""1413""
","
","
","""event"",""trial"",""time""
""fullscreenenter"",""1"",""1413""
","
","","","918.1999999880791","","","21","13773","5893","d","elianto","#3366ff99"," "," ","1","0","[1768.699999988079]","1","2","","","13773","96","8","1","win","go","1"
"pit-trial","218","1326103","0.0-101.0","battery-v0.2","","""event"",""trial"",""time""
""fullscreenenter"",""1"",""1413""
","
","
","""event"",""trial"",""time""
""fullscreenenter"",""1"",""1413""
","
","","","-1","","","21","13773","5893","s","elianto","#3366ff99","-1","-1","1","+10","[]","0","2","","","13773","97","5","2","win","no-go","0"
"pit-trial","219","1330957","0.0-102.0","battery-v0.2","","""event"",""trial"",""time""
""fullscreenenter"",""1"",""1413""
","
","
","""event"",""trial"",""time""
""fullscreenenter"",""1"",""1413""
","
","","","-1","","","21","13773","5893","e","elianto","#f73b6a7A","-1","-1","1","0","[]","0","2","","","13773","98","7","4","lose","no-go","0"
"pit-trial","220","1335430","0.0-103.0","battery-v0.2","","""event"",""trial"",""time""
""fullscreenenter"",""1"",""1413""
","
","
","""event"",""trial"",""time""
""fullscreenenter"",""1"",""1413""
","
","","","1618.9000000059605","","","21","13773","5893","d","elianto","#3366ff99"," "," ","1","+10","[2469.9000000059605]","1","2","","","13773","99","8","1","win","go","0"
"pit-trial","221","1339426","0.0-104.0","battery-v0.2","","""event"",""trial"",""time""
""fullscreenenter"",""1"",""1413""
","
","
","""event"",""trial"",""time""
""fullscreenenter"",""1"",""1413""
","
","","","1141.5","","","21","13773","5893","w","elianto","#f73b6a7A"," "," ","1","0","[1992]","1","2","","","13773","100","6","3","lose","go","0"
"pit-trial","222","1344281","0.0-105.0","battery-v0.2","","""event"",""trial"",""time""
""fullscreenenter"",""1"",""1413""
","
","
","""event"",""trial"",""time""
""fullscreenenter"",""1"",""1413""
","
","","","-1","","","21","13773","5893","s","elianto","#3366ff99","-1","-1","1","+10","[]","0","2","","","13773","101","5","2","win","no-go","0"
"pit-trial","223","1349138","0.0-106.0","battery-v0.2","","""event"",""trial"",""time""
""fullscreenenter"",""1"",""1413""
","
","
","""event"",""trial"",""time""
""fullscreenenter"",""1"",""1413""
","
","","","-1","","","21","13773","5893","e","elianto","#f73b6a7A","-1","-1","1","-10","[]","0","2","","","13773","102","7","4","lose","no-go","1"
"pit-trial","224","1353391","0.0-107.0","battery-v0.2","","""event"",""trial"",""time""
""fullscreenenter"",""1"",""1413""
","
","
","""event"",""trial"",""time""
""fullscreenenter"",""1"",""1413""
","
","","","1397.800000011921","","","21","13773","5893","d","elianto","#3366ff99"," "," ","1","+10","[2248.0999999940395]","1","2","","","13773","103","8","1","win","go","0"
"pit-trial","225","1357164","0.0-108.0","battery-v0.2","","""event"",""trial"",""time""
""fullscreenenter"",""1"",""1413""
","
","
","""event"",""trial"",""time""
""fullscreenenter"",""1"",""1413""
","
","","","918","","","21","13773","5893","j","elianto","#3366ff99"," "," ","1","+10","[1768.699999988079]","1","2","","","13773","104","9","1","win","go","0"
"pit-trial","226","1361041","0.0-109.0","battery-v0.2","","""event"",""trial"",""time""
""fullscreenenter"",""1"",""1413""
","
","
","""event"",""trial"",""time""
""fullscreenenter"",""1"",""1413""
","
","","","1020.9000000059605","","","21","13773","5893","j","elianto","#3366ff99"," "," ","1","+10","[1872.0999999940395]","1","2","","","13773","105","9","1","win","go","0"
"pit-trial","227","1364906","0.0-110.0","battery-v0.2","","""event"",""trial"",""time""
""fullscreenenter"",""1"",""1413""
","
","
","""event"",""trial"",""time""
""fullscreenenter"",""1"",""1413""
","
","","","1009.9000000059605","","","21","13773","5893","w","elianto","#f73b6a7A"," "," ","1","0","[1861]","1","2","","","13773","106","6","3","lose","go","0"
"pit-trial","228","1368645","0.0-111.0","battery-v0.2","","""event"",""trial"",""time""
""fullscreenenter"",""1"",""1413""
","
","
","""event"",""trial"",""time""
""fullscreenenter"",""1"",""1413""
","
","","","884.6999999880791","","","21","13773","5893","d","elianto","#3366ff99"," "," ","1","+10","[1735.5]","1","2","","","13773","107","8","1","win","go","0"
"pit-trial","229","1372671","0.0-112.0","battery-v0.2","","""event"",""trial"",""time""
""fullscreenenter"",""1"",""1413""
","
","
","""event"",""trial"",""time""
""fullscreenenter"",""1"",""1413""
","
","","","1170.0999999940395","","","21","13773","5893","p","elianto","#3366ff99"," "," ","1","+10","[2021.300000011921]","1","2","","","13773","108","4","1","win","go","0"
"pit-trial","230","1377526","0.0-113.0","battery-v0.2","","""event"",""trial"",""time""
""fullscreenenter"",""1"",""1413""
","
","
","""event"",""trial"",""time""
""fullscreenenter"",""1"",""1413""
","
","","","-1","","","21","13773","5893","w","elianto","#f73b6a7A"," ","-1","0","-10","[2980]","1","2","","","13773","109","6","3","lose","go","0"
"pit-trial","231","1382380","0.0-114.0","battery-v0.2","","""event"",""trial"",""time""
""fullscreenenter"",""1"",""1413""
","
","
","""event"",""trial"",""time""
""fullscreenenter"",""1"",""1413""
","
","","","-1","","","21","13773","5893","j","elianto","#3366ff99"," ","-1","0","0","[3306.800000011921,4106.5999999940395,4300.699999988079]","3","2","","","13773","110","9","1","win","go","0"
"pit-trial","232","1387235","0.0-115.0","battery-v0.2","","""event"",""trial"",""time""
""fullscreenenter"",""1"",""1413""
","
","
","""event"",""trial"",""time""
""fullscreenenter"",""1"",""1413""
","
","","","-1","","","21","13773","5893","s","elianto","#3366ff99","-1","-1","1","+10","[]","0","2","","","13773","111","5","2","win","no-go","0"
"pit-trial","233","1391315","0.0-116.0","battery-v0.2","","""event"",""trial"",""time""
""fullscreenenter"",""1"",""1413""
","
","
","""event"",""trial"",""time""
""fullscreenenter"",""1"",""1413""
","
","","","1223.800000011921","","","21","13773","5893","d","elianto","#3366ff99"," "," ","1","+10","[2074.7000000178814]","1","2","","","13773","112","8","1","win","go","0"
"pit-trial","234","1394955","0.0-117.0","battery-v0.2","","""event"",""trial"",""time""
""fullscreenenter"",""1"",""1413""
","
","
","""event"",""trial"",""time""
""fullscreenenter"",""1"",""1413""
","
","","","784","","","21","13773","5893","w","elianto","#f73b6a7A"," "," ","1","-10","[1635]","1","2","","","13773","113","6","3","lose","go","1"
"pit-trial","235","1399366","0.0-118.0","battery-v0.2","","""event"",""trial"",""time""
""fullscreenenter"",""1"",""1413""
","
","
","""event"",""trial"",""time""
""fullscreenenter"",""1"",""1413""
","
","","","1555.5","","","21","13773","5893","j","elianto","#3366ff99"," "," ","1","+10","[2406.4000000059605]","1","2","","","13773","114","9","1","win","go","0"
"pit-trial","236","1403007","0.0-119.0","battery-v0.2","","""event"",""trial"",""time""
""fullscreenenter"",""1"",""1413""
","
","
","""event"",""trial"",""time""
""fullscreenenter"",""1"",""1413""
","
","","","785.5","","","21","13773","5893","d","elianto","#3366ff99"," "," ","1","+10","[1635.9000000059605]","1","2","","","13773","115","8","1","win","go","0"
"pit-trial","237","1407862","0.0-120.0","battery-v0.2","","""event"",""trial"",""time""
""fullscreenenter"",""1"",""1413""
","
","
","""event"",""trial"",""time""
""fullscreenenter"",""1"",""1413""
","
","","","-1","","","21","13773","5893","s","elianto","#3366ff99","-1","-1","1","+10","[]","0","2","","","13773","116","5","2","win","no-go","0"
"pit-trial","238","1411642","0.0-121.0","battery-v0.2","","""event"",""trial"",""time""
""fullscreenenter"",""1"",""1413""
","
","
","""event"",""trial"",""time""
""fullscreenenter"",""1"",""1413""
","
","","","924.0999999940395","","","21","13773","5893","d","elianto","#3366ff99"," "," ","1","0","[1775.300000011921]","1","2","","","13773","117","8","1","win","go","1"
"pit-trial","239","1415574","0.0-122.0","battery-v0.2","","""event"",""trial"",""time""
""fullscreenenter"",""1"",""1413""
","
","
","""event"",""trial"",""time""
""fullscreenenter"",""1"",""1413""
","
","","","1077.0999999940395","","","21","13773","5893","j","elianto","#3366ff99"," "," ","1","+10","[1927.5]","1","2","","","13773","118","9","1","win","go","0"
"pit-trial","240","1419236","0.0-123.0","battery-v0.2","","""event"",""trial"",""time""
""fullscreenenter"",""1"",""1413""
","
","
","""event"",""trial"",""time""
""fullscreenenter"",""1"",""1413""
","
","","","808","","","21","13773","5893","w","elianto","#f73b6a7A"," "," ","1","-10","[1658.5]","1","2","","","13773","119","6","3","lose","go","1"
"pit-trial","241","1424093","0.0-124.0","battery-v0.2","","""event"",""trial"",""time""
""fullscreenenter"",""1"",""1413""
","
","
","""event"",""trial"",""time""
""fullscreenenter"",""1"",""1413""
","
","","","-1","","","21","13773","5893","s","elianto","#3366ff99","-1","-1","1","+10","[]","0","2","","","13773","120","5","2","win","no-go","0"
"pit-trial","242","1428948","0.0-125.0","battery-v0.2","","""event"",""trial"",""time""
""fullscreenenter"",""1"",""1413""
","
","
","""event"",""trial"",""time""
""fullscreenenter"",""1"",""1413""
","
","","","-1","","","21","13773","5893","e","elianto","#f73b6a7A","-1","-1","1","-10","[]","0","2","","","13773","121","7","4","lose","no-go","1"
"pit-trial","243","1432645","0.0-126.0","battery-v0.2","","""event"",""trial"",""time""
""fullscreenenter"",""1"",""1413""
","
","
","""event"",""trial"",""time""
""fullscreenenter"",""1"",""1413""
","
","","","841.4000000059605","","","21","13773","5893","d","elianto","#3366ff99"," "," ","1","+10","[1692]","1","2","","","13773","122","8","1","win","go","0"
"pit-trial","244","1436368","0.0-127.0","battery-v0.2","","""event"",""trial"",""time""
""fullscreenenter"",""1"",""1413""
","
","
","""event"",""trial"",""time""
""fullscreenenter"",""1"",""1413""
","
","","","867.3000000119209","","","21","13773","5893","w","elianto","#f73b6a7A"," "," ","1","0","[1717.9000000059605]","1","2","","","13773","123","6","3","lose","go","0"
"pit-trial","245","1439927","0.0-128.0","battery-v0.2","","""event"",""trial"",""time""
""fullscreenenter"",""1"",""1413""
","
","
","""event"",""trial"",""time""
""fullscreenenter"",""1"",""1413""
","
","","","704.0999999940395","","","21","13773","5893","j","elianto","#3366ff99"," "," ","1","+10","[1554.5999999940395]","1","2","","","13773","124","9","1","win","go","0"
"pit-trial","246","1443467","0.0-129.0","battery-v0.2","","""event"",""trial"",""time""
""fullscreenenter"",""1"",""1413""
","
","
","""event"",""trial"",""time""
""fullscreenenter"",""1"",""1413""
","
","","","684.2000000178814","","","21","13773","5893","j","elianto","#3366ff99"," "," ","1","+10","[1535.4000000059605]","1","2","","","13773","125","9","1","win","go","0"
"pit-trial","247","1447090","0.0-130.0","battery-v0.2","","""event"",""trial"",""time""
""fullscreenenter"",""1"",""1413""
","
","
","""event"",""trial"",""time""
""fullscreenenter"",""1"",""1413""
","
","","","766.0999999940395","","","21","13773","5893","e","elianto","#f73b6a7A","-1"," ","0","-10","[1616.9000000059605]","1","2","","","13773","126","7","4","lose","no-go","0"
"pit-trial","248","1450781","0.0-131.0","battery-v0.2","","""event"",""trial"",""time""
""fullscreenenter"",""1"",""1413""
","
","
","""event"",""trial"",""time""
""fullscreenenter"",""1"",""1413""
","
","","","836.0999999940395","","","21","13773","5893","w","elianto","#f73b6a7A"," "," ","1","-10","[1687]","1","2","","","13773","127","6","3","lose","go","1"
"pit-trial","249","1454296","0.0-132.0","battery-v0.2","","""event"",""trial"",""time""
""fullscreenenter"",""1"",""1413""
","
","
","""event"",""trial"",""time""
""fullscreenenter"",""1"",""1413""
","
","","","658.3000000119209","","","21","13773","5893","d","elianto","#3366ff99"," "," ","1","+10","[1508.699999988079]","1","2","","","13773","128","8","1","win","go","0"
"pit-trial","250","1458053","0.0-133.0","battery-v0.2","","""event"",""trial"",""time""
""fullscreenenter"",""1"",""1413""
","
","
","""event"",""trial"",""time""
""fullscreenenter"",""1"",""1413""
","
","","","900.8000000119209","","","21","13773","5893","e","elianto","#f73b6a7A","-1"," ","0","-10","[1751.9000000059605]","1","2","","","13773","129","7","4","lose","no-go","0"
"pit-trial","251","1461605","0.0-134.0","battery-v0.2","","""event"",""trial"",""time""
""fullscreenenter"",""1"",""1413""
","
","
","""event"",""trial"",""time""
""fullscreenenter"",""1"",""1413""
","
","","","696.5999999940395","","","21","13773","5893","j","elianto","#3366ff99"," "," ","1","+10","[1547.300000011921]","1","2","","","13773","130","9","1","win","go","0"
"pit-trial","252","1465165","0.0-135.0","battery-v0.2","","""event"",""trial"",""time""
""fullscreenenter"",""1"",""1413""
","
","
","""event"",""trial"",""time""
""fullscreenenter"",""1"",""1413""
","
","","","704.9000000059605","","","21","13773","5893","w","elianto","#f73b6a7A"," "," ","1","0","[1555]","1","2","","","13773","131","6","3","lose","go","0"
"pit-trial","253","1468767","0.0-136.0","battery-v0.2","","""event"",""trial"",""time""
""fullscreenenter"",""1"",""1413""
","
","
","""event"",""trial"",""time""
""fullscreenenter"",""1"",""1413""
","
","","","745.9000000059605","","","21","13773","5893","d","elianto","#3366ff99"," "," ","1","+10","[1596.199999988079]","1","2","","","13773","132","8","1","win","go","0"
"pit-trial","254","1472163","0.0-137.0","battery-v0.2","","""event"",""trial"",""time""
""fullscreenenter"",""1"",""1413""
","
","
","""event"",""trial"",""time""
""fullscreenenter"",""1"",""1413""
","
","","","540","","","21","13773","5893","d","elianto","#3366ff99"," "," ","1","+10","[1390.5]","1","2","","","13773","133","8","1","win","go","0"
"pit-trial","255","1475683","0.0-138.0","battery-v0.2","","""event"",""trial"",""time""
""fullscreenenter"",""1"",""1413""
","
","
","""event"",""trial"",""time""
""fullscreenenter"",""1"",""1413""
","
","","","664.5999999940395","","","21","13773","5893","j","elianto","#3366ff99"," "," ","1","+10","[1515.4000000059605]","1","2","","","13773","134","9","1","win","go","0"
"pit-trial","256","1479489","0.0-139.0","battery-v0.2","","""event"",""trial"",""time""
""fullscreenenter"",""1"",""1413""
","
","
","""event"",""trial"",""time""
""fullscreenenter"",""1"",""1413""
","
","","","949.6999999880791","","","21","13773","5893","w","elianto","#f73b6a7A"," "," ","1","0","[1800.5999999940395]","1","2","","","13773","135","6","3","lose","go","0"
"pit-trial","257","1482978","0.0-140.0","battery-v0.2","","""event"",""trial"",""time""
""fullscreenenter"",""1"",""1413""
","
","
","""event"",""trial"",""time""
""fullscreenenter"",""1"",""1413""
","
","","","633.2999999821186","","","21","13773","5893","e","elianto","#f73b6a7A","-1"," ","0","-10","[1483.8999999761581]","1","2","","","13773","136","7","4","lose","no-go","0"
"pit-trial","258","1486587","0.0-141.0","battery-v0.2","","""event"",""trial"",""time""
""fullscreenenter"",""1"",""1413""
","
","
","""event"",""trial"",""time""
""fullscreenenter"",""1"",""1413""
","
","","","754","","","21","13773","5893","j","elianto","#3366ff99"," "," ","1","0","[1604.800000011921]","1","2","","","13773","137","9","1","win","go","1"
"pit-trial","259","1490048","0.0-142.0","battery-v0.2","","""event"",""trial"",""time""
""fullscreenenter"",""1"",""1413""
","
","
","""event"",""trial"",""time""
""fullscreenenter"",""1"",""1413""
","
","","","605.5999999940395","","","21","13773","5893","d","elianto","#3366ff99"," "," ","1","+10","[1455.699999988079]","1","2","","","13773","138","8","1","win","go","0"
"pit-trial","260","1493682","0.0-143.0","battery-v0.2","","""event"",""trial"",""time""
""fullscreenenter"",""1"",""1413""
","
","
","""event"",""trial"",""time""
""fullscreenenter"",""1"",""1413""
","
","","","778.6999999880791","","","21","13773","5893","w","elianto","#f73b6a7A"," "," ","1","0","[1629]","1","2","","","13773","139","6","3","lose","go","0"
"pit-trial","261","1498538","0.0-144.0","battery-v0.2","","""event"",""trial"",""time""
""fullscreenenter"",""1"",""1413""
","
","
","""event"",""trial"",""time""
""fullscreenenter"",""1"",""1413""
","
","","","-1","","","21","13773","5893","e","elianto","#f73b6a7A","-1","-1","1","0","[]","0","2","","","13773","140","7","4","lose","no-go","0"
"pit-instructions","262","1583447","0.0-145.0","battery-v0.2","","""event"",""trial"",""time""
""fullscreenenter"",""1"",""1413""
","
","
","""event"",""trial"",""time""
""fullscreenenter"",""1"",""1413""
","
","","[{""page_index"":0,""viewing_time"":75552.5},{""page_index"":1,""viewing_time"":9355}]","84908","","","","","","","","","","","","","","","","","","","","","","","",""
"pit-trial","263","1587234","0.0-146.0","battery-v0.2","","""event"",""trial"",""time""
""fullscreenenter"",""1"",""1413""
","
","
","""event"",""trial"",""time""
""fullscreenenter"",""1"",""1413""
","
","","","929.5","","","21","13773","5893","y","elianto","#f73b6a7A","-1"," ","0","-10","[1779.7999999821186]","1","3","","","13773","141","2","4","lose","no-go","0"
"pit-trial","264","1590783","0.0-147.0","battery-v0.2","","""event"",""trial"",""time""
""fullscreenenter"",""1"",""1413""
","
","
","""event"",""trial"",""time""
""fullscreenenter"",""1"",""1413""
","
","","","693.4000000059605","","","21","13773","5893","m","elianto","#f73b6a7A","-1"," ","0","-10","[1544.7999999821186]","1","3","","","13773","142","0","4","lose","no-go","0"
"pit-trial","265","1594228","0.0-148.0","battery-v0.2","","""event"",""trial"",""time""
""fullscreenenter"",""1"",""1413""
","
","
","""event"",""trial"",""time""
""fullscreenenter"",""1"",""1413""
","
","","","590.6999999880791","","","21","13773","5893","r","elianto","#3366ff99"," "," ","1","+10","[1441.5999999940395]","1","3","","","13773","143","1","1","win","go","0"
"pit-trial","266","1597863","0.0-149.0","battery-v0.2","","""event"",""trial"",""time""
""fullscreenenter"",""1"",""1413""
","
","
","""event"",""trial"",""time""
""fullscreenenter"",""1"",""1413""
","
","","","780.5999999940395","","","21","13773","5893","h","elianto","#f73b6a7A"," "," ","1","0","[1631]","1","3","","","13773","144","3","3","lose","go","0"
"pit-trial","267","1601315","0.0-150.0","battery-v0.2","","""event"",""trial"",""time""
