"trial_type","trial_index","time_elapsed","internal_node_id","task_version","subject_id","interactions","blur_events","focus_events","fullscreenenter_events","fullscreenexit_events","success","view_history","rt","responses","num_errors","age","subject","participantId","rune","rune_set","hex","correct","choice","accuracy","outcome","keys","total_keys","block","practice","value","sub","trial","stimulus","robot","valence","action","sham"
"pavlovia","0","7","0.0-0.0","battery-v0.2","","""event"",""trial"",""time""
""fullscreenenter"",""1"",""1943""
","
","
","""event"",""trial"",""time""
""fullscreenenter"",""1"",""1943""
","
","","","","","","","","","","","","","","","","","","","","","","","","","","",""
"fullscreen","1","2924","0.0-1.0","battery-v0.2","","""event"",""trial"",""time""
""fullscreenenter"",""1"",""1943""
","
","
","""event"",""trial"",""time""
""fullscreenenter"",""1"",""1943""
","
","true","","","","","","","","","","","","","","","","","","","","","","","","","",""
"pit-instructions","2","8078","0.0-2.0-0.0","battery-v0.2","","""event"",""trial"",""time""
""fullscreenenter"",""1"",""1943""
","
","
","""event"",""trial"",""time""
""fullscreenenter"",""1"",""1943""
","
","","[{""page_index"":0,""viewing_time"":5148}]","5148.900000095367","","","","","","","","","","","","","","","","","","","","","","","",""
"pit-comprehension","3","11565","0.0-2.0-1.0-0.0","battery-v0.2","","""event"",""trial"",""time""
""fullscreenenter"",""1"",""1943""
","
","
","""event"",""trial"",""time""
""fullscreenenter"",""1"",""1943""
","
","","","3483.5","[""shark""]","0","24","7263","3933","","","","","","","","","","","","","","","","","","",""
"pit-instructions","4","13155","0.0-2.0-1.0-1.0","battery-v0.2","","""event"",""trial"",""time""
""fullscreenenter"",""1"",""1943""
","
","
","""event"",""trial"",""time""
""fullscreenenter"",""1"",""1943""
","
","","[{""page_index"":0,""viewing_time"":1577.2000000476837}]","1577.8000001907349","","","","","","","","","","","","","","","","","","","","","","","",""
"pit-comprehension","5","18826","0.0-2.0-2.0-0.0","battery-v0.2","","""event"",""trial"",""time""
""fullscreenenter"",""1"",""1943""
","
","
","""event"",""trial"",""time""
""fullscreenenter"",""1"",""1943""
","
","","","5666.5","[""tiger""]","0","24","7263","3933","","","","","","","","","","","","","","","","","","",""
"pit-instructions","6","20450","0.0-2.0-2.0-1.0","battery-v0.2","","""event"",""trial"",""time""
""fullscreenenter"",""1"",""1943""
","
","
","""event"",""trial"",""time""
""fullscreenenter"",""1"",""1943""
","
","","[{""page_index"":0,""viewing_time"":1620.7000000476837}]","1621.1000001430511","","","","","","","","","","","","","","","","","","","","","","","",""
"pit-instructions","7","125831","0.0-2.0-3.0","battery-v0.2","","""event"",""trial"",""time""
""fullscreenenter"",""1"",""1943""
","
","
","""event"",""trial"",""time""
""fullscreenenter"",""1"",""1943""
","
","","[{""page_index"":0,""viewing_time"":16949.799999952316},{""page_index"":1,""viewing_time"":6512.799999952316},{""page_index"":2,""viewing_time"":9171.400000095367},{""page_index"":3,""viewing_time"":6432},{""page_index"":4,""viewing_time"":5547.5},{""page_index"":5,""viewing_time"":6113},{""page_index"":6,""viewing_time"":6531.099999904633},{""page_index"":7,""viewing_time"":6179.900000095367},{""page_index"":8,""viewing_time"":6368},{""page_index"":9,""viewing_time"":7981.099999904633},{""page_index"":10,""viewing_time"":8726.900000095367},{""page_index"":11,""viewing_time"":7964.599999904633},{""page_index"":12,""viewing_time"":6341.200000047684},{""page_index"":13,""viewing_time"":4558.600000143051}]","105378.09999990463","","","","","","","","","","","","","","","","","","","","","","","",""
"pit-trial","8","129181","0.0-2.0-4.0-0.0","battery-v0.2","","""event"",""trial"",""time""
""fullscreenenter"",""1"",""1943""
","
","
","""event"",""trial"",""time""
""fullscreenenter"",""1"",""1943""
","
","","","490.7999999523163","","","24","7263","3933","&#9784;","elianto","#FFFFF080"," "," ","1","&#10004","[1341.0999999046326]","1","0","0","","","","","","","",""
"pit-trial","9","132559","0.0-2.0-4.1-0.1","battery-v0.2","","""event"",""trial"",""time""
""fullscreenenter"",""1"",""1943""
","
","
","""event"",""trial"",""time""
""fullscreenenter"",""1"",""1943""
","
","","","516.6999998092651","","","24","7263","3933","&#9784;","elianto","#FFFFF080"," "," ","1","&#10004","[1368.9000000953674]","1","0","0","","","","","","","",""
"pit-trial","10","136033","0.0-2.0-4.2-0.2","battery-v0.2","","""event"",""trial"",""time""
""fullscreenenter"",""1"",""1943""
","
","
","""event"",""trial"",""time""
""fullscreenenter"",""1"",""1943""
","
","","","604.7000000476837","","","24","7263","3933","&#9784;","elianto","#FFFFF080"," "," ","1","&#10004","[1458.2000000476837]","1","0","0","","","","","","","",""
"pit-trial","11","139338","0.0-2.0-4.3-0.3","battery-v0.2","","""event"",""trial"",""time""
""fullscreenenter"",""1"",""1943""
","
","
","""event"",""trial"",""time""
""fullscreenenter"",""1"",""1943""
","
","","","448.60000014305115","","","24","7263","3933","&#9784;","elianto","#FFFFF080"," "," ","1","&#10004","[1298.7999999523163]","1","0","0","","","","","","","",""
"pit-trial","12","142646","0.0-2.0-4.4-0.4","battery-v0.2","","""event"",""trial"",""time""
""fullscreenenter"",""1"",""1943""
","
","
","""event"",""trial"",""time""
""fullscreenenter"",""1"",""1943""
","
","","","436.59999990463257","","","24","7263","3933","&#9784;","elianto","#FFFFF080"," "," ","1","&#10004","[1287.7999999523163]","1","0","0","","","","","","","",""
"pit-instructions","13","170914","0.0-2.0-5.0","battery-v0.2","","""event"",""trial"",""time""
""fullscreenenter"",""1"",""1943""
","
","
","""event"",""trial"",""time""
""fullscreenenter"",""1"",""1943""
","
","","[{""page_index"":0,""viewing_time"":9293.900000095367},{""page_index"":1,""viewing_time"":6860.400000095367},{""page_index"":2,""viewing_time"":4815},{""page_index"":3,""viewing_time"":7295.899999856949}]","28265.400000095367","","","","","","","","","","","","","","","","","","","","","","","",""
"pit-trial","14","175791","0.0-2.0-6.0-0.0","battery-v0.2","","""event"",""trial"",""time""
""fullscreenenter"",""1"",""1943""
","
","
","""event"",""trial"",""time""
""fullscreenenter"",""1"",""1943""
","
","","","-1","","","24","7263","3933","&#9854;","elianto","#FFFFF080","-1","-1","1","&#10004","[]","0","0","1","","","","","","","",""
"pit-trial","15","180669","0.0-2.0-6.1-0.1","battery-v0.2","","""event"",""trial"",""time""
""fullscreenenter"",""1"",""1943""
","
","
","""event"",""trial"",""time""
""fullscreenenter"",""1"",""1943""
","
","","","-1","","","24","7263","3933","&#9854;","elianto","#FFFFF080","-1","-1","1","&#10004","[]","0","0","1","","","","","","","",""
"pit-trial","16","185542","0.0-2.0-6.2-0.2","battery-v0.2","","""event"",""trial"",""time""
""fullscreenenter"",""1"",""1943""
","
","
","""event"",""trial"",""time""
""fullscreenenter"",""1"",""1943""
","
","","","-1","","","24","7263","3933","&#9854;","elianto","#FFFFF080","-1","-1","1","&#10004","[]","0","0","1","","","","","","","",""
"pit-trial","17","190420","0.0-2.0-6.3-0.3","battery-v0.2","","""event"",""trial"",""time""
""fullscreenenter"",""1"",""1943""
","
","
","""event"",""trial"",""time""
""fullscreenenter"",""1"",""1943""
","
","","","-1","","","24","7263","3933","&#9854;","elianto","#FFFFF080","-1","-1","1","&#10004","[]","0","0","1","","","","","","","",""
"pit-trial","18","195284","0.0-2.0-6.4-0.4","battery-v0.2","","""event"",""trial"",""time""
""fullscreenenter"",""1"",""1943""
","
","
","""event"",""trial"",""time""
""fullscreenenter"",""1"",""1943""
","
","","","-1","","","24","7263","3933","&#9854;","elianto","#FFFFF080","-1","-1","1","&#10004","[]","0","0","1","","","","","","","",""
"pit-instructions","19","329122","0.0-2.0-7.0","battery-v0.2","","""event"",""trial"",""time""
""fullscreenenter"",""1"",""1943""
","
","
","""event"",""trial"",""time""
""fullscreenenter"",""1"",""1943""
","
","","[{""page_index"":0,""viewing_time"":13343.799999952316},{""page_index"":1,""viewing_time"":8284.400000095367},{""page_index"":2,""viewing_time"":6244.700000047684},{""page_index"":3,""viewing_time"":6070.099999904633},{""page_index"":4,""viewing_time"":5845.200000047684},{""page_index"":5,""viewing_time"":5735.599999904633},{""page_index"":6,""viewing_time"":4296.5},{""page_index"":7,""viewing_time"":7787.5},{""page_index"":8,""viewing_time"":6899.400000095367},{""page_index"":9,""viewing_time"":5613.099999904633},{""page_index"":10,""viewing_time"":6451.300000190735},{""page_index"":11,""viewing_time"":5124},{""page_index"":12,""viewing_time"":6680.599999904633},{""page_index"":13,""viewing_time"":8579.900000095367},{""page_index"":14,""viewing_time"":6984.199999809265},{""page_index"":15,""viewing_time"":10654.800000190735},{""page_index"":16,""viewing_time"":12263.799999952316},{""page_index"":17,""viewing_time"":6976.5}]","133835.70000004768","","","","","","","","","","","","","","","","","","","","","","","",""
"pit-trial","20","332510","0.0-2.0-8.0-0.0","battery-v0.2","","""event"",""trial"",""time""
""fullscreenenter"",""1"",""1943""
","
","
","""event"",""trial"",""time""
""fullscreenenter"",""1"",""1943""
","
","","","530.7000000476837","","","24","7263","3933","&#9776;","elianto","#3366ff99"," "," ","1","+10","[1380.6999998092651]","1","0","1","","","","","","","",""
"pit-trial","21","335783","0.0-2.0-8.0-1.0","battery-v0.2","","""event"",""trial"",""time""
""fullscreenenter"",""1"",""1943""
","
","
","""event"",""trial"",""time""
""fullscreenenter"",""1"",""1943""
","
","","","412.5","","","24","7263","3933","&#9776;","elianto","#3366ff99"," "," ","1","+10","[1269.8000001907349]","1","0","1","","","","","","","",""
"pit-trial","22","338973","0.0-2.0-8.0-2.0","battery-v0.2","","""event"",""trial"",""time""
""fullscreenenter"",""1"",""1943""
","
","
","""event"",""trial"",""time""
""fullscreenenter"",""1"",""1943""
","
","","","328.7000000476837","","","24","7263","3933","&#9776;","elianto","#3366ff99"," "," ","1","+10","[1180.2999999523163]","1","0","1","","","","","","","",""
"pit-trial","23","342111","0.0-2.0-8.0-3.0","battery-v0.2","","""event"",""trial"",""time""
""fullscreenenter"",""1"",""1943""
","
","
","""event"",""trial"",""time""
""fullscreenenter"",""1"",""1943""
","
","","","272","","","24","7263","3933","&#9776;","elianto","#3366ff99"," "," ","1","0","[1124.7999999523163]","1","0","1","","","","","","","",""
"pit-trial","24","345485","0.0-2.0-8.0-4.0","battery-v0.2","","""event"",""trial"",""time""
""fullscreenenter"",""1"",""1943""
","
","
","""event"",""trial"",""time""
""fullscreenenter"",""1"",""1943""
","
","","","498.39999985694885","","","24","7263","3933","&#9776;","elianto","#3366ff99"," "," ","1","+10","[1358.5]","1","0","1","","","","","","","",""
"pit-trial","25","348739","0.0-2.0-8.1-0.1","battery-v0.2","","""event"",""trial"",""time""
""fullscreenenter"",""1"",""1943""
","
","
","""event"",""trial"",""time""
""fullscreenenter"",""1"",""1943""
","
","","","389.89999985694885","","","24","7263","3933","&#9776;","elianto","#3366ff99"," "," ","1","+10","[1242.2000000476837]","1","0","1","","","","","","","",""
"pit-trial","26","351944","0.0-2.0-8.1-1.1","battery-v0.2","","""event"",""trial"",""time""
""fullscreenenter"",""1"",""1943""
","
","
","""event"",""trial"",""time""
""fullscreenenter"",""1"",""1943""
","
","","","346.60000014305115","","","24","7263","3933","&#9776;","elianto","#3366ff99"," "," ","1","+10","[1197.0999999046326]","1","0","1","","","","","","","",""
"pit-trial","27","355165","0.0-2.0-8.1-2.1","battery-v0.2","","""event"",""trial"",""time""
""fullscreenenter"",""1"",""1943""
","
","
","""event"",""trial"",""time""
""fullscreenenter"",""1"",""1943""
","
","","","367.69999980926514","","","24","7263","3933","&#9776;","elianto","#3366ff99"," "," ","1","+10","[1218.8999998569489]","1","0","1","","","","","","","",""
"pit-trial","28","358385","0.0-2.0-8.1-3.1","battery-v0.2","","""event"",""trial"",""time""
""fullscreenenter"",""1"",""1943""
","
","
","""event"",""trial"",""time""
""fullscreenenter"",""1"",""1943""
","
","","","355.89999985694885","","","24","7263","3933","&#9776;","elianto","#3366ff99"," "," ","1","0","[1209.7000000476837]","1","0","1","","","","","","","",""
"pit-trial","29","361571","0.0-2.0-8.1-4.1","battery-v0.2","","""event"",""trial"",""time""
""fullscreenenter"",""1"",""1943""
","
","
","""event"",""trial"",""time""
""fullscreenenter"",""1"",""1943""
","
","","","332.30000019073486","","","24","7263","3933","&#9776;","elianto","#3366ff99"," "," ","1","+10","[1183.5]","1","0","1","","","","","","","",""
"pit-trial","30","364773","0.0-2.0-8.2-0.2","battery-v0.2","","""event"",""trial"",""time""
""fullscreenenter"",""1"",""1943""
","
","
","""event"",""trial"",""time""
""fullscreenenter"",""1"",""1943""
","
","","","346.60000014305115","","","24","7263","3933","&#9776;","elianto","#3366ff99"," "," ","1","+10","[1197.4000000953674]","1","0","1","","","","","","","",""
"pit-trial","31","367949","0.0-2.0-8.2-1.2","battery-v0.2","","""event"",""trial"",""time""
""fullscreenenter"",""1"",""1943""
","
","
","""event"",""trial"",""time""
""fullscreenenter"",""1"",""1943""
","
","","","323.10000014305115","","","24","7263","3933","&#9776;","elianto","#3366ff99"," "," ","1","+10","[1174.0999999046326]","1","0","1","","","","","","","",""
"pit-trial","32","371347","0.0-2.0-8.2-2.2","battery-v0.2","","""event"",""trial"",""time""
""fullscreenenter"",""1"",""1943""
","
","
","""event"",""trial"",""time""
""fullscreenenter"",""1"",""1943""
","
","","","544.5","","","24","7263","3933","&#9776;","elianto","#3366ff99"," "," ","1","+10","[1394.9000000953674]","1","0","1","","","","","","","",""
"pit-trial","33","374542","0.0-2.0-8.2-3.2","battery-v0.2","","""event"",""trial"",""time""
""fullscreenenter"",""1"",""1943""
","
","
","""event"",""trial"",""time""
""fullscreenenter"",""1"",""1943""
","
","","","334.5","","","24","7263","3933","&#9776;","elianto","#3366ff99"," "," ","1","0","[1185.2999999523163,2621.0999999046326]","2","0","1","","","","","","","",""
"pit-trial","34","377761","0.0-2.0-8.2-4.2","battery-v0.2","","""event"",""trial"",""time""
""fullscreenenter"",""1"",""1943""
","
","
","""event"",""trial"",""time""
""fullscreenenter"",""1"",""1943""
","
","","","365.2000000476837","","","24","7263","3933","&#9776;","elianto","#3366ff99"," "," ","1","+10","[1215.9000000953674]","1","0","1","","","","","","","",""
"call-function","35","377763","0.0-2.0-9.0","battery-v0.2","","""event"",""trial"",""time""
""fullscreenenter"",""1"",""1943""
","
","
","""event"",""trial"",""time""
""fullscreenenter"",""1"",""1943""
","
","","","","","","","","","","","","","","","","","","","","","","","","","","",""
"pit-instructions","36","420323","0.0-2.0-10.0","battery-v0.2","","""event"",""trial"",""time""
""fullscreenenter"",""1"",""1943""
","
","
","""event"",""trial"",""time""
""fullscreenenter"",""1"",""1943""
","
","","[{""page_index"":0,""viewing_time"":6319.400000095367},{""page_index"":1,""viewing_time"":8860.799999952316},{""page_index"":2,""viewing_time"":10428.899999856949},{""page_index"":3,""viewing_time"":9410.700000047684},{""page_index"":4,""viewing_time"":7539.5}]","42559.700000047684","","","","","","","","","","","","","","","","","","","","","","","",""
"pit-trial","37","423617","0.0-2.0-11.0-0.0","battery-v0.2","","""event"",""trial"",""time""
""fullscreenenter"",""1"",""1943""
""blur"",""38"",""426273""
","""event"",""trial"",""time""
""blur"",""38"",""426273""
","
","""event"",""trial"",""time""
""fullscreenenter"",""1"",""1943""
","
","","","430","","","24","7263","3933","&#9761;","elianto","#3366ff99","-1"," ","0","0","[1282.6000001430511]","1","0","2","","","","","","","",""
"pit-trial","38","426905","0.0-2.0-11.0-1.0","battery-v0.2","","""event"",""trial"",""time""
""fullscreenenter"",""1"",""1943""
""blur"",""38"",""426273""
""focus"",""39"",""427841""
","""event"",""trial"",""time""
""blur"",""38"",""426273""
","""event"",""trial"",""time""
""focus"",""39"",""427841""
","""event"",""trial"",""time""
""fullscreenenter"",""1"",""1943""
","
","","","425.40000009536743","","","24","7263","3933","&#9761;","elianto","#3366ff99","-1"," ","0","0","[1275.5]","1","0","2","","","","","","","",""
"pit-trial","39","430190","0.0-2.0-11.0-2.0","battery-v0.2","","""event"",""trial"",""time""
""fullscreenenter"",""1"",""1943""
""blur"",""38"",""426273""
""focus"",""39"",""427841""
","""event"",""trial"",""time""
""blur"",""38"",""426273""
","""event"",""trial"",""time""
""focus"",""39"",""427841""
","""event"",""trial"",""time""
""fullscreenenter"",""1"",""1943""
","
","","","420.59999990463257","","","24","7263","3933","&#9761;","elianto","#3366ff99","-1"," ","0","0","[1282.7999999523163]","1","0","2","","","","","","","",""
"pit-trial","40","435058","0.0-2.0-11.0-3.0","battery-v0.2","","""event"",""trial"",""time""
""fullscreenenter"",""1"",""1943""
""blur"",""38"",""426273""
""focus"",""39"",""427841""
","""event"",""trial"",""time""
""blur"",""38"",""426273""
","""event"",""trial"",""time""
""focus"",""39"",""427841""
","""event"",""trial"",""time""
""fullscreenenter"",""1"",""1943""
","
","","","-1","","","24","7263","3933","&#9761;","elianto","#3366ff99","-1","-1","1","0","[]","0","0","2","","","","","","","",""
"pit-trial","41","439920","0.0-2.0-11.0-4.0","battery-v0.2","","""event"",""trial"",""time""
""fullscreenenter"",""1"",""1943""
""blur"",""38"",""426273""
""focus"",""39"",""427841""
","""event"",""trial"",""time""
""blur"",""38"",""426273""
","""event"",""trial"",""time""
""focus"",""39"",""427841""
","""event"",""trial"",""time""
""fullscreenenter"",""1"",""1943""
","
","","","-1","","","24","7263","3933","&#9761;","elianto","#3366ff99","-1","-1","1","+10","[]","0","0","2","","","","","","","",""
"pit-trial","42","444789","0.0-2.0-11.1-0.1","battery-v0.2","","""event"",""trial"",""time""
""fullscreenenter"",""1"",""1943""
""blur"",""38"",""426273""
""focus"",""39"",""427841""
","""event"",""trial"",""time""
""blur"",""38"",""426273""
","""event"",""trial"",""time""
""focus"",""39"",""427841""
","""event"",""trial"",""time""
""fullscreenenter"",""1"",""1943""
","
","","","-1","","","24","7263","3933","&#9761;","elianto","#3366ff99","-1","-1","1","+10","[]","0","0","2","","","","","","","",""
"pit-trial","43","449655","0.0-2.0-11.1-1.1","battery-v0.2","","""event"",""trial"",""time""
""fullscreenenter"",""1"",""1943""
""blur"",""38"",""426273""
""focus"",""39"",""427841""
","""event"",""trial"",""time""
""blur"",""38"",""426273""
","""event"",""trial"",""time""
""focus"",""39"",""427841""
","""event"",""trial"",""time""
""fullscreenenter"",""1"",""1943""
","
","","","-1","","","24","7263","3933","&#9761;","elianto","#3366ff99","-1","-1","1","+10","[]","0","0","2","","","","","","","",""
"pit-trial","44","454510","0.0-2.0-11.1-2.1","battery-v0.2","","""event"",""trial"",""time""
""fullscreenenter"",""1"",""1943""
""blur"",""38"",""426273""
""focus"",""39"",""427841""
","""event"",""trial"",""time""
""blur"",""38"",""426273""
","""event"",""trial"",""time""
""focus"",""39"",""427841""
","""event"",""trial"",""time""
""fullscreenenter"",""1"",""1943""
","
","","","-1","","","24","7263","3933","&#9761;","elianto","#3366ff99","-1","-1","1","+10","[]","0","0","2","","","","","","","",""
"pit-trial","45","459364","0.0-2.0-11.1-3.1","battery-v0.2","","""event"",""trial"",""time""
""fullscreenenter"",""1"",""1943""
""blur"",""38"",""426273""
""focus"",""39"",""427841""
","""event"",""trial"",""time""
""blur"",""38"",""426273""
","""event"",""trial"",""time""
""focus"",""39"",""427841""
","""event"",""trial"",""time""
""fullscreenenter"",""1"",""1943""
","
","","","-1","","","24","7263","3933","&#9761;","elianto","#3366ff99","-1","-1","1","0","[]","0","0","2","","","","","","","",""
"pit-trial","46","464217","0.0-2.0-11.1-4.1","battery-v0.2","","""event"",""trial"",""time""
""fullscreenenter"",""1"",""1943""
""blur"",""38"",""426273""
""focus"",""39"",""427841""
","""event"",""trial"",""time""
""blur"",""38"",""426273""
","""event"",""trial"",""time""
""focus"",""39"",""427841""
","""event"",""trial"",""time""
""fullscreenenter"",""1"",""1943""
","
","","","-1","","","24","7263","3933","&#9761;","elianto","#3366ff99","-1","-1","1","+10","[]","0","0","2","","","","","","","",""
"pit-trial","47","469073","0.0-2.0-11.2-0.2","battery-v0.2","","""event"",""trial"",""time""
""fullscreenenter"",""1"",""1943""
""blur"",""38"",""426273""
""focus"",""39"",""427841""
","""event"",""trial"",""time""
""blur"",""38"",""426273""
","""event"",""trial"",""time""
""focus"",""39"",""427841""
","""event"",""trial"",""time""
""fullscreenenter"",""1"",""1943""
","
","","","-1","","","24","7263","3933","&#9761;","elianto","#3366ff99","-1","-1","1","+10","[]","0","0","2","","","","","","","",""
"pit-trial","48","473928","0.0-2.0-11.2-1.2","battery-v0.2","","""event"",""trial"",""time""
""fullscreenenter"",""1"",""1943""
""blur"",""38"",""426273""
""focus"",""39"",""427841""
","""event"",""trial"",""time""
""blur"",""38"",""426273""
","""event"",""trial"",""time""
""focus"",""39"",""427841""
","""event"",""trial"",""time""
""fullscreenenter"",""1"",""1943""
","
","","","-1","","","24","7263","3933","&#9761;","elianto","#3366ff99","-1","-1","1","+10","[]","0","0","2","","","","","","","",""
"pit-trial","49","478782","0.0-2.0-11.2-2.2","battery-v0.2","","""event"",""trial"",""time""
""fullscreenenter"",""1"",""1943""
""blur"",""38"",""426273""
""focus"",""39"",""427841""
","""event"",""trial"",""time""
""blur"",""38"",""426273""
","""event"",""trial"",""time""
""focus"",""39"",""427841""
","""event"",""trial"",""time""
""fullscreenenter"",""1"",""1943""
","
","","","-1","","","24","7263","3933","&#9761;","elianto","#3366ff99","-1","-1","1","+10","[]","0","0","2","","","","","","","",""
"pit-trial","50","483635","0.0-2.0-11.2-3.2","battery-v0.2","","""event"",""trial"",""time""
""fullscreenenter"",""1"",""1943""
""blur"",""38"",""426273""
""focus"",""39"",""427841""
","""event"",""trial"",""time""
""blur"",""38"",""426273""
","""event"",""trial"",""time""
""focus"",""39"",""427841""
","""event"",""trial"",""time""
""fullscreenenter"",""1"",""1943""
","
","","","-1","","","24","7263","3933","&#9761;","elianto","#3366ff99","-1","-1","1","0","[]","0","0","2","","","","","","","",""
"pit-trial","51","488489","0.0-2.0-11.2-4.2","battery-v0.2","","""event"",""trial"",""time""
""fullscreenenter"",""1"",""1943""
""blur"",""38"",""426273""
""focus"",""39"",""427841""
","""event"",""trial"",""time""
""blur"",""38"",""426273""
","""event"",""trial"",""time""
""focus"",""39"",""427841""
","""event"",""trial"",""time""
""fullscreenenter"",""1"",""1943""
","
","","","-1","","","24","7263","3933","&#9761;","elianto","#3366ff99","-1","-1","1","+10","[]","0","0","2","","","","","","","",""
"pit-trial","52","493343","0.0-2.0-11.3-0.3","battery-v0.2","","""event"",""trial"",""time""
""fullscreenenter"",""1"",""1943""
""blur"",""38"",""426273""
""focus"",""39"",""427841""
","""event"",""trial"",""time""
""blur"",""38"",""426273""
","""event"",""trial"",""time""
""focus"",""39"",""427841""
","""event"",""trial"",""time""
""fullscreenenter"",""1"",""1943""
","
","","","-1","","","24","7263","3933","&#9761;","elianto","#3366ff99","-1","-1","1","+10","[]","0","0","2","","","","","","","",""
"pit-trial","53","498197","0.0-2.0-11.3-1.3","battery-v0.2","","""event"",""trial"",""time""
""fullscreenenter"",""1"",""1943""
""blur"",""38"",""426273""
""focus"",""39"",""427841""
","""event"",""trial"",""time""
""blur"",""38"",""426273""
","""event"",""trial"",""time""
""focus"",""39"",""427841""
","""event"",""trial"",""time""
""fullscreenenter"",""1"",""1943""
","
","","","-1","","","24","7263","3933","&#9761;","elianto","#3366ff99","-1","-1","1","+10","[]","0","0","2","","","","","","","",""
"pit-trial","54","503050","0.0-2.0-11.3-2.3","battery-v0.2","","""event"",""trial"",""time""
""fullscreenenter"",""1"",""1943""
""blur"",""38"",""426273""
""focus"",""39"",""427841""
","""event"",""trial"",""time""
""blur"",""38"",""426273""
","""event"",""trial"",""time""
""focus"",""39"",""427841""
","""event"",""trial"",""time""
""fullscreenenter"",""1"",""1943""
","
","","","-1","","","24","7263","3933","&#9761;","elianto","#3366ff99","-1","-1","1","+10","[]","0","0","2","","","","","","","",""
"pit-trial","55","507904","0.0-2.0-11.3-3.3","battery-v0.2","","""event"",""trial"",""time""
""fullscreenenter"",""1"",""1943""
""blur"",""38"",""426273""
""focus"",""39"",""427841""
","""event"",""trial"",""time""
""blur"",""38"",""426273""
","""event"",""trial"",""time""
""focus"",""39"",""427841""
","""event"",""trial"",""time""
""fullscreenenter"",""1"",""1943""
","
","","","-1","","","24","7263","3933","&#9761;","elianto","#3366ff99","-1","-1","1","0","[]","0","0","2","","","","","","","",""
"pit-trial","56","512758","0.0-2.0-11.3-4.3","battery-v0.2","","""event"",""trial"",""time""
""fullscreenenter"",""1"",""1943""
""blur"",""38"",""426273""
""focus"",""39"",""427841""
","""event"",""trial"",""time""
""blur"",""38"",""426273""
","""event"",""trial"",""time""
""focus"",""39"",""427841""
","""event"",""trial"",""time""
""fullscreenenter"",""1"",""1943""
","
","","","-1","","","24","7263","3933","&#9761;","elianto","#3366ff99","-1","-1","1","+10","[]","0","0","2","","","","","","","",""
"call-function","57","512760","0.0-2.0-12.0","battery-v0.2","","""event"",""trial"",""time""
""fullscreenenter"",""1"",""1943""
""blur"",""38"",""426273""
""focus"",""39"",""427841""
","""event"",""trial"",""time""
""blur"",""38"",""426273""
","""event"",""trial"",""time""
""focus"",""39"",""427841""
","""event"",""trial"",""time""
""fullscreenenter"",""1"",""1943""
","
","","","","","","","","","","","","","","","","","","","","","","","","","","",""
"pit-instructions","58","553370","0.0-2.0-13.0","battery-v0.2","","""event"",""trial"",""time""
""fullscreenenter"",""1"",""1943""
""blur"",""38"",""426273""
""focus"",""39"",""427841""
","""event"",""trial"",""time""
""blur"",""38"",""426273""
","""event"",""trial"",""time""
""focus"",""39"",""427841""
","""event"",""trial"",""time""
""fullscreenenter"",""1"",""1943""
","
","","[{""page_index"":0,""viewing_time"":9126.5},{""page_index"":1,""viewing_time"":9234.400000095367},{""page_index"":2,""viewing_time"":4721.399999856949},{""page_index"":3,""viewing_time"":11531.900000095367},{""page_index"":4,""viewing_time"":5995.099999904633}]","40609.700000047684","","","","","","","","","","","","","","","","","","","","","","","",""
"pit-trial","59","557108","0.0-2.0-14.0-0.0","battery-v0.2","","""event"",""trial"",""time""
""fullscreenenter"",""1"",""1943""
""blur"",""38"",""426273""
""focus"",""39"",""427841""
","""event"",""trial"",""time""
""blur"",""38"",""426273""
","""event"",""trial"",""time""
""focus"",""39"",""427841""
","""event"",""trial"",""time""
""fullscreenenter"",""1"",""1943""
","
","","","870.8999998569489","","","24","7263","3933","&#9826;","elianto","#f73b6a7A","-1"," ","0","-10","[1730.5999999046326]","1","0","3","","","","","","","",""
"pit-trial","60","560308","0.0-2.0-14.0-1.0","battery-v0.2","","""event"",""trial"",""time""
""fullscreenenter"",""1"",""1943""
""blur"",""38"",""426273""
""focus"",""39"",""427841""
","""event"",""trial"",""time""
""blur"",""38"",""426273""
","""event"",""trial"",""time""
""focus"",""39"",""427841""
","""event"",""trial"",""time""
""fullscreenenter"",""1"",""1943""
","
","","","343.90000009536743","","","24","7263","3933","&#9826;","elianto","#f73b6a7A","-1"," ","0","-10","[1197.7000000476837]","1","0","3","","","","","","","",""
"pit-trial","61","563965","0.0-2.0-14.0-2.0","battery-v0.2","","""event"",""trial"",""time""
""fullscreenenter"",""1"",""1943""
""blur"",""38"",""426273""
""focus"",""39"",""427841""
","""event"",""trial"",""time""
""blur"",""38"",""426273""
","""event"",""trial"",""time""
""focus"",""39"",""427841""
","""event"",""trial"",""time""
""fullscreenenter"",""1"",""1943""
","
","","","796.8000001907349","","","24","7263","3933","&#9826;","elianto","#f73b6a7A","-1"," ","0","-10","[1650]","1","0","3","","","","","","","",""
"pit-trial","62","568837","0.0-2.0-14.0-3.0","battery-v0.2","","""event"",""trial"",""time""
""fullscreenenter"",""1"",""1943""
""blur"",""38"",""426273""
""focus"",""39"",""427841""
","""event"",""trial"",""time""
""blur"",""38"",""426273""
","""event"",""trial"",""time""
""focus"",""39"",""427841""
","""event"",""trial"",""time""
""fullscreenenter"",""1"",""1943""
","
","","","-1","","","24","7263","3933","&#9826;","elianto","#f73b6a7A","-1","-1","1","-10","[]","0","0","3","","","","","","","",""
"pit-trial","63","573696","0.0-2.0-14.0-4.0","battery-v0.2","","""event"",""trial"",""time""
""fullscreenenter"",""1"",""1943""
""blur"",""38"",""426273""
""focus"",""39"",""427841""
","""event"",""trial"",""time""
""blur"",""38"",""426273""
","""event"",""trial"",""time""
""focus"",""39"",""427841""
","""event"",""trial"",""time""
""fullscreenenter"",""1"",""1943""
","
","","","-1","","","24","7263","3933","&#9826;","elianto","#f73b6a7A","-1","-1","1","0","[]","0","0","3","","","","","","","",""
"pit-trial","64","578568","0.0-2.0-14.1-0.1","battery-v0.2","","""event"",""trial"",""time""
""fullscreenenter"",""1"",""1943""
""blur"",""38"",""426273""
""focus"",""39"",""427841""
","""event"",""trial"",""time""
""blur"",""38"",""426273""
","""event"",""trial"",""time""
""focus"",""39"",""427841""
","""event"",""trial"",""time""
""fullscreenenter"",""1"",""1943""
","
","","","-1","","","24","7263","3933","&#9826;","elianto","#f73b6a7A","-1","-1","1","0","[]","0","0","3","","","","","","","",""
"pit-trial","65","583432","0.0-2.0-14.1-1.1","battery-v0.2","","""event"",""trial"",""time""
""fullscreenenter"",""1"",""1943""
""blur"",""38"",""426273""
""focus"",""39"",""427841""
","""event"",""trial"",""time""
""blur"",""38"",""426273""
","""event"",""trial"",""time""
""focus"",""39"",""427841""
","""event"",""trial"",""time""
""fullscreenenter"",""1"",""1943""
","
","","","-1","","","24","7263","3933","&#9826;","elianto","#f73b6a7A","-1","-1","1","0","[]","0","0","3","","","","","","","",""
"pit-trial","66","588285","0.0-2.0-14.1-2.1","battery-v0.2","","""event"",""trial"",""time""
""fullscreenenter"",""1"",""1943""
""blur"",""38"",""426273""
""focus"",""39"",""427841""
","""event"",""trial"",""time""
""blur"",""38"",""426273""
","""event"",""trial"",""time""
""focus"",""39"",""427841""
","""event"",""trial"",""time""
""fullscreenenter"",""1"",""1943""
","
","","","-1","","","24","7263","3933","&#9826;","elianto","#f73b6a7A","-1","-1","1","0","[]","0","0","3","","","","","","","",""
"pit-trial","67","593139","0.0-2.0-14.1-3.1","battery-v0.2","","""event"",""trial"",""time""
""fullscreenenter"",""1"",""1943""
""blur"",""38"",""426273""
""focus"",""39"",""427841""
","""event"",""trial"",""time""
""blur"",""38"",""426273""
","""event"",""trial"",""time""
""focus"",""39"",""427841""
","""event"",""trial"",""time""
""fullscreenenter"",""1"",""1943""
","
","","","-1","","","24","7263","3933","&#9826;","elianto","#f73b6a7A","-1","-1","1","-10","[]","0","0","3","","","","","","","",""
"pit-trial","68","597995","0.0-2.0-14.1-4.1","battery-v0.2","","""event"",""trial"",""time""
""fullscreenenter"",""1"",""1943""
""blur"",""38"",""426273""
""focus"",""39"",""427841""
","""event"",""trial"",""time""
""blur"",""38"",""426273""
","""event"",""trial"",""time""
""focus"",""39"",""427841""
","""event"",""trial"",""time""
""fullscreenenter"",""1"",""1943""
","
","","","-1","","","24","7263","3933","&#9826;","elianto","#f73b6a7A","-1","-1","1","0","[]","0","0","3","","","","","","","",""
"pit-trial","69","602850","0.0-2.0-14.2-0.2","battery-v0.2","","""event"",""trial"",""time""
""fullscreenenter"",""1"",""1943""
""blur"",""38"",""426273""
""focus"",""39"",""427841""
","""event"",""trial"",""time""
""blur"",""38"",""426273""
","""event"",""trial"",""time""
""focus"",""39"",""427841""
","""event"",""trial"",""time""
""fullscreenenter"",""1"",""1943""
","
","","","-1","","","24","7263","3933","&#9826;","elianto","#f73b6a7A","-1","-1","1","0","[]","0","0","3","","","","","","","",""
"pit-trial","70","607702","0.0-2.0-14.2-1.2","battery-v0.2","","""event"",""trial"",""time""
""fullscreenenter"",""1"",""1943""
""blur"",""38"",""426273""
""focus"",""39"",""427841""
","""event"",""trial"",""time""
""blur"",""38"",""426273""
","""event"",""trial"",""time""
""focus"",""39"",""427841""
","""event"",""trial"",""time""
""fullscreenenter"",""1"",""1943""
","
","","","-1","","","24","7263","3933","&#9826;","elianto","#f73b6a7A","-1","-1","1","0","[]","0","0","3","","","","","","","",""
"pit-trial","71","612555","0.0-2.0-14.2-2.2","battery-v0.2","","""event"",""trial"",""time""
""fullscreenenter"",""1"",""1943""
""blur"",""38"",""426273""
""focus"",""39"",""427841""
","""event"",""trial"",""time""
""blur"",""38"",""426273""
","""event"",""trial"",""time""
""focus"",""39"",""427841""
","""event"",""trial"",""time""
""fullscreenenter"",""1"",""1943""
","
","","","-1","","","24","7263","3933","&#9826;","elianto","#f73b6a7A","-1","-1","1","0","[]","0","0","3","","","","","","","",""
"pit-trial","72","617408","0.0-2.0-14.2-3.2","battery-v0.2","","""event"",""trial"",""time""
""fullscreenenter"",""1"",""1943""
""blur"",""38"",""426273""
""focus"",""39"",""427841""
","""event"",""trial"",""time""
""blur"",""38"",""426273""
","""event"",""trial"",""time""
""focus"",""39"",""427841""
","""event"",""trial"",""time""
""fullscreenenter"",""1"",""1943""
","
","","","-1","","","24","7263","3933","&#9826;","elianto","#f73b6a7A","-1","-1","1","-10","[]","0","0","3","","","","","","","",""
"pit-trial","73","622262","0.0-2.0-14.2-4.2","battery-v0.2","","""event"",""trial"",""time""
""fullscreenenter"",""1"",""1943""
""blur"",""38"",""426273""
""focus"",""39"",""427841""
","""event"",""trial"",""time""
""blur"",""38"",""426273""
","""event"",""trial"",""time""
""focus"",""39"",""427841""
","""event"",""trial"",""time""
""fullscreenenter"",""1"",""1943""
","
","","","-1","","","24","7263","3933","&#9826;","elianto","#f73b6a7A","-1","-1","1","0","[]","0","0","3","","","","","","","",""
"pit-trial","74","627118","0.0-2.0-14.3-0.3","battery-v0.2","","""event"",""trial"",""time""
""fullscreenenter"",""1"",""1943""
""blur"",""38"",""426273""
""focus"",""39"",""427841""
","""event"",""trial"",""time""
""blur"",""38"",""426273""
","""event"",""trial"",""time""
""focus"",""39"",""427841""
","""event"",""trial"",""time""
""fullscreenenter"",""1"",""1943""
","
","","","-1","","","24","7263","3933","&#9826;","elianto","#f73b6a7A","-1","-1","1","0","[]","0","0","3","","","","","","","",""
"pit-trial","75","631971","0.0-2.0-14.3-1.3","battery-v0.2","","""event"",""trial"",""time""
""fullscreenenter"",""1"",""1943""
""blur"",""38"",""426273""
""focus"",""39"",""427841""
","""event"",""trial"",""time""
""blur"",""38"",""426273""
","""event"",""trial"",""time""
""focus"",""39"",""427841""
","""event"",""trial"",""time""
""fullscreenenter"",""1"",""1943""
","
","","","-1","","","24","7263","3933","&#9826;","elianto","#f73b6a7A","-1","-1","1","0","[]","0","0","3","","","","","","","",""
"pit-trial","76","636826","0.0-2.0-14.3-2.3","battery-v0.2","","""event"",""trial"",""time""
""fullscreenenter"",""1"",""1943""
""blur"",""38"",""426273""
""focus"",""39"",""427841""
","""event"",""trial"",""time""
""blur"",""38"",""426273""
","""event"",""trial"",""time""
""focus"",""39"",""427841""
","""event"",""trial"",""time""
""fullscreenenter"",""1"",""1943""
","
","","","-1","","","24","7263","3933","&#9826;","elianto","#f73b6a7A","-1","-1","1","0","[]","0","0","3","","","","","","","",""
"pit-trial","77","641679","0.0-2.0-14.3-3.3","battery-v0.2","","""event"",""trial"",""time""
""fullscreenenter"",""1"",""1943""
""blur"",""38"",""426273""
""focus"",""39"",""427841""
","""event"",""trial"",""time""
""blur"",""38"",""426273""
","""event"",""trial"",""time""
""focus"",""39"",""427841""
","""event"",""trial"",""time""
""fullscreenenter"",""1"",""1943""
","
","","","-1","","","24","7263","3933","&#9826;","elianto","#f73b6a7A","-1","-1","1","-10","[]","0","0","3","","","","","","","",""
"pit-trial","78","646532","0.0-2.0-14.3-4.3","battery-v0.2","","""event"",""trial"",""time""
""fullscreenenter"",""1"",""1943""
""blur"",""38"",""426273""
""focus"",""39"",""427841""
","""event"",""trial"",""time""
""blur"",""38"",""426273""
","""event"",""trial"",""time""
""focus"",""39"",""427841""
","""event"",""trial"",""time""
""fullscreenenter"",""1"",""1943""
","
","","","-1","","","24","7263","3933","&#9826;","elianto","#f73b6a7A","-1","-1","1","0","[]","0","0","3","","","","","","","",""
"call-function","79","646534","0.0-2.0-15.0","battery-v0.2","","""event"",""trial"",""time""
""fullscreenenter"",""1"",""1943""
""blur"",""38"",""426273""
""focus"",""39"",""427841""
","""event"",""trial"",""time""
""blur"",""38"",""426273""
","""event"",""trial"",""time""
""focus"",""39"",""427841""
","""event"",""trial"",""time""
""fullscreenenter"",""1"",""1943""
","
","","","","","","","","","","","","","","","","","","","","","","","","","","",""
"pit-instructions","80","677273","0.0-2.0-16.0","battery-v0.2","","""event"",""trial"",""time""
""fullscreenenter"",""1"",""1943""
""blur"",""38"",""426273""
""focus"",""39"",""427841""
","""event"",""trial"",""time""
""blur"",""38"",""426273""
","""event"",""trial"",""time""
""focus"",""39"",""427841""
","""event"",""trial"",""time""
""fullscreenenter"",""1"",""1943""
","
","","[{""page_index"":0,""viewing_time"":10773.799999952316},{""page_index"":1,""viewing_time"":8417.300000190735},{""page_index"":2,""viewing_time"":5601.599999904633},{""page_index"":3,""viewing_time"":5944.599999904633}]","30738.200000047684","","","","","","","","","","","","","","","","","","","","","","","",""
"pit-trial","81","680541","0.0-2.0-17.0-0.0","battery-v0.2","","""event"",""trial"",""time""
""fullscreenenter"",""1"",""1943""
""blur"",""38"",""426273""
""focus"",""39"",""427841""
","""event"",""trial"",""time""
""blur"",""38"",""426273""
","""event"",""trial"",""time""
""focus"",""39"",""427841""
","""event"",""trial"",""time""
""fullscreenenter"",""1"",""1943""
","
","","","409.7999999523163","","","24","7263","3933","&#9789;","elianto","#f73b6a7A"," "," ","1","0","[1259.9000000953674]","1","0","4","","","","","","","",""
"pit-trial","82","683774","0.0-2.0-17.0-1.0","battery-v0.2","","""event"",""trial"",""time""
""fullscreenenter"",""1"",""1943""
""blur"",""38"",""426273""
""focus"",""39"",""427841""
","""event"",""trial"",""time""
""blur"",""38"",""426273""
","""event"",""trial"",""time""
""focus"",""39"",""427841""
","""event"",""trial"",""time""
""fullscreenenter"",""1"",""1943""
","
","","","373.40000009536743","","","24","7263","3933","&#9789;","elianto","#f73b6a7A"," "," ","1","0","[1224.4000000953674]","1","0","4","","","","","","","",""
"pit-trial","83","686964","0.0-2.0-17.0-2.0","battery-v0.2","","""event"",""trial"",""time""
""fullscreenenter"",""1"",""1943""
""blur"",""38"",""426273""
""focus"",""39"",""427841""
","""event"",""trial"",""time""
""blur"",""38"",""426273""
","""event"",""trial"",""time""
""focus"",""39"",""427841""
","""event"",""trial"",""time""
""fullscreenenter"",""1"",""1943""
","
","","","333.69999980926514","","","24","7263","3933","&#9789;","elianto","#f73b6a7A"," "," ","1","0","[1183.7999999523163]","1","0","4","","","","","","","",""
"pit-trial","84","690254","0.0-2.0-17.0-3.0","battery-v0.2","","""event"",""trial"",""time""
""fullscreenenter"",""1"",""1943""
""blur"",""38"",""426273""
""focus"",""39"",""427841""
","""event"",""trial"",""time""
""blur"",""38"",""426273""
","""event"",""trial"",""time""
""focus"",""39"",""427841""
","""event"",""trial"",""time""
""fullscreenenter"",""1"",""1943""
","
","","","424.40000009536743","","","24","7263","3933","&#9789;","elianto","#f73b6a7A"," "," ","1","-10","[1276.9000000953674]","1","0","4","","","","","","","",""
"pit-trial","85","693447","0.0-2.0-17.0-4.0","battery-v0.2","","""event"",""trial"",""time""
""fullscreenenter"",""1"",""1943""
""blur"",""38"",""426273""
""focus"",""39"",""427841""
","""event"",""trial"",""time""
""blur"",""38"",""426273""
","""event"",""trial"",""time""
""focus"",""39"",""427841""
","""event"",""trial"",""time""
""fullscreenenter"",""1"",""1943""
","
","","","335.69999980926514","","","24","7263","3933","&#9789;","elianto","#f73b6a7A"," "," ","1","0","[1186.3999998569489]","1","0","4","","","","","","","",""
"pit-trial","86","696827","0.0-2.0-17.1-0.1","battery-v0.2","","""event"",""trial"",""time""
""fullscreenenter"",""1"",""1943""
""blur"",""38"",""426273""
""focus"",""39"",""427841""
","""event"",""trial"",""time""
""blur"",""38"",""426273""
","""event"",""trial"",""time""
""focus"",""39"",""427841""
","""event"",""trial"",""time""
""fullscreenenter"",""1"",""1943""
","
","","","520.1000001430511","","","24","7263","3933","&#9789;","elianto","#f73b6a7A"," "," ","1","0","[1374.2000000476837]","1","0","4","","","","","","","",""
"pit-trial","87","700914","0.0-2.0-17.1-1.1","battery-v0.2","","""event"",""trial"",""time""
""fullscreenenter"",""1"",""1943""
""blur"",""38"",""426273""
""focus"",""39"",""427841""
","""event"",""trial"",""time""
""blur"",""38"",""426273""
","""event"",""trial"",""time""
""focus"",""39"",""427841""
","""event"",""trial"",""time""
""fullscreenenter"",""1"",""1943""
","
","","","1220.5","","","24","7263","3933","&#9789;","elianto","#f73b6a7A"," "," ","1","0","[2080.600000143051]","1","0","4","","","","","","","",""
"pit-trial","88","704139","0.0-2.0-17.1-2.1","battery-v0.2","","""event"",""trial"",""time""
""fullscreenenter"",""1"",""1943""
""blur"",""38"",""426273""
""focus"",""39"",""427841""
","""event"",""trial"",""time""
""blur"",""38"",""426273""
","""event"",""trial"",""time""
""focus"",""39"",""427841""
","""event"",""trial"",""time""
""fullscreenenter"",""1"",""1943""
","
","","","368.59999990463257","","","24","7263","3933","&#9789;","elianto","#f73b6a7A"," "," ","1","0","[1220.5]","1","0","4","","","","","","","",""
"pit-trial","89","707130","0.0-2.0-17.1-3.1","battery-v0.2","","""event"",""trial"",""time""
""fullscreenenter"",""1"",""1943""
""blur"",""38"",""426273""
""focus"",""39"",""427841""
","""event"",""trial"",""time""
""blur"",""38"",""426273""
","""event"",""trial"",""time""
""focus"",""39"",""427841""
","""event"",""trial"",""time""
""fullscreenenter"",""1"",""1943""
","
","","","137.19999980926514","","","24","7263","3933","&#9789;","elianto","#f73b6a7A"," "," ","1","-10","[987.3999998569489]","1","0","4","","","","","","","",""
"pit-trial","90","710234","0.0-2.0-17.1-4.1","battery-v0.2","","""event"",""trial"",""time""
""fullscreenenter"",""1"",""1943""
""blur"",""38"",""426273""
""focus"",""39"",""427841""
","""event"",""trial"",""time""
""blur"",""38"",""426273""
","""event"",""trial"",""time""
""focus"",""39"",""427841""
","""event"",""trial"",""time""
""fullscreenenter"",""1"",""1943""
","
","","","249.19999980926514","","","24","7263","3933","&#9789;","elianto","#f73b6a7A"," "," ","1","0","[1100.2000000476837]","1","0","4","","","","","","","",""
"pit-trial","91","713295","0.0-2.0-17.2-0.2","battery-v0.2","","""event"",""trial"",""time""
""fullscreenenter"",""1"",""1943""
""blur"",""38"",""426273""
""focus"",""39"",""427841""
","""event"",""trial"",""time""
""blur"",""38"",""426273""
","""event"",""trial"",""time""
""focus"",""39"",""427841""
","""event"",""trial"",""time""
""fullscreenenter"",""1"",""1943""
","
","","","207.90000009536743","","","24","7263","3933","&#9789;","elianto","#f73b6a7A"," "," ","1","0","[1058.5]","1","0","4","","","","","","","",""
"pit-trial","92","716555","0.0-2.0-17.2-1.2","battery-v0.2","","""event"",""trial"",""time""
""fullscreenenter"",""1"",""1943""
""blur"",""38"",""426273""
""focus"",""39"",""427841""
","""event"",""trial"",""time""
""blur"",""38"",""426273""
","""event"",""trial"",""time""
""focus"",""39"",""427841""
","""event"",""trial"",""time""
""fullscreenenter"",""1"",""1943""
","
","","","405.2000000476837","","","24","7263","3933","&#9789;","elianto","#f73b6a7A"," "," ","1","0","[1256.2000000476837]","1","0","4","","","","","","","",""
"pit-trial","93","719779","0.0-2.0-17.2-2.2","battery-v0.2","","""event"",""trial"",""time""
""fullscreenenter"",""1"",""1943""
""blur"",""38"",""426273""
""focus"",""39"",""427841""
","""event"",""trial"",""time""
""blur"",""38"",""426273""
","""event"",""trial"",""time""
""focus"",""39"",""427841""
","""event"",""trial"",""time""
""fullscreenenter"",""1"",""1943""
","
","","","370.10000014305115","","","24","7263","3933","&#9789;","elianto","#f73b6a7A"," "," ","1","0","[1221.7000000476837]","1","0","4","","","","","","","",""
"pit-trial","94","722842","0.0-2.0-17.2-3.2","battery-v0.2","","""event"",""trial"",""time""
""fullscreenenter"",""1"",""1943""
""blur"",""38"",""426273""
""focus"",""39"",""427841""
","""event"",""trial"",""time""
""blur"",""38"",""426273""
","""event"",""trial"",""time""
""focus"",""39"",""427841""
","""event"",""trial"",""time""
""fullscreenenter"",""1"",""1943""
","
","","","209.59999990463257","","","24","7263","3933","&#9789;","elianto","#f73b6a7A"," "," ","1","-10","[1060.1000001430511]","1","0","4","","","","","","","",""
"pit-trial","95","725879","0.0-2.0-17.2-4.2","battery-v0.2","","""event"",""trial"",""time""
""fullscreenenter"",""1"",""1943""
""blur"",""38"",""426273""
""focus"",""39"",""427841""
","""event"",""trial"",""time""
""blur"",""38"",""426273""
","""event"",""trial"",""time""
""focus"",""39"",""427841""
","""event"",""trial"",""time""
""fullscreenenter"",""1"",""1943""
","
","","","185.59999990463257","","","24","7263","3933","&#9789;","elianto","#f73b6a7A"," "," ","1","0","[1036.1999998092651]","1","0","4","","","","","","","",""
"pit-trial","96","729034","0.0-2.0-17.3-0.3","battery-v0.2","","""event"",""trial"",""time""
""fullscreenenter"",""1"",""1943""
""blur"",""38"",""426273""
""focus"",""39"",""427841""
","""event"",""trial"",""time""
""blur"",""38"",""426273""
","""event"",""trial"",""time""
""focus"",""39"",""427841""
","""event"",""trial"",""time""
""fullscreenenter"",""1"",""1943""
","
","","","301.19999980926514","","","24","7263","3933","&#9789;","elianto","#f73b6a7A"," "," ","1","0","[1151.8999998569489]","1","0","4","","","","","","","",""
"pit-trial","97","732189","0.0-2.0-17.3-1.3","battery-v0.2","","""event"",""trial"",""time""
""fullscreenenter"",""1"",""1943""
""blur"",""38"",""426273""
""focus"",""39"",""427841""
","""event"",""trial"",""time""
""blur"",""38"",""426273""
","""event"",""trial"",""time""
""focus"",""39"",""427841""
","""event"",""trial"",""time""
""fullscreenenter"",""1"",""1943""
","
","","","303","","","24","7263","3933","&#9789;","elianto","#f73b6a7A"," "," ","1","0","[1153.4000000953674]","1","0","4","","","","","","","",""
"pit-trial","98","735383","0.0-2.0-17.3-2.3","battery-v0.2","","""event"",""trial"",""time""
""fullscreenenter"",""1"",""1943""
""blur"",""38"",""426273""
""focus"",""39"",""427841""
","""event"",""trial"",""time""
""blur"",""38"",""426273""
","""event"",""trial"",""time""
""focus"",""39"",""427841""
","""event"",""trial"",""time""
""fullscreenenter"",""1"",""1943""
","
","","","340.39999985694885","","","24","7263","3933","&#9789;","elianto","#f73b6a7A"," "," ","1","0","[1190.4000000953674]","1","0","4","","","","","","","",""
"pit-trial","99","738381","0.0-2.0-17.3-3.3","battery-v0.2","","""event"",""trial"",""time""
""fullscreenenter"",""1"",""1943""
""blur"",""38"",""426273""
""focus"",""39"",""427841""
","""event"",""trial"",""time""
""blur"",""38"",""426273""
","""event"",""trial"",""time""
""focus"",""39"",""427841""
","""event"",""trial"",""time""
""fullscreenenter"",""1"",""1943""
","
","","","145.5","","","24","7263","3933","&#9789;","elianto","#f73b6a7A"," "," ","1","-10","[995.5999999046326]","1","0","4","","","","","","","",""
"pit-trial","100","741457","0.0-2.0-17.3-4.3","battery-v0.2","","""event"",""trial"",""time""
""fullscreenenter"",""1"",""1943""
""blur"",""38"",""426273""
""focus"",""39"",""427841""
","""event"",""trial"",""time""
""blur"",""38"",""426273""
","""event"",""trial"",""time""
""focus"",""39"",""427841""
","""event"",""trial"",""time""
""fullscreenenter"",""1"",""1943""
","
","","","222.70000004768372","","","24","7263","3933","&#9789;","elianto","#f73b6a7A"," "," ","1","0","[1072.9000000953674]","1","0","4","","","","","","","",""
"call-function","101","741458","0.0-2.0-18.0","battery-v0.2","","""event"",""trial"",""time""
""fullscreenenter"",""1"",""1943""
""blur"",""38"",""426273""
""focus"",""39"",""427841""
","""event"",""trial"",""time""
""blur"",""38"",""426273""
","""event"",""trial"",""time""
""focus"",""39"",""427841""
","""event"",""trial"",""time""
""fullscreenenter"",""1"",""1943""
","
","","","","","","","","","","","","","","","","","","","","","","","","","","",""
"pit-instructions","102","855117","0.0-2.0-19.0","battery-v0.2","","""event"",""trial"",""time""
""fullscreenenter"",""1"",""1943""
""blur"",""38"",""426273""
""focus"",""39"",""427841""
","""event"",""trial"",""time""
""blur"",""38"",""426273""
","""event"",""trial"",""time""
""focus"",""39"",""427841""
","""event"",""trial"",""time""
""fullscreenenter"",""1"",""1943""
","
","","[{""page_index"":0,""viewing_time"":50348},{""page_index"":1,""viewing_time"":7159.400000095367},{""page_index"":2,""viewing_time"":17248.099999904633},{""page_index"":3,""viewing_time"":7231.900000095367},{""page_index"":4,""viewing_time"":8492.099999904633},{""page_index"":5,""viewing_time"":8127.300000190735},{""page_index"":6,""viewing_time"":4913.699999809265},{""page_index"":7,""viewing_time"":6322.900000095367},{""page_index"":8,""viewing_time"":3815.2000000476837}]","113659","","","","","","","","","","","","","","","","","","","","","","","",""
"pit-comprehension","103","859586","0.0-2.0-20.0-0.0","battery-v0.2","","""event"",""trial"",""time""
""fullscreenenter"",""1"",""1943""
""blur"",""38"",""426273""
""focus"",""39"",""427841""
","""event"",""trial"",""time""
""blur"",""38"",""426273""
","""event"",""trial"",""time""
""focus"",""39"",""427841""
","""event"",""trial"",""time""
""fullscreenenter"",""1"",""1943""
","
","","","4465.700000047684","[""SPACE""]","0","24","7263","3933","","","","","","","","","","","","","","","","","","",""
"pit-instructions","104","863489","0.0-2.0-20.0-1.0","battery-v0.2","","""event"",""trial"",""time""
""fullscreenenter"",""1"",""1943""
""blur"",""38"",""426273""
""focus"",""39"",""427841""
","""event"",""trial"",""time""
""blur"",""38"",""426273""
","""event"",""trial"",""time""
""focus"",""39"",""427841""
","""event"",""trial"",""time""
""fullscreenenter"",""1"",""1943""
","
","","[{""page_index"":0,""viewing_time"":3872.7999999523163}]","3873.2000000476837","","","","","","","","","","","","","","","","","","","","","","","",""
"pit-comprehension","105","869763","0.0-2.0-21.0-0.0","battery-v0.2","","""event"",""trial"",""time""
""fullscreenenter"",""1"",""1943""
""blur"",""38"",""426273""
""focus"",""39"",""427841""
","""event"",""trial"",""time""
""blur"",""38"",""426273""
","""event"",""trial"",""time""
""focus"",""39"",""427841""
","""event"",""trial"",""time""
""fullscreenenter"",""1"",""1943""
","
","","","6271.600000143051","[""10""]","0","24","7263","3933","","","","","","","","","","","","","","","","","","",""
"pit-instructions","106","873006","0.0-2.0-21.0-1.0","battery-v0.2","","""event"",""trial"",""time""
""fullscreenenter"",""1"",""1943""
""blur"",""38"",""426273""
""focus"",""39"",""427841""
","""event"",""trial"",""time""
""blur"",""38"",""426273""
","""event"",""trial"",""time""
""focus"",""39"",""427841""
","""event"",""trial"",""time""
""fullscreenenter"",""1"",""1943""
","
","","[{""page_index"":0,""viewing_time"":3215.4000000953674}]","3215.7999999523163","","","","","","","","","","","","","","","","","","","","","","","",""
"pit-comprehension","107","879786","0.0-2.0-22.0-0.0","battery-v0.2","","""event"",""trial"",""time""
""fullscreenenter"",""1"",""1943""
""blur"",""38"",""426273""
""focus"",""39"",""427841""
","""event"",""trial"",""time""
""blur"",""38"",""426273""
","""event"",""trial"",""time""
""focus"",""39"",""427841""
","""event"",""trial"",""time""
""fullscreenenter"",""1"",""1943""
","
","","","6778.400000095367","[""0""]","0","24","7263","3933","","","","","","","","","","","","","","","","","","",""
"pit-instructions","108","882061","0.0-2.0-22.0-1.0","battery-v0.2","","""event"",""trial"",""time""
""fullscreenenter"",""1"",""1943""
""blur"",""38"",""426273""
""focus"",""39"",""427841""
","""event"",""trial"",""time""
""blur"",""38"",""426273""
","""event"",""trial"",""time""
""focus"",""39"",""427841""
","""event"",""trial"",""time""
""fullscreenenter"",""1"",""1943""
","
","","[{""page_index"":0,""viewing_time"":2248.100000143051}]","2248.4000000953674","","","","","","","","","","","","","","","","","","","","","","","",""
"pit-comprehension","109","890895","0.0-2.0-23.0-0.0","battery-v0.2","","""event"",""trial"",""time""
""fullscreenenter"",""1"",""1943""
""blur"",""38"",""426273""
""focus"",""39"",""427841""
","""event"",""trial"",""time""
""blur"",""38"",""426273""
","""event"",""trial"",""time""
""focus"",""39"",""427841""
","""event"",""trial"",""time""
""fullscreenenter"",""1"",""1943""
","
","","","8830.799999952316","[""True""]","0","24","7263","3933","","","","","","","","","","","","","","","","","","",""
"pit-instructions","110","894134","0.0-2.0-23.0-1.0","battery-v0.2","","""event"",""trial"",""time""
""fullscreenenter"",""1"",""1943""
""blur"",""38"",""426273""
""focus"",""39"",""427841""
","""event"",""trial"",""time""
""blur"",""38"",""426273""
","""event"",""trial"",""time""
""focus"",""39"",""427841""
","""event"",""trial"",""time""
""fullscreenenter"",""1"",""1943""
","
","","[{""page_index"":0,""viewing_time"":3209.399999856949}]","3209.7000000476837","","","","","","","","","","","","","","","","","","","","","","","",""
"pit-comprehension","111","902434","0.0-2.0-24.0-0.0","battery-v0.2","","""event"",""trial"",""time""
""fullscreenenter"",""1"",""1943""
""blur"",""38"",""426273""
""focus"",""39"",""427841""
","""event"",""trial"",""time""
""blur"",""38"",""426273""
","""event"",""trial"",""time""
""focus"",""39"",""427841""
","""event"",""trial"",""time""
""fullscreenenter"",""1"",""1943""
","
","","","8298","[""True""]","0","24","7263","3933","","","","","","","","","","","","","","","","","","",""
"pit-instructions","112","905442","0.0-2.0-24.0-1.0","battery-v0.2","","""event"",""trial"",""time""
""fullscreenenter"",""1"",""1943""
""blur"",""38"",""426273""
""focus"",""39"",""427841""
","""event"",""trial"",""time""
""blur"",""38"",""426273""
","""event"",""trial"",""time""
""focus"",""39"",""427841""
","""event"",""trial"",""time""
""fullscreenenter"",""1"",""1943""
","
","","[{""page_index"":0,""viewing_time"":2978.199999809265}]","2978.5","","","","","","","","","","","","","","","","","","","","","","","",""
"pit-comprehension","113","911871","0.0-2.0-25.0-0.0","battery-v0.2","","""event"",""trial"",""time""
""fullscreenenter"",""1"",""1943""
""blur"",""38"",""426273""
""focus"",""39"",""427841""
","""event"",""trial"",""time""
""blur"",""38"",""426273""
","""event"",""trial"",""time""
""focus"",""39"",""427841""
","""event"",""trial"",""time""
""fullscreenenter"",""1"",""1943""
","
","","","6426.399999856949","[""True""]","0","24","7263","3933","","","","","","","","","","","","","","","","","","",""
"pit-instructions","114","916806","0.0-2.0-25.0-1.0","battery-v0.2","","""event"",""trial"",""time""
""fullscreenenter"",""1"",""1943""
""blur"",""38"",""426273""
""focus"",""39"",""427841""
","""event"",""trial"",""time""
""blur"",""38"",""426273""
","""event"",""trial"",""time""
""focus"",""39"",""427841""
","""event"",""trial"",""time""
""fullscreenenter"",""1"",""1943""
","
","","[{""page_index"":0,""viewing_time"":4906}]","4906.299999952316","","","","","","","","","","","","","","","","","","","","","","","",""
"pit-comprehension","115","922495","0.0-2.0-26.0-0.0","battery-v0.2","","""event"",""trial"",""time""
""fullscreenenter"",""1"",""1943""
""blur"",""38"",""426273""
""focus"",""39"",""427841""
","""event"",""trial"",""time""
""blur"",""38"",""426273""
","""event"",""trial"",""time""
""focus"",""39"",""427841""
","""event"",""trial"",""time""
""fullscreenenter"",""1"",""1943""
","
","","","5687.5","[""False""]","0","24","7263","3933","","","","","","","","","","","","","","","","","","",""
"pit-instructions","116","930626","0.0-2.0-26.0-1.0","battery-v0.2","","""event"",""trial"",""time""
""fullscreenenter"",""1"",""1943""
""blur"",""38"",""426273""
""focus"",""39"",""427841""
","""event"",""trial"",""time""
""blur"",""38"",""426273""
","""event"",""trial"",""time""
""focus"",""39"",""427841""
","""event"",""trial"",""time""
""fullscreenenter"",""1"",""1943""
","
","","[{""page_index"":0,""viewing_time"":8102.599999904633}]","8102.900000095367","","","","","","","","","","","","","","","","","","","","","","","",""
"pit-instructions","117","954230","0.0-3.0","battery-v0.2","","""event"",""trial"",""time""
""fullscreenenter"",""1"",""1943""
""blur"",""38"",""426273""
""focus"",""39"",""427841""
","""event"",""trial"",""time""
""blur"",""38"",""426273""
","""event"",""trial"",""time""
""focus"",""39"",""427841""
","""event"",""trial"",""time""
""fullscreenenter"",""1"",""1943""
","
","","[{""page_index"":0,""viewing_time"":6506.5},{""page_index"":1,""viewing_time"":8124.700000047684},{""page_index"":2,""viewing_time"":8971.700000047684}]","23603.299999952316","","","","","","","","","","","","","","","","","","","","","","","",""
"pit-trial","118","959097","0.0-4.0","battery-v0.2","","""event"",""trial"",""time""
""fullscreenenter"",""1"",""1943""
""blur"",""38"",""426273""
""focus"",""39"",""427841""
","""event"",""trial"",""time""
""blur"",""38"",""426273""
","""event"",""trial"",""time""
""focus"",""39"",""427841""
","""event"",""trial"",""time""
""fullscreenenter"",""1"",""1943""
","
","","","-1","","","24","7263","3933","&#9728;","elianto","#f73b6a7A","-1","-1","1","0","[2895.2000000476837]","1","1","","","7263","1","0","4","lose","no-go","0"
"pit-trial","119","962909","0.0-5.0","battery-v0.2","","""event"",""trial"",""time""
""fullscreenenter"",""1"",""1943""
""blur"",""38"",""426273""
""focus"",""39"",""427841""
","""event"",""trial"",""time""
""blur"",""38"",""426273""
","""event"",""trial"",""time""
""focus"",""39"",""427841""
","""event"",""trial"",""time""
""fullscreenenter"",""1"",""1943""
","
","","","933.5999999046326","","","24","7263","3933","&#9733;","elianto","#3366ff99","-1"," ","0","0","[1795.1000001430511]","1","1","","","7263","2","2","2","win","no-go","0"
"pit-trial","120","966860","0.0-6.0","battery-v0.2","","""event"",""trial"",""time""
""fullscreenenter"",""1"",""1943""
""blur"",""38"",""426273""
""focus"",""39"",""427841""
","""event"",""trial"",""time""
""blur"",""38"",""426273""
","""event"",""trial"",""time""
""focus"",""39"",""427841""
","""event"",""trial"",""time""
""fullscreenenter"",""1"",""1943""
","
","","","1087.2000000476837","","","24","7263","3933","&#9752;","elianto","#f73b6a7A"," "," ","1","0","[1939.0999999046326]","1","1","","","7263","3","3","3","lose","go","0"
"pit-trial","121","970306","0.0-7.0","battery-v0.2","","""event"",""trial"",""time""
""fullscreenenter"",""1"",""1943""
""blur"",""38"",""426273""
""focus"",""39"",""427841""
","""event"",""trial"",""time""
""blur"",""38"",""426273""
","""event"",""trial"",""time""
""focus"",""39"",""427841""
","""event"",""trial"",""time""
""fullscreenenter"",""1"",""1943""
","
","","","581.9000000953674","","","24","7263","3933","&#9730;","elianto","#3366ff99"," "," ","1","+10","[1432.0999999046326]","1","1","","","7263","4","1","1","win","go","0"
"pit-trial","122","973976","0.0-8.0","battery-v0.2","","""event"",""trial"",""time""
""fullscreenenter"",""1"",""1943""
""blur"",""38"",""426273""
""focus"",""39"",""427841""
","""event"",""trial"",""time""
""blur"",""38"",""426273""
","""event"",""trial"",""time""
""focus"",""39"",""427841""
","""event"",""trial"",""time""
""fullscreenenter"",""1"",""1943""
","
","","","803","","","24","7263","3933","&#9752;","elianto","#f73b6a7A"," "," ","1","0","[1655.0999999046326]","1","1","","","7263","5","3","3","lose","go","0"
"pit-trial","123","977444","0.0-9.0","battery-v0.2","","""event"",""trial"",""time""
""fullscreenenter"",""1"",""1943""
""blur"",""38"",""426273""
""focus"",""39"",""427841""
","""event"",""trial"",""time""
""blur"",""38"",""426273""
","""event"",""trial"",""time""
""focus"",""39"",""427841""
","""event"",""trial"",""time""
""fullscreenenter"",""1"",""1943""
","
","","","607.1000001430511","","","24","7263","3933","&#9733;","elianto","#3366ff99","-1"," ","0","+10","[1457.7000000476837]","1","1","","","7263","6","2","2","win","no-go","1"
"pit-trial","124","980893","0.0-10.0","battery-v0.2","","""event"",""trial"",""time""
""fullscreenenter"",""1"",""1943""
""blur"",""38"",""426273""
""focus"",""39"",""427841""
","""event"",""trial"",""time""
""blur"",""38"",""426273""
","""event"",""trial"",""time""
""focus"",""39"",""427841""
","""event"",""trial"",""time""
""fullscreenenter"",""1"",""1943""
","
","","","589.2000000476837","","","24","7263","3933","&#9730;","elianto","#3366ff99"," "," ","1","+10","[1441.2999999523163]","1","1","","","7263","7","1","1","win","go","0"
"pit-trial","125","984073","0.0-11.0","battery-v0.2","","""event"",""trial"",""time""
""fullscreenenter"",""1"",""1943""
""blur"",""38"",""426273""
""focus"",""39"",""427841""
","""event"",""trial"",""time""
""blur"",""38"",""426273""
","""event"",""trial"",""time""
""focus"",""39"",""427841""
","""event"",""trial"",""time""
""fullscreenenter"",""1"",""1943""
","
","","","323.39999985694885","","","24","7263","3933","&#9728;","elianto","#f73b6a7A","-1"," ","0","0","[1176.7000000476837]","1","1","","","7263","8","0","4","lose","no-go","1"
"pit-trial","126","987455","0.0-12.0","battery-v0.2","","""event"",""trial"",""time""
""fullscreenenter"",""1"",""1943""
""blur"",""38"",""426273""
""focus"",""39"",""427841""
","""event"",""trial"",""time""
""blur"",""38"",""426273""
","""event"",""trial"",""time""
""focus"",""39"",""427841""
","""event"",""trial"",""time""
""fullscreenenter"",""1"",""1943""
","
","","","527.2999999523163","","","24","7263","3933","&#9733;","elianto","#3366ff99","-1"," ","0","+10","[1377.5999999046326]","1","1","","","7263","9","2","2","win","no-go","1"
"pit-trial","127","991090","0.0-13.0","battery-v0.2","","""event"",""trial"",""time""
""fullscreenenter"",""1"",""1943""
""blur"",""38"",""426273""
""focus"",""39"",""427841""
","""event"",""trial"",""time""
""blur"",""38"",""426273""
","""event"",""trial"",""time""
""focus"",""39"",""427841""
","""event"",""trial"",""time""
""fullscreenenter"",""1"",""1943""
","
","","","782.2999999523163","","","24","7263","3933","&#9730;","elianto","#3366ff99"," "," ","1","+10","[1632.5]","1","1","","","7263","10","1","1","win","go","0"
"pit-trial","128","994425","0.0-14.0","battery-v0.2","","""event"",""trial"",""time""
""fullscreenenter"",""1"",""1943""
""blur"",""38"",""426273""
""focus"",""39"",""427841""
","""event"",""trial"",""time""
""blur"",""38"",""426273""
","""event"",""trial"",""time""
""focus"",""39"",""427841""
","""event"",""trial"",""time""
""fullscreenenter"",""1"",""1943""
","
","","","481","","","24","7263","3933","&#9728;","elianto","#f73b6a7A","-1"," ","0","-10","[1332]","1","1","","","7263","11","0","4","lose","no-go","0"
"pit-trial","129","998156","0.0-15.0","battery-v0.2","","""event"",""trial"",""time""
""fullscreenenter"",""1"",""1943""
""blur"",""38"",""426273""
""focus"",""39"",""427841""
","""event"",""trial"",""time""
""blur"",""38"",""426273""
","""event"",""trial"",""time""
""focus"",""39"",""427841""
","""event"",""trial"",""time""
""fullscreenenter"",""1"",""1943""
","
","","","876.0999999046326","","","24","7263","3933","&#9752;","elianto","#f73b6a7A"," "," ","1","0","[1726.7000000476837]","1","1","","","7263","12","3","3","lose","go","0"
"pit-trial","130","1003008","0.0-16.0","battery-v0.2","","""event"",""trial"",""time""
""fullscreenenter"",""1"",""1943""
""blur"",""38"",""426273""
""focus"",""39"",""427841""
","""event"",""trial"",""time""
""blur"",""38"",""426273""
","""event"",""trial"",""time""
""focus"",""39"",""427841""
","""event"",""trial"",""time""
""fullscreenenter"",""1"",""1943""
","
","","","-1","","","24","7263","3933","&#9728;","elianto","#f73b6a7A","-1","-1","1","0","[]","0","1","","","7263","13","0","4","lose","no-go","0"
"pit-trial","131","1006337","0.0-17.0","battery-v0.2","","""event"",""trial"",""time""
""fullscreenenter"",""1"",""1943""
""blur"",""38"",""426273""
""focus"",""39"",""427841""
","""event"",""trial"",""time""
""blur"",""38"",""426273""
","""event"",""trial"",""time""
""focus"",""39"",""427841""
","""event"",""trial"",""time""
""fullscreenenter"",""1"",""1943""
","
","","","476.39999985694885","","","24","7263","3933","&#9733;","elianto","#3366ff99","-1"," ","0","0","[1326.2999999523163]","1","1","","","7263","14","2","2","win","no-go","0"
"pit-trial","132","1009681","0.0-18.0","battery-v0.2","","""event"",""trial"",""time""
""fullscreenenter"",""1"",""1943""
""blur"",""38"",""426273""
""focus"",""39"",""427841""
","""event"",""trial"",""time""
""blur"",""38"",""426273""
","""event"",""trial"",""time""
""focus"",""39"",""427841""
","""event"",""trial"",""time""
""fullscreenenter"",""1"",""1943""
","
","","","491.69999980926514","","","24","7263","3933","&#9730;","elianto","#3366ff99"," "," ","1","+10","[1342.0999999046326]","1","1","","","7263","15","1","1","win","go","0"
"pit-trial","133","1013224","0.0-19.0","battery-v0.2","","""event"",""trial"",""time""
""fullscreenenter"",""1"",""1943""
""blur"",""38"",""426273""
""focus"",""39"",""427841""
","""event"",""trial"",""time""
""blur"",""38"",""426273""
","""event"",""trial"",""time""
""focus"",""39"",""427841""
","""event"",""trial"",""time""
""fullscreenenter"",""1"",""1943""
","
","","","689.7999999523163","","","24","7263","3933","&#9752;","elianto","#f73b6a7A"," "," ","1","-10","[1540.0999999046326]","1","1","","","7263","16","3","3","lose","go","1"
"pit-trial","134","1016569","0.0-20.0","battery-v0.2","","""event"",""trial"",""time""
""fullscreenenter"",""1"",""1943""
""blur"",""38"",""426273""
""focus"",""39"",""427841""
","""event"",""trial"",""time""
""blur"",""38"",""426273""
","""event"",""trial"",""time""
""focus"",""39"",""427841""
","""event"",""trial"",""time""
""fullscreenenter"",""1"",""1943""
","
","","","490.7999999523163","","","24","7263","3933","&#9730;","elianto","#3366ff99"," "," ","1","+10","[1341.0999999046326]","1","1","","","7263","17","1","1","win","go","0"
"pit-trial","135","1019885","0.0-21.0","battery-v0.2","","""event"",""trial"",""time""
""fullscreenenter"",""1"",""1943""
""blur"",""38"",""426273""
""focus"",""39"",""427841""
","""event"",""trial"",""time""
""blur"",""38"",""426273""
","""event"",""trial"",""time""
""focus"",""39"",""427841""
","""event"",""trial"",""time""
""fullscreenenter"",""1"",""1943""
","
","","","461.5","","","24","7263","3933","&#9733;","elianto","#3366ff99","-1"," ","0","0","[1312.5]","1","1","","","7263","18","2","2","win","no-go","0"
"pit-trial","136","1023351","0.0-22.0","battery-v0.2","","""event"",""trial"",""time""
""fullscreenenter"",""1"",""1943""
""blur"",""38"",""426273""
""focus"",""39"",""427841""
","""event"",""trial"",""time""
""blur"",""38"",""426273""
","""event"",""trial"",""time""
""focus"",""39"",""427841""
","""event"",""trial"",""time""
""fullscreenenter"",""1"",""1943""
","
","","","611.5","","","24","7263","3933","&#9752;","elianto","#f73b6a7A"," "," ","1","0","[1462.7999999523163]","1","1","","","7263","19","3","3","lose","go","0"
"pit-trial","137","1028207","0.0-23.0","battery-v0.2","","""event"",""trial"",""time""
""fullscreenenter"",""1"",""1943""
""blur"",""38"",""426273""
""focus"",""39"",""427841""
","""event"",""trial"",""time""
""blur"",""38"",""426273""
","""event"",""trial"",""time""
""focus"",""39"",""427841""
","""event"",""trial"",""time""
""fullscreenenter"",""1"",""1943""
","
","","","-1","","","24","7263","3933","&#9728;","elianto","#f73b6a7A","-1","-1","1","0","[]","0","1","","","7263","20","0","4","lose","no-go","0"
"pit-instructions","138","1041566","0.0-24.0","battery-v0.2","","""event"",""trial"",""time""
""fullscreenenter"",""1"",""1943""
""blur"",""38"",""426273""
""focus"",""39"",""427841""
","""event"",""trial"",""time""
""blur"",""38"",""426273""
","""event"",""trial"",""time""
""focus"",""39"",""427841""
","""event"",""trial"",""time""
""fullscreenenter"",""1"",""1943""
","
","","[{""page_index"":0,""viewing_time"":6355.700000047684},{""page_index"":1,""viewing_time"":7001.699999809265}]","13358.200000047684","","","","","","","","","","","","","","","","","","","","","","","",""
"pit-trial","139","1045340","0.0-25.0","battery-v0.2","","""event"",""trial"",""time""
""fullscreenenter"",""1"",""1943""
""blur"",""38"",""426273""
""focus"",""39"",""427841""
","""event"",""trial"",""time""
""blur"",""38"",""426273""
","""event"",""trial"",""time""
""focus"",""39"",""427841""
","""event"",""trial"",""time""
""fullscreenenter"",""1"",""1943""
","
","","","914.5999999046326","","","24","7263","3933","m","elianto","#f73b6a7A","-1"," ","0","0","[1768.5]","1","2","","","7263","21","0","4","lose","no-go","1"
"pit-trial","140","1048939","0.0-26.0","battery-v0.2","","""event"",""trial"",""time""
""fullscreenenter"",""1"",""1943""
""blur"",""38"",""426273""
""focus"",""39"",""427841""
","""event"",""trial"",""time""
""blur"",""38"",""426273""
","""event"",""trial"",""time""
""focus"",""39"",""427841""
","""event"",""trial"",""time""
""fullscreenenter"",""1"",""1943""
","
","","","731.4000000953674","","","24","7263","3933","r","elianto","#3366ff99"," "," ","1","+10","[1591.3000001907349]","1","2","","","7263","22","1","1","win","go","0"
"pit-trial","141","1052527","0.0-27.0","battery-v0.2","","""event"",""trial"",""time""
""fullscreenenter"",""1"",""1943""
""blur"",""38"",""426273""
""focus"",""39"",""427841""
","""event"",""trial"",""time""
""blur"",""38"",""426273""
","""event"",""trial"",""time""
""focus"",""39"",""427841""
","""event"",""trial"",""time""
""fullscreenenter"",""1"",""1943""
","
","","","731","","","24","7263","3933","y","elianto","#f73b6a7A","-1"," ","0","-10","[1585.1000001430511]","1","2","","","7263","23","2","4","lose","no-go","0"
"pit-trial","142","1055962","0.0-28.0","battery-v0.2","","""event"",""trial"",""time""
""fullscreenenter"",""1"",""1943""
""blur"",""38"",""426273""
""focus"",""39"",""427841""
","""event"",""trial"",""time""
""blur"",""38"",""426273""
","""event"",""trial"",""time""
""focus"",""39"",""427841""
","""event"",""trial"",""time""
""fullscreenenter"",""1"",""1943""
","
","","","564.2000000476837","","","24","7263","3933","h","elianto","#f73b6a7A"," "," ","1","0","[1423.3999998569489]","1","2","","","7263","24","3","3","lose","go","0"
"pit-trial","143","1059624","0.0-29.0","battery-v0.2","","""event"",""trial"",""time""
""fullscreenenter"",""1"",""1943""
""blur"",""38"",""426273""
""focus"",""39"",""427841""
","""event"",""trial"",""time""
""blur"",""38"",""426273""
","""event"",""trial"",""time""
""focus"",""39"",""427841""
","""event"",""trial"",""time""
""fullscreenenter"",""1"",""1943""
","
","","","788","","","24","7263","3933","r","elianto","#3366ff99"," "," ","1","+10","[1645.7000000476837]","1","2","","","7263","25","1","1","win","go","0"
"pit-trial","144","1063368","0.0-30.0","battery-v0.2","","""event"",""trial"",""time""
""fullscreenenter"",""1"",""1943""
""blur"",""38"",""426273""
""focus"",""39"",""427841""
","""event"",""trial"",""time""
""blur"",""38"",""426273""
","""event"",""trial"",""time""
""focus"",""39"",""427841""
","""event"",""trial"",""time""
""fullscreenenter"",""1"",""1943""
","
","","","873.0999999046326","","","24","7263","3933","m","elianto","#f73b6a7A","-1"," ","0","-10","[1735.7999999523163]","1","2","","","7263","26","0","4","lose","no-go","0"
"pit-trial","145","1066849","0.0-31.0","battery-v0.2","","""event"",""trial"",""time""
""fullscreenenter"",""1"",""1943""
""blur"",""38"",""426273""
""focus"",""39"",""427841""
","""event"",""trial"",""time""
""blur"",""38"",""426273""
","""event"",""trial"",""time""
""focus"",""39"",""427841""
","""event"",""trial"",""time""
""fullscreenenter"",""1"",""1943""
","
","","","610.7999999523163","","","24","7263","3933","h","elianto","#f73b6a7A"," "," ","1","0","[479.09999990463257,1463.7000000476837]","2","2","","","7263","27","3","3","lose","go","0"
"pit-trial","146","1071407","0.0-32.0","battery-v0.2","","""event"",""trial"",""time""
""fullscreenenter"",""1"",""1943""
""blur"",""38"",""426273""
""focus"",""39"",""427841""
","""event"",""trial"",""time""
""blur"",""38"",""426273""
","""event"",""trial"",""time""
""focus"",""39"",""427841""
","""event"",""trial"",""time""
""fullscreenenter"",""1"",""1943""
","
","","","1699.2000000476837","","","24","7263","3933","y","elianto","#f73b6a7A","-1"," ","0","-10","[2555]","1","2","","","7263","28","2","4","lose","no-go","0"
"pit-trial","147","1076261","0.0-33.0","battery-v0.2","","""event"",""trial"",""time""
""fullscreenenter"",""1"",""1943""
""blur"",""38"",""426273""
""focus"",""39"",""427841""
","""event"",""trial"",""time""
""blur"",""38"",""426273""
","""event"",""trial"",""time""
""focus"",""39"",""427841""
","""event"",""trial"",""time""
""fullscreenenter"",""1"",""1943""
","
","","","-1","","","24","7263","3933","y","elianto","#f73b6a7A","-1","-1","1","0","[]","0","2","","","7263","29","2","4","lose","no-go","0"
"pit-trial","148","1081115","0.0-34.0","battery-v0.2","","""event"",""trial"",""time""
""fullscreenenter"",""1"",""1943""
""blur"",""38"",""426273""
""focus"",""39"",""427841""
","""event"",""trial"",""time""
""blur"",""38"",""426273""
","""event"",""trial"",""time""
""focus"",""39"",""427841""
","""event"",""trial"",""time""
""fullscreenenter"",""1"",""1943""
","
","","","-1","","","24","7263","3933","m","elianto","#f73b6a7A","-1","-1","1","0","[]","0","2","","","7263","30","0","4","lose","no-go","0"
"pit-trial","149","1084471","0.0-35.0","battery-v0.2","","""event"",""trial"",""time""
""fullscreenenter"",""1"",""1943""
""blur"",""38"",""426273""
""focus"",""39"",""427841""
","""event"",""trial"",""time""
""blur"",""38"",""426273""
","""event"",""trial"",""time""
""focus"",""39"",""427841""
","""event"",""trial"",""time""
""fullscreenenter"",""1"",""1943""
","
","","","502.59999990463257","","","24","7263","3933","r","elianto","#3366ff99"," "," ","1","0","[1352.9000000953674]","1","2","","","7263","31","1","1","win","go","1"
"pit-trial","150","1088500","0.0-36.0","battery-v0.2","","""event"",""trial"",""time""
""fullscreenenter"",""1"",""1943""
""blur"",""38"",""426273""
""focus"",""39"",""427841""
","""event"",""trial"",""time""
""blur"",""38"",""426273""
","""event"",""trial"",""time""
""focus"",""39"",""427841""
","""event"",""trial"",""time""
""fullscreenenter"",""1"",""1943""
","
","","","1175.4000000953674","","","24","7263","3933","h","elianto","#f73b6a7A"," "," ","1","-10","[2025.7000000476837]","1","2","","","7263","32","3","3","lose","go","1"
"pit-trial","151","1093354","0.0-37.0","battery-v0.2","","""event"",""trial"",""time""
""fullscreenenter"",""1"",""1943""
""blur"",""38"",""426273""
""focus"",""39"",""427841""
","""event"",""trial"",""time""
""blur"",""38"",""426273""
","""event"",""trial"",""time""
""focus"",""39"",""427841""
","""event"",""trial"",""time""
""fullscreenenter"",""1"",""1943""
","
","","","-1","","","24","7263","3933","y","elianto","#f73b6a7A","-1","-1","1","0","[]","0","2","","","7263","33","2","4","lose","no-go","0"
"pit-trial","152","1098208","0.0-38.0","battery-v0.2","","""event"",""trial"",""time""
""fullscreenenter"",""1"",""1943""
""blur"",""38"",""426273""
""focus"",""39"",""427841""
","""event"",""trial"",""time""
""blur"",""38"",""426273""
","""event"",""trial"",""time""
""focus"",""39"",""427841""
","""event"",""trial"",""time""
""fullscreenenter"",""1"",""1943""
","
","","","-1","","","24","7263","3933","h","elianto","#f73b6a7A"," ","-1","0","-10","[]","0","2","","","7263","34","3","3","lose","go","0"
"pit-trial","153","1101542","0.0-39.0","battery-v0.2","","""event"",""trial"",""time""
""fullscreenenter"",""1"",""1943""
""blur"",""38"",""426273""
""focus"",""39"",""427841""
","""event"",""trial"",""time""
""blur"",""38"",""426273""
","""event"",""trial"",""time""
""focus"",""39"",""427841""
","""event"",""trial"",""time""
""fullscreenenter"",""1"",""1943""
","
","","","480.09999990463257","","","24","7263","3933","r","elianto","#3366ff99"," "," ","1","+10","[1330.5]","1","2","","","7263","35","1","1","win","go","0"
"pit-trial","154","1106396","0.0-40.0","battery-v0.2","","""event"",""trial"",""time""
""fullscreenenter"",""1"",""1943""
""blur"",""38"",""426273""
""focus"",""39"",""427841""
","""event"",""trial"",""time""
""blur"",""38"",""426273""
","""event"",""trial"",""time""
""focus"",""39"",""427841""
","""event"",""trial"",""time""
""fullscreenenter"",""1"",""1943""
","
","","","-1","","","24","7263","3933","m","elianto","#f73b6a7A","-1","-1","1","0","[]","0","2","","","7263","36","0","4","lose","no-go","0"
"pit-trial","155","1110041","0.0-41.0","battery-v0.2","","""event"",""trial"",""time""
""fullscreenenter"",""1"",""1943""
""blur"",""38"",""426273""
""focus"",""39"",""427841""
","""event"",""trial"",""time""
""blur"",""38"",""426273""
","""event"",""trial"",""time""
""focus"",""39"",""427841""
","""event"",""trial"",""time""
""fullscreenenter"",""1"",""1943""
","
","","","790.9000000953674","","","24","7263","3933","r","elianto","#3366ff99"," "," ","1","0","[1641.5]","1","2","","","7263","37","1","1","win","go","1"
"pit-trial","156","1114898","0.0-42.0","battery-v0.2","","""event"",""trial"",""time""
""fullscreenenter"",""1"",""1943""
""blur"",""38"",""426273""
""focus"",""39"",""427841""
","""event"",""trial"",""time""
""blur"",""38"",""426273""
","""event"",""trial"",""time""
""focus"",""39"",""427841""
","""event"",""trial"",""time""
""fullscreenenter"",""1"",""1943""
","
","","","-1","","","24","7263","3933","m","elianto","#f73b6a7A","-1","-1","1","0","[]","0","2","","","7263","38","0","4","lose","no-go","0"
"pit-trial","157","1119750","0.0-43.0","battery-v0.2","","""event"",""trial"",""time""
""fullscreenenter"",""1"",""1943""
""blur"",""38"",""426273""
""focus"",""39"",""427841""
","""event"",""trial"",""time""
""blur"",""38"",""426273""
","""event"",""trial"",""time""
""focus"",""39"",""427841""
","""event"",""trial"",""time""
""fullscreenenter"",""1"",""1943""
","
","","","-1","","","24","7263","3933","y","elianto","#f73b6a7A","-1","-1","1","0","[]","0","2","","","7263","39","2","4","lose","no-go","0"
"pit-trial","158","1123815","0.0-44.0","battery-v0.2","","""event"",""trial"",""time""
""fullscreenenter"",""1"",""1943""
""blur"",""38"",""426273""
""focus"",""39"",""427841""
","""event"",""trial"",""time""
""blur"",""38"",""426273""
","""event"",""trial"",""time""
""focus"",""39"",""427841""
","""event"",""trial"",""time""
""fullscreenenter"",""1"",""1943""
","
","","","1210.1999998092651","","","24","7263","3933","h","elianto","#f73b6a7A"," "," ","1","0","[2061]","1","2","","","7263","40","3","3","lose","go","0"
"pit-trial","159","1127369","0.0-45.0","battery-v0.2","","""event"",""trial"",""time""
""fullscreenenter"",""1"",""1943""
""blur"",""38"",""426273""
""focus"",""39"",""427841""
","""event"",""trial"",""time""
""blur"",""38"",""426273""
","""event"",""trial"",""time""
""focus"",""39"",""427841""
","""event"",""trial"",""time""
""fullscreenenter"",""1"",""1943""
","
","","","700.1999998092651","","","24","7263","3933","h","elianto","#f73b6a7A"," "," ","1","0","[1551.0999999046326]","1","2","","","7263","41","3","3","lose","go","0"
"pit-trial","160","1130927","0.0-46.0","battery-v0.2","","""event"",""trial"",""time""
""fullscreenenter"",""1"",""1943""
""blur"",""38"",""426273""
""focus"",""39"",""427841""
","""event"",""trial"",""time""
""blur"",""38"",""426273""
","""event"",""trial"",""time""
""focus"",""39"",""427841""
","""event"",""trial"",""time""
""fullscreenenter"",""1"",""1943""
","
","","","704.5999999046326","","","24","7263","3933","r","elianto","#3366ff99"," "," ","1","+10","[1555.4000000953674]","1","2","","","7263","42","1","1","win","go","0"
"pit-trial","161","1135781","0.0-47.0","battery-v0.2","","""event"",""trial"",""time""
""fullscreenenter"",""1"",""1943""
""blur"",""38"",""426273""
""focus"",""39"",""427841""
","""event"",""trial"",""time""
""blur"",""38"",""426273""
","""event"",""trial"",""time""
""focus"",""39"",""427841""
","""event"",""trial"",""time""
""fullscreenenter"",""1"",""1943""
","
","","","-1","","","24","7263","3933","m","elianto","#f73b6a7A","-1","-1","1","0","[]","0","2","","","7263","43","0","4","lose","no-go","0"
"pit-trial","162","1140636","0.0-48.0","battery-v0.2","","""event"",""trial"",""time""
""fullscreenenter"",""1"",""1943""
""blur"",""38"",""426273""
""focus"",""39"",""427841""
","""event"",""trial"",""time""
""blur"",""38"",""426273""
","""event"",""trial"",""time""
""focus"",""39"",""427841""
","""event"",""trial"",""time""
""fullscreenenter"",""1"",""1943""
","
","","","-1","","","24","7263","3933","y","elianto","#f73b6a7A","-1","-1","1","0","[]","0","2","","","7263","44","2","4","lose","no-go","0"
"pit-trial","163","1144768","0.0-49.0","battery-v0.2","","""event"",""trial"",""time""
""fullscreenenter"",""1"",""1943""
""blur"",""38"",""426273""
""focus"",""39"",""427841""
","""event"",""trial"",""time""
""blur"",""38"",""426273""
","""event"",""trial"",""time""
""focus"",""39"",""427841""
","""event"",""trial"",""time""
""fullscreenenter"",""1"",""1943""
","
","","","1277.3000001907349","","","24","7263","3933","z","elianto","#3366ff99","-1"," ","0","0","[2128.2999999523163]","1","2","","","7263","45","4","2","win","no-go","0"
"pit-trial","164","1149621","0.0-50.0","battery-v0.2","","""event"",""trial"",""time""
""fullscreenenter"",""1"",""1943""
""blur"",""38"",""426273""
""focus"",""39"",""427841""
","""event"",""trial"",""time""
""blur"",""38"",""426273""
","""event"",""trial"",""time""
""focus"",""39"",""427841""
","""event"",""trial"",""time""
""fullscreenenter"",""1"",""1943""
","
","","","-1","","","24","7263","3933","h","elianto","#f73b6a7A"," ","-1","0","-10","[4071.0999999046326]","1","2","","","7263","46","3","3","lose","go","0"
"pit-trial","165","1154475","0.0-51.0","battery-v0.2","","""event"",""trial"",""time""
""fullscreenenter"",""1"",""1943""
""blur"",""38"",""426273""
""focus"",""39"",""427841""
","""event"",""trial"",""time""
""blur"",""38"",""426273""
","""event"",""trial"",""time""
""focus"",""39"",""427841""
","""event"",""trial"",""time""
""fullscreenenter"",""1"",""1943""
","
","","","-1","","","24","7263","3933","m","elianto","#f73b6a7A","-1","-1","1","0","[]","0","2","","","7263","47","0","4","lose","no-go","0"
"pit-trial","166","1159329","0.0-52.0","battery-v0.2","","""event"",""trial"",""time""
""fullscreenenter"",""1"",""1943""
""blur"",""38"",""426273""
""focus"",""39"",""427841""
","""event"",""trial"",""time""
""blur"",""38"",""426273""
","""event"",""trial"",""time""
""focus"",""39"",""427841""
","""event"",""trial"",""time""
""fullscreenenter"",""1"",""1943""
","
","","","-1","","","24","7263","3933","y","elianto","#f73b6a7A","-1","-1","1","0","[]","0","2","","","7263","48","2","4","lose","no-go","0"
"pit-trial","167","1162772","0.0-53.0","battery-v0.2","","""event"",""trial"",""time""
""fullscreenenter"",""1"",""1943""
""blur"",""38"",""426273""
""focus"",""39"",""427841""
","""event"",""trial"",""time""
""blur"",""38"",""426273""
","""event"",""trial"",""time""
""focus"",""39"",""427841""
","""event"",""trial"",""time""
""fullscreenenter"",""1"",""1943""
","
","","","590.5","","","24","7263","3933","r","elianto","#3366ff99"," "," ","1","0","[1440.9000000953674]","1","2","","","7263","49","1","1","win","go","1"
"pit-trial","168","1167626","0.0-54.0","battery-v0.2","","""event"",""trial"",""time""
""fullscreenenter"",""1"",""1943""
""blur"",""38"",""426273""
""focus"",""39"",""427841""
","""event"",""trial"",""time""
""blur"",""38"",""426273""
","""event"",""trial"",""time""
""focus"",""39"",""427841""
","""event"",""trial"",""time""
""fullscreenenter"",""1"",""1943""
","
","","","-1","","","24","7263","3933","m","elianto","#f73b6a7A","-1","-1","1","0","[]","0","2","","","7263","50","0","4","lose","no-go","0"
"pit-trial","169","1172480","0.0-55.0","battery-v0.2","","""event"",""trial"",""time""
""fullscreenenter"",""1"",""1943""
""blur"",""38"",""426273""
""focus"",""39"",""427841""
","""event"",""trial"",""time""
""blur"",""38"",""426273""
","""event"",""trial"",""time""
""focus"",""39"",""427841""
","""event"",""trial"",""time""
""fullscreenenter"",""1"",""1943""
","
","","","-1","","","24","7263","3933","z","elianto","#3366ff99","-1","-1","1","+10","[]","0","2","","","7263","51","4","2","win","no-go","0"
"pit-trial","170","1176449","0.0-56.0","battery-v0.2","","""event"",""trial"",""time""
""fullscreenenter"",""1"",""1943""
""blur"",""38"",""426273""
""focus"",""39"",""427841""
","""event"",""trial"",""time""
""blur"",""38"",""426273""
","""event"",""trial"",""time""
""focus"",""39"",""427841""
","""event"",""trial"",""time""
""fullscreenenter"",""1"",""1943""
","
","","","1115.0999999046326","","","24","7263","3933","h","elianto","#f73b6a7A"," "," ","1","0","[1965.3999998569489]","1","2","","","7263","52","3","3","lose","go","0"
"pit-trial","171","1181302","0.0-57.0","battery-v0.2","","""event"",""trial"",""time""
""fullscreenenter"",""1"",""1943""
""blur"",""38"",""426273""
""focus"",""39"",""427841""
","""event"",""trial"",""time""
""blur"",""38"",""426273""
","""event"",""trial"",""time""
""focus"",""39"",""427841""
","""event"",""trial"",""time""
""fullscreenenter"",""1"",""1943""
","
","","","-1","","","24","7263","3933","m","elianto","#f73b6a7A","-1","-1","1","0","[]","0","2","","","7263","53","0","4","lose","no-go","0"
"pit-trial","172","1186157","0.0-58.0","battery-v0.2","","""event"",""trial"",""time""
""fullscreenenter"",""1"",""1943""
""blur"",""38"",""426273""
""focus"",""39"",""427841""
","""event"",""trial"",""time""
""blur"",""38"",""426273""
","""event"",""trial"",""time""
""focus"",""39"",""427841""
","""event"",""trial"",""time""
""fullscreenenter"",""1"",""1943""
","
","","","-1","","","24","7263","3933","z","elianto","#3366ff99","-1","-1","1","+10","[]","0","2","","","7263","54","4","2","win","no-go","0"
"pit-trial","173","1190067","0.0-59.0","battery-v0.2","","""event"",""trial"",""time""
""fullscreenenter"",""1"",""1943""
""blur"",""38"",""426273""
""focus"",""39"",""427841""
","""event"",""trial"",""time""
""blur"",""38"",""426273""
","""event"",""trial"",""time""
""focus"",""39"",""427841""
","""event"",""trial"",""time""
""fullscreenenter"",""1"",""1943""
","
","","","1057.2999999523163","","","24","7263","3933","r","elianto","#3366ff99"," "," ","1","+10","[1907.5]","1","2","","","7263","55","1","1","win","go","0"
"pit-trial","174","1194920","0.0-60.0","battery-v0.2","","""event"",""trial"",""time""
""fullscreenenter"",""1"",""1943""
""blur"",""38"",""426273""
""focus"",""39"",""427841""
","""event"",""trial"",""time""
""blur"",""38"",""426273""
","""event"",""trial"",""time""
""focus"",""39"",""427841""
","""event"",""trial"",""time""
""fullscreenenter"",""1"",""1943""
","
","","","-1","","","24","7263","3933","y","elianto","#f73b6a7A","-1","-1","1","-10","[]","0","2","","","7263","56","2","4","lose","no-go","1"
"pit-trial","175","1198596","0.0-61.0","battery-v0.2","","""event"",""trial"",""time""
""fullscreenenter"",""1"",""1943""
""blur"",""38"",""426273""
""focus"",""39"",""427841""
","""event"",""trial"",""time""
""blur"",""38"",""426273""
","""event"",""trial"",""time""
""focus"",""39"",""427841""
","""event"",""trial"",""time""
""fullscreenenter"",""1"",""1943""
","
","","","822.2999999523163","","","24","7263","3933","r","elianto","#3366ff99"," "," ","1","0","[1672.2999999523163]","1","2","","","7263","57","1","1","win","go","1"
"pit-trial","176","1203137","0.0-62.0","battery-v0.2","","""event"",""trial"",""time""
""fullscreenenter"",""1"",""1943""
""blur"",""38"",""426273""
""focus"",""39"",""427841""
","""event"",""trial"",""time""
""blur"",""38"",""426273""
","""event"",""trial"",""time""
""focus"",""39"",""427841""
","""event"",""trial"",""time""
""fullscreenenter"",""1"",""1943""
","
","","","1684.6000001430511","","","24","7263","3933","m","elianto","#f73b6a7A","-1"," ","0","-10","[2536.2000000476837]","1","2","","","7263","58","0","4","lose","no-go","0"
"pit-trial","177","1207533","0.0-63.0","battery-v0.2","","""event"",""trial"",""time""
""fullscreenenter"",""1"",""1943""
""blur"",""38"",""426273""
""focus"",""39"",""427841""
","""event"",""trial"",""time""
""blur"",""38"",""426273""
","""event"",""trial"",""time""
""focus"",""39"",""427841""
","""event"",""trial"",""time""
""fullscreenenter"",""1"",""1943""
","
","","","1540.7999999523163","","","24","7263","3933","h","elianto","#f73b6a7A"," "," ","1","0","[2392.4000000953674]","1","2","","","7263","59","3","3","lose","go","0"
"pit-trial","178","1212386","0.0-64.0","battery-v0.2","","""event"",""trial"",""time""
""fullscreenenter"",""1"",""1943""
""blur"",""38"",""426273""
""focus"",""39"",""427841""
","""event"",""trial"",""time""
""blur"",""38"",""426273""
","""event"",""trial"",""time""
""focus"",""39"",""427841""
","""event"",""trial"",""time""
""fullscreenenter"",""1"",""1943""
","
","","","-1","","","24","7263","3933","z","elianto","#3366ff99","-1","-1","1","0","[]","0","2","","","7263","60","4","2","win","no-go","1"
"pit-trial","179","1217240","0.0-65.0","battery-v0.2","","""event"",""trial"",""time""
""fullscreenenter"",""1"",""1943""
""blur"",""38"",""426273""
""focus"",""39"",""427841""
","""event"",""trial"",""time""
""blur"",""38"",""426273""
","""event"",""trial"",""time""
""focus"",""39"",""427841""
","""event"",""trial"",""time""
""fullscreenenter"",""1"",""1943""
","
","","","-1","","","24","7263","3933","y","elianto","#f73b6a7A","-1","-1","1","-10","[]","0","2","","","7263","61","2","4","lose","no-go","1"
"pit-trial","180","1222094","0.0-66.0","battery-v0.2","","""event"",""trial"",""time""
""fullscreenenter"",""1"",""1943""
""blur"",""38"",""426273""
""focus"",""39"",""427841""
","""event"",""trial"",""time""
""blur"",""38"",""426273""
","""event"",""trial"",""time""
""focus"",""39"",""427841""
","""event"",""trial"",""time""
""fullscreenenter"",""1"",""1943""
","
","","","-1","","","24","7263","3933","z","elianto","#3366ff99","-1","-1","1","+10","[]","0","2","","","7263","62","4","2","win","no-go","0"
"pit-trial","181","1226046","0.0-67.0","battery-v0.2","","""event"",""trial"",""time""
""fullscreenenter"",""1"",""1943""
""blur"",""38"",""426273""
""focus"",""39"",""427841""
","""event"",""trial"",""time""
""blur"",""38"",""426273""
","""event"",""trial"",""time""
""focus"",""39"",""427841""
","""event"",""trial"",""time""
""fullscreenenter"",""1"",""1943""
","
","","","1097.2999999523163","","","24","7263","3933","r","elianto","#3366ff99"," "," ","1","+10","[1948.1000001430511]","1","2","","","7263","63","1","1","win","go","0"
"pit-trial","182","1230304","0.0-68.0","battery-v0.2","","""event"",""trial"",""time""
""fullscreenenter"",""1"",""1943""
""blur"",""38"",""426273""
""focus"",""39"",""427841""
","""event"",""trial"",""time""
""blur"",""38"",""426273""
","""event"",""trial"",""time""
""focus"",""39"",""427841""
","""event"",""trial"",""time""
""fullscreenenter"",""1"",""1943""
","
","","","1404.2999999523163","","","24","7263","3933","h","elianto","#f73b6a7A"," "," ","1","-10","[2255.7000000476837]","1","2","","","7263","64","3","3","lose","go","1"
"pit-trial","183","1235158","0.0-69.0","battery-v0.2","","""event"",""trial"",""time""
""fullscreenenter"",""1"",""1943""
""blur"",""38"",""426273""
""focus"",""39"",""427841""
","""event"",""trial"",""time""
""blur"",""38"",""426273""
","""event"",""trial"",""time""
""focus"",""39"",""427841""
","""event"",""trial"",""time""
""fullscreenenter"",""1"",""1943""
","
","","","-1","","","24","7263","3933","z","elianto","#3366ff99","-1","-1","1","+10","[]","0","2","","","7263","65","4","2","win","no-go","0"
"pit-trial","184","1238856","0.0-70.0","battery-v0.2","","""event"",""trial"",""time""
""fullscreenenter"",""1"",""1943""
""blur"",""38"",""426273""
""focus"",""39"",""427841""
","""event"",""trial"",""time""
""blur"",""38"",""426273""
","""event"",""trial"",""time""
""focus"",""39"",""427841""
","""event"",""trial"",""time""
""fullscreenenter"",""1"",""1943""
","
","","","843.5","","","24","7263","3933","h","elianto","#f73b6a7A"," "," ","1","-10","[1693.7000000476837]","1","2","","","7263","66","3","3","lose","go","1"
"pit-trial","185","1243711","0.0-71.0","battery-v0.2","","""event"",""trial"",""time""
""fullscreenenter"",""1"",""1943""
""blur"",""38"",""426273""
""focus"",""39"",""427841""
","""event"",""trial"",""time""
""blur"",""38"",""426273""
","""event"",""trial"",""time""
""focus"",""39"",""427841""
","""event"",""trial"",""time""
""fullscreenenter"",""1"",""1943""
","
","","","-1","","","24","7263","3933","y","elianto","#f73b6a7A","-1","-1","1","0","[]","0","2","","","7263","67","2","4","lose","no-go","0"
"pit-trial","186","1248400","0.0-72.0","battery-v0.2","","""event"",""trial"",""time""
""fullscreenenter"",""1"",""1943""
""blur"",""38"",""426273""
""focus"",""39"",""427841""
","""event"",""trial"",""time""
""blur"",""38"",""426273""
","""event"",""trial"",""time""
""focus"",""39"",""427841""
","""event"",""trial"",""time""
""fullscreenenter"",""1"",""1943""
","
","","","1834.3999998569489","","","24","7263","3933","r","elianto","#3366ff99"," "," ","1","+10","[2685.9000000953674]","1","2","","","7263","68","1","1","win","go","0"
"pit-trial","187","1252569","0.0-73.0","battery-v0.2","","""event"",""trial"",""time""
""fullscreenenter"",""1"",""1943""
""blur"",""38"",""426273""
""focus"",""39"",""427841""
","""event"",""trial"",""time""
""blur"",""38"",""426273""
","""event"",""trial"",""time""
""focus"",""39"",""427841""
","""event"",""trial"",""time""
""fullscreenenter"",""1"",""1943""
","
","","","1316.6000001430511","","","24","7263","3933","r","elianto","#3366ff99"," "," ","1","+10","[2166.7999999523163]","1","2","","","7263","69","1","1","win","go","0"
"pit-trial","188","1257422","0.0-74.0","battery-v0.2","","""event"",""trial"",""time""
""fullscreenenter"",""1"",""1943""
""blur"",""38"",""426273""
""focus"",""39"",""427841""
","""event"",""trial"",""time""
""blur"",""38"",""426273""
","""event"",""trial"",""time""
""focus"",""39"",""427841""
","""event"",""trial"",""time""
""fullscreenenter"",""1"",""1943""
","
","","","-1","","","24","7263","3933","z","elianto","#3366ff99","-1","-1","1","+10","[]","0","2","","","7263","70","4","2","win","no-go","0"
"pit-trial","189","1262277","0.0-75.0","battery-v0.2","","""event"",""trial"",""time""
""fullscreenenter"",""1"",""1943""
""blur"",""38"",""426273""
""focus"",""39"",""427841""
","""event"",""trial"",""time""
""blur"",""38"",""426273""
","""event"",""trial"",""time""
""focus"",""39"",""427841""
","""event"",""trial"",""time""
""fullscreenenter"",""1"",""1943""
","
","","","-1","","","24","7263","3933","h","elianto","#f73b6a7A"," ","-1","0","-10","[]","0","2","","","7263","71","3","3","lose","go","0"
"pit-trial","190","1267131","0.0-76.0","battery-v0.2","","""event"",""trial"",""time""
""fullscreenenter"",""1"",""1943""
""blur"",""38"",""426273""
""focus"",""39"",""427841""
","""event"",""trial"",""time""
""blur"",""38"",""426273""
","""event"",""trial"",""time""
""focus"",""39"",""427841""
","""event"",""trial"",""time""
""fullscreenenter"",""1"",""1943""
","
","","","-1","","","24","7263","3933","c","elianto","#3366ff99"," ","-1","0","0","[]","0","2","","","7263","72","5","1","win","go","0"
"pit-trial","191","1270694","0.0-77.0","battery-v0.2","","""event"",""trial"",""time""
""fullscreenenter"",""1"",""1943""
""blur"",""38"",""426273""
""focus"",""39"",""427841""
","""event"",""trial"",""time""
""blur"",""38"",""426273""
","""event"",""trial"",""time""
""focus"",""39"",""427841""
","""event"",""trial"",""time""
""fullscreenenter"",""1"",""1943""
","
","","","709.0999999046326","","","24","7263","3933","c","elianto","#3366ff99"," "," ","1","+10","[1559.5999999046326]","1","2","","","7263","73","5","1","win","go","0"
"pit-trial","192","1275548","0.0-78.0","battery-v0.2","","""event"",""trial"",""time""
""fullscreenenter"",""1"",""1943""
""blur"",""38"",""426273""
""focus"",""39"",""427841""
","""event"",""trial"",""time""
""blur"",""38"",""426273""
","""event"",""trial"",""time""
""focus"",""39"",""427841""
","""event"",""trial"",""time""
""fullscreenenter"",""1"",""1943""
","
","","","-1","","","24","7263","3933","z","elianto","#3366ff99","-1","-1","1","+10","[]","0","2","","","7263","74","4","2","win","no-go","0"
"pit-trial","193","1279479","0.0-79.0","battery-v0.2","","""event"",""trial"",""time""
""fullscreenenter"",""1"",""1943""
""blur"",""38"",""426273""
""focus"",""39"",""427841""
","""event"",""trial"",""time""
""blur"",""38"",""426273""
","""event"",""trial"",""time""
""focus"",""39"",""427841""
","""event"",""trial"",""time""
""fullscreenenter"",""1"",""1943""
","
","","","1077","","","24","7263","3933","r","elianto","#3366ff99"," "," ","1","0","[1928]","1","2","","","7263","75","1","1","win","go","1"
"pit-trial","194","1284332","0.0-80.0","battery-v0.2","","""event"",""trial"",""time""
