"trial_type","trial_index","time_elapsed","internal_node_id","task_version","subject_id","interactions","blur_events","focus_events","fullscreenenter_events","fullscreenexit_events","success","view_history","rt","responses","num_errors","age","subject","participantId","rune","rune_set","hex","correct","choice","accuracy","outcome","keys","total_keys","block","practice","value","sub","trial","stimulus","robot","valence","action","sham"
"pavlovia","0","16","0.0-0.0","battery-v0.2","","""event"",""trial"",""time""
""fullscreenenter"",""1"",""3269""
","
","
","""event"",""trial"",""time""
""fullscreenenter"",""1"",""3269""
","
","","","","","","","","","","","","","","","","","","","","","","","","","","",""
"fullscreen","1","4268","0.0-1.0","battery-v0.2","","""event"",""trial"",""time""
""fullscreenenter"",""1"",""3269""
","
","
","""event"",""trial"",""time""
""fullscreenenter"",""1"",""3269""
","
","true","","","","","","","","","","","","","","","","","","","","","","","","","",""
"pit-instructions","2","8043","0.0-2.0-0.0","battery-v0.2","","""event"",""trial"",""time""
""fullscreenenter"",""1"",""3269""
","
","
","""event"",""trial"",""time""
""fullscreenenter"",""1"",""3269""
","
","","[{""page_index"":0,""viewing_time"":3767.4000000953674}]","3768.9000000953674","","","","","","","","","","","","","","","","","","","","","","","",""
"pit-comprehension","3","13710","0.0-2.0-1.0-0.0","battery-v0.2","","""event"",""trial"",""time""
""fullscreenenter"",""1"",""3269""
","
","
","""event"",""trial"",""time""
""fullscreenenter"",""1"",""3269""
","
","","","5662.5","[""turtle""]","1","18","9934","3523","","","","","","","","","","","","","","","","","","",""
"pit-instructions","4","16475","0.0-2.0-1.0-1.0","battery-v0.2","","""event"",""trial"",""time""
""fullscreenenter"",""1"",""3269""
","
","
","""event"",""trial"",""time""
""fullscreenenter"",""1"",""3269""
","
","","[{""page_index"":0,""viewing_time"":2755.0999999046326}]","2755.5999999046326","","","","","","","","","","","","","","","","","","","","","","","",""
"pit-instructions","5","88559","0.0-2.0-1.0-2.0-0.0","battery-v0.2","","""event"",""trial"",""time""
""fullscreenenter"",""1"",""3269""
","
","
","""event"",""trial"",""time""
""fullscreenenter"",""1"",""3269""
","
","","[{""page_index"":0,""viewing_time"":72082.29999995232}]","72082.90000009537","","","","","","","","","","","","","","","","","","","","","","","",""
"pit-comprehension","6","99126","0.0-2.0-1.1-0.1","battery-v0.2","","""event"",""trial"",""time""
""fullscreenenter"",""1"",""3269""
","
","
","""event"",""trial"",""time""
""fullscreenenter"",""1"",""3269""
","
","","","10561.599999904633","[""shark""]","0","18","9934","3523","","","","","","","","","","","","","","","","","","",""
"pit-instructions","7","100158","0.0-2.0-1.1-1.1","battery-v0.2","","""event"",""trial"",""time""
""fullscreenenter"",""1"",""3269""
","
","
","""event"",""trial"",""time""
""fullscreenenter"",""1"",""3269""
","
","","[{""page_index"":0,""viewing_time"":1026.7999999523163}]","1027.2999999523163","","","","","","","","","","","","","","","","","","","","","","","",""
"pit-comprehension","8","102709","0.0-2.0-2.0-0.0","battery-v0.2","","""event"",""trial"",""time""
""fullscreenenter"",""1"",""3269""
","
","
","""event"",""trial"",""time""
""fullscreenenter"",""1"",""3269""
","
","","","2546.7999999523163","[""tiger""]","0","18","9934","3523","","","","","","","","","","","","","","","","","","",""
"pit-instructions","9","103858","0.0-2.0-2.0-1.0","battery-v0.2","","""event"",""trial"",""time""
""fullscreenenter"",""1"",""3269""
","
","
","""event"",""trial"",""time""
""fullscreenenter"",""1"",""3269""
","
","","[{""page_index"":0,""viewing_time"":1143.7999999523163}]","1144.3999998569489","","","","","","","","","","","","","","","","","","","","","","","",""
"pit-instructions","10","276541","0.0-2.0-3.0","battery-v0.2","","""event"",""trial"",""time""
""fullscreenenter"",""1"",""3269""
","
","
","""event"",""trial"",""time""
""fullscreenenter"",""1"",""3269""
","
","","[{""page_index"":0,""viewing_time"":9230.200000047684},{""page_index"":1,""viewing_time"":7149.099999904633},{""page_index"":2,""viewing_time"":24200.5},{""page_index"":3,""viewing_time"":6016.900000095367},{""page_index"":4,""viewing_time"":6750.599999904633},{""page_index"":5,""viewing_time"":6066.900000095367},{""page_index"":6,""viewing_time"":10599.599999904633},{""page_index"":7,""viewing_time"":8100.799999952316},{""page_index"":8,""viewing_time"":7849.300000190735},{""page_index"":9,""viewing_time"":34800.59999990463},{""page_index"":10,""viewing_time"":27567.200000047684},{""page_index"":11,""viewing_time"":7483.700000047684},{""page_index"":12,""viewing_time"":9866.699999809265},{""page_index"":13,""viewing_time"":7000.300000190735}]","172683.20000004768","","","","","","","","","","","","","","","","","","","","","","","",""
"pit-trial","11","281407","0.0-2.0-4.0-0.0","battery-v0.2","","""event"",""trial"",""time""
""fullscreenenter"",""1"",""3269""
","
","
","""event"",""trial"",""time""
""fullscreenenter"",""1"",""3269""
","
","","","-1","","","18","9934","3523","&#9784;","elianto","#FFFFF080"," ","-1","0","&#10060","[3273.0999999046326]","1","0","0","","","","","","","",""
"pit-trial","12","286271","0.0-2.0-4.1-0.1","battery-v0.2","","""event"",""trial"",""time""
""fullscreenenter"",""1"",""3269""
","
","
","""event"",""trial"",""time""
""fullscreenenter"",""1"",""3269""
","
","","","-1","","","18","9934","3523","&#9784;","elianto","#FFFFF080"," ","-1","0","&#10060","[]","0","0","0","","","","","","","",""
"pit-trial","13","291134","0.0-2.0-4.2-0.2","battery-v0.2","","""event"",""trial"",""time""
""fullscreenenter"",""1"",""3269""
","
","
","""event"",""trial"",""time""
""fullscreenenter"",""1"",""3269""
","
","","","-1","","","18","9934","3523","&#9784;","elianto","#FFFFF080"," ","-1","0","&#10060","[]","0","0","0","","","","","","","",""
"pit-trial","14","294254","0.0-2.0-4.3-0.3","battery-v0.2","","""event"",""trial"",""time""
""fullscreenenter"",""1"",""3269""
","
","
","""event"",""trial"",""time""
""fullscreenenter"",""1"",""3269""
","
","","","259.59999990463257","","","18","9934","3523","&#9784;","elianto","#FFFFF080"," "," ","1","&#10004","[1110.1000001430511]","1","0","0","","","","","","","",""
"pit-trial","15","297470","0.0-2.0-4.4-0.4","battery-v0.2","","""event"",""trial"",""time""
""fullscreenenter"",""1"",""3269""
","
","
","""event"",""trial"",""time""
""fullscreenenter"",""1"",""3269""
","
","","","354.2999999523163","","","18","9934","3523","&#9784;","elianto","#FFFFF080"," "," ","1","&#10004","[1206.4000000953674]","1","0","0","","","","","","","",""
"pit-trial","16","300718","0.0-2.0-4.5-0.5","battery-v0.2","","""event"",""trial"",""time""
""fullscreenenter"",""1"",""3269""
","
","
","""event"",""trial"",""time""
""fullscreenenter"",""1"",""3269""
","
","","","389.80000019073486","","","18","9934","3523","&#9784;","elianto","#FFFFF080"," "," ","1","&#10004","[1240.5]","1","0","0","","","","","","","",""
"pit-instructions","17","331291","0.0-2.0-5.0","battery-v0.2","","""event"",""trial"",""time""
""fullscreenenter"",""1"",""3269""
","
","
","""event"",""trial"",""time""
""fullscreenenter"",""1"",""3269""
","
","","[{""page_index"":0,""viewing_time"":6469.5},{""page_index"":1,""viewing_time"":6182.799999952316},{""page_index"":2,""viewing_time"":11883.700000047684},{""page_index"":3,""viewing_time"":6033.200000047684}]","30569.799999952316","","","","","","","","","","","","","","","","","","","","","","","",""
"pit-trial","18","336157","0.0-2.0-6.0-0.0","battery-v0.2","","""event"",""trial"",""time""
""fullscreenenter"",""1"",""3269""
","
","
","""event"",""trial"",""time""
""fullscreenenter"",""1"",""3269""
","
","","","-1","","","18","9934","3523","&#9854;","elianto","#FFFFF080","-1","-1","1","&#10004","[]","0","0","1","","","","","","","",""
"pit-trial","19","341021","0.0-2.0-6.1-0.1","battery-v0.2","","""event"",""trial"",""time""
""fullscreenenter"",""1"",""3269""
","
","
","""event"",""trial"",""time""
""fullscreenenter"",""1"",""3269""
","
","","","-1","","","18","9934","3523","&#9854;","elianto","#FFFFF080","-1","-1","1","&#10004","[]","0","0","1","","","","","","","",""
"pit-trial","20","345885","0.0-2.0-6.2-0.2","battery-v0.2","","""event"",""trial"",""time""
""fullscreenenter"",""1"",""3269""
","
","
","""event"",""trial"",""time""
""fullscreenenter"",""1"",""3269""
","
","","","-1","","","18","9934","3523","&#9854;","elianto","#FFFFF080","-1","-1","1","&#10004","[]","0","0","1","","","","","","","",""
"pit-trial","21","350749","0.0-2.0-6.3-0.3","battery-v0.2","","""event"",""trial"",""time""
""fullscreenenter"",""1"",""3269""
","
","
","""event"",""trial"",""time""
""fullscreenenter"",""1"",""3269""
","
","","","-1","","","18","9934","3523","&#9854;","elianto","#FFFFF080","-1","-1","1","&#10004","[]","0","0","1","","","","","","","",""
"pit-trial","22","355612","0.0-2.0-6.4-0.4","battery-v0.2","","""event"",""trial"",""time""
""fullscreenenter"",""1"",""3269""
","
","
","""event"",""trial"",""time""
""fullscreenenter"",""1"",""3269""
","
","","","-1","","","18","9934","3523","&#9854;","elianto","#FFFFF080","-1","-1","1","&#10004","[]","0","0","1","","","","","","","",""
"pit-instructions","23","586057","0.0-2.0-7.0","battery-v0.2","","""event"",""trial"",""time""
""fullscreenenter"",""1"",""3269""
","
","
","""event"",""trial"",""time""
""fullscreenenter"",""1"",""3269""
","
","","[{""page_index"":0,""viewing_time"":12890.5},{""page_index"":1,""viewing_time"":16784.60000014305},{""page_index"":2,""viewing_time"":14849.5},{""page_index"":3,""viewing_time"":6600.599999904633},{""page_index"":4,""viewing_time"":22750.200000047684},{""page_index"":5,""viewing_time"":18199.099999904633},{""page_index"":6,""viewing_time"":9850.799999952316},{""page_index"":7,""viewing_time"":15817.200000047684},{""page_index"":8,""viewing_time"":8383.700000047684},{""page_index"":9,""viewing_time"":9517},{""page_index"":10,""viewing_time"":8899.900000095367},{""page_index"":11,""viewing_time"":9933.799999952316},{""page_index"":12,""viewing_time"":12083.200000047684},{""page_index"":13,""viewing_time"":17366.699999809265},{""page_index"":14,""viewing_time"":10567.300000190735},{""page_index"":15,""viewing_time"":7383.299999952316},{""page_index"":16,""viewing_time"":8316.599999904633},{""page_index"":17,""viewing_time"":20250.799999952316}]","230445.70000004768","","","","","","","","","","","","","","","","","","","","","","","",""
"pit-trial","24","590560","0.0-2.0-8.0-0.0","battery-v0.2","","""event"",""trial"",""time""
""fullscreenenter"",""1"",""3269""
","
","
","""event"",""trial"",""time""
""fullscreenenter"",""1"",""3269""
","
","","","1642.9000000953674","","","18","9934","3523","&#9776;","elianto","#3366ff99"," "," ","1","+10","[2495]","1","0","1","","","","","","","",""
"pit-trial","25","593936","0.0-2.0-8.0-1.0","battery-v0.2","","""event"",""trial"",""time""
""fullscreenenter"",""1"",""3269""
","
","
","""event"",""trial"",""time""
""fullscreenenter"",""1"",""3269""
","
","","","514.1000001430511","","","18","9934","3523","&#9776;","elianto","#3366ff99"," "," ","1","+10","[1367.5999999046326]","1","0","1","","","","","","","",""
"pit-trial","26","596912","0.0-2.0-8.0-2.0","battery-v0.2","","""event"",""trial"",""time""
""fullscreenenter"",""1"",""3269""
","
","
","""event"",""trial"",""time""
""fullscreenenter"",""1"",""3269""
","
","","","118.29999995231628","","","18","9934","3523","&#9776;","elianto","#3366ff99"," "," ","1","+10","[971.2999999523163]","1","0","1","","","","","","","",""
"pit-trial","27","600176","0.0-2.0-8.0-3.0","battery-v0.2","","""event"",""trial"",""time""
""fullscreenenter"",""1"",""3269""
","
","
","""event"",""trial"",""time""
""fullscreenenter"",""1"",""3269""
","
","","","406.5","","","18","9934","3523","&#9776;","elianto","#3366ff99"," "," ","1","0","[1259.1999998092651]","1","0","1","","","","","","","",""
"pit-trial","28","603175","0.0-2.0-8.0-4.0","battery-v0.2","","""event"",""trial"",""time""
""fullscreenenter"",""1"",""3269""
","
","
","""event"",""trial"",""time""
""fullscreenenter"",""1"",""3269""
","
","","","141.59999990463257","","","18","9934","3523","&#9776;","elianto","#3366ff99"," "," ","1","+10","[994.7999999523163]","1","0","1","","","","","","","",""
"pit-trial","29","606423","0.0-2.0-8.1-0.1","battery-v0.2","","""event"",""trial"",""time""
""fullscreenenter"",""1"",""3269""
","
","
","""event"",""trial"",""time""
""fullscreenenter"",""1"",""3269""
","
","","","389.40000009536743","","","18","9934","3523","&#9776;","elianto","#3366ff99"," "," ","1","+10","[1243.2999999523163]","1","0","1","","","","","","","",""
"pit-trial","30","609663","0.0-2.0-8.1-1.1","battery-v0.2","","""event"",""trial"",""time""
""fullscreenenter"",""1"",""3269""
","
","
","""event"",""trial"",""time""
""fullscreenenter"",""1"",""3269""
","
","","","382.2000000476837","","","18","9934","3523","&#9776;","elianto","#3366ff99"," "," ","1","+10","[1235.5999999046326]","1","0","1","","","","","","","",""
"pit-trial","31","612816","0.0-2.0-8.1-2.1","battery-v0.2","","""event"",""trial"",""time""
""fullscreenenter"",""1"",""3269""
","
","
","""event"",""trial"",""time""
""fullscreenenter"",""1"",""3269""
","
","","","287.30000019073486","","","18","9934","3523","&#9776;","elianto","#3366ff99"," "," ","1","+10","[1139.8999998569489]","1","0","1","","","","","","","",""
"pit-trial","32","615831","0.0-2.0-8.1-3.1","battery-v0.2","","""event"",""trial"",""time""
""fullscreenenter"",""1"",""3269""
","
","
","""event"",""trial"",""time""
""fullscreenenter"",""1"",""3269""
","
","","","152.20000004768372","","","18","9934","3523","&#9776;","elianto","#3366ff99"," "," ","1","0","[1004.4000000953674]","1","0","1","","","","","","","",""
"pit-trial","33","619062","0.0-2.0-8.1-4.1","battery-v0.2","","""event"",""trial"",""time""
""fullscreenenter"",""1"",""3269""
","
","
","""event"",""trial"",""time""
""fullscreenenter"",""1"",""3269""
","
","","","369.59999990463257","","","18","9934","3523","&#9776;","elianto","#3366ff99"," "," ","1","+10","[1219.7999999523163]","1","0","1","","","","","","","",""
"pit-trial","34","622279","0.0-2.0-8.2-0.2","battery-v0.2","","""event"",""trial"",""time""
""fullscreenenter"",""1"",""3269""
","
","
","""event"",""trial"",""time""
""fullscreenenter"",""1"",""3269""
","
","","","352.39999985694885","","","18","9934","3523","&#9776;","elianto","#3366ff99"," "," ","1","+10","[1205.7999999523163]","1","0","1","","","","","","","",""
"pit-trial","35","625510","0.0-2.0-8.2-1.2","battery-v0.2","","""event"",""trial"",""time""
""fullscreenenter"",""1"",""3269""
","
","
","""event"",""trial"",""time""
""fullscreenenter"",""1"",""3269""
","
","","","368.80000019073486","","","18","9934","3523","&#9776;","elianto","#3366ff99"," "," ","1","+10","[1221.2999999523163]","1","0","1","","","","","","","",""
"pit-trial","36","628791","0.0-2.0-8.2-2.2","battery-v0.2","","""event"",""trial"",""time""
""fullscreenenter"",""1"",""3269""
","
","
","""event"",""trial"",""time""
""fullscreenenter"",""1"",""3269""
","
","","","416.59999990463257","","","18","9934","3523","&#9776;","elianto","#3366ff99"," "," ","1","+10","[1270.7999999523163]","1","0","1","","","","","","","",""
"pit-trial","37","631886","0.0-2.0-8.2-3.2","battery-v0.2","","""event"",""trial"",""time""
""fullscreenenter"",""1"",""3269""
","
","
","""event"",""trial"",""time""
""fullscreenenter"",""1"",""3269""
","
","","","234.40000009536743","","","18","9934","3523","&#9776;","elianto","#3366ff99"," "," ","1","0","[1086.6000001430511]","1","0","1","","","","","","","",""
"pit-trial","38","635047","0.0-2.0-8.2-4.2","battery-v0.2","","""event"",""trial"",""time""
""fullscreenenter"",""1"",""3269""
","
","
","""event"",""trial"",""time""
""fullscreenenter"",""1"",""3269""
","
","","","298.2999999523163","","","18","9934","3523","&#9776;","elianto","#3366ff99"," "," ","1","+10","[1152.7000000476837]","1","0","1","","","","","","","",""
"call-function","39","635050","0.0-2.0-9.0","battery-v0.2","","""event"",""trial"",""time""
""fullscreenenter"",""1"",""3269""
","
","
","""event"",""trial"",""time""
""fullscreenenter"",""1"",""3269""
","
","","","","","","","","","","","","","","","","","","","","","","","","","","",""
"pit-instructions","40","691589","0.0-2.0-10.0","battery-v0.2","","""event"",""trial"",""time""
""fullscreenenter"",""1"",""3269""
","
","
","""event"",""trial"",""time""
""fullscreenenter"",""1"",""3269""
","
","","[{""page_index"":0,""viewing_time"":9754},{""page_index"":1,""viewing_time"":11550.5},{""page_index"":2,""viewing_time"":12566.800000190735},{""page_index"":3,""viewing_time"":14333.5},{""page_index"":4,""viewing_time"":8333.899999856949}]","56539.300000190735","","","","","","","","","","","","","","","","","","","","","","","",""
"pit-trial","41","696454","0.0-2.0-11.0-0.0","battery-v0.2","","""event"",""trial"",""time""
""fullscreenenter"",""1"",""3269""
","
","
","""event"",""trial"",""time""
""fullscreenenter"",""1"",""3269""
","
","","","-1","","","18","9934","3523","&#9761;","elianto","#3366ff99","-1","-1","1","+10","[]","0","0","2","","","","","","","",""
"pit-trial","42","701317","0.0-2.0-11.0-1.0","battery-v0.2","","""event"",""trial"",""time""
""fullscreenenter"",""1"",""3269""
","
","
","""event"",""trial"",""time""
""fullscreenenter"",""1"",""3269""
","
","","","-1","","","18","9934","3523","&#9761;","elianto","#3366ff99","-1","-1","1","+10","[]","0","0","2","","","","","","","",""
"pit-trial","43","706181","0.0-2.0-11.0-2.0","battery-v0.2","","""event"",""trial"",""time""
""fullscreenenter"",""1"",""3269""
","
","
","""event"",""trial"",""time""
""fullscreenenter"",""1"",""3269""
","
","","","-1","","","18","9934","3523","&#9761;","elianto","#3366ff99","-1","-1","1","+10","[]","0","0","2","","","","","","","",""
"pit-trial","44","709669","0.0-2.0-11.0-3.0","battery-v0.2","","""event"",""trial"",""time""
""fullscreenenter"",""1"",""3269""
","
","
","""event"",""trial"",""time""
""fullscreenenter"",""1"",""3269""
","
","","","631.7000000476837","","","18","9934","3523","&#9761;","elianto","#3366ff99","-1"," ","0","+10","[1484.1000001430511]","1","0","2","","","","","","","",""
"pit-trial","45","714533","0.0-2.0-11.0-4.0","battery-v0.2","","""event"",""trial"",""time""
""fullscreenenter"",""1"",""3269""
","
","
","""event"",""trial"",""time""
""fullscreenenter"",""1"",""3269""
","
","","","-1","","","18","9934","3523","&#9761;","elianto","#3366ff99","-1","-1","1","+10","[]","0","0","2","","","","","","","",""
"pit-trial","46","719397","0.0-2.0-11.1-0.1","battery-v0.2","","""event"",""trial"",""time""
""fullscreenenter"",""1"",""3269""
","
","
","""event"",""trial"",""time""
""fullscreenenter"",""1"",""3269""
","
","","","-1","","","18","9934","3523","&#9761;","elianto","#3366ff99","-1","-1","1","+10","[]","0","0","2","","","","","","","",""
"pit-trial","47","724261","0.0-2.0-11.1-1.1","battery-v0.2","","""event"",""trial"",""time""
""fullscreenenter"",""1"",""3269""
","
","
","""event"",""trial"",""time""
""fullscreenenter"",""1"",""3269""
","
","","","-1","","","18","9934","3523","&#9761;","elianto","#3366ff99","-1","-1","1","+10","[]","0","0","2","","","","","","","",""
"pit-trial","48","727388","0.0-2.0-11.1-2.1","battery-v0.2","","""event"",""trial"",""time""
""fullscreenenter"",""1"",""3269""
","
","
","""event"",""trial"",""time""
""fullscreenenter"",""1"",""3269""
","
","","","267.7999999523163","","","18","9934","3523","&#9761;","elianto","#3366ff99","-1"," ","0","0","[1120.6000001430511]","1","0","2","","","","","","","",""
"pit-trial","49","732252","0.0-2.0-11.1-3.1","battery-v0.2","","""event"",""trial"",""time""
""fullscreenenter"",""1"",""3269""
","
","
","""event"",""trial"",""time""
""fullscreenenter"",""1"",""3269""
","
","","","-1","","","18","9934","3523","&#9761;","elianto","#3366ff99","-1","-1","1","0","[]","0","0","2","","","","","","","",""
"pit-trial","50","737116","0.0-2.0-11.1-4.1","battery-v0.2","","""event"",""trial"",""time""
""fullscreenenter"",""1"",""3269""
","
","
","""event"",""trial"",""time""
""fullscreenenter"",""1"",""3269""
","
","","","-1","","","18","9934","3523","&#9761;","elianto","#3366ff99","-1","-1","1","+10","[]","0","0","2","","","","","","","",""
"pit-trial","51","741981","0.0-2.0-11.2-0.2","battery-v0.2","","""event"",""trial"",""time""
""fullscreenenter"",""1"",""3269""
","
","
","""event"",""trial"",""time""
""fullscreenenter"",""1"",""3269""
","
","","","-1","","","18","9934","3523","&#9761;","elianto","#3366ff99","-1","-1","1","+10","[]","0","0","2","","","","","","","",""
"pit-trial","52","746844","0.0-2.0-11.2-1.2","battery-v0.2","","""event"",""trial"",""time""
""fullscreenenter"",""1"",""3269""
","
","
","""event"",""trial"",""time""
""fullscreenenter"",""1"",""3269""
","
","","","-1","","","18","9934","3523","&#9761;","elianto","#3366ff99","-1","-1","1","+10","[]","0","0","2","","","","","","","",""
"pit-trial","53","751708","0.0-2.0-11.2-2.2","battery-v0.2","","""event"",""trial"",""time""
""fullscreenenter"",""1"",""3269""
","
","
","""event"",""trial"",""time""
""fullscreenenter"",""1"",""3269""
","
","","","-1","","","18","9934","3523","&#9761;","elianto","#3366ff99","-1","-1","1","+10","[]","0","0","2","","","","","","","",""
"pit-trial","54","756571","0.0-2.0-11.2-3.2","battery-v0.2","","""event"",""trial"",""time""
""fullscreenenter"",""1"",""3269""
","
","
","""event"",""trial"",""time""
""fullscreenenter"",""1"",""3269""
","
","","","-1","","","18","9934","3523","&#9761;","elianto","#3366ff99","-1","-1","1","0","[]","0","0","2","","","","","","","",""
"pit-trial","55","761436","0.0-2.0-11.2-4.2","battery-v0.2","","""event"",""trial"",""time""
""fullscreenenter"",""1"",""3269""
","
","
","""event"",""trial"",""time""
""fullscreenenter"",""1"",""3269""
","
","","","-1","","","18","9934","3523","&#9761;","elianto","#3366ff99","-1","-1","1","+10","[]","0","0","2","","","","","","","",""
"pit-trial","56","766300","0.0-2.0-11.3-0.3","battery-v0.2","","""event"",""trial"",""time""
""fullscreenenter"",""1"",""3269""
","
","
","""event"",""trial"",""time""
""fullscreenenter"",""1"",""3269""
","
","","","-1","","","18","9934","3523","&#9761;","elianto","#3366ff99","-1","-1","1","+10","[]","0","0","2","","","","","","","",""
"pit-trial","57","771164","0.0-2.0-11.3-1.3","battery-v0.2","","""event"",""trial"",""time""
""fullscreenenter"",""1"",""3269""
","
","
","""event"",""trial"",""time""
""fullscreenenter"",""1"",""3269""
","
","","","-1","","","18","9934","3523","&#9761;","elianto","#3366ff99","-1","-1","1","+10","[]","0","0","2","","","","","","","",""
"pit-trial","58","776027","0.0-2.0-11.3-2.3","battery-v0.2","","""event"",""trial"",""time""
""fullscreenenter"",""1"",""3269""
","
","
","""event"",""trial"",""time""
""fullscreenenter"",""1"",""3269""
","
","","","-1","","","18","9934","3523","&#9761;","elianto","#3366ff99","-1","-1","1","+10","[]","0","0","2","","","","","","","",""
"pit-trial","59","780891","0.0-2.0-11.3-3.3","battery-v0.2","","""event"",""trial"",""time""
""fullscreenenter"",""1"",""3269""
","
","
","""event"",""trial"",""time""
""fullscreenenter"",""1"",""3269""
","
","","","-1","","","18","9934","3523","&#9761;","elianto","#3366ff99","-1","-1","1","0","[]","0","0","2","","","","","","","",""
"pit-trial","60","785755","0.0-2.0-11.3-4.3","battery-v0.2","","""event"",""trial"",""time""
""fullscreenenter"",""1"",""3269""
","
","
","""event"",""trial"",""time""
""fullscreenenter"",""1"",""3269""
","
","","","-1","","","18","9934","3523","&#9761;","elianto","#3366ff99","-1","-1","1","+10","[]","0","0","2","","","","","","","",""
"call-function","61","785758","0.0-2.0-12.0","battery-v0.2","","""event"",""trial"",""time""
""fullscreenenter"",""1"",""3269""
","
","
","""event"",""trial"",""time""
""fullscreenenter"",""1"",""3269""
","
","","","","","","","","","","","","","","","","","","","","","","","","","","",""
"pit-instructions","62","829722","0.0-2.0-13.0","battery-v0.2","","""event"",""trial"",""time""
""fullscreenenter"",""1"",""3269""
","
","
","""event"",""trial"",""time""
""fullscreenenter"",""1"",""3269""
","
","","[{""page_index"":0,""viewing_time"":5930.5},{""page_index"":1,""viewing_time"":7798.900000095367},{""page_index"":2,""viewing_time"":4517.199999809265},{""page_index"":3,""viewing_time"":12100.100000143051},{""page_index"":4,""viewing_time"":13616.599999904633}]","43963.90000009537","","","","","","","","","","","","","","","","","","","","","","","",""
"pit-trial","63","833451","0.0-2.0-14.0-0.0","battery-v0.2","","""event"",""trial"",""time""
""fullscreenenter"",""1"",""3269""
","
","
","""event"",""trial"",""time""
""fullscreenenter"",""1"",""3269""
","
","","","868.6000001430511","","","18","9934","3523","&#9826;","elianto","#f73b6a7A","-1"," ","0","-10","[1723]","1","0","3","","","","","","","",""
"pit-trial","64","838315","0.0-2.0-14.0-1.0","battery-v0.2","","""event"",""trial"",""time""
""fullscreenenter"",""1"",""3269""
","
","
","""event"",""trial"",""time""
""fullscreenenter"",""1"",""3269""
","
","","","-1","","","18","9934","3523","&#9826;","elianto","#f73b6a7A","-1","-1","1","0","[]","0","0","3","","","","","","","",""
"pit-trial","65","843178","0.0-2.0-14.0-2.0","battery-v0.2","","""event"",""trial"",""time""
""fullscreenenter"",""1"",""3269""
","
","
","""event"",""trial"",""time""
""fullscreenenter"",""1"",""3269""
","
","","","-1","","","18","9934","3523","&#9826;","elianto","#f73b6a7A","-1","-1","1","0","[]","0","0","3","","","","","","","",""
"pit-trial","66","848042","0.0-2.0-14.0-3.0","battery-v0.2","","""event"",""trial"",""time""
""fullscreenenter"",""1"",""3269""
","
","
","""event"",""trial"",""time""
""fullscreenenter"",""1"",""3269""
","
","","","-1","","","18","9934","3523","&#9826;","elianto","#f73b6a7A","-1","-1","1","-10","[]","0","0","3","","","","","","","",""
"pit-trial","67","852907","0.0-2.0-14.0-4.0","battery-v0.2","","""event"",""trial"",""time""
""fullscreenenter"",""1"",""3269""
","
","
","""event"",""trial"",""time""
""fullscreenenter"",""1"",""3269""
","
","","","-1","","","18","9934","3523","&#9826;","elianto","#f73b6a7A","-1","-1","1","0","[]","0","0","3","","","","","","","",""
"pit-trial","68","857778","0.0-2.0-14.1-0.1","battery-v0.2","","""event"",""trial"",""time""
""fullscreenenter"",""1"",""3269""
","
","
","""event"",""trial"",""time""
""fullscreenenter"",""1"",""3269""
","
","","","-1","","","18","9934","3523","&#9826;","elianto","#f73b6a7A","-1","-1","1","0","[]","0","0","3","","","","","","","",""
"pit-trial","69","862642","0.0-2.0-14.1-1.1","battery-v0.2","","""event"",""trial"",""time""
""fullscreenenter"",""1"",""3269""
","
","
","""event"",""trial"",""time""
""fullscreenenter"",""1"",""3269""
","
","","","-1","","","18","9934","3523","&#9826;","elianto","#f73b6a7A","-1","-1","1","0","[]","0","0","3","","","","","","","",""
"pit-trial","70","867505","0.0-2.0-14.1-2.1","battery-v0.2","","""event"",""trial"",""time""
""fullscreenenter"",""1"",""3269""
","
","
","""event"",""trial"",""time""
""fullscreenenter"",""1"",""3269""
","
","","","-1","","","18","9934","3523","&#9826;","elianto","#f73b6a7A","-1","-1","1","0","[]","0","0","3","","","","","","","",""
"pit-trial","71","872370","0.0-2.0-14.1-3.1","battery-v0.2","","""event"",""trial"",""time""
""fullscreenenter"",""1"",""3269""
","
","
","""event"",""trial"",""time""
""fullscreenenter"",""1"",""3269""
","
","","","-1","","","18","9934","3523","&#9826;","elianto","#f73b6a7A","-1","-1","1","-10","[]","0","0","3","","","","","","","",""
"pit-trial","72","877233","0.0-2.0-14.1-4.1","battery-v0.2","","""event"",""trial"",""time""
""fullscreenenter"",""1"",""3269""
","
","
","""event"",""trial"",""time""
""fullscreenenter"",""1"",""3269""
","
","","","-1","","","18","9934","3523","&#9826;","elianto","#f73b6a7A","-1","-1","1","0","[]","0","0","3","","","","","","","",""
"pit-trial","73","882097","0.0-2.0-14.2-0.2","battery-v0.2","","""event"",""trial"",""time""
""fullscreenenter"",""1"",""3269""
","
","
","""event"",""trial"",""time""
""fullscreenenter"",""1"",""3269""
","
","","","-1","","","18","9934","3523","&#9826;","elianto","#f73b6a7A","-1","-1","1","0","[]","0","0","3","","","","","","","",""
"pit-trial","74","886961","0.0-2.0-14.2-1.2","battery-v0.2","","""event"",""trial"",""time""
""fullscreenenter"",""1"",""3269""
","
","
","""event"",""trial"",""time""
""fullscreenenter"",""1"",""3269""
","
","","","-1","","","18","9934","3523","&#9826;","elianto","#f73b6a7A","-1","-1","1","0","[]","0","0","3","","","","","","","",""
"pit-trial","75","891825","0.0-2.0-14.2-2.2","battery-v0.2","","""event"",""trial"",""time""
""fullscreenenter"",""1"",""3269""
","
","
","""event"",""trial"",""time""
""fullscreenenter"",""1"",""3269""
","
","","","-1","","","18","9934","3523","&#9826;","elianto","#f73b6a7A","-1","-1","1","0","[]","0","0","3","","","","","","","",""
"pit-trial","76","896689","0.0-2.0-14.2-3.2","battery-v0.2","","""event"",""trial"",""time""
""fullscreenenter"",""1"",""3269""
","
","
","""event"",""trial"",""time""
""fullscreenenter"",""1"",""3269""
","
","","","-1","","","18","9934","3523","&#9826;","elianto","#f73b6a7A","-1","-1","1","-10","[]","0","0","3","","","","","","","",""
"pit-trial","77","901553","0.0-2.0-14.2-4.2","battery-v0.2","","""event"",""trial"",""time""
""fullscreenenter"",""1"",""3269""
","
","
","""event"",""trial"",""time""
""fullscreenenter"",""1"",""3269""
","
","","","-1","","","18","9934","3523","&#9826;","elianto","#f73b6a7A","-1","-1","1","0","[]","0","0","3","","","","","","","",""
"pit-trial","78","906416","0.0-2.0-14.3-0.3","battery-v0.2","","""event"",""trial"",""time""
""fullscreenenter"",""1"",""3269""
","
","
","""event"",""trial"",""time""
""fullscreenenter"",""1"",""3269""
","
","","","-1","","","18","9934","3523","&#9826;","elianto","#f73b6a7A","-1","-1","1","0","[]","0","0","3","","","","","","","",""
"pit-trial","79","911281","0.0-2.0-14.3-1.3","battery-v0.2","","""event"",""trial"",""time""
""fullscreenenter"",""1"",""3269""
","
","
","""event"",""trial"",""time""
""fullscreenenter"",""1"",""3269""
","
","","","-1","","","18","9934","3523","&#9826;","elianto","#f73b6a7A","-1","-1","1","0","[]","0","0","3","","","","","","","",""
"pit-trial","80","916144","0.0-2.0-14.3-2.3","battery-v0.2","","""event"",""trial"",""time""
""fullscreenenter"",""1"",""3269""
","
","
","""event"",""trial"",""time""
""fullscreenenter"",""1"",""3269""
","
","","","-1","","","18","9934","3523","&#9826;","elianto","#f73b6a7A","-1","-1","1","0","[]","0","0","3","","","","","","","",""
"pit-trial","81","921009","0.0-2.0-14.3-3.3","battery-v0.2","","""event"",""trial"",""time""
""fullscreenenter"",""1"",""3269""
","
","
","""event"",""trial"",""time""
""fullscreenenter"",""1"",""3269""
","
","","","-1","","","18","9934","3523","&#9826;","elianto","#f73b6a7A","-1","-1","1","-10","[]","0","0","3","","","","","","","",""
"pit-trial","82","925872","0.0-2.0-14.3-4.3","battery-v0.2","","""event"",""trial"",""time""
""fullscreenenter"",""1"",""3269""
","
","
","""event"",""trial"",""time""
""fullscreenenter"",""1"",""3269""
","
","","","-1","","","18","9934","3523","&#9826;","elianto","#f73b6a7A","-1","-1","1","0","[]","0","0","3","","","","","","","",""
"call-function","83","925875","0.0-2.0-15.0","battery-v0.2","","""event"",""trial"",""time""
""fullscreenenter"",""1"",""3269""
","
","
","""event"",""trial"",""time""
""fullscreenenter"",""1"",""3269""
","
","","","","","","","","","","","","","","","","","","","","","","","","","","",""
"pit-instructions","84","955572","0.0-2.0-16.0","battery-v0.2","","""event"",""trial"",""time""
""fullscreenenter"",""1"",""3269""
","
","
","""event"",""trial"",""time""
""fullscreenenter"",""1"",""3269""
","
","","[{""page_index"":0,""viewing_time"":8111.5},{""page_index"":1,""viewing_time"":9016.599999904633},{""page_index"":2,""viewing_time"":6833.299999952316},{""page_index"":3,""viewing_time"":5733.900000095367}]","29695.89999985695","","","","","","","","","","","","","","","","","","","","","","","",""
"pit-trial","85","959351","0.0-2.0-17.0-0.0","battery-v0.2","","""event"",""trial"",""time""
""fullscreenenter"",""1"",""3269""
","
","
","""event"",""trial"",""time""
""fullscreenenter"",""1"",""3269""
","
","","","911.3999998569489","","","18","9934","3523","&#9789;","elianto","#f73b6a7A"," "," ","1","0","[1767.5]","1","0","4","","","","","","","",""
"pit-trial","86","962760","0.0-2.0-17.0-1.0","battery-v0.2","","""event"",""trial"",""time""
""fullscreenenter"",""1"",""3269""
","
","
","""event"",""trial"",""time""
""fullscreenenter"",""1"",""3269""
","
","","","550.2999999523163","","","18","9934","3523","&#9789;","elianto","#f73b6a7A"," "," ","1","0","[1400.4000000953674]","1","0","4","","","","","","","",""
"pit-trial","87","966056","0.0-2.0-17.0-2.0","battery-v0.2","","""event"",""trial"",""time""
""fullscreenenter"",""1"",""3269""
","
","
","""event"",""trial"",""time""
""fullscreenenter"",""1"",""3269""
","
","","","432","","","18","9934","3523","&#9789;","elianto","#f73b6a7A"," "," ","1","0","[1284.2000000476837]","1","0","4","","","","","","","",""
"pit-trial","88","969135","0.0-2.0-17.0-3.0","battery-v0.2","","""event"",""trial"",""time""
""fullscreenenter"",""1"",""3269""
","
","
","""event"",""trial"",""time""
""fullscreenenter"",""1"",""3269""
","
","","","218.30000019073486","","","18","9934","3523","&#9789;","elianto","#f73b6a7A"," "," ","1","-10","[1071.4000000953674]","1","0","4","","","","","","","",""
"pit-trial","89","972728","0.0-2.0-17.0-4.0","battery-v0.2","","""event"",""trial"",""time""
""fullscreenenter"",""1"",""3269""
","
","
","""event"",""trial"",""time""
""fullscreenenter"",""1"",""3269""
","
","","","729.1000001430511","","","18","9934","3523","&#9789;","elianto","#f73b6a7A"," "," ","1","0","[1582.9000000953674]","1","0","4","","","","","","","",""
"pit-trial","90","975832","0.0-2.0-17.1-0.1","battery-v0.2","","""event"",""trial"",""time""
""fullscreenenter"",""1"",""3269""
","
","
","""event"",""trial"",""time""
""fullscreenenter"",""1"",""3269""
","
","","","240","","","18","9934","3523","&#9789;","elianto","#f73b6a7A"," "," ","1","0","[1092.1000001430511]","1","0","4","","","","","","","",""
"pit-trial","91","978895","0.0-2.0-17.1-1.1","battery-v0.2","","""event"",""trial"",""time""
""fullscreenenter"",""1"",""3269""
","
","
","""event"",""trial"",""time""
""fullscreenenter"",""1"",""3269""
","
","","","200.5","","","18","9934","3523","&#9789;","elianto","#f73b6a7A"," "," ","1","0","[1051.2999999523163]","1","0","4","","","","","","","",""
"pit-trial","92","981983","0.0-2.0-17.1-2.1","battery-v0.2","","""event"",""trial"",""time""
""fullscreenenter"",""1"",""3269""
","
","
","""event"",""trial"",""time""
""fullscreenenter"",""1"",""3269""
","
","","","225.79999995231628","","","18","9934","3523","&#9789;","elianto","#f73b6a7A"," "," ","1","0","[1079.5999999046326]","1","0","4","","","","","","","",""
"pit-trial","93","984895","0.0-2.0-17.1-3.1","battery-v0.2","","""event"",""trial"",""time""
""fullscreenenter"",""1"",""3269""
","
","
","""event"",""trial"",""time""
""fullscreenenter"",""1"",""3269""
","
","","","53","","","18","9934","3523","&#9789;","elianto","#f73b6a7A"," "," ","1","-10","[904.4000000953674]","1","0","4","","","","","","","",""
"pit-trial","94","987983","0.0-2.0-17.1-4.1","battery-v0.2","","""event"",""trial"",""time""
""fullscreenenter"",""1"",""3269""
","
","
","""event"",""trial"",""time""
""fullscreenenter"",""1"",""3269""
","
","","","229.79999995231628","","","18","9934","3523","&#9789;","elianto","#f73b6a7A"," "," ","1","0","[1081.5]","1","0","4","","","","","","","",""
"pit-trial","95","990887","0.0-2.0-17.2-0.2","battery-v0.2","","""event"",""trial"",""time""
""fullscreenenter"",""1"",""3269""
","
","
","""event"",""trial"",""time""
""fullscreenenter"",""1"",""3269""
","
","","","46.200000047683716","","","18","9934","3523","&#9789;","elianto","#f73b6a7A"," "," ","1","0","[899]","1","0","4","","","","","","","",""
"pit-trial","96","994263","0.0-2.0-17.2-1.2","battery-v0.2","","""event"",""trial"",""time""
""fullscreenenter"",""1"",""3269""
","
","
","""event"",""trial"",""time""
""fullscreenenter"",""1"",""3269""
","
","","","510.7999999523163","","","18","9934","3523","&#9789;","elianto","#f73b6a7A"," "," ","1","0","[1364]","1","0","4","","","","","","","",""
"pit-trial","97","997839","0.0-2.0-17.2-2.2","battery-v0.2","","""event"",""trial"",""time""
""fullscreenenter"",""1"",""3269""
","
","
","""event"",""trial"",""time""
""fullscreenenter"",""1"",""3269""
","
","","","717.7000000476837","","","18","9934","3523","&#9789;","elianto","#f73b6a7A"," "," ","1","0","[1568.8000001907349]","1","0","4","","","","","","","",""
"pit-trial","98","1001039","0.0-2.0-17.2-3.2","battery-v0.2","","""event"",""trial"",""time""
""fullscreenenter"",""1"",""3269""
","
","
","""event"",""trial"",""time""
""fullscreenenter"",""1"",""3269""
","
","","","340.7000000476837","","","18","9934","3523","&#9789;","elianto","#f73b6a7A"," "," ","1","-10","[1193.5]","1","0","4","","","","","","","",""
"pit-trial","99","1003911","0.0-2.0-17.2-4.2","battery-v0.2","","""event"",""trial"",""time""
""fullscreenenter"",""1"",""3269""
","
","
","""event"",""trial"",""time""
""fullscreenenter"",""1"",""3269""
","
","","","8.700000047683716","","","18","9934","3523","&#9789;","elianto","#f73b6a7A"," "," ","1","0","[861.5999999046326,1707.7999999523163]","2","0","4","","","","","","","",""
"pit-trial","100","1006918","0.0-2.0-17.3-0.3","battery-v0.2","","""event"",""trial"",""time""
""fullscreenenter"",""1"",""3269""
","
","
","""event"",""trial"",""time""
""fullscreenenter"",""1"",""3269""
","
","","","144.20000004768372","","","18","9934","3523","&#9789;","elianto","#f73b6a7A"," "," ","1","0","[994.9000000953674]","1","0","4","","","","","","","",""
"pit-trial","101","1010191","0.0-2.0-17.3-1.3","battery-v0.2","","""event"",""trial"",""time""
""fullscreenenter"",""1"",""3269""
","
","
","""event"",""trial"",""time""
""fullscreenenter"",""1"",""3269""
","
","","","413.60000014305115","","","18","9934","3523","&#9789;","elianto","#f73b6a7A"," "," ","1","0","[255.10000014305115,1267,1579.2999999523163]","3","0","4","","","","","","","",""
"pit-trial","102","1013222","0.0-2.0-17.3-2.3","battery-v0.2","","""event"",""trial"",""time""
""fullscreenenter"",""1"",""3269""
","
","
","""event"",""trial"",""time""
""fullscreenenter"",""1"",""3269""
","
","","","170.20000004768372","","","18","9934","3523","&#9789;","elianto","#f73b6a7A"," "," ","1","0","[1023.0999999046326]","1","0","4","","","","","","","",""
"pit-trial","103","1016263","0.0-2.0-17.3-3.3","battery-v0.2","","""event"",""trial"",""time""
""fullscreenenter"",""1"",""3269""
","
","
","""event"",""trial"",""time""
""fullscreenenter"",""1"",""3269""
","
","","","179.29999995231628","","","18","9934","3523","&#9789;","elianto","#f73b6a7A"," "," ","1","-10","[1033]","1","0","4","","","","","","","",""
"pit-trial","104","1019191","0.0-2.0-17.3-4.3","battery-v0.2","","""event"",""trial"",""time""
""fullscreenenter"",""1"",""3269""
","
","
","""event"",""trial"",""time""
""fullscreenenter"",""1"",""3269""
","
","","","67.5","","","18","9934","3523","&#9789;","elianto","#f73b6a7A"," "," ","1","0","[918.5]","1","0","4","","","","","","","",""
"call-function","105","1019193","0.0-2.0-18.0","battery-v0.2","","""event"",""trial"",""time""
""fullscreenenter"",""1"",""3269""
","
","
","""event"",""trial"",""time""
""fullscreenenter"",""1"",""3269""
","
","","","","","","","","","","","","","","","","","","","","","","","","","","",""
"pit-instructions","106","1184621","0.0-2.0-19.0","battery-v0.2","","""event"",""trial"",""time""
""fullscreenenter"",""1"",""3269""
","
","
","""event"",""trial"",""time""
""fullscreenenter"",""1"",""3269""
","
","","[{""page_index"":0,""viewing_time"":77311.60000014305},{""page_index"":1,""viewing_time"":8916.199999809265},{""page_index"":2,""viewing_time"":13684.200000047684},{""page_index"":3,""viewing_time"":9550},{""page_index"":4,""viewing_time"":11166.5},{""page_index"":5,""viewing_time"":10450},{""page_index"":6,""viewing_time"":11933.600000143051},{""page_index"":7,""viewing_time"":17833.799999952316},{""page_index"":8,""viewing_time"":4583.799999952316}]","165430.40000009537","","","","","","","","","","","","","","","","","","","","","","","",""
"pit-comprehension","107","1189087","0.0-2.0-20.0-0.0","battery-v0.2","","""event"",""trial"",""time""
""fullscreenenter"",""1"",""3269""
","
","
","""event"",""trial"",""time""
""fullscreenenter"",""1"",""3269""
","
","","","4456.599999904633","[""SPACE""]","0","18","9934","3523","","","","","","","","","","","","","","","","","","",""
"pit-instructions","108","1193137","0.0-2.0-20.0-1.0","battery-v0.2","","""event"",""trial"",""time""
""fullscreenenter"",""1"",""3269""
","
","
","""event"",""trial"",""time""
""fullscreenenter"",""1"",""3269""
","
","","[{""page_index"":0,""viewing_time"":4021.2999999523163}]","4021.7999999523163","","","","","","","","","","","","","","","","","","","","","","","",""
"pit-comprehension","109","1203438","0.0-2.0-21.0-0.0","battery-v0.2","","""event"",""trial"",""time""
""fullscreenenter"",""1"",""3269""
","
","
","""event"",""trial"",""time""
""fullscreenenter"",""1"",""3269""
","
","","","10296.900000095367","[""10""]","0","18","9934","3523","","","","","","","","","","","","","","","","","","",""
"pit-instructions","110","1206821","0.0-2.0-21.0-1.0","battery-v0.2","","""event"",""trial"",""time""
""fullscreenenter"",""1"",""3269""
","
","
","""event"",""trial"",""time""
""fullscreenenter"",""1"",""3269""
","
","","[{""page_index"":0,""viewing_time"":3354.800000190735}]","3355.300000190735","","","","","","","","","","","","","","","","","","","","","","","",""
"pit-comprehension","111","1215188","0.0-2.0-22.0-0.0","battery-v0.2","","""event"",""trial"",""time""
""fullscreenenter"",""1"",""3269""
","
","
","""event"",""trial"",""time""
""fullscreenenter"",""1"",""3269""
","
","","","8362.400000095367","[""0""]","0","18","9934","3523","","","","","","","","","","","","","","","","","","",""
"pit-instructions","112","1222088","0.0-2.0-22.0-1.0","battery-v0.2","","""event"",""trial"",""time""
""fullscreenenter"",""1"",""3269""
","
","
","""event"",""trial"",""time""
""fullscreenenter"",""1"",""3269""
","
","","[{""page_index"":0,""viewing_time"":6872.899999856949}]","6873.399999856949","","","","","","","","","","","","","","","","","","","","","","","",""
"pit-comprehension","113","1231321","0.0-2.0-23.0-0.0","battery-v0.2","","""event"",""trial"",""time""
""fullscreenenter"",""1"",""3269""
","
","
","""event"",""trial"",""time""
""fullscreenenter"",""1"",""3269""
","
","","","9228.899999856949","[""True""]","0","18","9934","3523","","","","","","","","","","","","","","","","","","",""
"pit-instructions","114","1235070","0.0-2.0-23.0-1.0","battery-v0.2","","""event"",""trial"",""time""
""fullscreenenter"",""1"",""3269""
","
","
","""event"",""trial"",""time""
""fullscreenenter"",""1"",""3269""
","
","","[{""page_index"":0,""viewing_time"":3721.2000000476837}]","3721.5","","","","","","","","","","","","","","","","","","","","","","","",""
"pit-comprehension","115","1243355","0.0-2.0-24.0-0.0","battery-v0.2","","""event"",""trial"",""time""
""fullscreenenter"",""1"",""3269""
","
","
","""event"",""trial"",""time""
""fullscreenenter"",""1"",""3269""
","
","","","8281.699999809265","[""True""]","0","18","9934","3523","","","","","","","","","","","","","","","","","","",""
"pit-instructions","116","1247253","0.0-2.0-24.0-1.0","battery-v0.2","","""event"",""trial"",""time""
""fullscreenenter"",""1"",""3269""
","
","
","""event"",""trial"",""time""
""fullscreenenter"",""1"",""3269""
","
","","[{""page_index"":0,""viewing_time"":3870.5}]","3870.9000000953674","","","","","","","","","","","","","","","","","","","","","","","",""
"pit-comprehension","117","1253554","0.0-2.0-25.0-0.0","battery-v0.2","","""event"",""trial"",""time""
""fullscreenenter"",""1"",""3269""
","
","
","""event"",""trial"",""time""
""fullscreenenter"",""1"",""3269""
","
","","","6296.200000047684","[""True""]","0","18","9934","3523","","","","","","","","","","","","","","","","","","",""
"pit-instructions","118","1254970","0.0-2.0-25.0-1.0","battery-v0.2","","""event"",""trial"",""time""
""fullscreenenter"",""1"",""3269""
","
","
","""event"",""trial"",""time""
""fullscreenenter"",""1"",""3269""
","
","","[{""page_index"":0,""viewing_time"":1388.7000000476837}]","1389.5","","","","","","","","","","","","","","","","","","","","","","","",""
"pit-comprehension","119","1259221","0.0-2.0-26.0-0.0","battery-v0.2","","""event"",""trial"",""time""
""fullscreenenter"",""1"",""3269""
","
","
","""event"",""trial"",""time""
""fullscreenenter"",""1"",""3269""
","
","","","4246.800000190735","[""False""]","0","18","9934","3523","","","","","","","","","","","","","","","","","","",""
"pit-instructions","120","1261536","0.0-2.0-26.0-1.0","battery-v0.2","","""event"",""trial"",""time""
""fullscreenenter"",""1"",""3269""
","
","
","""event"",""trial"",""time""
""fullscreenenter"",""1"",""3269""
","
","","[{""page_index"":0,""viewing_time"":2289.800000190735}]","2290","","","","","","","","","","","","","","","","","","","","","","","",""
"pit-instructions","121","1300303","0.0-3.0","battery-v0.2","","""event"",""trial"",""time""
""fullscreenenter"",""1"",""3269""
","
","
","""event"",""trial"",""time""
""fullscreenenter"",""1"",""3269""
","
","","[{""page_index"":0,""viewing_time"":21447.10000014305},{""page_index"":1,""viewing_time"":9967},{""page_index"":2,""viewing_time"":7349.899999856949}]","38764.5","","","","","","","","","","","","","","","","","","","","","","","",""
"pit-trial","122","1304248","0.0-4.0","battery-v0.2","","""event"",""trial"",""time""
""fullscreenenter"",""1"",""3269""
","
","
","""event"",""trial"",""time""
""fullscreenenter"",""1"",""3269""
","
","","","1076.0999999046326","","","18","9934","3523","&#9752;","elianto","#f73b6a7A"," "," ","1","-10","[1931.7999999523163]","1","1","","","9934","1","3","3","lose","go","1"
"pit-trial","123","1307984","0.0-5.0","battery-v0.2","","""event"",""trial"",""time""
""fullscreenenter"",""1"",""3269""
","
","
","""event"",""trial"",""time""
""fullscreenenter"",""1"",""3269""
","
","","","874.3999998569489","","","18","9934","3523","&#9730;","elianto","#3366ff99"," "," ","1","+10","[1725.3000001907349]","1","1","","","9934","2","1","1","win","go","0"
"pit-trial","124","1311624","0.0-6.0","battery-v0.2","","""event"",""trial"",""time""
""fullscreenenter"",""1"",""3269""
","
","
","""event"",""trial"",""time""
""fullscreenenter"",""1"",""3269""
","
","","","779.3000001907349","","","18","9934","3523","&#9728;","elianto","#f73b6a7A","-1"," ","0","0","[1631.7999999523163]","1","1","","","9934","3","0","4","lose","no-go","1"
"pit-trial","125","1316489","0.0-7.0","battery-v0.2","","""event"",""trial"",""time""
""fullscreenenter"",""1"",""3269""
","
","
","""event"",""trial"",""time""
""fullscreenenter"",""1"",""3269""
","
","","","-1","","","18","9934","3523","&#9733;","elianto","#3366ff99","-1","-1","1","+10","[]","0","1","","","9934","4","2","2","win","no-go","0"
"pit-trial","126","1320175","0.0-8.0","battery-v0.2","","""event"",""trial"",""time""
""fullscreenenter"",""1"",""3269""
","
","
","""event"",""trial"",""time""
""fullscreenenter"",""1"",""3269""
","
","","","825.5","","","18","9934","3523","&#9730;","elianto","#3366ff99"," "," ","1","0","[1677.7999999523163]","1","1","","","9934","5","1","1","win","go","1"
"pit-trial","127","1323744","0.0-9.0","battery-v0.2","","""event"",""trial"",""time""
""fullscreenenter"",""1"",""3269""
","
","
","""event"",""trial"",""time""
""fullscreenenter"",""1"",""3269""
","
","","","711.1999998092651","","","18","9934","3523","&#9733;","elianto","#3366ff99","-1"," ","0","0","[1563]","1","1","","","9934","6","2","2","win","no-go","0"
"pit-trial","128","1327519","0.0-10.0","battery-v0.2","","""event"",""trial"",""time""
""fullscreenenter"",""1"",""3269""
","
","
","""event"",""trial"",""time""
""fullscreenenter"",""1"",""3269""
","
","","","912.2000000476837","","","18","9934","3523","&#9728;","elianto","#f73b6a7A","-1"," ","0","-10","[1764.5999999046326]","1","1","","","9934","7","0","4","lose","no-go","0"
"pit-trial","129","1332384","0.0-11.0","battery-v0.2","","""event"",""trial"",""time""
""fullscreenenter"",""1"",""3269""
","
","
","""event"",""trial"",""time""
""fullscreenenter"",""1"",""3269""
","
","","","-1","","","18","9934","3523","&#9752;","elianto","#f73b6a7A"," ","-1","0","-10","[]","0","1","","","9934","8","3","3","lose","go","0"
"pit-trial","130","1335639","0.0-12.0","battery-v0.2","","""event"",""trial"",""time""
""fullscreenenter"",""1"",""3269""
","
","
","""event"",""trial"",""time""
""fullscreenenter"",""1"",""3269""
","
","","","393.39999985694885","","","18","9934","3523","&#9730;","elianto","#3366ff99"," "," ","1","+10","[1246.3999998569489]","1","1","","","9934","9","1","1","win","go","0"
"pit-trial","131","1338903","0.0-13.0","battery-v0.2","","""event"",""trial"",""time""
""fullscreenenter"",""1"",""3269""
","
","
","""event"",""trial"",""time""
""fullscreenenter"",""1"",""3269""
","
","","","400.2999999523163","","","18","9934","3523","&#9752;","elianto","#f73b6a7A"," "," ","1","0","[1253.2999999523163]","1","1","","","9934","10","3","3","lose","go","0"
"pit-trial","132","1342071","0.0-14.0","battery-v0.2","","""event"",""trial"",""time""
""fullscreenenter"",""1"",""3269""
","
","
","""event"",""trial"",""time""
""fullscreenenter"",""1"",""3269""
","
","","","303.10000014305115","","","18","9934","3523","&#9728;","elianto","#f73b6a7A","-1"," ","0","-10","[1156.8000001907349]","1","1","","","9934","11","0","4","lose","no-go","0"
"pit-trial","133","1345079","0.0-15.0","battery-v0.2","","""event"",""trial"",""time""
""fullscreenenter"",""1"",""3269""
","
","
","""event"",""trial"",""time""
""fullscreenenter"",""1"",""3269""
","
","","","145.70000004768372","","","18","9934","3523","&#9733;","elianto","#3366ff99","-1"," ","0","0","[998.2999999523163]","1","1","","","9934","12","2","2","win","no-go","0"
"pit-trial","134","1349151","0.0-16.0","battery-v0.2","","""event"",""trial"",""time""
""fullscreenenter"",""1"",""3269""
","
","
","""event"",""trial"",""time""
""fullscreenenter"",""1"",""3269""
","
","","","1211.2000000476837","","","18","9934","3523","&#9752;","elianto","#f73b6a7A"," "," ","1","0","[2061.7000000476837]","1","1","","","9934","13","3","3","lose","go","0"
"pit-trial","135","1352975","0.0-17.0","battery-v0.2","","""event"",""trial"",""time""
""fullscreenenter"",""1"",""3269""
","
","
","""event"",""trial"",""time""
""fullscreenenter"",""1"",""3269""
","
","","","961.8999998569489","","","18","9934","3523","&#9733;","elianto","#3366ff99","-1"," ","0","+10","[1813.9000000953674]","1","1","","","9934","14","2","2","win","no-go","1"
"pit-trial","136","1357839","0.0-18.0","battery-v0.2","","""event"",""trial"",""time""
""fullscreenenter"",""1"",""3269""
","
","
","""event"",""trial"",""time""
""fullscreenenter"",""1"",""3269""
","
","","","-1","","","18","9934","3523","&#9728;","elianto","#f73b6a7A","-1","-1","1","0","[]","0","1","","","9934","15","0","4","lose","no-go","0"
"pit-trial","137","1361359","0.0-19.0","battery-v0.2","","""event"",""trial"",""time""
""fullscreenenter"",""1"",""3269""
","
","
","""event"",""trial"",""time""
""fullscreenenter"",""1"",""3269""
","
","","","656.5999999046326","","","18","9934","3523","&#9730;","elianto","#3366ff99"," "," ","1","+10","[1508.5999999046326]","1","1","","","9934","16","1","1","win","go","0"
"pit-trial","138","1366223","0.0-20.0","battery-v0.2","","""event"",""trial"",""time""
""fullscreenenter"",""1"",""3269""
","
","
","""event"",""trial"",""time""
""fullscreenenter"",""1"",""3269""
","
","","","-1","","","18","9934","3523","&#9728;","elianto","#f73b6a7A","-1","-1","1","0","[]","0","1","","","9934","17","0","4","lose","no-go","0"
"pit-trial","139","1370142","0.0-21.0","battery-v0.2","","""event"",""trial"",""time""
""fullscreenenter"",""1"",""3269""
","
","
","""event"",""trial"",""time""
""fullscreenenter"",""1"",""3269""
","
","","","1057.7999999523163","","","18","9934","3523","&#9752;","elianto","#f73b6a7A"," "," ","1","0","[1910.7000000476837]","1","1","","","9934","18","3","3","lose","go","0"
"pit-trial","140","1373871","0.0-22.0","battery-v0.2","","""event"",""trial"",""time""
""fullscreenenter"",""1"",""3269""
","
","
","""event"",""trial"",""time""
""fullscreenenter"",""1"",""3269""
","
","","","866.4000000953674","","","18","9934","3523","&#9730;","elianto","#3366ff99"," "," ","1","+10","[1717.5999999046326]","1","1","","","9934","19","1","1","win","go","0"
"pit-trial","141","1377575","0.0-23.0","battery-v0.2","","""event"",""trial"",""time""
""fullscreenenter"",""1"",""3269""
","
","
","""event"",""trial"",""time""
""fullscreenenter"",""1"",""3269""
","
","","","844.7999999523163","","","18","9934","3523","&#9733;","elianto","#3366ff99","-1"," ","0","0","[1697.2999999523163]","1","1","","","9934","20","2","2","win","no-go","0"
"pit-instructions","142","1409936","0.0-24.0","battery-v0.2","","""event"",""trial"",""time""
""fullscreenenter"",""1"",""3269""
","
","
","""event"",""trial"",""time""
""fullscreenenter"",""1"",""3269""
","
","","[{""page_index"":0,""viewing_time"":24675.299999952316},{""page_index"":1,""viewing_time"":7683.299999952316}]","32359","","","","","","","","","","","","","","","","","","","","","","","",""
"pit-trial","143","1413646","0.0-25.0","battery-v0.2","","""event"",""trial"",""time""
""fullscreenenter"",""1"",""3269""
","
","
","""event"",""trial"",""time""
""fullscreenenter"",""1"",""3269""
","
","","","842.6000001430511","","","18","9934","3523","y","elianto","#f73b6a7A","-1"," ","0","-10","[1700.3000001907349]","1","2","","","9934","21","2","4","lose","no-go","0"
"pit-trial","144","1417158","0.0-26.0","battery-v0.2","","""event"",""trial"",""time""
""fullscreenenter"",""1"",""3269""
","
","
","""event"",""trial"",""time""
""fullscreenenter"",""1"",""3269""
","
","","","656.1000001430511","","","18","9934","3523","m","elianto","#f73b6a7A","-1"," ","0","-10","[1506.3999998569489]","1","2","","","9934","22","0","4","lose","no-go","0"
"pit-trial","145","1420854","0.0-27.0","battery-v0.2","","""event"",""trial"",""time""
""fullscreenenter"",""1"",""3269""
","
","
","""event"",""trial"",""time""
""fullscreenenter"",""1"",""3269""
","
","","","830.7999999523163","","","18","9934","3523","h","elianto","#f73b6a7A"," "," ","1","-10","[1684.2999999523163]","1","2","","","9934","23","3","3","lose","go","1"
"pit-trial","146","1424398","0.0-28.0","battery-v0.2","","""event"",""trial"",""time""
""fullscreenenter"",""1"",""3269""
","
","
","""event"",""trial"",""time""
""fullscreenenter"",""1"",""3269""
","
","","","679","","","18","9934","3523","r","elianto","#3366ff99"," "," ","1","0","[1532.7000000476837]","1","2","","","9934","24","1","1","win","go","1"
"pit-trial","147","1429262","0.0-29.0","battery-v0.2","","""event"",""trial"",""time""
""fullscreenenter"",""1"",""3269""
","
","
","""event"",""trial"",""time""
""fullscreenenter"",""1"",""3269""
","
","","","-1","","","18","9934","3523","m","elianto","#f73b6a7A","-1","-1","1","-10","[]","0","2","","","9934","25","0","4","lose","no-go","1"
"pit-trial","148","1432709","0.0-30.0","battery-v0.2","","""event"",""trial"",""time""
""fullscreenenter"",""1"",""3269""
","
","
","""event"",""trial"",""time""
""fullscreenenter"",""1"",""3269""
","
","","","588.6000001430511","","","18","9934","3523","r","elianto","#3366ff99"," "," ","1","+10","[1439.7999999523163]","1","2","","","9934","26","1","1","win","go","0"
"pit-trial","149","1437574","0.0-31.0","battery-v0.2","","""event"",""trial"",""time""
""fullscreenenter"",""1"",""3269""
","
","
","""event"",""trial"",""time""
""fullscreenenter"",""1"",""3269""
","
","","","-1","","","18","9934","3523","h","elianto","#f73b6a7A"," ","-1","0","-10","[]","0","2","","","9934","27","3","3","lose","go","0"
"pit-trial","150","1442437","0.0-32.0","battery-v0.2","","""event"",""trial"",""time""
""fullscreenenter"",""1"",""3269""
","
","
","""event"",""trial"",""time""
""fullscreenenter"",""1"",""3269""
","
","","","-1","","","18","9934","3523","y","elianto","#f73b6a7A","-1","-1","1","-10","[]","0","2","","","9934","28","2","4","lose","no-go","1"
"pit-trial","151","1447301","0.0-33.0","battery-v0.2","","""event"",""trial"",""time""
""fullscreenenter"",""1"",""3269""
","
","
","""event"",""trial"",""time""
""fullscreenenter"",""1"",""3269""
","
","","","-1","","","18","9934","3523","y","elianto","#f73b6a7A","-1","-1","1","0","[]","0","2","","","9934","29","2","4","lose","no-go","0"
"pit-trial","152","1452165","0.0-34.0","battery-v0.2","","""event"",""trial"",""time""
""fullscreenenter"",""1"",""3269""
","
","
","""event"",""trial"",""time""
""fullscreenenter"",""1"",""3269""
","
","","","-1","","","18","9934","3523","m","elianto","#f73b6a7A","-1","-1","1","-10","[]","0","2","","","9934","30","0","4","lose","no-go","1"
"pit-trial","153","1455933","0.0-35.0","battery-v0.2","","""event"",""trial"",""time""
""fullscreenenter"",""1"",""3269""
","
","
","""event"",""trial"",""time""
""fullscreenenter"",""1"",""3269""
","
","","","910.1000001430511","","","18","9934","3523","h","elianto","#f73b6a7A"," "," ","1","0","[1762.2000000476837]","1","2","","","9934","31","3","3","lose","go","0"
"pit-trial","154","1459517","0.0-36.0","battery-v0.2","","""event"",""trial"",""time""
""fullscreenenter"",""1"",""3269""
","
","
","""event"",""trial"",""time""
""fullscreenenter"",""1"",""3269""
","
","","","725.7000000476837","","","18","9934","3523","r","elianto","#3366ff99"," "," ","1","0","[1578.3999998569489]","1","2","","","9934","32","1","1","win","go","1"
"pit-trial","155","1462861","0.0-37.0","battery-v0.2","","""event"",""trial"",""time""
""fullscreenenter"",""1"",""3269""
","
","
","""event"",""trial"",""time""
""fullscreenenter"",""1"",""3269""
","
","","","483.59999990463257","","","18","9934","3523","y","elianto","#f73b6a7A","-1"," ","0","0","[1336.2999999523163]","1","2","","","9934","33","2","4","lose","no-go","1"
"pit-trial","156","1466237","0.0-38.0","battery-v0.2","","""event"",""trial"",""time""
""fullscreenenter"",""1"",""3269""
","
","
","""event"",""trial"",""time""
""fullscreenenter"",""1"",""3269""
","
","","","513.9000000953674","","","18","9934","3523","h","elianto","#f73b6a7A"," "," ","1","0","[1365.5999999046326]","1","2","","","9934","34","3","3","lose","go","0"
"pit-trial","157","1469685","0.0-39.0","battery-v0.2","","""event"",""trial"",""time""
""fullscreenenter"",""1"",""3269""
","
","
","""event"",""trial"",""time""
""fullscreenenter"",""1"",""3269""
","
","","","589.4000000953674","","","18","9934","3523","m","elianto","#f73b6a7A","-1"," ","0","-10","[1441.9000000953674]","1","2","","","9934","35","0","4","lose","no-go","0"
"pit-trial","158","1473117","0.0-40.0","battery-v0.2","","""event"",""trial"",""time""
""fullscreenenter"",""1"",""3269""
","
","
","""event"",""trial"",""time""
""fullscreenenter"",""1"",""3269""
","
","","","568.5999999046326","","","18","9934","3523","r","elianto","#3366ff99"," "," ","1","+10","[1420.7999999523163]","1","2","","","9934","36","1","1","win","go","0"
"pit-trial","159","1477428","0.0-41.0","battery-v0.2","","""event"",""trial"",""time""
""fullscreenenter"",""1"",""3269""
","
","
","""event"",""trial"",""time""
""fullscreenenter"",""1"",""3269""
","
","","","1454.4000000953674","","","18","9934","3523","y","elianto","#f73b6a7A","-1"," ","0","-10","[2305.600000143051]","1","2","","","9934","37","2","4","lose","no-go","0"
"pit-trial","160","1480957","0.0-42.0","battery-v0.2","","""event"",""trial"",""time""
""fullscreenenter"",""1"",""3269""
","
","
","""event"",""trial"",""time""
""fullscreenenter"",""1"",""3269""
","
","","","671.2999999523163","","","18","9934","3523","r","elianto","#3366ff99"," "," ","1","+10","[1523.2999999523163]","1","2","","","9934","38","1","1","win","go","0"
"pit-trial","161","1485821","0.0-43.0","battery-v0.2","","""event"",""trial"",""time""
""fullscreenenter"",""1"",""3269""
","
","
","""event"",""trial"",""time""
""fullscreenenter"",""1"",""3269""
","
","","","-1","","","18","9934","3523","h","elianto","#f73b6a7A"," ","-1","0","-10","[]","0","2","","","9934","39","3","3","lose","go","0"
"pit-trial","162","1489212","0.0-44.0","battery-v0.2","","""event"",""trial"",""time""
""fullscreenenter"",""1"",""3269""
","
","
","""event"",""trial"",""time""
""fullscreenenter"",""1"",""3269""
","
","","","528.3999998569489","","","18","9934","3523","m","elianto","#f73b6a7A","-1"," ","0","-10","[1380.7999999523163]","1","2","","","9934","40","0","4","lose","no-go","0"
"pit-trial","163","1492652","0.0-45.0","battery-v0.2","","""event"",""trial"",""time""
""fullscreenenter"",""1"",""3269""
","
","
","""event"",""trial"",""time""
""fullscreenenter"",""1"",""3269""
","
","","","582.6000001430511","","","18","9934","3523","r","elianto","#3366ff99"," "," ","1","+10","[1433]","1","2","","","9934","41","1","1","win","go","0"
"pit-trial","164","1496924","0.0-46.0","battery-v0.2","","""event"",""trial"",""time""
""fullscreenenter"",""1"",""3269""
","
","
","""event"",""trial"",""time""
""fullscreenenter"",""1"",""3269""
","
","","","1410.9000000953674","","","18","9934","3523","m","elianto","#f73b6a7A","-1"," ","0","-10","[2263.5]","1","2","","","9934","42","0","4","lose","no-go","0"
"pit-trial","165","1501108","0.0-47.0","battery-v0.2","","""event"",""trial"",""time""
""fullscreenenter"",""1"",""3269""
","
","
","""event"",""trial"",""time""
""fullscreenenter"",""1"",""3269""
","
","","","1325.2999999523163","","","18","9934","3523","y","elianto","#f73b6a7A","-1"," ","0","-10","[2177.899999856949]","1","2","","","9934","43","2","4","lose","no-go","0"
"pit-trial","166","1504723","0.0-48.0","battery-v0.2","","""event"",""trial"",""time""
""fullscreenenter"",""1"",""3269""
","
","
","""event"",""trial"",""time""
""fullscreenenter"",""1"",""3269""
","
","","","751.4000000953674","","","18","9934","3523","h","elianto","#f73b6a7A"," "," ","1","0","[1603.7000000476837]","1","2","","","9934","44","3","3","lose","go","0"
"pit-trial","167","1509588","0.0-49.0","battery-v0.2","","""event"",""trial"",""time""
""fullscreenenter"",""1"",""3269""
","
","
","""event"",""trial"",""time""
""fullscreenenter"",""1"",""3269""
","
","","","-1","","","18","9934","3523","m","elianto","#f73b6a7A","-1","-1","1","0","[]","0","2","","","9934","45","0","4","lose","no-go","0"
"pit-trial","168","1514452","0.0-50.0","battery-v0.2","","""event"",""trial"",""time""
""fullscreenenter"",""1"",""3269""
","
","
","""event"",""trial"",""time""
""fullscreenenter"",""1"",""3269""
","
","","","-1","","","18","9934","3523","y","elianto","#f73b6a7A","-1","-1","1","0","[]","0","2","","","9934","46","2","4","lose","no-go","0"
"pit-trial","169","1518019","0.0-51.0","battery-v0.2","","""event"",""trial"",""time""
""fullscreenenter"",""1"",""3269""
","
","
","""event"",""trial"",""time""
""fullscreenenter"",""1"",""3269""
","
","","","703.1999998092651","","","18","9934","3523","z","elianto","#3366ff99","-1"," ","0","0","[1555.7999999523163]","1","2","","","9934","47","4","2","win","no-go","0"
"pit-trial","170","1522884","0.0-52.0","battery-v0.2","","""event"",""trial"",""time""
""fullscreenenter"",""1"",""3269""
","
","
","""event"",""trial"",""time""
""fullscreenenter"",""1"",""3269""
","
","","","-1","","","18","9934","3523","h","elianto","#f73b6a7A"," ","-1","0","-10","[]","0","2","","","9934","48","3","3","lose","go","0"
"pit-trial","171","1526259","0.0-53.0","battery-v0.2","","""event"",""trial"",""time""
""fullscreenenter"",""1"",""3269""
","
","
","""event"",""trial"",""time""
""fullscreenenter"",""1"",""3269""
","
","","","517","","","18","9934","3523","r","elianto","#3366ff99"," "," ","1","+10","[1368.9000000953674]","1","2","","","9934","49","1","1","win","go","0"
"pit-trial","172","1530051","0.0-54.0","battery-v0.2","","""event"",""trial"",""time""
""fullscreenenter"",""1"",""3269""
","
","
","""event"",""trial"",""time""
""fullscreenenter"",""1"",""3269""
","
","","","926.9000000953674","","","18","9934","3523","m","elianto","#f73b6a7A","-1"," ","0","-10","[1779.7000000476837]","1","2","","","9934","50","0","4","lose","no-go","0"
"pit-trial","173","1534595","0.0-55.0","battery-v0.2","","""event"",""trial"",""time""
""fullscreenenter"",""1"",""3269""
","
","
","""event"",""trial"",""time""
""fullscreenenter"",""1"",""3269""
","
","","","1678.7999999523163","","","18","9934","3523","h","elianto","#f73b6a7A"," "," ","1","0","[2531.2000000476837]","1","2","","","9934","51","3","3","lose","go","0"
"pit-trial","174","1538292","0.0-56.0","battery-v0.2","","""event"",""trial"",""time""
""fullscreenenter"",""1"",""3269""
","
","
","""event"",""trial"",""time""
""fullscreenenter"",""1"",""3269""
","
","","","836","","","18","9934","3523","z","elianto","#3366ff99","-1"," ","0","0","[1686]","1","2","","","9934","52","4","2","win","no-go","0"
"pit-trial","175","1541691","0.0-57.0","battery-v0.2","","""event"",""trial"",""time""
""fullscreenenter"",""1"",""3269""
","
","
","""event"",""trial"",""time""
""fullscreenenter"",""1"",""3269""
","
","","","541.7999999523163","","","18","9934","3523","r","elianto","#3366ff99"," "," ","1","+10","[1394.3000001907349]","1","2","","","9934","53","1","1","win","go","0"
"pit-trial","176","1546555","0.0-58.0","battery-v0.2","","""event"",""trial"",""time""
""fullscreenenter"",""1"",""3269""
","
","
","""event"",""trial"",""time""
""fullscreenenter"",""1"",""3269""
","
","","","-1","","","18","9934","3523","y","elianto","#f73b6a7A","-1","-1","1","-10","[]","0","2","","","9934","54","2","4","lose","no-go","1"
"pit-trial","177","1551419","0.0-59.0","battery-v0.2","","""event"",""trial"",""time""
""fullscreenenter"",""1"",""3269""
","
","
","""event"",""trial"",""time""
""fullscreenenter"",""1"",""3269""
","
","","","-1","","","18","9934","3523","m","elianto","#f73b6a7A","-1","-1","1","0","[]","0","2","","","9934","55","0","4","lose","no-go","0"
"pit-trial","178","1554898","0.0-60.0","battery-v0.2","","""event"",""trial"",""time""
""fullscreenenter"",""1"",""3269""
","
","
","""event"",""trial"",""time""
""fullscreenenter"",""1"",""3269""
","
","","","617.7999999523163","","","18","9934","3523","z","elianto","#3366ff99","-1"," ","0","+10","[1470.5]","1","2","","","9934","56","4","2","win","no-go","1"
"pit-trial","179","1559762","0.0-61.0","battery-v0.2","","""event"",""trial"",""time""
""fullscreenenter"",""1"",""3269""
","
","
","""event"",""trial"",""time""
""fullscreenenter"",""1"",""3269""
","
","","","-1","","","18","9934","3523","h","elianto","#f73b6a7A"," ","-1","0","-10","[]","0","2","","","9934","57","3","3","lose","go","0"
"pit-trial","180","1564626","0.0-62.0","battery-v0.2","","""event"",""trial"",""time""
""fullscreenenter"",""1"",""3269""
","
","
","""event"",""trial"",""time""
""fullscreenenter"",""1"",""3269""
","
","","","-1","","","18","9934","3523","m","elianto","#f73b6a7A","-1","-1","1","0","[]","0","2","","","9934","58","0","4","lose","no-go","0"
"pit-trial","181","1568067","0.0-63.0","battery-v0.2","","""event"",""trial"",""time""
""fullscreenenter"",""1"",""3269""
","
","
","""event"",""trial"",""time""
""fullscreenenter"",""1"",""3269""
","
","","","579.2000000476837","","","18","9934","3523","r","elianto","#3366ff99"," "," ","1","+10","[1432.2000000476837]","1","2","","","9934","59","1","1","win","go","0"
"pit-trial","182","1571515","0.0-64.0","battery-v0.2","","""event"",""trial"",""time""
""fullscreenenter"",""1"",""3269""
","
","
","""event"",""trial"",""time""
""fullscreenenter"",""1"",""3269""
","
","","","584.0999999046326","","","18","9934","3523","z","elianto","#3366ff99","-1"," ","0","0","[1436.5]","1","2","","","9934","60","4","2","win","no-go","0"
"pit-trial","183","1574890","0.0-65.0","battery-v0.2","","""event"",""trial"",""time""
""fullscreenenter"",""1"",""3269""
","
","
","""event"",""trial"",""time""
""fullscreenenter"",""1"",""3269""
","
","","","517.7999999523163","","","18","9934","3523","z","elianto","#3366ff99","-1"," ","0","+10","[1369.9000000953674]","1","2","","","9934","61","4","2","win","no-go","1"
"pit-trial","184","1579362","0.0-66.0","battery-v0.2","","""event"",""trial"",""time""
""fullscreenenter"",""1"",""3269""
","
","
","""event"",""trial"",""time""
""fullscreenenter"",""1"",""3269""
","
","","","1609.3999998569489","","","18","9934","3523","h","elianto","#f73b6a7A"," "," ","1","0","[2462.4000000953674]","1","2","","","9934","62","3","3","lose","go","0"
"pit-trial","185","1582947","0.0-67.0","battery-v0.2","","""event"",""trial"",""time""
""fullscreenenter"",""1"",""3269""
","
","
","""event"",""trial"",""time""
""fullscreenenter"",""1"",""3269""
","
","","","721.0999999046326","","","18","9934","3523","r","elianto","#3366ff99"," "," ","1","+10","[1571.5]","1","2","","","9934","63","1","1","win","go","0"
"pit-trial","186","1587810","0.0-68.0","battery-v0.2","","""event"",""trial"",""time""
""fullscreenenter"",""1"",""3269""
","
","
","""event"",""trial"",""time""
""fullscreenenter"",""1"",""3269""
","
","","","-1","","","18","9934","3523","y","elianto","#f73b6a7A","-1","-1","1","0","[]","0","2","","","9934","64","2","4","lose","no-go","0"
"pit-trial","187","1591322","0.0-69.0","battery-v0.2","","""event"",""trial"",""time""
""fullscreenenter"",""1"",""3269""
","
","
","""event"",""trial"",""time""
""fullscreenenter"",""1"",""3269""
","
","","","652.8999998569489","","","18","9934","3523","z","elianto","#3366ff99","-1"," ","0","0","[1507.6999998092651]","1","2","","","9934","65","4","2","win","no-go","0"
"pit-trial","188","1595370","0.0-70.0","battery-v0.2","","""event"",""trial"",""time""
""fullscreenenter"",""1"",""3269""
","
","
","""event"",""trial"",""time""
""fullscreenenter"",""1"",""3269""
","
","","","1186.7000000476837","","","18","9934","3523","h","elianto","#f73b6a7A"," "," ","1","0","[2039.2000000476837]","1","2","","","9934","66","3","3","lose","go","0"
"pit-trial","189","1598818","0.0-71.0","battery-v0.2","","""event"",""trial"",""time""
""fullscreenenter"",""1"",""3269""
","
","
","""event"",""trial"",""time""
""fullscreenenter"",""1"",""3269""
","
","","","584.7000000476837","","","18","9934","3523","r","elianto","#3366ff99"," "," ","1","+10","[1437.4000000953674]","1","2","","","9934","67","1","1","win","go","0"
"pit-trial","190","1603682","0.0-72.0","battery-v0.2","","""event"",""trial"",""time""
""fullscreenenter"",""1"",""3269""
","
","
","""event"",""trial"",""time""
""fullscreenenter"",""1"",""3269""
","
","","","-1","","","18","9934","3523","y","elianto","#f73b6a7A","-1","-1","1","0","[]","0","2","","","9934","68","2","4","lose","no-go","0"
"pit-trial","191","1607066","0.0-73.0","battery-v0.2","","""event"",""trial"",""time""
""fullscreenenter"",""1"",""3269""
","
","
","""event"",""trial"",""time""
""fullscreenenter"",""1"",""3269""
","
","","","519","","","18","9934","3523","z","elianto","#3366ff99","-1"," ","0","+10","[1370.8999998569489]","1","2","","","9934","69","4","2","win","no-go","1"
"pit-trial","192","1611930","0.0-74.0","battery-v0.2","","""event"",""trial"",""time""
""fullscreenenter"",""1"",""3269""
","
","
","""event"",""trial"",""time""
""fullscreenenter"",""1"",""3269""
","
","","","-1","","","18","9934","3523","h","elianto","#f73b6a7A"," ","-1","0","-10","[]","0","2","","","9934","70","3","3","lose","go","0"
"pit-trial","193","1615257","0.0-75.0","battery-v0.2","","""event"",""trial"",""time""
""fullscreenenter"",""1"",""3269""
","
","
","""event"",""trial"",""time""
""fullscreenenter"",""1"",""3269""
","
","","","463.7999999523163","","","18","9934","3523","r","elianto","#3366ff99"," "," ","1","0","[1315.7000000476837]","1","2","","","9934","71","1","1","win","go","1"
"pit-trial","194","1618977","0.0-76.0","battery-v0.2","","""event"",""trial"",""time""
""fullscreenenter"",""1"",""3269""
","
","
","""event"",""trial"",""time""
""fullscreenenter"",""1"",""3269""
","
","","","858.7000000476837","","","18","9934","3523","c","elianto","#3366ff99"," "," ","1","+10","[1710.5]","1","2","","","9934","72","5","1","win","go","0"
"pit-trial","195","1622553","0.0-77.0","battery-v0.2","","""event"",""trial"",""time""
""fullscreenenter"",""1"",""3269""
","
","
","""event"",""trial"",""time""
""fullscreenenter"",""1"",""3269""
","
","","","717.1000001430511","","","18","9934","3523","r","elianto","#3366ff99"," "," ","1","+10","[1568.2999999523163]","1","2","","","9934","73","1","1","win","go","0"
"pit-trial","196","1627418","0.0-78.0","battery-v0.2","","""event"",""trial"",""time""
""fullscreenenter"",""1"",""3269""
","
","
","""event"",""trial"",""time""
""fullscreenenter"",""1"",""3269""
","
","","","-1","","","18","9934","3523","h","elianto","#f73b6a7A"," ","-1","0","-10","[]","0","2","","","9934","74","3","3","lose","go","0"
"pit-trial","197","1631177","0.0-79.0","battery-v0.2","","""event"",""trial"",""time""
""fullscreenenter"",""1"",""3269""
","
","
","""event"",""trial"",""time""
""fullscreenenter"",""1"",""3269""
","
","","","894.8000001907349","","","18","9934","3523","z","elianto","#3366ff99","-1"," ","0","0","[1747.7000000476837]","1","2","","","9934","75","4","2","win","no-go","0"
"pit-trial","198","1635145","0.0-80.0","battery-v0.2","","""event"",""trial"",""time""
""fullscreenenter"",""1"",""3269""
","
","
","""event"",""trial"",""time""
""fullscreenenter"",""1"",""3269""
","
","","","1106.9000000953674","","","18","9934","3523","c","elianto","#3366ff99"," "," ","1","+10","[1958.6000001430511]","1","2","","","9934","76","5","1","win","go","0"
"pit-trial","199","1640009","0.0-81.0","battery-v0.2","","""event"",""trial"",""time""
""fullscreenenter"",""1"",""3269""
","
","
","""event"",""trial"",""time""
""fullscreenenter"",""1"",""3269""
","
","","","-1","","","18","9934","3523","b","elianto","#f73b6a7A","-1","-1","1","0","[]","0","2","","","9934","77","6","4","lose","no-go","0"
"pit-trial","200","1644585","0.0-82.0","battery-v0.2","","""event"",""trial"",""time""
""fullscreenenter"",""1"",""3269""
","
","
","""event"",""trial"",""time""
""fullscreenenter"",""1"",""3269""
","
","","","1718.6999998092651","","","18","9934","3523","h","elianto","#f73b6a7A"," "," ","1","0","[2570.2000000476837]","1","2","","","9934","78","3","3","lose","go","0"
"pit-trial","201","1648265","0.0-83.0","battery-v0.2","","""event"",""trial"",""time""
""fullscreenenter"",""1"",""3269""
","
","
","""event"",""trial"",""time""
""fullscreenenter"",""1"",""3269""
","
","","","819.5","","","18","9934","3523","z","elianto","#3366ff99","-1"," ","0","0","[1671.9000000953674]","1","2","","","9934","79","4","2","win","no-go","0"
"pit-trial","202","1651969","0.0-84.0","battery-v0.2","","""event"",""trial"",""time""
""fullscreenenter"",""1"",""3269""
","
","
","""event"",""trial"",""time""
""fullscreenenter"",""1"",""3269""
","
","","","843.4000000953674","","","18","9934","3523","c","elianto","#3366ff99"," "," ","1","+10","[1695.0999999046326]","1","2","","","9934","80","5","1","win","go","0"
"pit-trial","203","1655449","0.0-85.0","battery-v0.2","","""event"",""trial"",""time""
""fullscreenenter"",""1"",""3269""
","
","
","""event"",""trial"",""time""
""fullscreenenter"",""1"",""3269""
","
","","","616.3999998569489","","","18","9934","3523","c","elianto","#3366ff99"," "," ","1","+10","[1469.2000000476837]","1","2","","","9934","81","5","1","win","go","0"
"pit-trial","204","1660225","0.0-86.0","battery-v0.2","","""event"",""trial"",""time""
""fullscreenenter"",""1"",""3269""
","
","
","""event"",""trial"",""time""
""fullscreenenter"",""1"",""3269""
","
","","","1912.6000001430511","","","18","9934","3523","b","elianto","#f73b6a7A","-1"," ","0","-10","[2765]","1","2","","","9934","82","6","4","lose","no-go","0"
"pit-trial","205","1664184","0.0-87.0","battery-v0.2","","""event"",""trial"",""time""
""fullscreenenter"",""1"",""3269""
","
","
","""event"",""trial"",""time""
""fullscreenenter"",""1"",""3269""
","
","","","1103.2000000476837","","","18","9934","3523","z","elianto","#3366ff99","-1"," ","0","0","[1954.3000001907349]","1","2","","","9934","83","4","2","win","no-go","0"
"pit-trial","206","1668529","0.0-88.0","battery-v0.2","","""event"",""trial"",""time""
""fullscreenenter"",""1"",""3269""
","
","
","""event"",""trial"",""time""
""fullscreenenter"",""1"",""3269""
","
","","","1482.2999999523163","","","18","9934","3523","t","elianto","#f73b6a7A"," "," ","1","0","[2335]","1","2","","","9934","84","7","3","lose","go","0"
"pit-trial","207","1673392","0.0-89.0","battery-v0.2","","""event"",""trial"",""time""
""fullscreenenter"",""1"",""3269""
","
","
","""event"",""trial"",""time""
""fullscreenenter"",""1"",""3269""
","
","","","-1","","","18","9934","3523","t","elianto","#f73b6a7A"," ","-1","0","-10","[3172.899999856949]","1","2","","","9934","85","7","3","lose","go","0"
"pit-trial","208","1678256","0.0-90.0","battery-v0.2","","""event"",""trial"",""time""
""fullscreenenter"",""1"",""3269""
","
","
","""event"",""trial"",""time""
""fullscreenenter"",""1"",""3269""
","
","","","-1","","","18","9934","3523","z","elianto","#3366ff99","-1","-1","1","+10","[]","0","2","","","9934","86","4","2","win","no-go","0"
"pit-trial","209","1683120","0.0-91.0","battery-v0.2","","""event"",""trial"",""time""
""fullscreenenter"",""1"",""3269""
","
","
","""event"",""trial"",""time""
""fullscreenenter"",""1"",""3269""
","
","","","-1","","","18","9934","3523","b","elianto","#f73b6a7A","-1","-1","1","0","[]","0","2","","","9934","87","6","4","lose","no-go","0"
"pit-trial","210","1687984","0.0-92.0","battery-v0.2","","""event"",""trial"",""time""
""fullscreenenter"",""1"",""3269""
","
","
","""event"",""trial"",""time""
""fullscreenenter"",""1"",""3269""
","
","","","-1","","","18","9934","3523","c","elianto","#3366ff99"," ","-1","0","0","[]","0","2","","","9934","88","5","1","win","go","0"
"pit-trial","211","1692848","0.0-93.0","battery-v0.2","","""event"",""trial"",""time""
""fullscreenenter"",""1"",""3269""
","
","
","""event"",""trial"",""time""
""fullscreenenter"",""1"",""3269""
","
","","","-1","","","18","9934","3523","c","elianto","#3366ff99"," ","-1","0","0","[]","0","2","","","9934","89","5","1","win","go","0"
"pit-trial","212","1697712","0.0-94.0","battery-v0.2","","""event"",""trial"",""time""
""fullscreenenter"",""1"",""3269""
","
","
","""event"",""trial"",""time""
""fullscreenenter"",""1"",""3269""
","
","","","-1","","","18","9934","3523","z","elianto","#3366ff99","-1","-1","1","+10","[]","0","2","","","9934","90","4","2","win","no-go","0"
"pit-trial","213","1702176","0.0-95.0","battery-v0.2","","""event"",""trial"",""time""
""fullscreenenter"",""1"",""3269""
","
","
","""event"",""trial"",""time""
""fullscreenenter"",""1"",""3269""
","
","","","1606.3000001907349","","","18","9934","3523","b","elianto","#f73b6a7A","-1"," ","0","-10","[2458.300000190735]","1","2","","","9934","91","6","4","lose","no-go","0"
"pit-trial","214","1707040","0.0-96.0","battery-v0.2","","""event"",""trial"",""time""
""fullscreenenter"",""1"",""3269""
","
","
","""event"",""trial"",""time""
""fullscreenenter"",""1"",""3269""
","
","","","-1","","","18","9934","3523","t","elianto","#f73b6a7A"," ","-1","0","0","[]","0","2","","","9934","92","7","3","lose","go","1"
"pit-trial","215","1710679","0.0-97.0","battery-v0.2","","""event"",""trial"",""time""
""fullscreenenter"",""1"",""3269""
","
","
","""event"",""trial"",""time""
""fullscreenenter"",""1"",""3269""
","
","","","782.1000001430511","","","18","9934","3523","f","elianto","#3366ff99","-1"," ","0","0","[1634]","1","2","","","9934","93","8","2","win","no-go","0"
"pit-trial","216","1714248","0.0-98.0","battery-v0.2","","""event"",""trial"",""time""
""fullscreenenter"",""1"",""3269""
","
","
","""event"",""trial"",""time""
""fullscreenenter"",""1"",""3269""
","
","","","711.1000001430511","","","18","9934","3523","c","elianto","#3366ff99"," "," ","1","+10","[1561.3999998569489]","1","2","","","9934","94","5","1","win","go","0"
"pit-trial","217","1719112","0.0-99.0","battery-v0.2","","""event"",""trial"",""time""
""fullscreenenter"",""1"",""3269""
","
","
","""event"",""trial"",""time""
""fullscreenenter"",""1"",""3269""
","
","","","-1","","","18","9934","3523","b","elianto","#f73b6a7A","-1","-1","1","0","[]","0","2","","","9934","95","6","4","lose","no-go","0"
"pit-trial","218","1723975","0.0-100.0","battery-v0.2","","""event"",""trial"",""time""
""fullscreenenter"",""1"",""3269""
","
","
","""event"",""trial"",""time""
""fullscreenenter"",""1"",""3269""
","
","","","-1","","","18","9934","3523","t","elianto","#f73b6a7A"," ","-1","0","-10","[]","0","2","","","9934","96","7","3","lose","go","0"
"pit-trial","219","1728840","0.0-101.0","battery-v0.2","","""event"",""trial"",""time""
""fullscreenenter"",""1"",""3269""
","
","
","""event"",""trial"",""time""
""fullscreenenter"",""1"",""3269""
","
","","","-1","","","18","9934","3523","b","elianto","#f73b6a7A","-1","-1","1","0","[]","0","2","","","9934","97","6","4","lose","no-go","0"
"pit-trial","220","1732775","0.0-102.0","battery-v0.2","","""event"",""trial"",""time""
""fullscreenenter"",""1"",""3269""
","
","
","""event"",""trial"",""time""
""fullscreenenter"",""1"",""3269""
","
","","","1077.3999998569489","","","18","9934","3523","f","elianto","#3366ff99","-1"," ","0","+10","[1929]","1","2","","","9934","98","8","2","win","no-go","1"
"pit-trial","221","1737639","0.0-103.0","battery-v0.2","","""event"",""trial"",""time""
""fullscreenenter"",""1"",""3269""
","
","
","""event"",""trial"",""time""
""fullscreenenter"",""1"",""3269""
","
","","","-1","","","18","9934","3523","t","elianto","#f73b6a7A"," ","-1","0","-10","[]","0","2","","","9934","99","7","3","lose","go","0"
"pit-trial","222","1741255","0.0-104.0","battery-v0.2","","""event"",""trial"",""time""
""fullscreenenter"",""1"",""3269""
","
","
","""event"",""trial"",""time""
""fullscreenenter"",""1"",""3269""
","
","","","752.3000001907349","","","18","9934","3523","c","elianto","#3366ff99"," "," ","1","+10","[1605.4000000953674]","1","2","","","9934","100","5","1","win","go","0"
"pit-trial","223","1745783","0.0-105.0","battery-v0.2","","""event"",""trial"",""time""
""fullscreenenter"",""1"",""3269""
","
","
","""event"",""trial"",""time""
""fullscreenenter"",""1"",""3269""
","
","","","1663.2000000476837","","","18","9934","3523","b","elianto","#f73b6a7A","-1"," ","0","-10","[2515.100000143051]","1","2","","","9934","101","6","4","lose","no-go","0"
"pit-trial","224","1749159","0.0-106.0","battery-v0.2","","""event"",""trial"",""time""
""fullscreenenter"",""1"",""3269""
","
","
","""event"",""trial"",""time""
""fullscreenenter"",""1"",""3269""
","
","","","510.89999985694885","","","18","9934","3523","c","elianto","#3366ff99"," "," ","1","+10","[1363.8999998569489]","1","2","","","9934","102","5","1","win","go","0"
"pit-trial","225","1752703","0.0-107.0","battery-v0.2","","""event"",""trial"",""time""
""fullscreenenter"",""1"",""3269""
","
","
","""event"",""trial"",""time""
""fullscreenenter"",""1"",""3269""
","
","","","678.7000000476837","","","18","9934","3523","f","elianto","#3366ff99","-1"," ","0","0","[1531.2000000476837]","1","2","","","9934","103","8","2","win","no-go","0"
"pit-trial","226","1757527","0.0-108.0","battery-v0.2","","""event"",""trial"",""time""
""fullscreenenter"",""1"",""3269""
","
","
","""event"",""trial"",""time""
""fullscreenenter"",""1"",""3269""
","
","","","1964.5999999046326","","","18","9934","3523","n","elianto","#3366ff99","-1"," ","0","0","[2816.600000143051]","1","2","","","9934","104","9","2","win","no-go","0"
"pit-trial","227","1760942","0.0-109.0","battery-v0.2","","""event"",""trial"",""time""
""fullscreenenter"",""1"",""3269""
","
","
","""event"",""trial"",""time""
""fullscreenenter"",""1"",""3269""
","
","","","554.2000000476837","","","18","9934","3523","f","elianto","#3366ff99","-1"," ","0","0","[1404.4000000953674]","1","2","","","9934","105","8","2","win","no-go","0"
"pit-trial","228","1764358","0.0-110.0","battery-v0.2","","""event"",""trial"",""time""
""fullscreenenter"",""1"",""3269""
","
","
","""event"",""trial"",""time""
""fullscreenenter"",""1"",""3269""
","
","","","556.6000001430511","","","18","9934","3523","c","elianto","#3366ff99"," "," ","1","+10","[1407.2000000476837]","1","2","","","9934","106","5","1","win","go","0"
"pit-trial","229","1768317","0.0-111.0","battery-v0.2","","""event"",""trial"",""time""
""fullscreenenter"",""1"",""3269""
","
","
","""event"",""trial"",""time""
""fullscreenenter"",""1"",""3269""
","
","","","1098.7999999523163","","","18","9934","3523","b","elianto","#f73b6a7A","-1"," ","0","0","[1951.2000000476837]","1","2","","","9934","107","6","4","lose","no-go","1"
"pit-trial","230","1771806","0.0-112.0","battery-v0.2","","""event"",""trial"",""time""
""fullscreenenter"",""1"",""3269""
","
","
","""event"",""trial"",""time""
""fullscreenenter"",""1"",""3269""
","
","","","624.1000001430511","","","18","9934","3523","n","elianto","#3366ff99","-1"," ","0","0","[1478.4000000953674]","1","2","","","9934","108","9","2","win","no-go","0"
"pit-trial","231","1775375","0.0-113.0","battery-v0.2","","""event"",""trial"",""time""
""fullscreenenter"",""1"",""3269""
","
","
","""event"",""trial"",""time""
""fullscreenenter"",""1"",""3269""
","
","","","707.9000000953674","","","18","9934","3523","b","elianto","#f73b6a7A","-1"," ","0","-10","[1560.4000000953674]","1","2","","","9934","109","6","4","lose","no-go","0"
"pit-trial","232","1780238","0.0-114.0","battery-v0.2","","""event"",""trial"",""time""
""fullscreenenter"",""1"",""3269""
","
","
","""event"",""trial"",""time""
""fullscreenenter"",""1"",""3269""
","
","","","-1","","","18","9934","3523","f","elianto","#3366ff99","-1","-1","1","+10","[3904.0999999046326]","1","2","","","9934","110","8","2","win","no-go","0"
"pit-trial","233","1784110","0.0-115.0","battery-v0.2","","""event"",""trial"",""time""
""fullscreenenter"",""1"",""3269""
","
","
","""event"",""trial"",""time""
""fullscreenenter"",""1"",""3269""
","
","","","1011.2000000476837","","","18","9934","3523","n","elianto","#3366ff99","-1"," ","0","0","[1863.1000001430511]","1","2","","","9934","111","9","2","win","no-go","0"
"pit-trial","234","1788022","0.0-116.0","battery-v0.2","","""event"",""trial"",""time""
""fullscreenenter"",""1"",""3269""
","
","
","""event"",""trial"",""time""
""fullscreenenter"",""1"",""3269""
","
","","","1051","","","18","9934","3523","c","elianto","#3366ff99"," "," ","1","+10","[1903.6999998092651]","1","2","","","9934","112","5","1","win","go","0"
"pit-trial","235","1792886","0.0-117.0","battery-v0.2","","""event"",""trial"",""time""
""fullscreenenter"",""1"",""3269""
","
","
","""event"",""trial"",""time""
""fullscreenenter"",""1"",""3269""
","
","","","-1","","","18","9934","3523","t","elianto","#f73b6a7A"," ","-1","0","-10","[]","0","2","","","9934","113","7","3","lose","go","0"
"pit-trial","236","1796494","0.0-118.0","battery-v0.2","","""event"",""trial"",""time""
""fullscreenenter"",""1"",""3269""
","
","
","""event"",""trial"",""time""
""fullscreenenter"",""1"",""3269""
","
","","","745.9000000953674","","","18","9934","3523","f","elianto","#3366ff99","-1"," ","0","0","[1598.5]","1","2","","","9934","114","8","2","win","no-go","0"
"pit-trial","237","1801358","0.0-119.0","battery-v0.2","","""event"",""trial"",""time""
""fullscreenenter"",""1"",""3269""
","
","
","""event"",""trial"",""time""
""fullscreenenter"",""1"",""3269""
","
","","","-1","","","18","9934","3523","c","elianto","#3366ff99"," ","-1","0","+10","[3000.199999809265]","1","2","","","9934","115","5","1","win","go","1"
"pit-trial","238","1804950","0.0-120.0","battery-v0.2","","""event"",""trial"",""time""
""fullscreenenter"",""1"",""3269""
","
","
","""event"",""trial"",""time""
""fullscreenenter"",""1"",""3269""
","
","","","735.6000001430511","","","18","9934","3523","n","elianto","#3366ff99","-1"," ","0","0","[1585.9000000953674]","1","2","","","9934","116","9","2","win","no-go","0"
"pit-trial","239","1809813","0.0-121.0","battery-v0.2","","""event"",""trial"",""time""
""fullscreenenter"",""1"",""3269""
","
","
","""event"",""trial"",""time""
""fullscreenenter"",""1"",""3269""
","
","","","-1","","","18","9934","3523","b","elianto","#f73b6a7A","-1","-1","1","0","[]","0","2","","","9934","117","6","4","lose","no-go","0"
"pit-trial","240","1813269","0.0-122.0","battery-v0.2","","""event"",""trial"",""time""
""fullscreenenter"",""1"",""3269""
","
","
","""event"",""trial"",""time""
""fullscreenenter"",""1"",""3269""
","
","","","596.7000000476837","","","18","9934","3523","c","elianto","#3366ff99"," "," ","1","0","[1449.2000000476837]","1","2","","","9934","118","5","1","win","go","1"
"pit-trial","241","1817685","0.0-123.0","battery-v0.2","","""event"",""trial"",""time""
""fullscreenenter"",""1"",""3269""
","
","
","""event"",""trial"",""time""
""fullscreenenter"",""1"",""3269""
","
","","","1553.7000000476837","","","18","9934","3523","f","elianto","#3366ff99","-1"," ","0","0","[2406.5999999046326]","1","2","","","9934","119","8","2","win","no-go","0"
"pit-trial","242","1821125","0.0-124.0","battery-v0.2","","""event"",""trial"",""time""
""fullscreenenter"",""1"",""3269""
","
","
","""event"",""trial"",""time""
""fullscreenenter"",""1"",""3269""
","
","","","579.9000000953674","","","18","9934","3523","n","elianto","#3366ff99","-1"," ","0","0","[1432.4000000953674]","1","2","","","9934","120","9","2","win","no-go","0"
"pit-trial","243","1824709","0.0-125.0","battery-v0.2","","""event"",""trial"",""time""
""fullscreenenter"",""1"",""3269""
","
","
","""event"",""trial"",""time""
""fullscreenenter"",""1"",""3269""
","
","","","721","","","18","9934","3523","n","elianto","#3366ff99","-1"," ","0","0","[1571.9000000953674]","1","2","","","9934","121","9","2","win","no-go","0"
"pit-trial","244","1829573","0.0-126.0","battery-v0.2","","""event"",""trial"",""time""
""fullscreenenter"",""1"",""3269""
","
","
","""event"",""trial"",""time""
""fullscreenenter"",""1"",""3269""
","
","","","-1","","","18","9934","3523","f","elianto","#3366ff99","-1","-1","1","+10","[3522.100000143051]","1","2","","","9934","122","8","2","win","no-go","0"
"pit-trial","245","1834437","0.0-127.0","battery-v0.2","","""event"",""trial"",""time""
""fullscreenenter"",""1"",""3269""
","
","
","""event"",""trial"",""time""
""fullscreenenter"",""1"",""3269""
","
","","","-1","","","18","9934","3523","t","elianto","#f73b6a7A"," ","-1","0","-10","[]","0","2","","","9934","123","7","3","lose","go","0"
"pit-trial","246","1838117","0.0-128.0","battery-v0.2","","""event"",""trial"",""time""
""fullscreenenter"",""1"",""3269""
","
","
","""event"",""trial"",""time""
""fullscreenenter"",""1"",""3269""
","
","","","820.5","","","18","9934","3523","c","elianto","#3366ff99"," "," ","1","+10","[1674.0999999046326]","1","2","","","9934","124","5","1","win","go","0"
"pit-trial","247","1841493","0.0-129.0","battery-v0.2","","""event"",""trial"",""time""
""fullscreenenter"",""1"",""3269""
","
","
","""event"",""trial"",""time""
""fullscreenenter"",""1"",""3269""
","
","","","514.2999999523163","","","18","9934","3523","f","elianto","#3366ff99","-1"," ","0","0","[1367.4000000953674]","1","2","","","9934","125","8","2","win","no-go","0"
"pit-trial","248","1846357","0.0-130.0","battery-v0.2","","""event"",""trial"",""time""
""fullscreenenter"",""1"",""3269""
","
","
","""event"",""trial"",""time""
""fullscreenenter"",""1"",""3269""
","
","","","-1","","","18","9934","3523","t","elianto","#f73b6a7A"," ","-1","0","0","[]","0","2","","","9934","126","7","3","lose","go","1"
"pit-trial","249","1851220","0.0-131.0","battery-v0.2","","""event"",""trial"",""time""
""fullscreenenter"",""1"",""3269""
","
","
","""event"",""trial"",""time""
""fullscreenenter"",""1"",""3269""
","
","","","-1","","","18","9934","3523","b","elianto","#f73b6a7A","-1","-1","1","0","[]","0","2","","","9934","127","6","4","lose","no-go","0"
"pit-trial","250","1854764","0.0-132.0","battery-v0.2","","""event"",""trial"",""time""
""fullscreenenter"",""1"",""3269""
","
","
","""event"",""trial"",""time""
""fullscreenenter"",""1"",""3269""
","
","","","683","","","18","9934","3523","n","elianto","#3366ff99","-1"," ","0","0","[1536.7000000476837]","1","2","","","9934","128","9","2","win","no-go","0"
"pit-trial","251","1858244","0.0-133.0","battery-v0.2","","""event"",""trial"",""time""
""fullscreenenter"",""1"",""3269""
","
","
","""event"",""trial"",""time""
""fullscreenenter"",""1"",""3269""
","
","","","618.2000000476837","","","18","9934","3523","f","elianto","#3366ff99","-1"," ","0","0","[1470.3000001907349]","1","2","","","9934","129","8","2","win","no-go","0"
"pit-trial","252","1863108","0.0-134.0","battery-v0.2","","""event"",""trial"",""time""
""fullscreenenter"",""1"",""3269""
","
","
","""event"",""trial"",""time""
""fullscreenenter"",""1"",""3269""
","
","","","-1","","","18","9934","3523","t","elianto","#f73b6a7A"," ","-1","0","0","[3258.399999856949]","1","2","","","9934","130","7","3","lose","go","1"
"pit-trial","253","1866900","0.0-135.0","battery-v0.2","","""event"",""trial"",""time""
""fullscreenenter"",""1"",""3269""
","
","
","""event"",""trial"",""time""
""fullscreenenter"",""1"",""3269""
","
","","","929.7000000476837","","","18","9934","3523","b","elianto","#f73b6a7A","-1"," ","0","-10","[1780.7000000476837]","1","2","","","9934","131","6","4","lose","no-go","0"
"pit-trial","254","1870589","0.0-136.0","battery-v0.2","","""event"",""trial"",""time""
""fullscreenenter"",""1"",""3269""
","
","
","""event"",""trial"",""time""
""fullscreenenter"",""1"",""3269""
","
","","","825.0999999046326","","","18","9934","3523","n","elianto","#3366ff99","-1"," ","0","+10","[1677.8999998569489]","1","2","","","9934","132","9","2","win","no-go","1"
"pit-trial","255","1874132","0.0-137.0","battery-v0.2","","""event"",""trial"",""time""
""fullscreenenter"",""1"",""3269""
","
","
","""event"",""trial"",""time""
""fullscreenenter"",""1"",""3269""
","
","","","685.5999999046326","","","18","9934","3523","t","elianto","#f73b6a7A"," "," ","1","-10","[1537.7999999523163]","1","2","","","9934","133","7","3","lose","go","1"
"pit-trial","256","1877660","0.0-138.0","battery-v0.2","","""event"",""trial"",""time""
""fullscreenenter"",""1"",""3269""
","
","
","""event"",""trial"",""time""
""fullscreenenter"",""1"",""3269""
","
","","","669.5999999046326","","","18","9934","3523","n","elianto","#3366ff99","-1"," ","0","+10","[1522.2000000476837]","1","2","","","9934","134","9","2","win","no-go","1"
"pit-trial","257","1881476","0.0-139.0","battery-v0.2","","""event"",""trial"",""time""
""fullscreenenter"",""1"",""3269""
","
","
","""event"",""trial"",""time""
""fullscreenenter"",""1"",""3269""
","
","","","953.9000000953674","","","18","9934","3523","f","elianto","#3366ff99","-1"," ","0","0","[1805.3999998569489]","1","2","","","9934","135","8","2","win","no-go","0"
"pit-trial","258","1886340","0.0-140.0","battery-v0.2","","""event"",""trial"",""time""
""fullscreenenter"",""1"",""3269""
","
","
","""event"",""trial"",""time""
""fullscreenenter"",""1"",""3269""
","
","","","-1","","","18","9934","3523","b","elianto","#f73b6a7A","-1","-1","1","-10","[]","0","2","","","9934","136","6","4","lose","no-go","1"
"pit-trial","259","1890084","0.0-141.0","battery-v0.2","","""event"",""trial"",""time""
""fullscreenenter"",""1"",""3269""
","
","
","""event"",""trial"",""time""
""fullscreenenter"",""1"",""3269""
","
","","","886.7000000476837","","","18","9934","3523","b","elianto","#f73b6a7A","-1"," ","0","-10","[1738.2000000476837]","1","2","","","9934","137","6","4","lose","no-go","0"
"pit-trial","260","1894948","0.0-142.0","battery-v0.2","","""event"",""trial"",""time""
""fullscreenenter"",""1"",""3269""
","
","
","""event"",""trial"",""time""
""fullscreenenter"",""1"",""3269""
","
","","","-1","","","18","9934","3523","t","elianto","#f73b6a7A"," ","-1","0","-10","[]","0","2","","","9934","138","7","3","lose","go","0"
"pit-trial","261","1898252","0.0-143.0","battery-v0.2","","""event"",""trial"",""time""
""fullscreenenter"",""1"",""3269""
","
","
","""event"",""trial"",""time""
""fullscreenenter"",""1"",""3269""
","
","","","440.2000000476837","","","18","9934","3523","f","elianto","#3366ff99","-1"," ","0","+10","[1291.1999998092651]","1","2","","","9934","139","8","2","win","no-go","1"
"pit-trial","262","1901691","0.0-144.0","battery-v0.2","","""event"",""trial"",""time""
""fullscreenenter"",""1"",""3269""
","
","
","""event"",""trial"",""time""
""fullscreenenter"",""1"",""3269""
","
","","","581.9000000953674","","","18","9934","3523","n","elianto","#3366ff99","-1"," ","0","0","[1434]","1","2","","","9934","140","9","2","win","no-go","0"
"pit-instructions","263","2032964","0.0-145.0","battery-v0.2","","""event"",""trial"",""time""
""fullscreenenter"",""1"",""3269""
","
","
","""event"",""trial"",""time""
""fullscreenenter"",""1"",""3269""
","
","","[{""page_index"":0,""viewing_time"":122609.59999990463},{""page_index"":1,""viewing_time"":8648.900000095367}]","131259.19999980927","","","","","","","","","","","","","","","","","","","","","","","",""
"pit-trial","264","2036454","0.0-146.0","battery-v0.2","","""event"",""trial"",""time""
""fullscreenenter"",""1"",""3269""
","
","
","""event"",""trial"",""time""
""fullscreenenter"",""1"",""3269""
","
","","","625","","","18","9934","3523","w","elianto","#f73b6a7A","-1"," ","0","-10","[1479]","1","3","","","9934","141","3","4","lose","no-go","0"
"pit-trial","265","2039949","0.0-147.0","battery-v0.2","","""event"",""trial"",""time""
""fullscreenenter"",""1"",""3269""
","
","
","""event"",""trial"",""time""
""fullscreenenter"",""1"",""3269""
","
