"trial_type","trial_index","time_elapsed","internal_node_id","task_version","subject_id","interactions","blur_events","focus_events","fullscreenenter_events","fullscreenexit_events","success","view_history","rt","responses","num_errors","age","subject","participantId","rune","rune_set","hex","correct","choice","accuracy","outcome","keys","total_keys","block","practice","value","sub","trial","stimulus","robot","valence","action","sham"
"pavlovia","0","6","0.0-0.0","battery-v0.2","","""event"",""trial"",""time""
""fullscreenenter"",""1"",""3861""
","
","
","""event"",""trial"",""time""
""fullscreenenter"",""1"",""3861""
","
","","","","","","","","","","","","","","","","","","","","","","","","","","",""
"fullscreen","1","4863","0.0-1.0","battery-v0.2","","""event"",""trial"",""time""
""fullscreenenter"",""1"",""3861""
","
","
","""event"",""trial"",""time""
""fullscreenenter"",""1"",""3861""
","
","true","","","","","","","","","","","","","","","","","","","","","","","","","",""
"pit-instructions","2","10994","0.0-2.0-0.0","battery-v0.2","","""event"",""trial"",""time""
""fullscreenenter"",""1"",""3861""
","
","
","""event"",""trial"",""time""
""fullscreenenter"",""1"",""3861""
","
","","[{""page_index"":0,""viewing_time"":6127.100000008941}]","6127.9000000059605","","","","","","","","","","","","","","","","","","","","","","","",""
"pit-comprehension","3","15292","0.0-2.0-1.0-0.0","battery-v0.2","","""event"",""trial"",""time""
""fullscreenenter"",""1"",""3861""
","
","
","""event"",""trial"",""time""
""fullscreenenter"",""1"",""3861""
","
","","","4294.399999991059","[""shark""]","0","18","3945","2986","","","","","","","","","","","","","","","","","","",""
"pit-instructions","4","18469","0.0-2.0-1.0-1.0","battery-v0.2","","""event"",""trial"",""time""
""fullscreenenter"",""1"",""3861""
","
","
","""event"",""trial"",""time""
""fullscreenenter"",""1"",""3861""
","
","","[{""page_index"":0,""viewing_time"":3161}]","3161.6000000089407","","","","","","","","","","","","","","","","","","","","","","","",""
"pit-comprehension","5","21423","0.0-2.0-2.0-0.0","battery-v0.2","","""event"",""trial"",""time""
""fullscreenenter"",""1"",""3861""
","
","
","""event"",""trial"",""time""
""fullscreenenter"",""1"",""3861""
","
","","","2949.8999999910593","[""tiger""]","0","18","3945","2986","","","","","","","","","","","","","","","","","","",""
"pit-instructions","6","22385","0.0-2.0-2.0-1.0","battery-v0.2","","""event"",""trial"",""time""
""fullscreenenter"",""1"",""3861""
","
","
","""event"",""trial"",""time""
""fullscreenenter"",""1"",""3861""
","
","","[{""page_index"":0,""viewing_time"":957.7999999970198}]","958.2999999970198","","","","","","","","","","","","","","","","","","","","","","","",""
"pit-instructions","7","121404","0.0-2.0-3.0","battery-v0.2","","""event"",""trial"",""time""
""fullscreenenter"",""1"",""3861""
","
","
","""event"",""trial"",""time""
""fullscreenenter"",""1"",""3861""
","
","","[{""page_index"":0,""viewing_time"":10729.40000000596},{""page_index"":1,""viewing_time"":5158.399999991059},{""page_index"":2,""viewing_time"":6211.9000000059605},{""page_index"":3,""viewing_time"":5590.20000000298},{""page_index"":4,""viewing_time"":5769},{""page_index"":5,""viewing_time"":8689.09999999404},{""page_index"":6,""viewing_time"":7301},{""page_index"":7,""viewing_time"":6840.600000008941},{""page_index"":8,""viewing_time"":6439.5999999940395},{""page_index"":9,""viewing_time"":8730.40000000596},{""page_index"":10,""viewing_time"":7600},{""page_index"":11,""viewing_time"":7240.5},{""page_index"":12,""viewing_time"":6604.29999999702},{""page_index"":13,""viewing_time"":6114.399999991059}]","99019.20000000298","","","","","","","","","","","","","","","","","","","","","","","",""
"pit-trial","8","124808","0.0-2.0-4.0-0.0","battery-v0.2","","""event"",""trial"",""time""
""fullscreenenter"",""1"",""3861""
","
","
","""event"",""trial"",""time""
""fullscreenenter"",""1"",""3861""
","
","","","542.6000000089407","","","18","3945","2986","&#9784;","elianto","#FFFFF080"," "," ","1","&#10004","[1393]","1","0","0","","","","","","","",""
"pit-trial","9","128097","0.0-2.0-4.1-0.1","battery-v0.2","","""event"",""trial"",""time""
""fullscreenenter"",""1"",""3861""
","
","
","""event"",""trial"",""time""
""fullscreenenter"",""1"",""3861""
","
","","","423.90000000596046","","","18","3945","2986","&#9784;","elianto","#FFFFF080"," "," ","1","&#10004","[1276.5999999940395]","1","0","0","","","","","","","",""
"pit-trial","10","131352","0.0-2.0-4.2-0.2","battery-v0.2","","""event"",""trial"",""time""
""fullscreenenter"",""1"",""3861""
","
","
","""event"",""trial"",""time""
""fullscreenenter"",""1"",""3861""
","
","","","390.20000000298023","","","18","3945","2986","&#9784;","elianto","#FFFFF080"," "," ","1","&#10004","[1243]","1","0","0","","","","","","","",""
"pit-trial","11","134567","0.0-2.0-4.3-0.3","battery-v0.2","","""event"",""trial"",""time""
""fullscreenenter"",""1"",""3861""
","
","
","""event"",""trial"",""time""
""fullscreenenter"",""1"",""3861""
","
","","","355.3999999910593","","","18","3945","2986","&#9784;","elianto","#FFFFF080"," "," ","1","&#10004","[1205.5]","1","0","0","","","","","","","",""
"pit-trial","12","137912","0.0-2.0-4.4-0.4","battery-v0.2","","""event"",""trial"",""time""
""fullscreenenter"",""1"",""3861""
","
","
","""event"",""trial"",""time""
""fullscreenenter"",""1"",""3861""
","
","","","485.70000000298023","","","18","3945","2986","&#9784;","elianto","#FFFFF080"," "," ","1","&#10004","[1335.5]","1","0","0","","","","","","","",""
"pit-instructions","13","158389","0.0-2.0-5.0","battery-v0.2","","""event"",""trial"",""time""
""fullscreenenter"",""1"",""3861""
","
","
","""event"",""trial"",""time""
""fullscreenenter"",""1"",""3861""
","
","","[{""page_index"":0,""viewing_time"":4853.5999999940395},{""page_index"":1,""viewing_time"":5228.100000008941},{""page_index"":2,""viewing_time"":4688.79999999702},{""page_index"":3,""viewing_time"":5703.4000000059605}]","20474.29999999702","","","","","","","","","","","","","","","","","","","","","","","",""
"pit-trial","14","163255","0.0-2.0-6.0-0.0","battery-v0.2","","""event"",""trial"",""time""
""fullscreenenter"",""1"",""3861""
","
","
","""event"",""trial"",""time""
""fullscreenenter"",""1"",""3861""
","
","","","-1","","","18","3945","2986","&#9854;","elianto","#FFFFF080","-1","-1","1","&#10004","[]","0","0","1","","","","","","","",""
"pit-trial","15","168119","0.0-2.0-6.1-0.1","battery-v0.2","","""event"",""trial"",""time""
""fullscreenenter"",""1"",""3861""
","
","
","""event"",""trial"",""time""
""fullscreenenter"",""1"",""3861""
","
","","","-1","","","18","3945","2986","&#9854;","elianto","#FFFFF080","-1","-1","1","&#10004","[]","0","0","1","","","","","","","",""
"pit-trial","16","172983","0.0-2.0-6.2-0.2","battery-v0.2","","""event"",""trial"",""time""
""fullscreenenter"",""1"",""3861""
","
","
","""event"",""trial"",""time""
""fullscreenenter"",""1"",""3861""
","
","","","-1","","","18","3945","2986","&#9854;","elianto","#FFFFF080","-1","-1","1","&#10004","[]","0","0","1","","","","","","","",""
"pit-trial","17","177846","0.0-2.0-6.3-0.3","battery-v0.2","","""event"",""trial"",""time""
""fullscreenenter"",""1"",""3861""
","
","
","""event"",""trial"",""time""
""fullscreenenter"",""1"",""3861""
","
","","","-1","","","18","3945","2986","&#9854;","elianto","#FFFFF080","-1","-1","1","&#10004","[]","0","0","1","","","","","","","",""
"pit-trial","18","182711","0.0-2.0-6.4-0.4","battery-v0.2","","""event"",""trial"",""time""
""fullscreenenter"",""1"",""3861""
","
","
","""event"",""trial"",""time""
""fullscreenenter"",""1"",""3861""
","
","","","-1","","","18","3945","2986","&#9854;","elianto","#FFFFF080","-1","-1","1","&#10004","[]","0","0","1","","","","","","","",""
"pit-instructions","19","300545","0.0-2.0-7.0","battery-v0.2","","""event"",""trial"",""time""
""fullscreenenter"",""1"",""3861""
","
","
","""event"",""trial"",""time""
""fullscreenenter"",""1"",""3861""
","
","","[{""page_index"":0,""viewing_time"":5308.79999999702},{""page_index"":1,""viewing_time"":6648},{""page_index"":2,""viewing_time"":5805.20000000298},{""page_index"":3,""viewing_time"":6372.600000008941},{""page_index"":4,""viewing_time"":5310.699999988079},{""page_index"":5,""viewing_time"":5038.600000008941},{""page_index"":6,""viewing_time"":4950.29999999702},{""page_index"":7,""viewing_time"":7540.5999999940395},{""page_index"":8,""viewing_time"":6131.20000000298},{""page_index"":9,""viewing_time"":5813.20000000298},{""page_index"":10,""viewing_time"":7023.20000000298},{""page_index"":11,""viewing_time"":6086},{""page_index"":12,""viewing_time"":9009.39999999106},{""page_index"":13,""viewing_time"":7422.5},{""page_index"":14,""viewing_time"":7391.800000011921},{""page_index"":15,""viewing_time"":6228.699999988079},{""page_index"":16,""viewing_time"":8537.60000000894},{""page_index"":17,""viewing_time"":7216.5}]","117835.70000000298","","","","","","","","","","","","","","","","","","","","","","","",""
"pit-trial","20","304132","0.0-2.0-8.0-0.0","battery-v0.2","","""event"",""trial"",""time""
""fullscreenenter"",""1"",""3861""
","
","
","""event"",""trial"",""time""
""fullscreenenter"",""1"",""3861""
","
","","","720.5","","","18","3945","2986","&#9776;","elianto","#3366ff99"," "," ","1","+10","[1573.2999999970198]","1","0","1","","","","","","","",""
"pit-trial","21","307466","0.0-2.0-8.0-1.0","battery-v0.2","","""event"",""trial"",""time""
""fullscreenenter"",""1"",""3861""
","
","
","""event"",""trial"",""time""
""fullscreenenter"",""1"",""3861""
","
","","","471.90000000596046","","","18","3945","2986","&#9776;","elianto","#3366ff99"," "," ","1","+10","[1323.2999999970198]","1","0","1","","","","","","","",""
"pit-trial","22","310720","0.0-2.0-8.0-2.0","battery-v0.2","","""event"",""trial"",""time""
""fullscreenenter"",""1"",""3861""
","
","
","""event"",""trial"",""time""
""fullscreenenter"",""1"",""3861""
","
","","","396.59999999403954","","","18","3945","2986","&#9776;","elianto","#3366ff99"," "," ","1","+10","[1250]","1","0","1","","","","","","","",""
"pit-trial","23","314042","0.0-2.0-8.0-3.0","battery-v0.2","","""event"",""trial"",""time""
""fullscreenenter"",""1"",""3861""
","
","
","""event"",""trial"",""time""
""fullscreenenter"",""1"",""3861""
","
","","","456.20000000298023","","","18","3945","2986","&#9776;","elianto","#3366ff99"," "," ","1","0","[1311.0999999940395]","1","0","1","","","","","","","",""
"pit-trial","24","317297","0.0-2.0-8.0-4.0","battery-v0.2","","""event"",""trial"",""time""
""fullscreenenter"",""1"",""3861""
","
","
","""event"",""trial"",""time""
""fullscreenenter"",""1"",""3861""
","
","","","396.40000000596046","","","18","3945","2986","&#9776;","elianto","#3366ff99"," "," ","1","+10","[1246.5]","1","0","1","","","","","","","",""
"pit-trial","25","320960","0.0-2.0-8.1-0.1","battery-v0.2","","""event"",""trial"",""time""
""fullscreenenter"",""1"",""3861""
","
","
","""event"",""trial"",""time""
""fullscreenenter"",""1"",""3861""
","
","","","799.7000000029802","","","18","3945","2986","&#9776;","elianto","#3366ff99"," "," ","1","+10","[1652.8999999910593]","1","0","1","","","","","","","",""
"pit-trial","26","324625","0.0-2.0-8.1-1.1","battery-v0.2","","""event"",""trial"",""time""
""fullscreenenter"",""1"",""3861""
","
","
","""event"",""trial"",""time""
""fullscreenenter"",""1"",""3861""
","
","","","803.1000000089407","","","18","3945","2986","&#9776;","elianto","#3366ff99"," "," ","1","+10","[1656.2999999970198]","1","0","1","","","","","","","",""
"pit-trial","27","327937","0.0-2.0-8.1-2.1","battery-v0.2","","""event"",""trial"",""time""
""fullscreenenter"",""1"",""3861""
","
","
","""event"",""trial"",""time""
""fullscreenenter"",""1"",""3861""
","
","","","456.20000000298023","","","18","3945","2986","&#9776;","elianto","#3366ff99"," "," ","1","+10","[1306.7000000029802]","1","0","1","","","","","","","",""
"pit-trial","28","331259","0.0-2.0-8.1-3.1","battery-v0.2","","""event"",""trial"",""time""
""fullscreenenter"",""1"",""3861""
","
","
","""event"",""trial"",""time""
""fullscreenenter"",""1"",""3861""
","
","","","455.20000000298023","","","18","3945","2986","&#9776;","elianto","#3366ff99"," "," ","1","0","[1307.9000000059605]","1","0","1","","","","","","","",""
"pit-trial","29","334440","0.0-2.0-8.1-4.1","battery-v0.2","","""event"",""trial"",""time""
""fullscreenenter"",""1"",""3861""
","
","
","""event"",""trial"",""time""
""fullscreenenter"",""1"",""3861""
","
","","","326.19999998807907","","","18","3945","2986","&#9776;","elianto","#3366ff99"," "," ","1","+10","[1176.5999999940395]","1","0","1","","","","","","","",""
"pit-trial","30","337743","0.0-2.0-8.2-0.2","battery-v0.2","","""event"",""trial"",""time""
""fullscreenenter"",""1"",""3861""
","
","
","""event"",""trial"",""time""
""fullscreenenter"",""1"",""3861""
","
","","","441.6000000089407","","","18","3945","2986","&#9776;","elianto","#3366ff99"," "," ","1","+10","[1291.6000000089407]","1","0","1","","","","","","","",""
"pit-trial","31","340992","0.0-2.0-8.2-1.2","battery-v0.2","","""event"",""trial"",""time""
""fullscreenenter"",""1"",""3861""
","
","
","""event"",""trial"",""time""
""fullscreenenter"",""1"",""3861""
","
","","","388.8999999910593","","","18","3945","2986","&#9776;","elianto","#3366ff99"," "," ","1","+10","[1239.0999999940395]","1","0","1","","","","","","","",""
"pit-trial","32","344200","0.0-2.0-8.2-2.2","battery-v0.2","","""event"",""trial"",""time""
""fullscreenenter"",""1"",""3861""
","
","
","""event"",""trial"",""time""
""fullscreenenter"",""1"",""3861""
","
","","","348.79999999701977","","","18","3945","2986","&#9776;","elianto","#3366ff99"," "," ","1","+10","[1198.800000011921]","1","0","1","","","","","","","",""
"pit-trial","33","347471","0.0-2.0-8.2-3.2","battery-v0.2","","""event"",""trial"",""time""
""fullscreenenter"",""1"",""3861""
","
","
","""event"",""trial"",""time""
""fullscreenenter"",""1"",""3861""
","
","","","413","","","18","3945","2986","&#9776;","elianto","#3366ff99"," "," ","1","0","[1265.7000000029802]","1","0","1","","","","","","","",""
"pit-trial","34","350495","0.0-2.0-8.2-4.2","battery-v0.2","","""event"",""trial"",""time""
""fullscreenenter"",""1"",""3861""
","
","
","""event"",""trial"",""time""
""fullscreenenter"",""1"",""3861""
","
","","","162.1000000089407","","","18","3945","2986","&#9776;","elianto","#3366ff99"," "," ","1","+10","[1015.2000000029802]","1","0","1","","","","","","","",""
"call-function","35","350497","0.0-2.0-9.0","battery-v0.2","","""event"",""trial"",""time""
""fullscreenenter"",""1"",""3861""
""blur"",""36"",""697970""
""focus"",""36"",""903359""
","""event"",""trial"",""time""
""blur"",""36"",""697970""
","""event"",""trial"",""time""
""focus"",""36"",""903359""
","""event"",""trial"",""time""
""fullscreenenter"",""1"",""3861""
","
","","","","","","","","","","","","","","","","","","","","","","","","","","",""
"pit-instructions","36","904934","0.0-2.0-10.0","battery-v0.2","","""event"",""trial"",""time""
""fullscreenenter"",""1"",""3861""
""blur"",""36"",""697970""
""focus"",""36"",""903359""
","""event"",""trial"",""time""
""blur"",""36"",""697970""
","""event"",""trial"",""time""
""focus"",""36"",""903359""
","""event"",""trial"",""time""
""fullscreenenter"",""1"",""3861""
","
","","[{""page_index"":0,""viewing_time"":6809.600000008941},{""page_index"":1,""viewing_time"":11003},{""page_index"":2,""viewing_time"":13246.70000000298},{""page_index"":3,""viewing_time"":13385.199999988079},{""page_index"":4,""viewing_time"":510012.10000000894}]","554457","","","","","","","","","","","","","","","","","","","","","","","",""
"pit-trial","37","909561","0.0-2.0-11.0-0.0","battery-v0.2","","""event"",""trial"",""time""
""fullscreenenter"",""1"",""3861""
""blur"",""36"",""697970""
""focus"",""36"",""903359""
","""event"",""trial"",""time""
""blur"",""36"",""697970""
","""event"",""trial"",""time""
""focus"",""36"",""903359""
","""event"",""trial"",""time""
""fullscreenenter"",""1"",""3861""
","
","","","1765.9000000059605","","","18","3945","2986","&#9761;","elianto","#3366ff99","-1"," ","0","0","[2623.9000000059605]","1","0","2","","","","","","","",""
"pit-trial","38","914425","0.0-2.0-11.0-1.0","battery-v0.2","","""event"",""trial"",""time""
""fullscreenenter"",""1"",""3861""
""blur"",""36"",""697970""
""focus"",""36"",""903359""
","""event"",""trial"",""time""
""blur"",""36"",""697970""
","""event"",""trial"",""time""
""focus"",""36"",""903359""
","""event"",""trial"",""time""
""fullscreenenter"",""1"",""3861""
","
","","","-1","","","18","3945","2986","&#9761;","elianto","#3366ff99","-1","-1","1","+10","[]","0","0","2","","","","","","","",""
"pit-trial","39","918098","0.0-2.0-11.0-2.0","battery-v0.2","","""event"",""trial"",""time""
""fullscreenenter"",""1"",""3861""
""blur"",""36"",""697970""
""focus"",""36"",""903359""
","""event"",""trial"",""time""
""blur"",""36"",""697970""
","""event"",""trial"",""time""
""focus"",""36"",""903359""
","""event"",""trial"",""time""
""fullscreenenter"",""1"",""3861""
","
","","","813.8000000119209","","","18","3945","2986","&#9761;","elianto","#3366ff99","-1"," ","0","0","[1664.1000000089407]","1","0","2","","","","","","","",""
"pit-trial","40","922962","0.0-2.0-11.0-3.0","battery-v0.2","","""event"",""trial"",""time""
""fullscreenenter"",""1"",""3861""
""blur"",""36"",""697970""
""focus"",""36"",""903359""
","""event"",""trial"",""time""
""blur"",""36"",""697970""
","""event"",""trial"",""time""
""focus"",""36"",""903359""
","""event"",""trial"",""time""
""fullscreenenter"",""1"",""3861""
","
","","","-1","","","18","3945","2986","&#9761;","elianto","#3366ff99","-1","-1","1","0","[]","0","0","2","","","","","","","",""
"pit-trial","41","927825","0.0-2.0-11.0-4.0","battery-v0.2","","""event"",""trial"",""time""
""fullscreenenter"",""1"",""3861""
""blur"",""36"",""697970""
""focus"",""36"",""903359""
","""event"",""trial"",""time""
""blur"",""36"",""697970""
","""event"",""trial"",""time""
""focus"",""36"",""903359""
","""event"",""trial"",""time""
""fullscreenenter"",""1"",""3861""
","
","","","-1","","","18","3945","2986","&#9761;","elianto","#3366ff99","-1","-1","1","+10","[]","0","0","2","","","","","","","",""
"pit-trial","42","932689","0.0-2.0-11.1-0.1","battery-v0.2","","""event"",""trial"",""time""
""fullscreenenter"",""1"",""3861""
""blur"",""36"",""697970""
""focus"",""36"",""903359""
","""event"",""trial"",""time""
""blur"",""36"",""697970""
","""event"",""trial"",""time""
""focus"",""36"",""903359""
","""event"",""trial"",""time""
""fullscreenenter"",""1"",""3861""
","
","","","-1","","","18","3945","2986","&#9761;","elianto","#3366ff99","-1","-1","1","+10","[]","0","0","2","","","","","","","",""
"pit-trial","43","937553","0.0-2.0-11.1-1.1","battery-v0.2","","""event"",""trial"",""time""
""fullscreenenter"",""1"",""3861""
""blur"",""36"",""697970""
""focus"",""36"",""903359""
","""event"",""trial"",""time""
""blur"",""36"",""697970""
","""event"",""trial"",""time""
""focus"",""36"",""903359""
","""event"",""trial"",""time""
""fullscreenenter"",""1"",""3861""
","
","","","-1","","","18","3945","2986","&#9761;","elianto","#3366ff99","-1","-1","1","+10","[]","0","0","2","","","","","","","",""
"pit-trial","44","942418","0.0-2.0-11.1-2.1","battery-v0.2","","""event"",""trial"",""time""
""fullscreenenter"",""1"",""3861""
""blur"",""36"",""697970""
""focus"",""36"",""903359""
","""event"",""trial"",""time""
""blur"",""36"",""697970""
","""event"",""trial"",""time""
""focus"",""36"",""903359""
","""event"",""trial"",""time""
""fullscreenenter"",""1"",""3861""
","
","","","-1","","","18","3945","2986","&#9761;","elianto","#3366ff99","-1","-1","1","+10","[]","0","0","2","","","","","","","",""
"pit-trial","45","947284","0.0-2.0-11.1-3.1","battery-v0.2","","""event"",""trial"",""time""
""fullscreenenter"",""1"",""3861""
""blur"",""36"",""697970""
""focus"",""36"",""903359""
","""event"",""trial"",""time""
""blur"",""36"",""697970""
","""event"",""trial"",""time""
""focus"",""36"",""903359""
","""event"",""trial"",""time""
""fullscreenenter"",""1"",""3861""
","
","","","-1","","","18","3945","2986","&#9761;","elianto","#3366ff99","-1","-1","1","0","[]","0","0","2","","","","","","","",""
"pit-trial","46","952152","0.0-2.0-11.1-4.1","battery-v0.2","","""event"",""trial"",""time""
""fullscreenenter"",""1"",""3861""
""blur"",""36"",""697970""
""focus"",""36"",""903359""
","""event"",""trial"",""time""
""blur"",""36"",""697970""
","""event"",""trial"",""time""
""focus"",""36"",""903359""
","""event"",""trial"",""time""
""fullscreenenter"",""1"",""3861""
","
","","","-1","","","18","3945","2986","&#9761;","elianto","#3366ff99","-1","-1","1","+10","[]","0","0","2","","","","","","","",""
"pit-trial","47","957016","0.0-2.0-11.2-0.2","battery-v0.2","","""event"",""trial"",""time""
""fullscreenenter"",""1"",""3861""
""blur"",""36"",""697970""
""focus"",""36"",""903359""
","""event"",""trial"",""time""
""blur"",""36"",""697970""
","""event"",""trial"",""time""
""focus"",""36"",""903359""
","""event"",""trial"",""time""
""fullscreenenter"",""1"",""3861""
","
","","","-1","","","18","3945","2986","&#9761;","elianto","#3366ff99","-1","-1","1","+10","[]","0","0","2","","","","","","","",""
"pit-trial","48","961880","0.0-2.0-11.2-1.2","battery-v0.2","","""event"",""trial"",""time""
""fullscreenenter"",""1"",""3861""
""blur"",""36"",""697970""
""focus"",""36"",""903359""
","""event"",""trial"",""time""
""blur"",""36"",""697970""
","""event"",""trial"",""time""
""focus"",""36"",""903359""
","""event"",""trial"",""time""
""fullscreenenter"",""1"",""3861""
","
","","","-1","","","18","3945","2986","&#9761;","elianto","#3366ff99","-1","-1","1","+10","[]","0","0","2","","","","","","","",""
"pit-trial","49","966744","0.0-2.0-11.2-2.2","battery-v0.2","","""event"",""trial"",""time""
""fullscreenenter"",""1"",""3861""
""blur"",""36"",""697970""
""focus"",""36"",""903359""
","""event"",""trial"",""time""
""blur"",""36"",""697970""
","""event"",""trial"",""time""
""focus"",""36"",""903359""
","""event"",""trial"",""time""
""fullscreenenter"",""1"",""3861""
","
","","","-1","","","18","3945","2986","&#9761;","elianto","#3366ff99","-1","-1","1","+10","[]","0","0","2","","","","","","","",""
"pit-trial","50","971608","0.0-2.0-11.2-3.2","battery-v0.2","","""event"",""trial"",""time""
""fullscreenenter"",""1"",""3861""
""blur"",""36"",""697970""
""focus"",""36"",""903359""
","""event"",""trial"",""time""
""blur"",""36"",""697970""
","""event"",""trial"",""time""
""focus"",""36"",""903359""
","""event"",""trial"",""time""
""fullscreenenter"",""1"",""3861""
","
","","","-1","","","18","3945","2986","&#9761;","elianto","#3366ff99","-1","-1","1","0","[]","0","0","2","","","","","","","",""
"pit-trial","51","976471","0.0-2.0-11.2-4.2","battery-v0.2","","""event"",""trial"",""time""
""fullscreenenter"",""1"",""3861""
""blur"",""36"",""697970""
""focus"",""36"",""903359""
","""event"",""trial"",""time""
""blur"",""36"",""697970""
","""event"",""trial"",""time""
""focus"",""36"",""903359""
","""event"",""trial"",""time""
""fullscreenenter"",""1"",""3861""
","
","","","-1","","","18","3945","2986","&#9761;","elianto","#3366ff99","-1","-1","1","+10","[]","0","0","2","","","","","","","",""
"pit-trial","52","981334","0.0-2.0-11.3-0.3","battery-v0.2","","""event"",""trial"",""time""
""fullscreenenter"",""1"",""3861""
""blur"",""36"",""697970""
""focus"",""36"",""903359""
","""event"",""trial"",""time""
""blur"",""36"",""697970""
","""event"",""trial"",""time""
""focus"",""36"",""903359""
","""event"",""trial"",""time""
""fullscreenenter"",""1"",""3861""
","
","","","-1","","","18","3945","2986","&#9761;","elianto","#3366ff99","-1","-1","1","+10","[]","0","0","2","","","","","","","",""
"pit-trial","53","986199","0.0-2.0-11.3-1.3","battery-v0.2","","""event"",""trial"",""time""
""fullscreenenter"",""1"",""3861""
""blur"",""36"",""697970""
""focus"",""36"",""903359""
","""event"",""trial"",""time""
""blur"",""36"",""697970""
","""event"",""trial"",""time""
""focus"",""36"",""903359""
","""event"",""trial"",""time""
""fullscreenenter"",""1"",""3861""
","
","","","-1","","","18","3945","2986","&#9761;","elianto","#3366ff99","-1","-1","1","+10","[]","0","0","2","","","","","","","",""
"pit-trial","54","991063","0.0-2.0-11.3-2.3","battery-v0.2","","""event"",""trial"",""time""
""fullscreenenter"",""1"",""3861""
""blur"",""36"",""697970""
""focus"",""36"",""903359""
","""event"",""trial"",""time""
""blur"",""36"",""697970""
","""event"",""trial"",""time""
""focus"",""36"",""903359""
","""event"",""trial"",""time""
""fullscreenenter"",""1"",""3861""
","
","","","-1","","","18","3945","2986","&#9761;","elianto","#3366ff99","-1","-1","1","+10","[]","0","0","2","","","","","","","",""
"pit-trial","55","995927","0.0-2.0-11.3-3.3","battery-v0.2","","""event"",""trial"",""time""
""fullscreenenter"",""1"",""3861""
""blur"",""36"",""697970""
""focus"",""36"",""903359""
","""event"",""trial"",""time""
""blur"",""36"",""697970""
","""event"",""trial"",""time""
""focus"",""36"",""903359""
","""event"",""trial"",""time""
""fullscreenenter"",""1"",""3861""
","
","","","-1","","","18","3945","2986","&#9761;","elianto","#3366ff99","-1","-1","1","0","[]","0","0","2","","","","","","","",""
"pit-trial","56","1000790","0.0-2.0-11.3-4.3","battery-v0.2","","""event"",""trial"",""time""
""fullscreenenter"",""1"",""3861""
""blur"",""36"",""697970""
""focus"",""36"",""903359""
","""event"",""trial"",""time""
""blur"",""36"",""697970""
","""event"",""trial"",""time""
""focus"",""36"",""903359""
","""event"",""trial"",""time""
""fullscreenenter"",""1"",""3861""
","
","","","-1","","","18","3945","2986","&#9761;","elianto","#3366ff99","-1","-1","1","+10","[]","0","0","2","","","","","","","",""
"call-function","57","1000792","0.0-2.0-12.0","battery-v0.2","","""event"",""trial"",""time""
""fullscreenenter"",""1"",""3861""
""blur"",""36"",""697970""
""focus"",""36"",""903359""
","""event"",""trial"",""time""
""blur"",""36"",""697970""
","""event"",""trial"",""time""
""focus"",""36"",""903359""
","""event"",""trial"",""time""
""fullscreenenter"",""1"",""3861""
","
","","","","","","","","","","","","","","","","","","","","","","","","","","",""
"pit-instructions","58","1057385","0.0-2.0-13.0","battery-v0.2","","""event"",""trial"",""time""
""fullscreenenter"",""1"",""3861""
""blur"",""36"",""697970""
""focus"",""36"",""903359""
","""event"",""trial"",""time""
""blur"",""36"",""697970""
","""event"",""trial"",""time""
""focus"",""36"",""903359""
","""event"",""trial"",""time""
""fullscreenenter"",""1"",""3861""
","
","","[{""page_index"":0,""viewing_time"":10726.39999999106},{""page_index"":1,""viewing_time"":11735.800000011921},{""page_index"":2,""viewing_time"":11342.79999999702},{""page_index"":3,""viewing_time"":14038.09999999404},{""page_index"":4,""viewing_time"":8751.40000000596}]","56595.09999999404","","","","","","","","","","","","","","","","","","","","","","","",""
"pit-trial","59","1062253","0.0-2.0-14.0-0.0","battery-v0.2","","""event"",""trial"",""time""
""fullscreenenter"",""1"",""3861""
""blur"",""36"",""697970""
""focus"",""36"",""903359""
","""event"",""trial"",""time""
""blur"",""36"",""697970""
","""event"",""trial"",""time""
""focus"",""36"",""903359""
","""event"",""trial"",""time""
""fullscreenenter"",""1"",""3861""
","
","","","-1","","","18","3945","2986","&#9826;","elianto","#f73b6a7A","-1","-1","1","0","[]","0","0","3","","","","","","","",""
"pit-trial","60","1067119","0.0-2.0-14.0-1.0","battery-v0.2","","""event"",""trial"",""time""
""fullscreenenter"",""1"",""3861""
""blur"",""36"",""697970""
""focus"",""36"",""903359""
","""event"",""trial"",""time""
""blur"",""36"",""697970""
","""event"",""trial"",""time""
""focus"",""36"",""903359""
","""event"",""trial"",""time""
""fullscreenenter"",""1"",""3861""
","
","","","-1","","","18","3945","2986","&#9826;","elianto","#f73b6a7A","-1","-1","1","0","[]","0","0","3","","","","","","","",""
"pit-trial","61","1070365","0.0-2.0-14.0-2.0","battery-v0.2","","""event"",""trial"",""time""
""fullscreenenter"",""1"",""3861""
""blur"",""36"",""697970""
""focus"",""36"",""903359""
","""event"",""trial"",""time""
""blur"",""36"",""697970""
","""event"",""trial"",""time""
""focus"",""36"",""903359""
","""event"",""trial"",""time""
""fullscreenenter"",""1"",""3861""
","
","","","379.6000000089407","","","18","3945","2986","&#9826;","elianto","#f73b6a7A","-1"," ","0","-10","[1238.7000000029802]","1","0","3","","","","","","","",""
"pit-trial","62","1075231","0.0-2.0-14.0-3.0","battery-v0.2","","""event"",""trial"",""time""
""fullscreenenter"",""1"",""3861""
""blur"",""36"",""697970""
""focus"",""36"",""903359""
","""event"",""trial"",""time""
""blur"",""36"",""697970""
","""event"",""trial"",""time""
""focus"",""36"",""903359""
","""event"",""trial"",""time""
""fullscreenenter"",""1"",""3861""
","
","","","-1","","","18","3945","2986","&#9826;","elianto","#f73b6a7A","-1","-1","1","-10","[]","0","0","3","","","","","","","",""
"pit-trial","63","1080102","0.0-2.0-14.0-4.0","battery-v0.2","","""event"",""trial"",""time""
""fullscreenenter"",""1"",""3861""
""blur"",""36"",""697970""
""focus"",""36"",""903359""
","""event"",""trial"",""time""
""blur"",""36"",""697970""
","""event"",""trial"",""time""
""focus"",""36"",""903359""
","""event"",""trial"",""time""
""fullscreenenter"",""1"",""3861""
","
","","","-1","","","18","3945","2986","&#9826;","elianto","#f73b6a7A","-1","-1","1","0","[]","0","0","3","","","","","","","",""
"pit-trial","64","1084972","0.0-2.0-14.1-0.1","battery-v0.2","","""event"",""trial"",""time""
""fullscreenenter"",""1"",""3861""
""blur"",""36"",""697970""
""focus"",""36"",""903359""
","""event"",""trial"",""time""
""blur"",""36"",""697970""
","""event"",""trial"",""time""
""focus"",""36"",""903359""
","""event"",""trial"",""time""
""fullscreenenter"",""1"",""3861""
","
","","","-1","","","18","3945","2986","&#9826;","elianto","#f73b6a7A","-1","-1","1","0","[]","0","0","3","","","","","","","",""
"pit-trial","65","1089835","0.0-2.0-14.1-1.1","battery-v0.2","","""event"",""trial"",""time""
""fullscreenenter"",""1"",""3861""
""blur"",""36"",""697970""
""focus"",""36"",""903359""
","""event"",""trial"",""time""
""blur"",""36"",""697970""
","""event"",""trial"",""time""
""focus"",""36"",""903359""
","""event"",""trial"",""time""
""fullscreenenter"",""1"",""3861""
","
","","","-1","","","18","3945","2986","&#9826;","elianto","#f73b6a7A","-1","-1","1","0","[]","0","0","3","","","","","","","",""
"pit-trial","66","1094702","0.0-2.0-14.1-2.1","battery-v0.2","","""event"",""trial"",""time""
""fullscreenenter"",""1"",""3861""
""blur"",""36"",""697970""
""focus"",""36"",""903359""
","""event"",""trial"",""time""
""blur"",""36"",""697970""
","""event"",""trial"",""time""
""focus"",""36"",""903359""
","""event"",""trial"",""time""
""fullscreenenter"",""1"",""3861""
","
","","","-1","","","18","3945","2986","&#9826;","elianto","#f73b6a7A","-1","-1","1","0","[]","0","0","3","","","","","","","",""
"pit-trial","67","1099563","0.0-2.0-14.1-3.1","battery-v0.2","","""event"",""trial"",""time""
""fullscreenenter"",""1"",""3861""
""blur"",""36"",""697970""
""focus"",""36"",""903359""
","""event"",""trial"",""time""
""blur"",""36"",""697970""
","""event"",""trial"",""time""
""focus"",""36"",""903359""
","""event"",""trial"",""time""
""fullscreenenter"",""1"",""3861""
","
","","","-1","","","18","3945","2986","&#9826;","elianto","#f73b6a7A","-1","-1","1","-10","[]","0","0","3","","","","","","","",""
"pit-trial","68","1104430","0.0-2.0-14.1-4.1","battery-v0.2","","""event"",""trial"",""time""
""fullscreenenter"",""1"",""3861""
""blur"",""36"",""697970""
""focus"",""36"",""903359""
","""event"",""trial"",""time""
""blur"",""36"",""697970""
","""event"",""trial"",""time""
""focus"",""36"",""903359""
","""event"",""trial"",""time""
""fullscreenenter"",""1"",""3861""
","
","","","-1","","","18","3945","2986","&#9826;","elianto","#f73b6a7A","-1","-1","1","0","[]","0","0","3","","","","","","","",""
"pit-trial","69","1109301","0.0-2.0-14.2-0.2","battery-v0.2","","""event"",""trial"",""time""
""fullscreenenter"",""1"",""3861""
""blur"",""36"",""697970""
""focus"",""36"",""903359""
","""event"",""trial"",""time""
""blur"",""36"",""697970""
","""event"",""trial"",""time""
""focus"",""36"",""903359""
","""event"",""trial"",""time""
""fullscreenenter"",""1"",""3861""
","
","","","-1","","","18","3945","2986","&#9826;","elianto","#f73b6a7A","-1","-1","1","0","[]","0","0","3","","","","","","","",""
"pit-trial","70","1114170","0.0-2.0-14.2-1.2","battery-v0.2","","""event"",""trial"",""time""
""fullscreenenter"",""1"",""3861""
""blur"",""36"",""697970""
""focus"",""36"",""903359""
","""event"",""trial"",""time""
""blur"",""36"",""697970""
","""event"",""trial"",""time""
""focus"",""36"",""903359""
","""event"",""trial"",""time""
""fullscreenenter"",""1"",""3861""
","
","","","-1","","","18","3945","2986","&#9826;","elianto","#f73b6a7A","-1","-1","1","0","[]","0","0","3","","","","","","","",""
"pit-trial","71","1119034","0.0-2.0-14.2-2.2","battery-v0.2","","""event"",""trial"",""time""
""fullscreenenter"",""1"",""3861""
""blur"",""36"",""697970""
""focus"",""36"",""903359""
","""event"",""trial"",""time""
""blur"",""36"",""697970""
","""event"",""trial"",""time""
""focus"",""36"",""903359""
","""event"",""trial"",""time""
""fullscreenenter"",""1"",""3861""
","
","","","-1","","","18","3945","2986","&#9826;","elianto","#f73b6a7A","-1","-1","1","0","[]","0","0","3","","","","","","","",""
"pit-trial","72","1123900","0.0-2.0-14.2-3.2","battery-v0.2","","""event"",""trial"",""time""
""fullscreenenter"",""1"",""3861""
""blur"",""36"",""697970""
""focus"",""36"",""903359""
","""event"",""trial"",""time""
""blur"",""36"",""697970""
","""event"",""trial"",""time""
""focus"",""36"",""903359""
","""event"",""trial"",""time""
""fullscreenenter"",""1"",""3861""
","
","","","-1","","","18","3945","2986","&#9826;","elianto","#f73b6a7A","-1","-1","1","-10","[]","0","0","3","","","","","","","",""
"pit-trial","73","1128762","0.0-2.0-14.2-4.2","battery-v0.2","","""event"",""trial"",""time""
""fullscreenenter"",""1"",""3861""
""blur"",""36"",""697970""
""focus"",""36"",""903359""
","""event"",""trial"",""time""
""blur"",""36"",""697970""
","""event"",""trial"",""time""
""focus"",""36"",""903359""
","""event"",""trial"",""time""
""fullscreenenter"",""1"",""3861""
","
","","","-1","","","18","3945","2986","&#9826;","elianto","#f73b6a7A","-1","-1","1","0","[]","0","0","3","","","","","","","",""
"pit-trial","74","1133629","0.0-2.0-14.3-0.3","battery-v0.2","","""event"",""trial"",""time""
""fullscreenenter"",""1"",""3861""
""blur"",""36"",""697970""
""focus"",""36"",""903359""
","""event"",""trial"",""time""
""blur"",""36"",""697970""
","""event"",""trial"",""time""
""focus"",""36"",""903359""
","""event"",""trial"",""time""
""fullscreenenter"",""1"",""3861""
","
","","","-1","","","18","3945","2986","&#9826;","elianto","#f73b6a7A","-1","-1","1","0","[]","0","0","3","","","","","","","",""
"pit-trial","75","1138500","0.0-2.0-14.3-1.3","battery-v0.2","","""event"",""trial"",""time""
""fullscreenenter"",""1"",""3861""
""blur"",""36"",""697970""
""focus"",""36"",""903359""
","""event"",""trial"",""time""
""blur"",""36"",""697970""
","""event"",""trial"",""time""
""focus"",""36"",""903359""
","""event"",""trial"",""time""
""fullscreenenter"",""1"",""3861""
","
","","","-1","","","18","3945","2986","&#9826;","elianto","#f73b6a7A","-1","-1","1","0","[]","0","0","3","","","","","","","",""
"pit-trial","76","1143369","0.0-2.0-14.3-2.3","battery-v0.2","","""event"",""trial"",""time""
""fullscreenenter"",""1"",""3861""
""blur"",""36"",""697970""
""focus"",""36"",""903359""
","""event"",""trial"",""time""
""blur"",""36"",""697970""
","""event"",""trial"",""time""
""focus"",""36"",""903359""
","""event"",""trial"",""time""
""fullscreenenter"",""1"",""3861""
","
","","","-1","","","18","3945","2986","&#9826;","elianto","#f73b6a7A","-1","-1","1","0","[]","0","0","3","","","","","","","",""
"pit-trial","77","1148233","0.0-2.0-14.3-3.3","battery-v0.2","","""event"",""trial"",""time""
""fullscreenenter"",""1"",""3861""
""blur"",""36"",""697970""
""focus"",""36"",""903359""
","""event"",""trial"",""time""
""blur"",""36"",""697970""
","""event"",""trial"",""time""
""focus"",""36"",""903359""
","""event"",""trial"",""time""
""fullscreenenter"",""1"",""3861""
","
","","","-1","","","18","3945","2986","&#9826;","elianto","#f73b6a7A","-1","-1","1","-10","[]","0","0","3","","","","","","","",""
"pit-trial","78","1153099","0.0-2.0-14.3-4.3","battery-v0.2","","""event"",""trial"",""time""
""fullscreenenter"",""1"",""3861""
""blur"",""36"",""697970""
""focus"",""36"",""903359""
","""event"",""trial"",""time""
""blur"",""36"",""697970""
","""event"",""trial"",""time""
""focus"",""36"",""903359""
","""event"",""trial"",""time""
""fullscreenenter"",""1"",""3861""
","
","","","-1","","","18","3945","2986","&#9826;","elianto","#f73b6a7A","-1","-1","1","0","[]","0","0","3","","","","","","","",""
"call-function","79","1153101","0.0-2.0-15.0","battery-v0.2","","""event"",""trial"",""time""
""fullscreenenter"",""1"",""3861""
""blur"",""36"",""697970""
""focus"",""36"",""903359""
","""event"",""trial"",""time""
""blur"",""36"",""697970""
","""event"",""trial"",""time""
""focus"",""36"",""903359""
","""event"",""trial"",""time""
""fullscreenenter"",""1"",""3861""
","
","","","","","","","","","","","","","","","","","","","","","","","","","","",""
"pit-instructions","80","1204199","0.0-2.0-16.0","battery-v0.2","","""event"",""trial"",""time""
""fullscreenenter"",""1"",""3861""
""blur"",""36"",""697970""
""focus"",""36"",""903359""
","""event"",""trial"",""time""
""blur"",""36"",""697970""
","""event"",""trial"",""time""
""focus"",""36"",""903359""
","""event"",""trial"",""time""
""fullscreenenter"",""1"",""3861""
","
","","[{""page_index"":0,""viewing_time"":10955.70000000298},{""page_index"":1,""viewing_time"":12722.5},{""page_index"":2,""viewing_time"":7486.79999999702},{""page_index"":3,""viewing_time"":19933.20000000298}]","51098.90000000596","","","","","","","","","","","","","","","","","","","","","","","",""
"pit-trial","81","1209063","0.0-2.0-17.0-0.0","battery-v0.2","","""event"",""trial"",""time""
""fullscreenenter"",""1"",""3861""
""blur"",""36"",""697970""
""focus"",""36"",""903359""
","""event"",""trial"",""time""
""blur"",""36"",""697970""
","""event"",""trial"",""time""
""focus"",""36"",""903359""
","""event"",""trial"",""time""
""fullscreenenter"",""1"",""3861""
","
","","","-1","","","18","3945","2986","&#9789;","elianto","#f73b6a7A"," ","-1","0","-10","[]","0","0","4","","","","","","","",""
"pit-trial","82","1212559","0.0-2.0-17.0-1.0","battery-v0.2","","""event"",""trial"",""time""
""fullscreenenter"",""1"",""3861""
""blur"",""36"",""697970""
""focus"",""36"",""903359""
","""event"",""trial"",""time""
""blur"",""36"",""697970""
","""event"",""trial"",""time""
""focus"",""36"",""903359""
","""event"",""trial"",""time""
""fullscreenenter"",""1"",""3861""
","
","","","632.3999999910593","","","18","3945","2986","&#9789;","elianto","#f73b6a7A"," "," ","1","0","[1485]","1","0","4","","","","","","","",""
"pit-trial","83","1215630","0.0-2.0-17.0-2.0","battery-v0.2","","""event"",""trial"",""time""
""fullscreenenter"",""1"",""3861""
""blur"",""36"",""697970""
""focus"",""36"",""903359""
","""event"",""trial"",""time""
""blur"",""36"",""697970""
","""event"",""trial"",""time""
""focus"",""36"",""903359""
","""event"",""trial"",""time""
""fullscreenenter"",""1"",""3861""
","
","","","211.8999999910593","","","18","3945","2986","&#9789;","elianto","#f73b6a7A"," "," ","1","0","[1063.5]","1","0","4","","","","","","","",""
"pit-trial","84","1218871","0.0-2.0-17.0-3.0","battery-v0.2","","""event"",""trial"",""time""
""fullscreenenter"",""1"",""3861""
""blur"",""36"",""697970""
""focus"",""36"",""903359""
","""event"",""trial"",""time""
""blur"",""36"",""697970""
","""event"",""trial"",""time""
""focus"",""36"",""903359""
","""event"",""trial"",""time""
""fullscreenenter"",""1"",""3861""
","
","","","385.5","","","18","3945","2986","&#9789;","elianto","#f73b6a7A"," "," ","1","-10","[1235.9000000059605]","1","0","4","","","","","","","",""
"pit-trial","85","1222134","0.0-2.0-17.0-4.0","battery-v0.2","","""event"",""trial"",""time""
""fullscreenenter"",""1"",""3861""
""blur"",""36"",""697970""
""focus"",""36"",""903359""
","""event"",""trial"",""time""
""blur"",""36"",""697970""
","""event"",""trial"",""time""
""focus"",""36"",""903359""
","""event"",""trial"",""time""
""fullscreenenter"",""1"",""3861""
","
","","","398.5","","","18","3945","2986","&#9789;","elianto","#f73b6a7A"," "," ","1","0","[1253.0999999940395]","1","0","4","","","","","","","",""
"pit-trial","86","1225198","0.0-2.0-17.1-0.1","battery-v0.2","","""event"",""trial"",""time""
""fullscreenenter"",""1"",""3861""
""blur"",""36"",""697970""
""focus"",""36"",""903359""
","""event"",""trial"",""time""
""blur"",""36"",""697970""
","""event"",""trial"",""time""
""focus"",""36"",""903359""
","""event"",""trial"",""time""
""fullscreenenter"",""1"",""3861""
","
","","","206.29999999701977","","","18","3945","2986","&#9789;","elianto","#f73b6a7A"," "," ","1","0","[1060.2999999970198]","1","0","4","","","","","","","",""
"pit-trial","87","1228334","0.0-2.0-17.1-1.1","battery-v0.2","","""event"",""trial"",""time""
""fullscreenenter"",""1"",""3861""
""blur"",""36"",""697970""
""focus"",""36"",""903359""
","""event"",""trial"",""time""
""blur"",""36"",""697970""
","""event"",""trial"",""time""
""focus"",""36"",""903359""
","""event"",""trial"",""time""
""fullscreenenter"",""1"",""3861""
","
","","","277.79999999701977","","","18","3945","2986","&#9789;","elianto","#f73b6a7A"," "," ","1","0","[1131.1000000089407]","1","0","4","","","","","","","",""
"pit-trial","88","1231470","0.0-2.0-17.1-2.1","battery-v0.2","","""event"",""trial"",""time""
""fullscreenenter"",""1"",""3861""
""blur"",""36"",""697970""
""focus"",""36"",""903359""
","""event"",""trial"",""time""
""blur"",""36"",""697970""
","""event"",""trial"",""time""
""focus"",""36"",""903359""
","""event"",""trial"",""time""
""fullscreenenter"",""1"",""3861""
","
","","","272.29999999701977","","","18","3945","2986","&#9789;","elianto","#f73b6a7A"," "," ","1","0","[1126.8999999910593]","1","0","4","","","","","","","",""
"pit-trial","89","1234390","0.0-2.0-17.1-3.1","battery-v0.2","","""event"",""trial"",""time""
""fullscreenenter"",""1"",""3861""
""blur"",""36"",""697970""
""focus"",""36"",""903359""
","""event"",""trial"",""time""
""blur"",""36"",""697970""
","""event"",""trial"",""time""
""focus"",""36"",""903359""
","""event"",""trial"",""time""
""fullscreenenter"",""1"",""3861""
","
","","","55.5","","","18","3945","2986","&#9789;","elianto","#f73b6a7A"," "," ","1","-10","[910.2999999970198]","1","0","4","","","","","","","",""
"pit-trial","90","1237389","0.0-2.0-17.1-4.1","battery-v0.2","","""event"",""trial"",""time""
""fullscreenenter"",""1"",""3861""
""blur"",""36"",""697970""
""focus"",""36"",""903359""
","""event"",""trial"",""time""
""blur"",""36"",""697970""
","""event"",""trial"",""time""
""focus"",""36"",""903359""
","""event"",""trial"",""time""
""fullscreenenter"",""1"",""3861""
","
","","","136.80000001192093","","","18","3945","2986","&#9789;","elianto","#f73b6a7A"," "," ","1","0","[990.5]","1","0","4","","","","","","","",""
"pit-trial","91","1240278","0.0-2.0-17.2-0.2","battery-v0.2","","""event"",""trial"",""time""
""fullscreenenter"",""1"",""3861""
""blur"",""36"",""697970""
""focus"",""36"",""903359""
","""event"",""trial"",""time""
""blur"",""36"",""697970""
","""event"",""trial"",""time""
""focus"",""36"",""903359""
","""event"",""trial"",""time""
""fullscreenenter"",""1"",""3861""
","
","","","23.599999994039536","","","18","3945","2986","&#9789;","elianto","#f73b6a7A"," "," ","1","0","[879.7999999970198]","1","0","4","","","","","","","",""
"pit-trial","92","1243253","0.0-2.0-17.2-1.2","battery-v0.2","","""event"",""trial"",""time""
""fullscreenenter"",""1"",""3861""
""blur"",""36"",""697970""
""focus"",""36"",""903359""
","""event"",""trial"",""time""
""blur"",""36"",""697970""
","""event"",""trial"",""time""
""focus"",""36"",""903359""
","""event"",""trial"",""time""
""fullscreenenter"",""1"",""3861""
","
","","","122.30000001192093","","","18","3945","2986","&#9789;","elianto","#f73b6a7A"," "," ","1","0","[972.3999999910593]","1","0","4","","","","","","","",""
"pit-trial","93","1246229","0.0-2.0-17.2-2.2","battery-v0.2","","""event"",""trial"",""time""
""fullscreenenter"",""1"",""3861""
""blur"",""36"",""697970""
""focus"",""36"",""903359""
","""event"",""trial"",""time""
""blur"",""36"",""697970""
","""event"",""trial"",""time""
""focus"",""36"",""903359""
","""event"",""trial"",""time""
""fullscreenenter"",""1"",""3861""
","
","","","113.5","","","18","3945","2986","&#9789;","elianto","#f73b6a7A"," "," ","1","0","[968.9000000059605]","1","0","4","","","","","","","",""
"pit-trial","94","1249237","0.0-2.0-17.2-3.2","battery-v0.2","","""event"",""trial"",""time""
""fullscreenenter"",""1"",""3861""
""blur"",""36"",""697970""
""focus"",""36"",""903359""
","""event"",""trial"",""time""
""blur"",""36"",""697970""
","""event"",""trial"",""time""
""focus"",""36"",""903359""
","""event"",""trial"",""time""
""fullscreenenter"",""1"",""3861""
","
","","","150.79999999701977","","","18","3945","2986","&#9789;","elianto","#f73b6a7A"," "," ","1","-10","[1004.6000000089407]","1","0","4","","","","","","","",""
"pit-trial","95","1252253","0.0-2.0-17.2-4.2","battery-v0.2","","""event"",""trial"",""time""
""fullscreenenter"",""1"",""3861""
""blur"",""36"",""697970""
""focus"",""36"",""903359""
","""event"",""trial"",""time""
""blur"",""36"",""697970""
","""event"",""trial"",""time""
""focus"",""36"",""903359""
","""event"",""trial"",""time""
""fullscreenenter"",""1"",""3861""
","
","","","156.79999999701977","","","18","3945","2986","&#9789;","elianto","#f73b6a7A"," "," ","1","0","[1010.9000000059605]","1","0","4","","","","","","","",""
"pit-trial","96","1255317","0.0-2.0-17.3-0.3","battery-v0.2","","""event"",""trial"",""time""
""fullscreenenter"",""1"",""3861""
""blur"",""36"",""697970""
""focus"",""36"",""903359""
","""event"",""trial"",""time""
""blur"",""36"",""697970""
","""event"",""trial"",""time""
""focus"",""36"",""903359""
","""event"",""trial"",""time""
""fullscreenenter"",""1"",""3861""
","
","","","198.3999999910593","","","18","3945","2986","&#9789;","elianto","#f73b6a7A"," "," ","1","0","[1052]","1","0","4","","","","","","","",""
"pit-trial","97","1258508","0.0-2.0-17.3-1.3","battery-v0.2","","""event"",""trial"",""time""
""fullscreenenter"",""1"",""3861""
""blur"",""36"",""697970""
""focus"",""36"",""903359""
","""event"",""trial"",""time""
""blur"",""36"",""697970""
","""event"",""trial"",""time""
""focus"",""36"",""903359""
","""event"",""trial"",""time""
""fullscreenenter"",""1"",""3861""
","
","","","326.70000000298023","","","18","3945","2986","&#9789;","elianto","#f73b6a7A"," "," ","1","0","[1180.1000000089407]","1","0","4","","","","","","","",""
"pit-trial","98","1261469","0.0-2.0-17.3-2.3","battery-v0.2","","""event"",""trial"",""time""
""fullscreenenter"",""1"",""3861""
""blur"",""36"",""697970""
""focus"",""36"",""903359""
","""event"",""trial"",""time""
""blur"",""36"",""697970""
","""event"",""trial"",""time""
""focus"",""36"",""903359""
","""event"",""trial"",""time""
""fullscreenenter"",""1"",""3861""
","
","","","105.20000000298023","","","18","3945","2986","&#9789;","elianto","#f73b6a7A"," "," ","1","0","[955.3999999910593]","1","0","4","","","","","","","",""
"pit-trial","99","1264445","0.0-2.0-17.3-3.3","battery-v0.2","","""event"",""trial"",""time""
""fullscreenenter"",""1"",""3861""
""blur"",""36"",""697970""
""focus"",""36"",""903359""
","""event"",""trial"",""time""
""blur"",""36"",""697970""
","""event"",""trial"",""time""
""focus"",""36"",""903359""
","""event"",""trial"",""time""
""fullscreenenter"",""1"",""3861""
","
","","","110.5","","","18","3945","2986","&#9789;","elianto","#f73b6a7A"," "," ","1","-10","[965.2999999970198]","1","0","4","","","","","","","",""
"pit-trial","100","1267436","0.0-2.0-17.3-4.3","battery-v0.2","","""event"",""trial"",""time""
""fullscreenenter"",""1"",""3861""
""blur"",""36"",""697970""
""focus"",""36"",""903359""
","""event"",""trial"",""time""
""blur"",""36"",""697970""
","""event"",""trial"",""time""
""focus"",""36"",""903359""
","""event"",""trial"",""time""
""fullscreenenter"",""1"",""3861""
","
","","","134.19999998807907","","","18","3945","2986","&#9789;","elianto","#f73b6a7A"," "," ","1","0","[987.7999999970198]","1","0","4","","","","","","","",""
"call-function","101","1267437","0.0-2.0-18.0","battery-v0.2","","""event"",""trial"",""time""
""fullscreenenter"",""1"",""3861""
""blur"",""36"",""697970""
""focus"",""36"",""903359""
","""event"",""trial"",""time""
""blur"",""36"",""697970""
","""event"",""trial"",""time""
""focus"",""36"",""903359""
","""event"",""trial"",""time""
""fullscreenenter"",""1"",""3861""
","
","","","","","","","","","","","","","","","","","","","","","","","","","","",""
"pit-instructions","102","1360756","0.0-2.0-19.0","battery-v0.2","","""event"",""trial"",""time""
""fullscreenenter"",""1"",""3861""
""blur"",""36"",""697970""
""focus"",""36"",""903359""
","""event"",""trial"",""time""
""blur"",""36"",""697970""
","""event"",""trial"",""time""
""focus"",""36"",""903359""
","""event"",""trial"",""time""
""fullscreenenter"",""1"",""3861""
","
","","[{""page_index"":0,""viewing_time"":8956.20000000298},{""page_index"":1,""viewing_time"":17218},{""page_index"":2,""viewing_time"":24204.5},{""page_index"":3,""viewing_time"":6948.4000000059605},{""page_index"":4,""viewing_time"":7058.399999991059},{""page_index"":5,""viewing_time"":9038.10000000894},{""page_index"":6,""viewing_time"":10044.89999999106},{""page_index"":7,""viewing_time"":5839.9000000059605},{""page_index"":8,""viewing_time"":4012.2000000029802}]","93321.30000001192","","","","","","","","","","","","","","","","","","","","","","","",""
"pit-comprehension","103","1365111","0.0-2.0-20.0-0.0","battery-v0.2","","""event"",""trial"",""time""
""fullscreenenter"",""1"",""3861""
""blur"",""36"",""697970""
""focus"",""36"",""903359""
","""event"",""trial"",""time""
""blur"",""36"",""697970""
","""event"",""trial"",""time""
""focus"",""36"",""903359""
","""event"",""trial"",""time""
""fullscreenenter"",""1"",""3861""
","
","","","4348.899999991059","[""SPACE""]","0","18","3945","2986","","","","","","","","","","","","","","","","","","",""
"pit-instructions","104","1367570","0.0-2.0-20.0-1.0","battery-v0.2","","""event"",""trial"",""time""
""fullscreenenter"",""1"",""3861""
""blur"",""36"",""697970""
""focus"",""36"",""903359""
","""event"",""trial"",""time""
""blur"",""36"",""697970""
","""event"",""trial"",""time""
""focus"",""36"",""903359""
","""event"",""trial"",""time""
""fullscreenenter"",""1"",""3861""
","
","","[{""page_index"":0,""viewing_time"":2437.9000000059605}]","2438.4000000059605","","","","","","","","","","","","","","","","","","","","","","","",""
"pit-comprehension","105","1373290","0.0-2.0-21.0-0.0","battery-v0.2","","""event"",""trial"",""time""
""fullscreenenter"",""1"",""3861""
""blur"",""36"",""697970""
""focus"",""36"",""903359""
","""event"",""trial"",""time""
""blur"",""36"",""697970""
","""event"",""trial"",""time""
""focus"",""36"",""903359""
","""event"",""trial"",""time""
""fullscreenenter"",""1"",""3861""
","
","","","5715.100000008941","[""10""]","0","18","3945","2986","","","","","","","","","","","","","","","","","","",""
"pit-instructions","106","1377473","0.0-2.0-21.0-1.0","battery-v0.2","","""event"",""trial"",""time""
""fullscreenenter"",""1"",""3861""
""blur"",""36"",""697970""
""focus"",""36"",""903359""
","""event"",""trial"",""time""
""blur"",""36"",""697970""
","""event"",""trial"",""time""
""focus"",""36"",""903359""
","""event"",""trial"",""time""
""fullscreenenter"",""1"",""3861""
","
","","[{""page_index"":0,""viewing_time"":4161.899999991059}]","4162.70000000298","","","","","","","","","","","","","","","","","","","","","","","",""
"pit-comprehension","107","1383898","0.0-2.0-22.0-0.0","battery-v0.2","","""event"",""trial"",""time""
""fullscreenenter"",""1"",""3861""
""blur"",""36"",""697970""
""focus"",""36"",""903359""
","""event"",""trial"",""time""
""blur"",""36"",""697970""
","""event"",""trial"",""time""
""focus"",""36"",""903359""
","""event"",""trial"",""time""
""fullscreenenter"",""1"",""3861""
","
","","","6421.79999999702","[""0""]","0","18","3945","2986","","","","","","","","","","","","","","","","","","",""
"pit-instructions","108","1388490","0.0-2.0-22.0-1.0","battery-v0.2","","""event"",""trial"",""time""
""fullscreenenter"",""1"",""3861""
""blur"",""36"",""697970""
""focus"",""36"",""903359""
","""event"",""trial"",""time""
""blur"",""36"",""697970""
","""event"",""trial"",""time""
""focus"",""36"",""903359""
","""event"",""trial"",""time""
""fullscreenenter"",""1"",""3861""
","
","","[{""page_index"":0,""viewing_time"":4571.399999991059}]","4571.79999999702","","","","","","","","","","","","","","","","","","","","","","","",""
"pit-comprehension","109","1400929","0.0-2.0-23.0-0.0","battery-v0.2","","""event"",""trial"",""time""
""fullscreenenter"",""1"",""3861""
""blur"",""36"",""697970""
""focus"",""36"",""903359""
","""event"",""trial"",""time""
""blur"",""36"",""697970""
","""event"",""trial"",""time""
""focus"",""36"",""903359""
","""event"",""trial"",""time""
""fullscreenenter"",""1"",""3861""
","
","","","12436.79999999702","[""True""]","0","18","3945","2986","","","","","","","","","","","","","","","","","","",""
"pit-instructions","110","1402614","0.0-2.0-23.0-1.0","battery-v0.2","","""event"",""trial"",""time""
""fullscreenenter"",""1"",""3861""
""blur"",""36"",""697970""
""focus"",""36"",""903359""
","""event"",""trial"",""time""
""blur"",""36"",""697970""
","""event"",""trial"",""time""
""focus"",""36"",""903359""
","""event"",""trial"",""time""
""fullscreenenter"",""1"",""3861""
","
","","[{""page_index"":0,""viewing_time"":1666.6000000089407}]","1666.9000000059605","","","","","","","","","","","","","","","","","","","","","","","",""
"pit-comprehension","111","1409931","0.0-2.0-24.0-0.0","battery-v0.2","","""event"",""trial"",""time""
""fullscreenenter"",""1"",""3861""
""blur"",""36"",""697970""
""focus"",""36"",""903359""
","""event"",""trial"",""time""
""blur"",""36"",""697970""
","""event"",""trial"",""time""
""focus"",""36"",""903359""
","""event"",""trial"",""time""
""fullscreenenter"",""1"",""3861""
","
","","","7314.5","[""True""]","0","18","3945","2986","","","","","","","","","","","","","","","","","","",""
"pit-instructions","112","1414882","0.0-2.0-24.0-1.0","battery-v0.2","","""event"",""trial"",""time""
""fullscreenenter"",""1"",""3861""
""blur"",""36"",""697970""
""focus"",""36"",""903359""
","""event"",""trial"",""time""
""blur"",""36"",""697970""
","""event"",""trial"",""time""
""focus"",""36"",""903359""
","""event"",""trial"",""time""
""fullscreenenter"",""1"",""3861""
","
","","[{""page_index"":0,""viewing_time"":4930.100000008941}]","4930.5","","","","","","","","","","","","","","","","","","","","","","","",""
"pit-comprehension","113","1423342","0.0-2.0-25.0-0.0","battery-v0.2","","""event"",""trial"",""time""
""fullscreenenter"",""1"",""3861""
""blur"",""36"",""697970""
""focus"",""36"",""903359""
","""event"",""trial"",""time""
""blur"",""36"",""697970""
","""event"",""trial"",""time""
""focus"",""36"",""903359""
","""event"",""trial"",""time""
""fullscreenenter"",""1"",""3861""
","
","","","8457.29999999702","[""True""]","0","18","3945","2986","","","","","","","","","","","","","","","","","","",""
"pit-instructions","114","1433010","0.0-2.0-25.0-1.0","battery-v0.2","","""event"",""trial"",""time""
""fullscreenenter"",""1"",""3861""
""blur"",""36"",""697970""
""focus"",""36"",""903359""
","""event"",""trial"",""time""
""blur"",""36"",""697970""
","""event"",""trial"",""time""
""focus"",""36"",""903359""
","""event"",""trial"",""time""
""fullscreenenter"",""1"",""3861""
","
","","[{""page_index"":0,""viewing_time"":9646.20000000298}]","9646.59999999404","","","","","","","","","","","","","","","","","","","","","","","",""
"pit-comprehension","115","1437768","0.0-2.0-26.0-0.0","battery-v0.2","","""event"",""trial"",""time""
""fullscreenenter"",""1"",""3861""
""blur"",""36"",""697970""
""focus"",""36"",""903359""
","""event"",""trial"",""time""
""blur"",""36"",""697970""
","""event"",""trial"",""time""
""focus"",""36"",""903359""
","""event"",""trial"",""time""
""fullscreenenter"",""1"",""3861""
","
","","","4753.5","[""False""]","0","18","3945","2986","","","","","","","","","","","","","","","","","","",""
"pit-instructions","116","1446579","0.0-2.0-26.0-1.0","battery-v0.2","","""event"",""trial"",""time""
""fullscreenenter"",""1"",""3861""
""blur"",""36"",""697970""
""focus"",""36"",""903359""
","""event"",""trial"",""time""
""blur"",""36"",""697970""
","""event"",""trial"",""time""
""focus"",""36"",""903359""
","""event"",""trial"",""time""
""fullscreenenter"",""1"",""3861""
","
","","[{""page_index"":0,""viewing_time"":8792.70000000298}]","8793.20000000298","","","","","","","","","","","","","","","","","","","","","","","",""
"pit-instructions","117","1477354","0.0-3.0","battery-v0.2","","""event"",""trial"",""time""
""fullscreenenter"",""1"",""3861""
""blur"",""36"",""697970""
""focus"",""36"",""903359""
","""event"",""trial"",""time""
""blur"",""36"",""697970""
","""event"",""trial"",""time""
""focus"",""36"",""903359""
","""event"",""trial"",""time""
""fullscreenenter"",""1"",""3861""
","
","","[{""page_index"":0,""viewing_time"":14516.79999999702},{""page_index"":1,""viewing_time"":8727.5},{""page_index"":2,""viewing_time"":7529}]","30773.79999999702","","","","","","","","","","","","","","","","","","","","","","","",""
"pit-trial","118","1481056","0.0-4.0","battery-v0.2","","""event"",""trial"",""time""
""fullscreenenter"",""1"",""3861""
""blur"",""36"",""697970""
""focus"",""36"",""903359""
","""event"",""trial"",""time""
""blur"",""36"",""697970""
","""event"",""trial"",""time""
""focus"",""36"",""903359""
","""event"",""trial"",""time""
""fullscreenenter"",""1"",""3861""
","
","","","830.9000000059605","","","18","3945","2986","&#9730;","elianto","#3366ff99"," "," ","1","+10","[1683.7000000029802]","1","1","","","3945","1","1","1","win","go","0"
"pit-trial","119","1484668","0.0-5.0","battery-v0.2","","""event"",""trial"",""time""
""fullscreenenter"",""1"",""3861""
""blur"",""36"",""697970""
""focus"",""36"",""903359""
","""event"",""trial"",""time""
""blur"",""36"",""697970""
","""event"",""trial"",""time""
""focus"",""36"",""903359""
","""event"",""trial"",""time""
""fullscreenenter"",""1"",""3861""
","
","","","749.7999999970198","","","18","3945","2986","&#9752;","elianto","#f73b6a7A"," "," ","1","0","[1607.199999988079]","1","1","","","3945","2","3","3","lose","go","0"
"pit-trial","120","1488252","0.0-6.0","battery-v0.2","","""event"",""trial"",""time""
""fullscreenenter"",""1"",""3861""
""blur"",""36"",""697970""
""focus"",""36"",""903359""
","""event"",""trial"",""time""
""blur"",""36"",""697970""
","""event"",""trial"",""time""
""focus"",""36"",""903359""
","""event"",""trial"",""time""
""fullscreenenter"",""1"",""3861""
","
","","","722.5999999940395","","","18","3945","2986","&#9728;","elianto","#f73b6a7A","-1"," ","0","-10","[1577.0999999940395]","1","1","","","3945","3","0","4","lose","no-go","0"
"pit-trial","121","1491877","0.0-7.0","battery-v0.2","","""event"",""trial"",""time""
""fullscreenenter"",""1"",""3861""
""blur"",""36"",""697970""
""focus"",""36"",""903359""
","""event"",""trial"",""time""
""blur"",""36"",""697970""
","""event"",""trial"",""time""
""focus"",""36"",""903359""
","""event"",""trial"",""time""
""fullscreenenter"",""1"",""3861""
","
","","","764.5","","","18","3945","2986","&#9733;","elianto","#3366ff99","-1"," ","0","+10","[1618.4000000059605]","1","1","","","3945","4","2","2","win","no-go","1"
"pit-trial","122","1496742","0.0-8.0","battery-v0.2","","""event"",""trial"",""time""
""fullscreenenter"",""1"",""3861""
""blur"",""36"",""697970""
""focus"",""36"",""903359""
","""event"",""trial"",""time""
""blur"",""36"",""697970""
","""event"",""trial"",""time""
""focus"",""36"",""903359""
","""event"",""trial"",""time""
""fullscreenenter"",""1"",""3861""
","
","","","-1","","","18","3945","2986","&#9752;","elianto","#f73b6a7A"," ","-1","0","-10","[]","0","1","","","3945","5","3","3","lose","go","0"
"pit-trial","123","1500415","0.0-9.0","battery-v0.2","","""event"",""trial"",""time""
""fullscreenenter"",""1"",""3861""
""blur"",""36"",""697970""
""focus"",""36"",""903359""
","""event"",""trial"",""time""
""blur"",""36"",""697970""
","""event"",""trial"",""time""
""focus"",""36"",""903359""
","""event"",""trial"",""time""
""fullscreenenter"",""1"",""3861""
","
","","","805.5","","","18","3945","2986","&#9730;","elianto","#3366ff99"," "," ","1","0","[1658.1000000089407]","1","1","","","3945","6","1","1","win","go","1"
"pit-trial","124","1504276","0.0-10.0","battery-v0.2","","""event"",""trial"",""time""
""fullscreenenter"",""1"",""3861""
""blur"",""36"",""697970""
""focus"",""36"",""903359""
","""event"",""trial"",""time""
""blur"",""36"",""697970""
","""event"",""trial"",""time""
""focus"",""36"",""903359""
","""event"",""trial"",""time""
""fullscreenenter"",""1"",""3861""
","
","","","993.2999999970198","","","18","3945","2986","&#9728;","elianto","#f73b6a7A","-1"," ","0","-10","[1851.7999999970198]","1","1","","","3945","7","0","4","lose","no-go","0"
"pit-trial","125","1508091","0.0-11.0","battery-v0.2","","""event"",""trial"",""time""
""fullscreenenter"",""1"",""3861""
""blur"",""36"",""697970""
""focus"",""36"",""903359""
","""event"",""trial"",""time""
""blur"",""36"",""697970""
","""event"",""trial"",""time""
""focus"",""36"",""903359""
","""event"",""trial"",""time""
""fullscreenenter"",""1"",""3861""
","
","","","951.5","","","18","3945","2986","&#9733;","elianto","#3366ff99","-1"," ","0","+10","[1805]","1","1","","","3945","8","2","2","win","no-go","1"
"pit-trial","126","1512954","0.0-12.0","battery-v0.2","","""event"",""trial"",""time""
""fullscreenenter"",""1"",""3861""
""blur"",""36"",""697970""
""focus"",""36"",""903359""
","""event"",""trial"",""time""
""blur"",""36"",""697970""
","""event"",""trial"",""time""
""focus"",""36"",""903359""
","""event"",""trial"",""time""
""fullscreenenter"",""1"",""3861""
","
","","","-1","","","18","3945","2986","&#9728;","elianto","#f73b6a7A","-1","-1","1","0","[]","0","1","","","3945","9","0","4","lose","no-go","0"
"pit-trial","127","1516658","0.0-13.0","battery-v0.2","","""event"",""trial"",""time""
""fullscreenenter"",""1"",""3861""
""blur"",""36"",""697970""
""focus"",""36"",""903359""
","""event"",""trial"",""time""
""blur"",""36"",""697970""
","""event"",""trial"",""time""
""focus"",""36"",""903359""
","""event"",""trial"",""time""
""fullscreenenter"",""1"",""3861""
","
","","","841.5","","","18","3945","2986","&#9733;","elianto","#3366ff99","-1"," ","0","0","[1697.199999988079]","1","1","","","3945","10","2","2","win","no-go","0"
"pit-trial","128","1520594","0.0-14.0","battery-v0.2","","""event"",""trial"",""time""
""fullscreenenter"",""1"",""3861""
""blur"",""36"",""697970""
""focus"",""36"",""903359""
","""event"",""trial"",""time""
""blur"",""36"",""697970""
","""event"",""trial"",""time""
""focus"",""36"",""903359""
","""event"",""trial"",""time""
""fullscreenenter"",""1"",""3861""
","
","","","1077.7000000029802","","","18","3945","2986","&#9752;","elianto","#f73b6a7A"," "," ","1","0","[1931.0999999940395]","1","1","","","3945","11","3","3","lose","go","0"
"pit-trial","129","1524306","0.0-15.0","battery-v0.2","","""event"",""trial"",""time""
""fullscreenenter"",""1"",""3861""
""blur"",""36"",""697970""
""focus"",""36"",""903359""
","""event"",""trial"",""time""
""blur"",""36"",""697970""
","""event"",""trial"",""time""
""focus"",""36"",""903359""
","""event"",""trial"",""time""
""fullscreenenter"",""1"",""3861""
","
","","","854.2999999970198","","","18","3945","2986","&#9730;","elianto","#3366ff99"," "," ","1","+10","[1704.9000000059605]","1","1","","","3945","12","1","1","win","go","0"
"pit-trial","130","1527818","0.0-16.0","battery-v0.2","","""event"",""trial"",""time""
""fullscreenenter"",""1"",""3861""
""blur"",""36"",""697970""
""focus"",""36"",""903359""
","""event"",""trial"",""time""
""blur"",""36"",""697970""
","""event"",""trial"",""time""
""focus"",""36"",""903359""
","""event"",""trial"",""time""
""fullscreenenter"",""1"",""3861""
","
","","","649.2000000029802","","","18","3945","2986","&#9730;","elianto","#3366ff99"," "," ","1","0","[1503.2000000029802]","1","1","","","3945","13","1","1","win","go","1"
"pit-trial","131","1532685","0.0-17.0","battery-v0.2","","""event"",""trial"",""time""
""fullscreenenter"",""1"",""3861""
""blur"",""36"",""697970""
""focus"",""36"",""903359""
","""event"",""trial"",""time""
""blur"",""36"",""697970""
","""event"",""trial"",""time""
""focus"",""36"",""903359""
","""event"",""trial"",""time""
""fullscreenenter"",""1"",""3861""
","
","","","-1","","","18","3945","2986","&#9728;","elianto","#f73b6a7A","-1","-1","1","0","[]","0","1","","","3945","14","0","4","lose","no-go","0"
"pit-trial","132","1537545","0.0-18.0","battery-v0.2","","""event"",""trial"",""time""
""fullscreenenter"",""1"",""3861""
""blur"",""36"",""697970""
""focus"",""36"",""903359""
","""event"",""trial"",""time""
""blur"",""36"",""697970""
","""event"",""trial"",""time""
""focus"",""36"",""903359""
","""event"",""trial"",""time""
""fullscreenenter"",""1"",""3861""
","
","","","-1","","","18","3945","2986","&#9733;","elianto","#3366ff99","-1","-1","1","+10","[]","0","1","","","3945","15","2","2","win","no-go","0"
"pit-trial","133","1541385","0.0-19.0","battery-v0.2","","""event"",""trial"",""time""
""fullscreenenter"",""1"",""3861""
""blur"",""36"",""697970""
""focus"",""36"",""903359""
","""event"",""trial"",""time""
""blur"",""36"",""697970""
","""event"",""trial"",""time""
""focus"",""36"",""903359""
","""event"",""trial"",""time""
""fullscreenenter"",""1"",""3861""
","
","","","984.3999999910593","","","18","3945","2986","&#9752;","elianto","#f73b6a7A"," "," ","1","0","[1834.7999999970198]","1","1","","","3945","16","3","3","lose","go","0"
"pit-trial","134","1545074","0.0-20.0","battery-v0.2","","""event"",""trial"",""time""
""fullscreenenter"",""1"",""3861""
""blur"",""36"",""697970""
""focus"",""36"",""903359""
","""event"",""trial"",""time""
""blur"",""36"",""697970""
","""event"",""trial"",""time""
""focus"",""36"",""903359""
","""event"",""trial"",""time""
""fullscreenenter"",""1"",""3861""
","
","","","828.7000000029802","","","18","3945","2986","&#9752;","elianto","#f73b6a7A"," "," ","1","0","[1683.2999999970198]","1","1","","","3945","17","3","3","lose","go","0"
"pit-trial","135","1549937","0.0-21.0","battery-v0.2","","""event"",""trial"",""time""
""fullscreenenter"",""1"",""3861""
""blur"",""36"",""697970""
""focus"",""36"",""903359""
","""event"",""trial"",""time""
""blur"",""36"",""697970""
","""event"",""trial"",""time""
""focus"",""36"",""903359""
","""event"",""trial"",""time""
""fullscreenenter"",""1"",""3861""
","
","","","-1","","","18","3945","2986","&#9733;","elianto","#3366ff99","-1","-1","1","+10","[]","0","1","","","3945","18","2","2","win","no-go","0"
"pit-trial","136","1553613","0.0-22.0","battery-v0.2","","""event"",""trial"",""time""
""fullscreenenter"",""1"",""3861""
""blur"",""36"",""697970""
""focus"",""36"",""903359""
","""event"",""trial"",""time""
""blur"",""36"",""697970""
","""event"",""trial"",""time""
""focus"",""36"",""903359""
","""event"",""trial"",""time""
""fullscreenenter"",""1"",""3861""
","
","","","809","","","18","3945","2986","&#9730;","elianto","#3366ff99"," "," ","1","+10","[1663.2999999970198]","1","1","","","3945","19","1","1","win","go","0"
"pit-trial","137","1558483","0.0-23.0","battery-v0.2","","""event"",""trial"",""time""
""fullscreenenter"",""1"",""3861""
""blur"",""36"",""697970""
""focus"",""36"",""903359""
","""event"",""trial"",""time""
""blur"",""36"",""697970""
","""event"",""trial"",""time""
""focus"",""36"",""903359""
","""event"",""trial"",""time""
""fullscreenenter"",""1"",""3861""
","
","","","-1","","","18","3945","2986","&#9728;","elianto","#f73b6a7A","-1","-1","1","0","[]","0","1","","","3945","20","0","4","lose","no-go","0"
"pit-instructions","138","1583459","0.0-24.0","battery-v0.2","","""event"",""trial"",""time""
""fullscreenenter"",""1"",""3861""
""blur"",""36"",""697970""
""focus"",""36"",""903359""
","""event"",""trial"",""time""
""blur"",""36"",""697970""
","""event"",""trial"",""time""
""focus"",""36"",""903359""
","""event"",""trial"",""time""
""fullscreenenter"",""1"",""3861""
","
","","[{""page_index"":0,""viewing_time"":7020.899999991059},{""page_index"":1,""viewing_time"":17953.40000000596}]","24975","","","","","","","","","","","","","","","","","","","","","","","",""
"pit-trial","139","1587137","0.0-25.0","battery-v0.2","","""event"",""trial"",""time""
""fullscreenenter"",""1"",""3861""
""blur"",""36"",""697970""
""focus"",""36"",""903359""
","""event"",""trial"",""time""
""blur"",""36"",""697970""
","""event"",""trial"",""time""
""focus"",""36"",""903359""
","""event"",""trial"",""time""
""fullscreenenter"",""1"",""3861""
","
","","","808.1000000089407","","","18","3945","2986","l","elianto","#3366ff99","-1"," ","0","0","[1666.2999999970198]","1","2","","","3945","21","1","2","win","no-go","0"
"pit-trial","140","1591385","0.0-26.0","battery-v0.2","","""event"",""trial"",""time""
""fullscreenenter"",""1"",""3861""
""blur"",""36"",""697970""
""focus"",""36"",""903359""
","""event"",""trial"",""time""
""blur"",""36"",""697970""
","""event"",""trial"",""time""
""focus"",""36"",""903359""
","""event"",""trial"",""time""
""fullscreenenter"",""1"",""3861""
","
","","","1382.7999999970198","","","18","3945","2986","u","elianto","#f73b6a7A"," "," ","1","0","[2235.9000000059605]","1","2","","","3945","22","0","3","lose","go","0"
"pit-trial","141","1595032","0.0-27.0","battery-v0.2","","""event"",""trial"",""time""
""fullscreenenter"",""1"",""3861""
""blur"",""36"",""697970""
""focus"",""36"",""903359""
","""event"",""trial"",""time""
""blur"",""36"",""697970""
","""event"",""trial"",""time""
""focus"",""36"",""903359""
","""event"",""trial"",""time""
""fullscreenenter"",""1"",""3861""
","
","","","784.0999999940395","","","18","3945","2986","a","elianto","#f73b6a7A"," "," ","1","0","[1638.7000000029802]","1","2","","","3945","23","2","3","lose","go","0"
"pit-trial","142","1598911","0.0-28.0","battery-v0.2","","""event"",""trial"",""time""
""fullscreenenter"",""1"",""3861""
""blur"",""36"",""697970""
""focus"",""36"",""903359""
","""event"",""trial"",""time""
""blur"",""36"",""697970""
","""event"",""trial"",""time""
""focus"",""36"",""903359""
","""event"",""trial"",""time""
""fullscreenenter"",""1"",""3861""
","
","","","1015.0999999940395","","","18","3945","2986","g","elianto","#f73b6a7A","-1"," ","0","-10","[1870.2999999970198]","1","2","","","3945","24","3","4","lose","no-go","0"
"pit-trial","143","1602776","0.0-29.0","battery-v0.2","","""event"",""trial"",""time""
""fullscreenenter"",""1"",""3861""
""blur"",""36"",""697970""
""focus"",""36"",""903359""
","""event"",""trial"",""time""
""blur"",""36"",""697970""
","""event"",""trial"",""time""
""focus"",""36"",""903359""
","""event"",""trial"",""time""
""fullscreenenter"",""1"",""3861""
","
","","","1004.7999999970198","","","18","3945","2986","u","elianto","#f73b6a7A"," "," ","1","-10","[1858.8999999910593]","1","2","","","3945","25","0","3","lose","go","1"
"pit-trial","144","1606482","0.0-30.0","battery-v0.2","","""event"",""trial"",""time""
""fullscreenenter"",""1"",""3861""
""blur"",""36"",""697970""
""focus"",""36"",""903359""
","""event"",""trial"",""time""
""blur"",""36"",""697970""
","""event"",""trial"",""time""
""focus"",""36"",""903359""
","""event"",""trial"",""time""
""fullscreenenter"",""1"",""3861""
","
","","","846.7999999970198","","","18","3945","2986","a","elianto","#f73b6a7A"," "," ","1","0","[1700.2999999970198]","1","2","","","3945","26","2","3","lose","go","0"
"pit-trial","145","1610011","0.0-31.0","battery-v0.2","","""event"",""trial"",""time""
""fullscreenenter"",""1"",""3861""
""blur"",""36"",""697970""
""focus"",""36"",""903359""
","""event"",""trial"",""time""
""blur"",""36"",""697970""
","""event"",""trial"",""time""
""focus"",""36"",""903359""
","""event"",""trial"",""time""
""fullscreenenter"",""1"",""3861""
","
","","","658.9000000059605","","","18","3945","2986","l","elianto","#3366ff99","-1"," ","0","0","[1517.1000000089407]","1","2","","","3945","27","1","2","win","no-go","0"
"pit-trial","146","1614882","0.0-32.0","battery-v0.2","","""event"",""trial"",""time""
""fullscreenenter"",""1"",""3861""
""blur"",""36"",""697970""
""focus"",""36"",""903359""
","""event"",""trial"",""time""
""blur"",""36"",""697970""
","""event"",""trial"",""time""
""focus"",""36"",""903359""
","""event"",""trial"",""time""
""fullscreenenter"",""1"",""3861""
","
","","","-1","","","18","3945","2986","g","elianto","#f73b6a7A","-1","-1","1","0","[]","0","2","","","3945","28","3","4","lose","no-go","0"
"pit-trial","147","1618743","0.0-33.0","battery-v0.2","","""event"",""trial"",""time""
""fullscreenenter"",""1"",""3861""
""blur"",""36"",""697970""
""focus"",""36"",""903359""
","""event"",""trial"",""time""
""blur"",""36"",""697970""
","""event"",""trial"",""time""
""focus"",""36"",""903359""
","""event"",""trial"",""time""
""fullscreenenter"",""1"",""3861""
","
","","","1006","","","18","3945","2986","a","elianto","#f73b6a7A"," "," ","1","0","[1857.5]","1","2","","","3945","29","2","3","lose","go","0"
"pit-trial","148","1623611","0.0-34.0","battery-v0.2","","""event"",""trial"",""time""
""fullscreenenter"",""1"",""3861""
""blur"",""36"",""697970""
""focus"",""36"",""903359""
","""event"",""trial"",""time""
""blur"",""36"",""697970""
","""event"",""trial"",""time""
""focus"",""36"",""903359""
","""event"",""trial"",""time""
""fullscreenenter"",""1"",""3861""
","
","","","-1","","","18","3945","2986","g","elianto","#f73b6a7A","-1","-1","1","0","[]","0","2","","","3945","30","3","4","lose","no-go","0"
"pit-trial","149","1627447","0.0-35.0","battery-v0.2","","""event"",""trial"",""time""
""fullscreenenter"",""1"",""3861""
""blur"",""36"",""697970""
""focus"",""36"",""903359""
","""event"",""trial"",""time""
""blur"",""36"",""697970""
","""event"",""trial"",""time""
""focus"",""36"",""903359""
","""event"",""trial"",""time""
""fullscreenenter"",""1"",""3861""
","
","","","969.3000000119209","","","18","3945","2986","l","elianto","#3366ff99","-1"," ","0","0","[1827.0999999940395]","1","2","","","3945","31","1","2","win","no-go","0"
"pit-trial","150","1632281","0.0-36.0","battery-v0.2","","""event"",""trial"",""time""
""fullscreenenter"",""1"",""3861""
""blur"",""36"",""697970""
""focus"",""36"",""903359""
","""event"",""trial"",""time""
""blur"",""36"",""697970""
","""event"",""trial"",""time""
""focus"",""36"",""903359""
","""event"",""trial"",""time""
""fullscreenenter"",""1"",""3861""
","
","","","1974.7000000029802","","","18","3945","2986","u","elianto","#f73b6a7A"," "," ","1","0","[2827.4000000059605]","1","2","","","3945","32","0","3","lose","go","0"
"pit-trial","151","1635742","0.0-37.0","battery-v0.2","","""event"",""trial"",""time""
""fullscreenenter"",""1"",""3861""
""blur"",""36"",""697970""
""focus"",""36"",""903359""
","""event"",""trial"",""time""
""blur"",""36"",""697970""
","""event"",""trial"",""time""
""focus"",""36"",""903359""
","""event"",""trial"",""time""
""fullscreenenter"",""1"",""3861""
","
","","","599.8999999910593","","","18","3945","2986","a","elianto","#f73b6a7A"," "," ","1","0","[1457.2999999970198]","1","2","","","3945","33","2","3","lose","go","0"
"pit-trial","152","1639614","0.0-38.0","battery-v0.2","","""event"",""trial"",""time""
""fullscreenenter"",""1"",""3861""
""blur"",""36"",""697970""
""focus"",""36"",""903359""
","""event"",""trial"",""time""
""blur"",""36"",""697970""
","""event"",""trial"",""time""
""focus"",""36"",""903359""
","""event"",""trial"",""time""
""fullscreenenter"",""1"",""3861""
","
","","","1014.5","","","18","3945","2986","u","elianto","#f73b6a7A"," "," ","1","0","[1868.0999999940395]","1","2","","","3945","34","0","3","lose","go","0"
"pit-trial","153","1644481","0.0-39.0","battery-v0.2","","""event"",""trial"",""time""
""fullscreenenter"",""1"",""3861""
""blur"",""36"",""697970""
""focus"",""36"",""903359""
","""event"",""trial"",""time""
""blur"",""36"",""697970""
","""event"",""trial"",""time""
""focus"",""36"",""903359""
","""event"",""trial"",""time""
""fullscreenenter"",""1"",""3861""
","
","","","-1","","","18","3945","2986","g","elianto","#f73b6a7A","-1","-1","1","0","[]","0","2","","","3945","35","3","4","lose","no-go","0"
"pit-trial","154","1649342","0.0-40.0","battery-v0.2","","""event"",""trial"",""time""
""fullscreenenter"",""1"",""3861""
""blur"",""36"",""697970""
""focus"",""36"",""903359""
","""event"",""trial"",""time""
""blur"",""36"",""697970""
","""event"",""trial"",""time""
""focus"",""36"",""903359""
","""event"",""trial"",""time""
""fullscreenenter"",""1"",""3861""
","
","","","-1","","","18","3945","2986","l","elianto","#3366ff99","-1","-1","1","+10","[]","0","2","","","3945","36","1","2","win","no-go","0"
"pit-trial","155","1654209","0.0-41.0","battery-v0.2","","""event"",""trial"",""time""
""fullscreenenter"",""1"",""3861""
""blur"",""36"",""697970""
""focus"",""36"",""903359""
","""event"",""trial"",""time""
""blur"",""36"",""697970""
","""event"",""trial"",""time""
""focus"",""36"",""903359""
","""event"",""trial"",""time""
""fullscreenenter"",""1"",""3861""
","
","","","-1","","","18","3945","2986","g","elianto","#f73b6a7A","-1","-1","1","0","[]","0","2","","","3945","37","3","4","lose","no-go","0"
"pit-trial","156","1659077","0.0-42.0","battery-v0.2","","""event"",""trial"",""time""
""fullscreenenter"",""1"",""3861""
""blur"",""36"",""697970""
""focus"",""36"",""903359""
","""event"",""trial"",""time""
""blur"",""36"",""697970""
","""event"",""trial"",""time""
""focus"",""36"",""903359""
","""event"",""trial"",""time""
""fullscreenenter"",""1"",""3861""
","
","","","-1","","","18","3945","2986","l","elianto","#3366ff99","-1","-1","1","+10","[]","0","2","","","3945","38","1","2","win","no-go","0"
"pit-trial","157","1662880","0.0-43.0","battery-v0.2","","""event"",""trial"",""time""
""fullscreenenter"",""1"",""3861""
""blur"",""36"",""697970""
""focus"",""36"",""903359""
","""event"",""trial"",""time""
""blur"",""36"",""697970""
","""event"",""trial"",""time""
""focus"",""36"",""903359""
","""event"",""trial"",""time""
""fullscreenenter"",""1"",""3861""
","
","","","937.8000000119209","","","18","3945","2986","a","elianto","#f73b6a7A"," "," ","1","0","[1792.1000000089407]","1","2","","","3945","39","2","3","lose","go","0"
"pit-trial","158","1666573","0.0-44.0","battery-v0.2","","""event"",""trial"",""time""
""fullscreenenter"",""1"",""3861""
""blur"",""36"",""697970""
""focus"",""36"",""903359""
","""event"",""trial"",""time""
""blur"",""36"",""697970""
","""event"",""trial"",""time""
""focus"",""36"",""903359""
","""event"",""trial"",""time""
""fullscreenenter"",""1"",""3861""
","
","","","830.9000000059605","","","18","3945","2986","u","elianto","#f73b6a7A"," "," ","1","0","[1687.2999999970198]","1","2","","","3945","40","0","3","lose","go","0"
"pit-trial","159","1670285","0.0-45.0","battery-v0.2","","""event"",""trial"",""time""
""fullscreenenter"",""1"",""3861""
""blur"",""36"",""697970""
""focus"",""36"",""903359""
","""event"",""trial"",""time""
""blur"",""36"",""697970""
","""event"",""trial"",""time""
""focus"",""36"",""903359""
","""event"",""trial"",""time""
""fullscreenenter"",""1"",""3861""
","
","","","847.7000000029802","","","18","3945","2986","u","elianto","#f73b6a7A"," "," ","1","0","[1700.7999999970198]","1","2","","","3945","41","0","3","lose","go","0"
"pit-trial","160","1675149","0.0-46.0","battery-v0.2","","""event"",""trial"",""time""
""fullscreenenter"",""1"",""3861""
""blur"",""36"",""697970""
""focus"",""36"",""903359""
","""event"",""trial"",""time""
""blur"",""36"",""697970""
","""event"",""trial"",""time""
""focus"",""36"",""903359""
","""event"",""trial"",""time""
""fullscreenenter"",""1"",""3861""
","
","","","-1","","","18","3945","2986","l","elianto","#3366ff99","-1","-1","1","+10","[]","0","2","","","3945","42","1","2","win","no-go","0"
"pit-trial","161","1680012","0.0-47.0","battery-v0.2","","""event"",""trial"",""time""
""fullscreenenter"",""1"",""3861""
""blur"",""36"",""697970""
""focus"",""36"",""903359""
","""event"",""trial"",""time""
""blur"",""36"",""697970""
","""event"",""trial"",""time""
""focus"",""36"",""903359""
","""event"",""trial"",""time""
""fullscreenenter"",""1"",""3861""
","
","","","-1","","","18","3945","2986","g","elianto","#f73b6a7A","-1","-1","1","-10","[]","0","2","","","3945","43","3","4","lose","no-go","1"
"pit-trial","162","1683608","0.0-48.0","battery-v0.2","","""event"",""trial"",""time""
""fullscreenenter"",""1"",""3861""
""blur"",""36"",""697970""
""focus"",""36"",""903359""
","""event"",""trial"",""time""
""blur"",""36"",""697970""
","""event"",""trial"",""time""
""focus"",""36"",""903359""
","""event"",""trial"",""time""
""fullscreenenter"",""1"",""3861""
","
","","","727.5","","","18","3945","2986","a","elianto","#f73b6a7A"," "," ","1","0","[1582.6000000089407]","1","2","","","3945","44","2","3","lose","go","0"
"pit-trial","163","1688479","0.0-49.0","battery-v0.2","","""event"",""trial"",""time""
""fullscreenenter"",""1"",""3861""
""blur"",""36"",""697970""
""focus"",""36"",""903359""
","""event"",""trial"",""time""
""blur"",""36"",""697970""
","""event"",""trial"",""time""
""focus"",""36"",""903359""
","""event"",""trial"",""time""
""fullscreenenter"",""1"",""3861""
","
","","","-1","","","18","3945","2986","l","elianto","#3366ff99","-1","-1","1","+10","[]","0","2","","","3945","45","1","2","win","no-go","0"
"pit-trial","164","1691932","0.0-50.0","battery-v0.2","","""event"",""trial"",""time""
""fullscreenenter"",""1"",""3861""
""blur"",""36"",""697970""
""focus"",""36"",""903359""
","""event"",""trial"",""time""
""blur"",""36"",""697970""
","""event"",""trial"",""time""
""focus"",""36"",""903359""
","""event"",""trial"",""time""
""fullscreenenter"",""1"",""3861""
","
","","","586.5999999940395","","","18","3945","2986","a","elianto","#f73b6a7A"," "," ","1","0","[1443.7000000029802]","1","2","","","3945","46","2","3","lose","go","0"
"pit-trial","165","1695300","0.0-51.0","battery-v0.2","","""event"",""trial"",""time""
""fullscreenenter"",""1"",""3861""
""blur"",""36"",""697970""
""focus"",""36"",""903359""
","""event"",""trial"",""time""
""blur"",""36"",""697970""
","""event"",""trial"",""time""
""focus"",""36"",""903359""
","""event"",""trial"",""time""
""fullscreenenter"",""1"",""3861""
","
","","","509.5","","","18","3945","2986","u","elianto","#f73b6a7A"," "," ","1","0","[1363.4000000059605]","1","2","","","3945","47","0","3","lose","go","0"
"pit-trial","166","1700164","0.0-52.0","battery-v0.2","","""event"",""trial"",""time""
""fullscreenenter"",""1"",""3861""
""blur"",""36"",""697970""
""focus"",""36"",""903359""
","""event"",""trial"",""time""
""blur"",""36"",""697970""
","""event"",""trial"",""time""
""focus"",""36"",""903359""
","""event"",""trial"",""time""
""fullscreenenter"",""1"",""3861""
","
","","","-1","","","18","3945","2986","g","elianto","#f73b6a7A","-1","-1","1","0","[]","0","2","","","3945","48","3","4","lose","no-go","0"
"pit-trial","167","1703892","0.0-53.0","battery-v0.2","","""event"",""trial"",""time""
""fullscreenenter"",""1"",""3861""
""blur"",""36"",""697970""
""focus"",""36"",""903359""
","""event"",""trial"",""time""
""blur"",""36"",""697970""
","""event"",""trial"",""time""
""focus"",""36"",""903359""
","""event"",""trial"",""time""
""fullscreenenter"",""1"",""3861""
","
","","","870.2999999970198","","","18","3945","2986","u","elianto","#f73b6a7A"," "," ","1","0","[1724.1000000089407]","1","2","","","3945","49","0","3","lose","go","0"
"pit-trial","168","1708756","0.0-54.0","battery-v0.2","","""event"",""trial"",""time""
""fullscreenenter"",""1"",""3861""
""blur"",""36"",""697970""
""focus"",""36"",""903359""
","""event"",""trial"",""time""
""blur"",""36"",""697970""
","""event"",""trial"",""time""
""focus"",""36"",""903359""
","""event"",""trial"",""time""
""fullscreenenter"",""1"",""3861""
","
","","","-1","","","18","3945","2986","g","elianto","#f73b6a7A","-1","-1","1","0","[]","0","2","","","3945","50","3","4","lose","no-go","0"
"pit-trial","169","1713620","0.0-55.0","battery-v0.2","","""event"",""trial"",""time""
""fullscreenenter"",""1"",""3861""
""blur"",""36"",""697970""
""focus"",""36"",""903359""
","""event"",""trial"",""time""
""blur"",""36"",""697970""
","""event"",""trial"",""time""
""focus"",""36"",""903359""
","""event"",""trial"",""time""
""fullscreenenter"",""1"",""3861""
","
","","","-1","","","18","3945","2986","l","elianto","#3366ff99","-1","-1","1","+10","[]","0","2","","","3945","51","1","2","win","no-go","0"
"pit-trial","170","1717132","0.0-56.0","battery-v0.2","","""event"",""trial"",""time""
""fullscreenenter"",""1"",""3861""
""blur"",""36"",""697970""
""focus"",""36"",""903359""
","""event"",""trial"",""time""
""blur"",""36"",""697970""
","""event"",""trial"",""time""
""focus"",""36"",""903359""
","""event"",""trial"",""time""
""fullscreenenter"",""1"",""3861""
","
","","","651","","","18","3945","2986","a","elianto","#f73b6a7A"," "," ","1","0","[1504.0999999940395]","1","2","","","3945","52","2","3","lose","go","0"
"pit-trial","171","1721995","0.0-57.0","battery-v0.2","","""event"",""trial"",""time""
""fullscreenenter"",""1"",""3861""
""blur"",""36"",""697970""
""focus"",""36"",""903359""
","""event"",""trial"",""time""
""blur"",""36"",""697970""
","""event"",""trial"",""time""
""focus"",""36"",""903359""
","""event"",""trial"",""time""
""fullscreenenter"",""1"",""3861""
","
","","","-1","","","18","3945","2986","l","elianto","#3366ff99","-1","-1","1","+10","[]","0","2","","","3945","53","1","2","win","no-go","0"
"pit-trial","172","1725531","0.0-58.0","battery-v0.2","","""event"",""trial"",""time""
""fullscreenenter"",""1"",""3861""
""blur"",""36"",""697970""
""focus"",""36"",""903359""
","""event"",""trial"",""time""
""blur"",""36"",""697970""
","""event"",""trial"",""time""
""focus"",""36"",""903359""
","""event"",""trial"",""time""
""fullscreenenter"",""1"",""3861""
","
","","","671.7000000029802","","","18","3945","2986","a","elianto","#f73b6a7A"," "," ","1","0","[1525.5]","1","2","","","3945","54","2","3","lose","go","0"
"pit-trial","173","1728971","0.0-59.0","battery-v0.2","","""event"",""trial"",""time""
""fullscreenenter"",""1"",""3861""
""blur"",""36"",""697970""
""focus"",""36"",""903359""
","""event"",""trial"",""time""
""blur"",""36"",""697970""
","""event"",""trial"",""time""
""focus"",""36"",""903359""
","""event"",""trial"",""time""
""fullscreenenter"",""1"",""3861""
","
","","","576.2999999970198","","","18","3945","2986","u","elianto","#f73b6a7A"," "," ","1","0","[1428.5]","1","2","","","3945","55","0","3","lose","go","0"
"pit-trial","174","1733834","0.0-60.0","battery-v0.2","","""event"",""trial"",""time""
""fullscreenenter"",""1"",""3861""
""blur"",""36"",""697970""
""focus"",""36"",""903359""
","""event"",""trial"",""time""
""blur"",""36"",""697970""
","""event"",""trial"",""time""
""focus"",""36"",""903359""
","""event"",""trial"",""time""
""fullscreenenter"",""1"",""3861""
","
","","","-1","","","18","3945","2986","g","elianto","#f73b6a7A","-1","-1","1","0","[]","0","2","","","3945","56","3","4","lose","no-go","0"
"pit-trial","175","1737330","0.0-61.0","battery-v0.2","","""event"",""trial"",""time""
""fullscreenenter"",""1"",""3861""
""blur"",""36"",""697970""
""focus"",""36"",""903359""
","""event"",""trial"",""time""
""blur"",""36"",""697970""
","""event"",""trial"",""time""
""focus"",""36"",""903359""
","""event"",""trial"",""time""
""fullscreenenter"",""1"",""3861""
","
","","","639.1000000089407","","","18","3945","2986","u","elianto","#f73b6a7A"," "," ","1","0","[1490.2000000029802]","1","2","","","3945","57","0","3","lose","go","0"
"pit-trial","176","1742194","0.0-62.0","battery-v0.2","","""event"",""trial"",""time""
""fullscreenenter"",""1"",""3861""
""blur"",""36"",""697970""
""focus"",""36"",""903359""
","""event"",""trial"",""time""
""blur"",""36"",""697970""
","""event"",""trial"",""time""
""focus"",""36"",""903359""
","""event"",""trial"",""time""
""fullscreenenter"",""1"",""3861""
","
","","","-1","","","18","3945","2986","g","elianto","#f73b6a7A","-1","-1","1","0","[]","0","2","","","3945","58","3","4","lose","no-go","0"
"pit-trial","177","1745738","0.0-63.0","battery-v0.2","","""event"",""trial"",""time""
""fullscreenenter"",""1"",""3861""
""blur"",""36"",""697970""
""focus"",""36"",""903359""
","""event"",""trial"",""time""
""blur"",""36"",""697970""
","""event"",""trial"",""time""
""focus"",""36"",""903359""
","""event"",""trial"",""time""
""fullscreenenter"",""1"",""3861""
","
","","","679.2000000029802","","","18","3945","2986","a","elianto","#f73b6a7A"," "," ","1","0","[1533.9000000059605]","1","2","","","3945","59","2","3","lose","go","0"
"pit-trial","178","1749658","0.0-64.0","battery-v0.2","","""event"",""trial"",""time""
""fullscreenenter"",""1"",""3861""
""blur"",""36"",""697970""
""focus"",""36"",""903359""
","""event"",""trial"",""time""
""blur"",""36"",""697970""
","""event"",""trial"",""time""
""focus"",""36"",""903359""
","""event"",""trial"",""time""
""fullscreenenter"",""1"",""3861""
","
","","","1059.5999999940395","","","18","3945","2986","p","elianto","#3366ff99"," "," ","1","0","[1913.2999999970198]","1","2","","","3945","60","4","1","win","go","1"
"pit-trial","179","1754522","0.0-65.0","battery-v0.2","","""event"",""trial"",""time""
""fullscreenenter"",""1"",""3861""
""blur"",""36"",""697970""
""focus"",""36"",""903359""
","""event"",""trial"",""time""
""blur"",""36"",""697970""
","""event"",""trial"",""time""
""focus"",""36"",""903359""
","""event"",""trial"",""time""
""fullscreenenter"",""1"",""3861""
","
","","","-1","","","18","3945","2986","p","elianto","#3366ff99"," ","-1","0","+10","[]","0","2","","","3945","61","4","1","win","go","1"
"pit-trial","180","1758276","0.0-66.0","battery-v0.2","","""event"",""trial"",""time""
""fullscreenenter"",""1"",""3861""
""blur"",""36"",""697970""
""focus"",""36"",""903359""
","""event"",""trial"",""time""
""blur"",""36"",""697970""
","""event"",""trial"",""time""
""focus"",""36"",""903359""
","""event"",""trial"",""time""
""fullscreenenter"",""1"",""3861""
","
","","","890","","","18","3945","2986","a","elianto","#f73b6a7A"," "," ","1","0","[1745]","1","2","","","3945","62","2","3","lose","go","0"
"pit-trial","181","1763149","0.0-67.0","battery-v0.2","","""event"",""trial"",""time""
""fullscreenenter"",""1"",""3861""
""blur"",""36"",""697970""
""focus"",""36"",""903359""
","""event"",""trial"",""time""
""blur"",""36"",""697970""
","""event"",""trial"",""time""
""focus"",""36"",""903359""
","""event"",""trial"",""time""
""fullscreenenter"",""1"",""3861""
","
","","","-1","","","18","3945","2986","g","elianto","#f73b6a7A","-1","-1","1","0","[]","0","2","","","3945","63","3","4","lose","no-go","0"
"pit-trial","182","1768017","0.0-68.0","battery-v0.2","","""event"",""trial"",""time""
""fullscreenenter"",""1"",""3861""
""blur"",""36"",""697970""
""focus"",""36"",""903359""
","""event"",""trial"",""time""
""blur"",""36"",""697970""
","""event"",""trial"",""time""
""focus"",""36"",""903359""
","""event"",""trial"",""time""
""fullscreenenter"",""1"",""3861""
","
","","","-1","","","18","3945","2986","l","elianto","#3366ff99","-1","-1","1","+10","[]","0","2","","","3945","64","1","2","win","no-go","0"
"pit-trial","183","1772881","0.0-69.0","battery-v0.2","","""event"",""trial"",""time""
""fullscreenenter"",""1"",""3861""
""blur"",""36"",""697970""
""focus"",""36"",""903359""
","""event"",""trial"",""time""
""blur"",""36"",""697970""
","""event"",""trial"",""time""
""focus"",""36"",""903359""
","""event"",""trial"",""time""
""fullscreenenter"",""1"",""3861""
","
","","","-1","","","18","3945","2986","p","elianto","#3366ff99"," ","-1","0","0","[]","0","2","","","3945","65","4","1","win","go","0"
"pit-trial","184","1777745","0.0-70.0","battery-v0.2","","""event"",""trial"",""time""
""fullscreenenter"",""1"",""3861""
""blur"",""36"",""697970""
""focus"",""36"",""903359""
","""event"",""trial"",""time""
""blur"",""36"",""697970""
","""event"",""trial"",""time""
""focus"",""36"",""903359""
","""event"",""trial"",""time""
""fullscreenenter"",""1"",""3861""
","
","","","-1","","","18","3945","2986","g","elianto","#f73b6a7A","-1","-1","1","-10","[]","0","2","","","3945","66","3","4","lose","no-go","1"
"pit-trial","185","1782609","0.0-71.0","battery-v0.2","","""event"",""trial"",""time""
""fullscreenenter"",""1"",""3861""
""blur"",""36"",""697970""
""focus"",""36"",""903359""
","""event"",""trial"",""time""
""blur"",""36"",""697970""
","""event"",""trial"",""time""
""focus"",""36"",""903359""
","""event"",""trial"",""time""
""fullscreenenter"",""1"",""3861""
","
","","","-1","","","18","3945","2986","l","elianto","#3366ff99","-1","-1","1","0","[]","0","2","","","3945","67","1","2","win","no-go","1"
"pit-trial","186","1786425","0.0-72.0","battery-v0.2","","""event"",""trial"",""time""
""fullscreenenter"",""1"",""3861""
""blur"",""36"",""697970""
""focus"",""36"",""903359""
","""event"",""trial"",""time""
""blur"",""36"",""697970""
","""event"",""trial"",""time""
""focus"",""36"",""903359""
","""event"",""trial"",""time""
""fullscreenenter"",""1"",""3861""
","
","","","952.7999999970198","","","18","3945","2986","s","elianto","#3366ff99","-1"," ","0","0","[1806.5]","1","2","","","3945","68","5","2","win","no-go","0"
"pit-trial","187","1791289","0.0-73.0","battery-v0.2","","""event"",""trial"",""time""
""fullscreenenter"",""1"",""3861""
""blur"",""36"",""697970""
""focus"",""36"",""903359""
","""event"",""trial"",""time""
""blur"",""36"",""697970""
","""event"",""trial"",""time""
""focus"",""36"",""903359""
","""event"",""trial"",""time""
""fullscreenenter"",""1"",""3861""
","
","","","-1","","","18","3945","2986","s","elianto","#3366ff99","-1","-1","1","+10","[]","0","2","","","3945","69","5","2","win","no-go","0"
"pit-trial","188","1794817","0.0-74.0","battery-v0.2","","""event"",""trial"",""time""
""fullscreenenter"",""1"",""3861""
""blur"",""36"",""697970""
""focus"",""36"",""903359""
","""event"",""trial"",""time""
""blur"",""36"",""697970""
","""event"",""trial"",""time""
""focus"",""36"",""903359""
","""event"",""trial"",""time""
""fullscreenenter"",""1"",""3861""
","
","","","666.1999999880791","","","18","3945","2986","a","elianto","#f73b6a7A"," "," ","1","0","[1519.199999988079]","1","2","","","3945","70","2","3","lose","go","0"
"pit-trial","189","1798608","0.0-75.0","battery-v0.2","","""event"",""trial"",""time""
""fullscreenenter"",""1"",""3861""
""blur"",""36"",""697970""
""focus"",""36"",""903359""
","""event"",""trial"",""time""
""blur"",""36"",""697970""
","""event"",""trial"",""time""
""focus"",""36"",""903359""
","""event"",""trial"",""time""
""fullscreenenter"",""1"",""3861""
","
","","","928.2999999970198","","","18","3945","2986","p","elianto","#3366ff99"," "," ","1","0","[1781.7999999970198]","1","2","","","3945","71","4","1","win","go","1"
"pit-trial","190","1803474","0.0-76.0","battery-v0.2","","""event"",""trial"",""time""
""fullscreenenter"",""1"",""3861""
""blur"",""36"",""697970""
""focus"",""36"",""903359""
","""event"",""trial"",""time""
""blur"",""36"",""697970""
","""event"",""trial"",""time""
""focus"",""36"",""903359""
","""event"",""trial"",""time""
""fullscreenenter"",""1"",""3861""
","
","","","-1","","","18","3945","2986","l","elianto","#3366ff99","-1","-1","1","+10","[]","0","2","","","3945","72","1","2","win","no-go","0"
"pit-trial","191","1808336","0.0-77.0","battery-v0.2","","""event"",""trial"",""time""
""fullscreenenter"",""1"",""3861""
""blur"",""36"",""697970""
""focus"",""36"",""903359""
","""event"",""trial"",""time""
""blur"",""36"",""697970""
","""event"",""trial"",""time""
""focus"",""36"",""903359""
","""event"",""trial"",""time""
""fullscreenenter"",""1"",""3861""
","
","","","-1","","","18","3945","2986","p","elianto","#3366ff99"," ","-1","0","0","[]","0","2","","","3945","73","4","1","win","go","0"
"pit-trial","192","1813203","0.0-78.0","battery-v0.2","","""event"",""trial"",""time""
""fullscreenenter"",""1"",""3861""
""blur"",""36"",""697970""
""focus"",""36"",""903359""
","""event"",""trial"",""time""
""blur"",""36"",""697970""
","""event"",""trial"",""time""
""focus"",""36"",""903359""
","""event"",""trial"",""time""
""fullscreenenter"",""1"",""3861""
","
","","","-1","","","18","3945","2986","g","elianto","#f73b6a7A","-1","-1","1","0","[]","0","2","","","3945","74","3","4","lose","no-go","0"
"pit-trial","193","1818074","0.0-79.0","battery-v0.2","","""event"",""trial"",""time""
""fullscreenenter"",""1"",""3861""
""blur"",""36"",""697970""
""focus"",""36"",""903359""
","""event"",""trial"",""time""
""blur"",""36"",""697970""
","""event"",""trial"",""time""
""focus"",""36"",""903359""
","""event"",""trial"",""time""
""fullscreenenter"",""1"",""3861""
","
