"trial_type","trial_index","time_elapsed","internal_node_id","task_version","subject_id","interactions","blur_events","focus_events","fullscreenenter_events","fullscreenexit_events","success","view_history","rt","responses","num_errors","age","subject","participantId","rune","rune_set","hex","correct","choice","accuracy","outcome","keys","total_keys","block","practice","value","sub","trial","stimulus","robot","valence","action","sham"
"pavlovia","0","21","0.0-0.0","battery-v0.2","","""event"",""trial"",""time""
""fullscreenenter"",""1"",""4935""
","
","
","""event"",""trial"",""time""
""fullscreenenter"",""1"",""4935""
","
","","","","","","","","","","","","","","","","","","","","","","","","","","",""
"fullscreen","1","5872","0.0-1.0","battery-v0.2","","""event"",""trial"",""time""
""fullscreenenter"",""1"",""4935""
","
","
","""event"",""trial"",""time""
""fullscreenenter"",""1"",""4935""
","
","true","","","","","","","","","","","","","","","","","","","","","","","","","",""
"pit-instructions","2","11599","0.0-2.0-0.0","battery-v0.2","","""event"",""trial"",""time""
""fullscreenenter"",""1"",""4935""
","
","
","""event"",""trial"",""time""
""fullscreenenter"",""1"",""4935""
","
","","[{""page_index"":0,""viewing_time"":5723}]","5723.300000190735","","","","","","","","","","","","","","","","","","","","","","","",""
"pit-comprehension","3","18184","0.0-2.0-1.0-0.0","battery-v0.2","","""event"",""trial"",""time""
""fullscreenenter"",""1"",""4935""
","
","
","""event"",""trial"",""time""
""fullscreenenter"",""1"",""4935""
","
","","","6582.299999952316","[""shark""]","0","10","17123","6282","","","","","","","","","","","","","","","","","","",""
"pit-instructions","4","21160","0.0-2.0-1.0-1.0","battery-v0.2","","""event"",""trial"",""time""
""fullscreenenter"",""1"",""4935""
","
","
","""event"",""trial"",""time""
""fullscreenenter"",""1"",""4935""
","
","","[{""page_index"":0,""viewing_time"":2970}]","2970.2000000476837","","","","","","","","","","","","","","","","","","","","","","","",""
"pit-comprehension","5","25529","0.0-2.0-2.0-0.0","battery-v0.2","","""event"",""trial"",""time""
""fullscreenenter"",""1"",""4935""
","
","
","""event"",""trial"",""time""
""fullscreenenter"",""1"",""4935""
","
","","","4367.5","[""tiger""]","0","10","17123","6282","","","","","","","","","","","","","","","","","","",""
"pit-instructions","6","27224","0.0-2.0-2.0-1.0","battery-v0.2","","""event"",""trial"",""time""
""fullscreenenter"",""1"",""4935""
","
","
","""event"",""trial"",""time""
""fullscreenenter"",""1"",""4935""
","
","","[{""page_index"":0,""viewing_time"":1692.5}]","1692.7999999523163","","","","","","","","","","","","","","","","","","","","","","","",""
"pit-instructions","7","139979","0.0-2.0-3.0","battery-v0.2","","""event"",""trial"",""time""
""fullscreenenter"",""1"",""4935""
","
","
","""event"",""trial"",""time""
""fullscreenenter"",""1"",""4935""
","
","","[{""page_index"":0,""viewing_time"":9291.600000143051},{""page_index"":1,""viewing_time"":7937},{""page_index"":2,""viewing_time"":7395},{""page_index"":3,""viewing_time"":10028.299999952316},{""page_index"":4,""viewing_time"":6459.900000095367},{""page_index"":5,""viewing_time"":6587.899999856949},{""page_index"":6,""viewing_time"":10916.200000047684},{""page_index"":7,""viewing_time"":6950.900000095367},{""page_index"":8,""viewing_time"":6604.599999904633},{""page_index"":9,""viewing_time"":10087.200000047684},{""page_index"":10,""viewing_time"":8686.5},{""page_index"":11,""viewing_time"":9199.700000047684},{""page_index"":12,""viewing_time"":6580.299999952316},{""page_index"":13,""viewing_time"":6028.799999952316}]","112754.30000019073","","","","","","","","","","","","","","","","","","","","","","","",""
"pit-trial","8","143314","0.0-2.0-4.0-0.0","battery-v0.2","","""event"",""trial"",""time""
""fullscreenenter"",""1"",""4935""
","
","
","""event"",""trial"",""time""
""fullscreenenter"",""1"",""4935""
","
","","","480.5","","","10","17123","6282","&#9784;","elianto","#FFFFF080"," "," ","1","&#10004","[1332.2999999523163]","1","0","0","","","","","","","",""
"pit-trial","9","147049","0.0-2.0-4.1-0.1","battery-v0.2","","""event"",""trial"",""time""
""fullscreenenter"",""1"",""4935""
","
","
","""event"",""trial"",""time""
""fullscreenenter"",""1"",""4935""
","
","","","879.7999999523163","","","10","17123","6282","&#9784;","elianto","#FFFFF080"," "," ","1","&#10004","[1729.9000000953674]","1","0","0","","","","","","","",""
"pit-trial","10","150676","0.0-2.0-4.2-0.2","battery-v0.2","","""event"",""trial"",""time""
""fullscreenenter"",""1"",""4935""
","
","
","""event"",""trial"",""time""
""fullscreenenter"",""1"",""4935""
","
","","","772.5","","","10","17123","6282","&#9784;","elianto","#FFFFF080"," "," ","1","&#10004","[1622.5999999046326]","1","0","0","","","","","","","",""
"pit-trial","11","154256","0.0-2.0-4.3-0.3","battery-v0.2","","""event"",""trial"",""time""
""fullscreenenter"",""1"",""4935""
","
","
","""event"",""trial"",""time""
""fullscreenenter"",""1"",""4935""
","
","","","725.3999998569489","","","10","17123","6282","&#9784;","elianto","#FFFFF080"," "," ","1","&#10004","[1576.5]","1","0","0","","","","","","","",""
"pit-trial","12","157692","0.0-2.0-4.4-0.4","battery-v0.2","","""event"",""trial"",""time""
""fullscreenenter"",""1"",""4935""
","
","
","""event"",""trial"",""time""
""fullscreenenter"",""1"",""4935""
","
","","","581.0999999046326","","","10","17123","6282","&#9784;","elianto","#FFFFF080"," "," ","1","&#10004","[1432.3999998569489]","1","0","0","","","","","","","",""
"pit-instructions","13","182466","0.0-2.0-5.0","battery-v0.2","","""event"",""trial"",""time""
""fullscreenenter"",""1"",""4935""
","
","
","""event"",""trial"",""time""
""fullscreenenter"",""1"",""4935""
","
","","[{""page_index"":0,""viewing_time"":6483.599999904633},{""page_index"":1,""viewing_time"":7079.800000190735},{""page_index"":2,""viewing_time"":5723.399999856949},{""page_index"":3,""viewing_time"":5484.5}]","24771.5","","","","","","","","","","","","","","","","","","","","","","","",""
"pit-trial","14","187320","0.0-2.0-6.0-0.0","battery-v0.2","","""event"",""trial"",""time""
""fullscreenenter"",""1"",""4935""
","
","
","""event"",""trial"",""time""
""fullscreenenter"",""1"",""4935""
","
","","","-1","","","10","17123","6282","&#9854;","elianto","#FFFFF080","-1","-1","1","&#10004","[]","0","0","1","","","","","","","",""
"pit-trial","15","192177","0.0-2.0-6.1-0.1","battery-v0.2","","""event"",""trial"",""time""
""fullscreenenter"",""1"",""4935""
","
","
","""event"",""trial"",""time""
""fullscreenenter"",""1"",""4935""
","
","","","-1","","","10","17123","6282","&#9854;","elianto","#FFFFF080","-1","-1","1","&#10004","[]","0","0","1","","","","","","","",""
"pit-trial","16","197033","0.0-2.0-6.2-0.2","battery-v0.2","","""event"",""trial"",""time""
""fullscreenenter"",""1"",""4935""
","
","
","""event"",""trial"",""time""
""fullscreenenter"",""1"",""4935""
","
","","","-1","","","10","17123","6282","&#9854;","elianto","#FFFFF080","-1","-1","1","&#10004","[]","0","0","1","","","","","","","",""
"pit-trial","17","201888","0.0-2.0-6.3-0.3","battery-v0.2","","""event"",""trial"",""time""
""fullscreenenter"",""1"",""4935""
","
","
","""event"",""trial"",""time""
""fullscreenenter"",""1"",""4935""
","
","","","-1","","","10","17123","6282","&#9854;","elianto","#FFFFF080","-1","-1","1","&#10004","[]","0","0","1","","","","","","","",""
"pit-trial","18","206742","0.0-2.0-6.4-0.4","battery-v0.2","","""event"",""trial"",""time""
""fullscreenenter"",""1"",""4935""
","
","
","""event"",""trial"",""time""
""fullscreenenter"",""1"",""4935""
","
","","","-1","","","10","17123","6282","&#9854;","elianto","#FFFFF080","-1","-1","1","&#10004","[]","0","0","1","","","","","","","",""
"pit-instructions","19","341454","0.0-2.0-7.0","battery-v0.2","","""event"",""trial"",""time""
""fullscreenenter"",""1"",""4935""
","
","
","""event"",""trial"",""time""
""fullscreenenter"",""1"",""4935""
","
","","[{""page_index"":0,""viewing_time"":6632.5},{""page_index"":1,""viewing_time"":8243.299999952316},{""page_index"":2,""viewing_time"":7327.799999952316},{""page_index"":3,""viewing_time"":7226.200000047684},{""page_index"":4,""viewing_time"":6884.599999904633},{""page_index"":5,""viewing_time"":6613.5},{""page_index"":6,""viewing_time"":6016.900000095367},{""page_index"":7,""viewing_time"":8962.099999904633},{""page_index"":8,""viewing_time"":9737.300000190735},{""page_index"":9,""viewing_time"":6518.5},{""page_index"":10,""viewing_time"":7419},{""page_index"":11,""viewing_time"":5231.5},{""page_index"":12,""viewing_time"":8563.099999904633},{""page_index"":13,""viewing_time"":8554},{""page_index"":14,""viewing_time"":7950.099999904633},{""page_index"":15,""viewing_time"":7725},{""page_index"":16,""viewing_time"":7009.100000143051},{""page_index"":17,""viewing_time"":8096}]","134710.70000004768","","","","","","","","","","","","","","","","","","","","","","","",""
"pit-trial","20","345108","0.0-2.0-8.0-0.0","battery-v0.2","","""event"",""trial"",""time""
""fullscreenenter"",""1"",""4935""
","
","
","""event"",""trial"",""time""
""fullscreenenter"",""1"",""4935""
","
","","","799.2000000476837","","","10","17123","6282","&#9776;","elianto","#3366ff99"," "," ","1","+10","[1650.1999998092651]","1","0","1","","","","","","","",""
"pit-trial","21","348630","0.0-2.0-8.0-1.0","battery-v0.2","","""event"",""trial"",""time""
""fullscreenenter"",""1"",""4935""
","
","
","""event"",""trial"",""time""
""fullscreenenter"",""1"",""4935""
","
","","","667.7999999523163","","","10","17123","6282","&#9776;","elianto","#3366ff99"," "," ","1","+10","[1518]","1","0","1","","","","","","","",""
"pit-trial","22","351979","0.0-2.0-8.0-2.0","battery-v0.2","","""event"",""trial"",""time""
""fullscreenenter"",""1"",""4935""
","
","
","""event"",""trial"",""time""
""fullscreenenter"",""1"",""4935""
","
","","","496.7999999523163","","","10","17123","6282","&#9776;","elianto","#3366ff99"," "," ","1","+10","[1347.2999999523163]","1","0","1","","","","","","","",""
"pit-trial","23","355467","0.0-2.0-8.0-3.0","battery-v0.2","","""event"",""trial"",""time""
""fullscreenenter"",""1"",""4935""
","
","
","""event"",""trial"",""time""
""fullscreenenter"",""1"",""4935""
","
","","","634.7000000476837","","","10","17123","6282","&#9776;","elianto","#3366ff99"," "," ","1","0","[1485.7000000476837,1632.2000000476837]","2","0","1","","","","","","","",""
"pit-trial","24","359114","0.0-2.0-8.0-4.0","battery-v0.2","","""event"",""trial"",""time""
""fullscreenenter"",""1"",""4935""
","
","
","""event"",""trial"",""time""
""fullscreenenter"",""1"",""4935""
","
","","","792.2000000476837","","","10","17123","6282","&#9776;","elianto","#3366ff99"," "," ","1","+10","[1643.4000000953674,1784.6000001430511]","2","0","1","","","","","","","",""
"pit-trial","25","362560","0.0-2.0-8.1-0.1","battery-v0.2","","""event"",""trial"",""time""
""fullscreenenter"",""1"",""4935""
","
","
","""event"",""trial"",""time""
""fullscreenenter"",""1"",""4935""
","
","","","590.5","","","10","17123","6282","&#9776;","elianto","#3366ff99"," "," ","1","+10","[1441.8999998569489,1575.5]","2","0","1","","","","","","","",""
"pit-trial","26","366024","0.0-2.0-8.1-1.1","battery-v0.2","","""event"",""trial"",""time""
""fullscreenenter"",""1"",""4935""
","
","
","""event"",""trial"",""time""
""fullscreenenter"",""1"",""4935""
","
","","","610.8999998569489","","","10","17123","6282","&#9776;","elianto","#3366ff99"," "," ","1","+10","[1461,1646]","2","0","1","","","","","","","",""
"pit-trial","27","370878","0.0-2.0-8.1-2.1","battery-v0.2","","""event"",""trial"",""time""
""fullscreenenter"",""1"",""4935""
","
","
","""event"",""trial"",""time""
""fullscreenenter"",""1"",""4935""
","
","","","-1","","","10","17123","6282","&#9776;","elianto","#3366ff99"," ","-1","0","0","[]","0","0","1","","","","","","","",""
"pit-trial","28","374401","0.0-2.0-8.1-3.1","battery-v0.2","","""event"",""trial"",""time""
""fullscreenenter"",""1"",""4935""
","
","
","""event"",""trial"",""time""
""fullscreenenter"",""1"",""4935""
","
","","","668.8999998569489","","","10","17123","6282","&#9776;","elianto","#3366ff99"," "," ","1","0","[1519.7999999523163,1645.2000000476837]","2","0","1","","","","","","","",""
"pit-trial","29","377550","0.0-2.0-8.1-4.1","battery-v0.2","","""event"",""trial"",""time""
""fullscreenenter"",""1"",""4935""
","
","
","""event"",""trial"",""time""
""fullscreenenter"",""1"",""4935""
","
","","","296.7999999523163","","","10","17123","6282","&#9776;","elianto","#3366ff99"," "," ","1","+10","[1147.4000000953674]","1","0","1","","","","","","","",""
"pit-trial","30","380949","0.0-2.0-8.2-0.2","battery-v0.2","","""event"",""trial"",""time""
""fullscreenenter"",""1"",""4935""
","
","
","""event"",""trial"",""time""
""fullscreenenter"",""1"",""4935""
","
","","","544.1000001430511","","","10","17123","6282","&#9776;","elianto","#3366ff99"," "," ","1","+10","[1395.4000000953674]","1","0","1","","","","","","","",""
"pit-trial","31","384393","0.0-2.0-8.2-1.2","battery-v0.2","","""event"",""trial"",""time""
""fullscreenenter"",""1"",""4935""
","
","
","""event"",""trial"",""time""
""fullscreenenter"",""1"",""4935""
","
","","","587.7000000476837","","","10","17123","6282","&#9776;","elianto","#3366ff99"," "," ","1","+10","[1439.5]","1","0","1","","","","","","","",""
"pit-trial","32","388020","0.0-2.0-8.2-2.2","battery-v0.2","","""event"",""trial"",""time""
""fullscreenenter"",""1"",""4935""
","
","
","""event"",""trial"",""time""
""fullscreenenter"",""1"",""4935""
","
","","","773.9000000953674","","","10","17123","6282","&#9776;","elianto","#3366ff99"," "," ","1","+10","[1624]","1","0","1","","","","","","","",""
"pit-trial","33","391507","0.0-2.0-8.2-3.2","battery-v0.2","","""event"",""trial"",""time""
""fullscreenenter"",""1"",""4935""
","
","
","""event"",""trial"",""time""
""fullscreenenter"",""1"",""4935""
","
","","","632.5999999046326","","","10","17123","6282","&#9776;","elianto","#3366ff99"," "," ","1","0","[1484,1658.9000000953674]","2","0","1","","","","","","","",""
"pit-trial","34","394839","0.0-2.0-8.2-4.2","battery-v0.2","","""event"",""trial"",""time""
""fullscreenenter"",""1"",""4935""
","
","
","""event"",""trial"",""time""
""fullscreenenter"",""1"",""4935""
","
","","","478","","","10","17123","6282","&#9776;","elianto","#3366ff99"," "," ","1","+10","[1328.6999998092651,1490.3999998569489]","2","0","1","","","","","","","",""
"call-function","35","394841","0.0-2.0-9.0","battery-v0.2","","""event"",""trial"",""time""
""fullscreenenter"",""1"",""4935""
","
","
","""event"",""trial"",""time""
""fullscreenenter"",""1"",""4935""
","
","","","","","","","","","","","","","","","","","","","","","","","","","","",""
"pit-instructions","36","450757","0.0-2.0-10.0","battery-v0.2","","""event"",""trial"",""time""
""fullscreenenter"",""1"",""4935""
","
","
","""event"",""trial"",""time""
""fullscreenenter"",""1"",""4935""
","
","","[{""page_index"":0,""viewing_time"":8214.299999952316},{""page_index"":1,""viewing_time"":7984.900000095367},{""page_index"":2,""viewing_time"":9654},{""page_index"":3,""viewing_time"":9763.900000095367},{""page_index"":4,""viewing_time"":20299}]","55916.299999952316","","","","","","","","","","","","","","","","","","","","","","","",""
"pit-trial","37","455613","0.0-2.0-11.0-0.0","battery-v0.2","","""event"",""trial"",""time""
""fullscreenenter"",""1"",""4935""
","
","
","""event"",""trial"",""time""
""fullscreenenter"",""1"",""4935""
","
","","","-1","","","10","17123","6282","&#9761;","elianto","#3366ff99","-1","-1","1","+10","[]","0","0","2","","","","","","","",""
"pit-trial","38","460467","0.0-2.0-11.0-1.0","battery-v0.2","","""event"",""trial"",""time""
""fullscreenenter"",""1"",""4935""
","
","
","""event"",""trial"",""time""
""fullscreenenter"",""1"",""4935""
","
","","","-1","","","10","17123","6282","&#9761;","elianto","#3366ff99","-1","-1","1","+10","[]","0","0","2","","","","","","","",""
"pit-trial","39","465321","0.0-2.0-11.0-2.0","battery-v0.2","","""event"",""trial"",""time""
""fullscreenenter"",""1"",""4935""
","
","
","""event"",""trial"",""time""
""fullscreenenter"",""1"",""4935""
","
","","","-1","","","10","17123","6282","&#9761;","elianto","#3366ff99","-1","-1","1","+10","[]","0","0","2","","","","","","","",""
"pit-trial","40","470175","0.0-2.0-11.0-3.0","battery-v0.2","","""event"",""trial"",""time""
""fullscreenenter"",""1"",""4935""
","
","
","""event"",""trial"",""time""
""fullscreenenter"",""1"",""4935""
","
","","","-1","","","10","17123","6282","&#9761;","elianto","#3366ff99","-1","-1","1","0","[]","0","0","2","","","","","","","",""
"pit-trial","41","475031","0.0-2.0-11.0-4.0","battery-v0.2","","""event"",""trial"",""time""
""fullscreenenter"",""1"",""4935""
","
","
","""event"",""trial"",""time""
""fullscreenenter"",""1"",""4935""
","
","","","-1","","","10","17123","6282","&#9761;","elianto","#3366ff99","-1","-1","1","+10","[]","0","0","2","","","","","","","",""
"pit-trial","42","479886","0.0-2.0-11.1-0.1","battery-v0.2","","""event"",""trial"",""time""
""fullscreenenter"",""1"",""4935""
","
","
","""event"",""trial"",""time""
""fullscreenenter"",""1"",""4935""
","
","","","-1","","","10","17123","6282","&#9761;","elianto","#3366ff99","-1","-1","1","+10","[]","0","0","2","","","","","","","",""
"pit-trial","43","484741","0.0-2.0-11.1-1.1","battery-v0.2","","""event"",""trial"",""time""
""fullscreenenter"",""1"",""4935""
","
","
","""event"",""trial"",""time""
""fullscreenenter"",""1"",""4935""
","
","","","-1","","","10","17123","6282","&#9761;","elianto","#3366ff99","-1","-1","1","+10","[]","0","0","2","","","","","","","",""
"pit-trial","44","489596","0.0-2.0-11.1-2.1","battery-v0.2","","""event"",""trial"",""time""
""fullscreenenter"",""1"",""4935""
","
","
","""event"",""trial"",""time""
""fullscreenenter"",""1"",""4935""
","
","","","-1","","","10","17123","6282","&#9761;","elianto","#3366ff99","-1","-1","1","+10","[]","0","0","2","","","","","","","",""
"pit-trial","45","493260","0.0-2.0-11.1-3.1","battery-v0.2","","""event"",""trial"",""time""
""fullscreenenter"",""1"",""4935""
","
","
","""event"",""trial"",""time""
""fullscreenenter"",""1"",""4935""
","
","","","810.7999999523163","","","10","17123","6282","&#9761;","elianto","#3366ff99","-1"," ","0","+10","[1661.7999999523163]","1","0","2","","","","","","","",""
"pit-trial","46","498116","0.0-2.0-11.1-4.1","battery-v0.2","","""event"",""trial"",""time""
""fullscreenenter"",""1"",""4935""
","
","
","""event"",""trial"",""time""
""fullscreenenter"",""1"",""4935""
","
","","","-1","","","10","17123","6282","&#9761;","elianto","#3366ff99","-1","-1","1","+10","[]","0","0","2","","","","","","","",""
"pit-trial","47","502970","0.0-2.0-11.2-0.2","battery-v0.2","","""event"",""trial"",""time""
""fullscreenenter"",""1"",""4935""
","
","
","""event"",""trial"",""time""
""fullscreenenter"",""1"",""4935""
","
","","","-1","","","10","17123","6282","&#9761;","elianto","#3366ff99","-1","-1","1","+10","[]","0","0","2","","","","","","","",""
"pit-trial","48","507011","0.0-2.0-11.2-1.2","battery-v0.2","","""event"",""trial"",""time""
""fullscreenenter"",""1"",""4935""
","
","
","""event"",""trial"",""time""
""fullscreenenter"",""1"",""4935""
","
","","","1188.4000000953674","","","10","17123","6282","&#9761;","elianto","#3366ff99","-1"," ","0","0","[2038.7999999523163]","1","0","2","","","","","","","",""
"pit-trial","49","511865","0.0-2.0-11.2-2.2","battery-v0.2","","""event"",""trial"",""time""
""fullscreenenter"",""1"",""4935""
","
","
","""event"",""trial"",""time""
""fullscreenenter"",""1"",""4935""
","
","","","-1","","","10","17123","6282","&#9761;","elianto","#3366ff99","-1","-1","1","+10","[]","0","0","2","","","","","","","",""
"pit-trial","50","516718","0.0-2.0-11.2-3.2","battery-v0.2","","""event"",""trial"",""time""
""fullscreenenter"",""1"",""4935""
","
","
","""event"",""trial"",""time""
""fullscreenenter"",""1"",""4935""
","
","","","-1","","","10","17123","6282","&#9761;","elianto","#3366ff99","-1","-1","1","0","[]","0","0","2","","","","","","","",""
"pit-trial","51","521574","0.0-2.0-11.2-4.2","battery-v0.2","","""event"",""trial"",""time""
""fullscreenenter"",""1"",""4935""
","
","
","""event"",""trial"",""time""
""fullscreenenter"",""1"",""4935""
","
","","","-1","","","10","17123","6282","&#9761;","elianto","#3366ff99","-1","-1","1","+10","[]","0","0","2","","","","","","","",""
"pit-trial","52","526429","0.0-2.0-11.3-0.3","battery-v0.2","","""event"",""trial"",""time""
""fullscreenenter"",""1"",""4935""
","
","
","""event"",""trial"",""time""
""fullscreenenter"",""1"",""4935""
","
","","","-1","","","10","17123","6282","&#9761;","elianto","#3366ff99","-1","-1","1","+10","[]","0","0","2","","","","","","","",""
"pit-trial","53","531284","0.0-2.0-11.3-1.3","battery-v0.2","","""event"",""trial"",""time""
""fullscreenenter"",""1"",""4935""
","
","
","""event"",""trial"",""time""
""fullscreenenter"",""1"",""4935""
","
","","","-1","","","10","17123","6282","&#9761;","elianto","#3366ff99","-1","-1","1","+10","[]","0","0","2","","","","","","","",""
"pit-trial","54","536139","0.0-2.0-11.3-2.3","battery-v0.2","","""event"",""trial"",""time""
""fullscreenenter"",""1"",""4935""
","
","
","""event"",""trial"",""time""
""fullscreenenter"",""1"",""4935""
","
","","","-1","","","10","17123","6282","&#9761;","elianto","#3366ff99","-1","-1","1","+10","[]","0","0","2","","","","","","","",""
"pit-trial","55","540994","0.0-2.0-11.3-3.3","battery-v0.2","","""event"",""trial"",""time""
""fullscreenenter"",""1"",""4935""
","
","
","""event"",""trial"",""time""
""fullscreenenter"",""1"",""4935""
","
","","","-1","","","10","17123","6282","&#9761;","elianto","#3366ff99","-1","-1","1","0","[]","0","0","2","","","","","","","",""
"pit-trial","56","545849","0.0-2.0-11.3-4.3","battery-v0.2","","""event"",""trial"",""time""
""fullscreenenter"",""1"",""4935""
","
","
","""event"",""trial"",""time""
""fullscreenenter"",""1"",""4935""
","
","","","-1","","","10","17123","6282","&#9761;","elianto","#3366ff99","-1","-1","1","+10","[]","0","0","2","","","","","","","",""
"call-function","57","545851","0.0-2.0-12.0","battery-v0.2","","""event"",""trial"",""time""
""fullscreenenter"",""1"",""4935""
","
","
","""event"",""trial"",""time""
""fullscreenenter"",""1"",""4935""
","
","","","","","","","","","","","","","","","","","","","","","","","","","","",""
"pit-instructions","58","586867","0.0-2.0-13.0","battery-v0.2","","""event"",""trial"",""time""
""fullscreenenter"",""1"",""4935""
","
","
","""event"",""trial"",""time""
""fullscreenenter"",""1"",""4935""
","
","","[{""page_index"":0,""viewing_time"":8385.600000143051},{""page_index"":1,""viewing_time"":7902.799999952316},{""page_index"":2,""viewing_time"":4048},{""page_index"":3,""viewing_time"":14932.200000047684},{""page_index"":4,""viewing_time"":5747.399999856949}]","41016.40000009537","","","","","","","","","","","","","","","","","","","","","","","",""
"pit-trial","59","591721","0.0-2.0-14.0-0.0","battery-v0.2","","""event"",""trial"",""time""
""fullscreenenter"",""1"",""4935""
","
","
","""event"",""trial"",""time""
""fullscreenenter"",""1"",""4935""
","
","","","-1","","","10","17123","6282","&#9826;","elianto","#f73b6a7A","-1","-1","1","0","[]","0","0","3","","","","","","","",""
"pit-trial","60","596575","0.0-2.0-14.0-1.0","battery-v0.2","","""event"",""trial"",""time""
""fullscreenenter"",""1"",""4935""
","
","
","""event"",""trial"",""time""
""fullscreenenter"",""1"",""4935""
","
","","","-1","","","10","17123","6282","&#9826;","elianto","#f73b6a7A","-1","-1","1","0","[]","0","0","3","","","","","","","",""
"pit-trial","61","601429","0.0-2.0-14.0-2.0","battery-v0.2","","""event"",""trial"",""time""
""fullscreenenter"",""1"",""4935""
","
","
","""event"",""trial"",""time""
""fullscreenenter"",""1"",""4935""
","
","","","-1","","","10","17123","6282","&#9826;","elianto","#f73b6a7A","-1","-1","1","0","[]","0","0","3","","","","","","","",""
"pit-trial","62","605096","0.0-2.0-14.0-3.0","battery-v0.2","","""event"",""trial"",""time""
""fullscreenenter"",""1"",""4935""
","
","
","""event"",""trial"",""time""
""fullscreenenter"",""1"",""4935""
","
","","","812.7000000476837","","","10","17123","6282","&#9826;","elianto","#f73b6a7A","-1"," ","0","0","[1663.6999998092651]","1","0","3","","","","","","","",""
"pit-trial","63","609950","0.0-2.0-14.0-4.0","battery-v0.2","","""event"",""trial"",""time""
""fullscreenenter"",""1"",""4935""
","
","
","""event"",""trial"",""time""
""fullscreenenter"",""1"",""4935""
","
","","","-1","","","10","17123","6282","&#9826;","elianto","#f73b6a7A","-1","-1","1","0","[]","0","0","3","","","","","","","",""
"pit-trial","64","614806","0.0-2.0-14.1-0.1","battery-v0.2","","""event"",""trial"",""time""
""fullscreenenter"",""1"",""4935""
","
","
","""event"",""trial"",""time""
""fullscreenenter"",""1"",""4935""
","
","","","-1","","","10","17123","6282","&#9826;","elianto","#f73b6a7A","-1","-1","1","0","[]","0","0","3","","","","","","","",""
"pit-trial","65","619661","0.0-2.0-14.1-1.1","battery-v0.2","","""event"",""trial"",""time""
""fullscreenenter"",""1"",""4935""
","
","
","""event"",""trial"",""time""
""fullscreenenter"",""1"",""4935""
","
","","","-1","","","10","17123","6282","&#9826;","elianto","#f73b6a7A","-1","-1","1","0","[]","0","0","3","","","","","","","",""
"pit-trial","66","623601","0.0-2.0-14.1-2.1","battery-v0.2","","""event"",""trial"",""time""
""fullscreenenter"",""1"",""4935""
","
","
","""event"",""trial"",""time""
""fullscreenenter"",""1"",""4935""
","
","","","1086.1000001430511","","","10","17123","6282","&#9826;","elianto","#f73b6a7A","-1"," ","0","-10","[1936.7999999523163]","1","0","3","","","","","","","",""
"pit-trial","67","628456","0.0-2.0-14.1-3.1","battery-v0.2","","""event"",""trial"",""time""
""fullscreenenter"",""1"",""4935""
","
","
","""event"",""trial"",""time""
""fullscreenenter"",""1"",""4935""
","
","","","-1","","","10","17123","6282","&#9826;","elianto","#f73b6a7A","-1","-1","1","-10","[]","0","0","3","","","","","","","",""
"pit-trial","68","632109","0.0-2.0-14.1-4.1","battery-v0.2","","""event"",""trial"",""time""
""fullscreenenter"",""1"",""4935""
","
","
","""event"",""trial"",""time""
""fullscreenenter"",""1"",""4935""
","
","","","799.2999999523163","","","10","17123","6282","&#9826;","elianto","#f73b6a7A","-1"," ","0","-10","[1650.2000000476837]","1","0","3","","","","","","","",""
"pit-trial","69","637136","0.0-2.0-14.2-0.2","battery-v0.2","","""event"",""trial"",""time""
""fullscreenenter"",""1"",""4935""
","
","
","""event"",""trial"",""time""
""fullscreenenter"",""1"",""4935""
","
","","","-1","","","10","17123","6282","&#9826;","elianto","#f73b6a7A","-1","-1","1","0","[]","0","0","3","","","","","","","",""
"pit-trial","70","641991","0.0-2.0-14.2-1.2","battery-v0.2","","""event"",""trial"",""time""
""fullscreenenter"",""1"",""4935""
","
","
","""event"",""trial"",""time""
""fullscreenenter"",""1"",""4935""
","
","","","-1","","","10","17123","6282","&#9826;","elianto","#f73b6a7A","-1","-1","1","0","[]","0","0","3","","","","","","","",""
"pit-trial","71","646846","0.0-2.0-14.2-2.2","battery-v0.2","","""event"",""trial"",""time""
""fullscreenenter"",""1"",""4935""
","
","
","""event"",""trial"",""time""
""fullscreenenter"",""1"",""4935""
","
","","","-1","","","10","17123","6282","&#9826;","elianto","#f73b6a7A","-1","-1","1","0","[]","0","0","3","","","","","","","",""
"pit-trial","72","651700","0.0-2.0-14.2-3.2","battery-v0.2","","""event"",""trial"",""time""
""fullscreenenter"",""1"",""4935""
","
","
","""event"",""trial"",""time""
""fullscreenenter"",""1"",""4935""
","
","","","-1","","","10","17123","6282","&#9826;","elianto","#f73b6a7A","-1","-1","1","-10","[]","0","0","3","","","","","","","",""
"pit-trial","73","656554","0.0-2.0-14.2-4.2","battery-v0.2","","""event"",""trial"",""time""
""fullscreenenter"",""1"",""4935""
","
","
","""event"",""trial"",""time""
""fullscreenenter"",""1"",""4935""
","
","","","-1","","","10","17123","6282","&#9826;","elianto","#f73b6a7A","-1","-1","1","0","[]","0","0","3","","","","","","","",""
"pit-trial","74","661411","0.0-2.0-14.3-0.3","battery-v0.2","","""event"",""trial"",""time""
""fullscreenenter"",""1"",""4935""
","
","
","""event"",""trial"",""time""
""fullscreenenter"",""1"",""4935""
","
","","","-1","","","10","17123","6282","&#9826;","elianto","#f73b6a7A","-1","-1","1","0","[]","0","0","3","","","","","","","",""
"pit-trial","75","666265","0.0-2.0-14.3-1.3","battery-v0.2","","""event"",""trial"",""time""
""fullscreenenter"",""1"",""4935""
","
","
","""event"",""trial"",""time""
""fullscreenenter"",""1"",""4935""
","
","","","-1","","","10","17123","6282","&#9826;","elianto","#f73b6a7A","-1","-1","1","0","[]","0","0","3","","","","","","","",""
"pit-trial","76","671119","0.0-2.0-14.3-2.3","battery-v0.2","","""event"",""trial"",""time""
""fullscreenenter"",""1"",""4935""
","
","
","""event"",""trial"",""time""
""fullscreenenter"",""1"",""4935""
","
","","","-1","","","10","17123","6282","&#9826;","elianto","#f73b6a7A","-1","-1","1","0","[]","0","0","3","","","","","","","",""
"pit-trial","77","675974","0.0-2.0-14.3-3.3","battery-v0.2","","""event"",""trial"",""time""
""fullscreenenter"",""1"",""4935""
","
","
","""event"",""trial"",""time""
""fullscreenenter"",""1"",""4935""
","
","","","-1","","","10","17123","6282","&#9826;","elianto","#f73b6a7A","-1","-1","1","-10","[589.7999999523163]","1","0","3","","","","","","","",""
"pit-trial","78","680828","0.0-2.0-14.3-4.3","battery-v0.2","","""event"",""trial"",""time""
""fullscreenenter"",""1"",""4935""
","
","
","""event"",""trial"",""time""
""fullscreenenter"",""1"",""4935""
","
","","","-1","","","10","17123","6282","&#9826;","elianto","#f73b6a7A","-1","-1","1","0","[573.2000000476837]","1","0","3","","","","","","","",""
"call-function","79","680830","0.0-2.0-15.0","battery-v0.2","","""event"",""trial"",""time""
""fullscreenenter"",""1"",""4935""
","
","
","""event"",""trial"",""time""
""fullscreenenter"",""1"",""4935""
","
","","","","","","","","","","","","","","","","","","","","","","","","","","",""
"pit-instructions","80","740500","0.0-2.0-16.0","battery-v0.2","","""event"",""trial"",""time""
""fullscreenenter"",""1"",""4935""
","
","
","""event"",""trial"",""time""
""fullscreenenter"",""1"",""4935""
","
","","[{""page_index"":0,""viewing_time"":9041.400000095367},{""page_index"":1,""viewing_time"":22655.89999985695},{""page_index"":2,""viewing_time"":23520.5},{""page_index"":3,""viewing_time"":4450.299999952316}]","59668.40000009537","","","","","","","","","","","","","","","","","","","","","","","",""
"pit-trial","81","743979","0.0-2.0-17.0-0.0","battery-v0.2","","""event"",""trial"",""time""
""fullscreenenter"",""1"",""4935""
","
","
","""event"",""trial"",""time""
""fullscreenenter"",""1"",""4935""
","
","","","625.4000000953674","","","10","17123","6282","&#9789;","elianto","#f73b6a7A"," "," ","1","0","[1476.1000001430511]","1","0","4","","","","","","","",""
"pit-trial","82","747186","0.0-2.0-17.0-1.0","battery-v0.2","","""event"",""trial"",""time""
""fullscreenenter"",""1"",""4935""
","
","
","""event"",""trial"",""time""
""fullscreenenter"",""1"",""4935""
","
","","","351.40000009536743","","","10","17123","6282","&#9789;","elianto","#f73b6a7A"," "," ","1","0","[1202.7999999523163]","1","0","4","","","","","","","",""
"pit-trial","83","750453","0.0-2.0-17.0-2.0","battery-v0.2","","""event"",""trial"",""time""
""fullscreenenter"",""1"",""4935""
","
","
","""event"",""trial"",""time""
""fullscreenenter"",""1"",""4935""
","
","","","411.90000009536743","","","10","17123","6282","&#9789;","elianto","#f73b6a7A"," "," ","1","0","[1263.1000001430511,1489.9000000953674]","2","0","4","","","","","","","",""
"pit-trial","84","755307","0.0-2.0-17.0-3.0","battery-v0.2","","""event"",""trial"",""time""
""fullscreenenter"",""1"",""4935""
","
","
","""event"",""trial"",""time""
""fullscreenenter"",""1"",""4935""
","
","","","-1","","","10","17123","6282","&#9789;","elianto","#f73b6a7A"," ","-1","0","0","[]","0","0","4","","","","","","","",""
"pit-trial","85","758693","0.0-2.0-17.0-4.0","battery-v0.2","","""event"",""trial"",""time""
""fullscreenenter"",""1"",""4935""
","
","
","""event"",""trial"",""time""
""fullscreenenter"",""1"",""4935""
","
","","","532.1000001430511","","","10","17123","6282","&#9789;","elianto","#f73b6a7A"," "," ","1","0","[1382.6000001430511]","1","0","4","","","","","","","",""
"pit-trial","86","761921","0.0-2.0-17.1-0.1","battery-v0.2","","""event"",""trial"",""time""
""fullscreenenter"",""1"",""4935""
","
","
","""event"",""trial"",""time""
""fullscreenenter"",""1"",""4935""
","
","","","373.39999985694885","","","10","17123","6282","&#9789;","elianto","#f73b6a7A"," "," ","1","0","[1224.5,1413.1000001430511]","2","0","4","","","","","","","",""
"pit-trial","87","765405","0.0-2.0-17.1-1.1","battery-v0.2","","""event"",""trial"",""time""
""fullscreenenter"",""1"",""4935""
","
","
","""event"",""trial"",""time""
""fullscreenenter"",""1"",""4935""
","
","","","628.2000000476837","","","10","17123","6282","&#9789;","elianto","#f73b6a7A"," "," ","1","0","[1480.1000001430511]","1","0","4","","","","","","","",""
"pit-trial","88","768592","0.0-2.0-17.1-2.1","battery-v0.2","","""event"",""trial"",""time""
""fullscreenenter"",""1"",""4935""
","
","
","""event"",""trial"",""time""
""fullscreenenter"",""1"",""4935""
","
","","","333.09999990463257","","","10","17123","6282","&#9789;","elianto","#f73b6a7A"," "," ","1","0","[1183.7000000476837]","1","0","4","","","","","","","",""
"pit-trial","89","771771","0.0-2.0-17.1-3.1","battery-v0.2","","""event"",""trial"",""time""
""fullscreenenter"",""1"",""4935""
","
","
","""event"",""trial"",""time""
""fullscreenenter"",""1"",""4935""
","
","","","325","","","10","17123","6282","&#9789;","elianto","#f73b6a7A"," "," ","1","-10","[1176]","1","0","4","","","","","","","",""
"pit-trial","90","774749","0.0-2.0-17.1-4.1","battery-v0.2","","""event"",""trial"",""time""
""fullscreenenter"",""1"",""4935""
","
","
","""event"",""trial"",""time""
""fullscreenenter"",""1"",""4935""
","
","","","123.59999990463257","","","10","17123","6282","&#9789;","elianto","#f73b6a7A"," "," ","1","0","[975,2683.0999999046326]","2","0","4","","","","","","","",""
"pit-trial","91","777648","0.0-2.0-17.2-0.2","battery-v0.2","","""event"",""trial"",""time""
""fullscreenenter"",""1"",""4935""
","
","
","""event"",""trial"",""time""
""fullscreenenter"",""1"",""4935""
","
","","","43.5","","","10","17123","6282","&#9789;","elianto","#f73b6a7A"," "," ","1","0","[10.200000047683716,201.29999995231628,388.5,763.2999999523163,894.5,1495.9000000953674,1588.7999999523163,1758,1958.2000000476837,2151.7999999523163,2348.2999999523163,2723.7999999523163]","12","0","4","","","","","","","",""
"pit-trial","92","780688","0.0-2.0-17.2-1.2","battery-v0.2","","""event"",""trial"",""time""
""fullscreenenter"",""1"",""4935""
","
","
","""event"",""trial"",""time""
""fullscreenenter"",""1"",""4935""
","
","","","187.09999990463257","","","10","17123","6282","&#9789;","elianto","#f73b6a7A"," "," ","1","0","[155.5,662.8999998569489,1038.1999998092651,1382.5,1705.2999999523163,1987.5999999046326,2312.399999856949,2606.7999999523163,2945.199999809265]","9","0","4","","","","","","","",""
"pit-trial","93","783607","0.0-2.0-17.2-2.2","battery-v0.2","","""event"",""trial"",""time""
""fullscreenenter"",""1"",""4935""
","
","
","""event"",""trial"",""time""
""fullscreenenter"",""1"",""4935""
","
","","","64.90000009536743","","","10","17123","6282","&#9789;","elianto","#f73b6a7A"," "," ","1","0","[261.09999990463257,577.0999999046326,915.6999998092651,1291.0999999046326,1591,2128.899999856949,2356,2896.199999809265]","8","0","4","","","","","","","",""
"pit-trial","94","786631","0.0-2.0-17.2-3.2","battery-v0.2","","""event"",""trial"",""time""
""fullscreenenter"",""1"",""4935""
","
","
","""event"",""trial"",""time""
""fullscreenenter"",""1"",""4935""
","
","","","170","","","10","17123","6282","&#9789;","elianto","#f73b6a7A"," "," ","1","-10","[251.40000009536743,576.8000001907349,773.4000000953674,1021.1000001430511,1385.9000000953674,1534.1000001430511,1735,1915.7000000476837,2050.600000143051,2200.800000190735,2363.5,2526.9000000953674,2682.9000000953674,2844.800000190735]","14","0","4","","","","","","","",""
"pit-trial","95","789563","0.0-2.0-17.2-4.2","battery-v0.2","","""event"",""trial"",""time""
""fullscreenenter"",""1"",""4935""
","
","
","""event"",""trial"",""time""
""fullscreenenter"",""1"",""4935""
","
","","","77.89999985694885","","","10","17123","6282","&#9789;","elianto","#f73b6a7A"," "," ","1","0","[0.09999990463256836,188.79999995231628,367.7999999523163,556.8999998569489,738.2000000476837,929.5,1118.3999998569489,1312.7999999523163,1510.5999999046326,1715,1908.5,2079.7000000476837,2262.7000000476837,2458.5999999046326,2629.7000000476837,2822.899999856949]","16","0","4","","","","","","","",""
"pit-trial","96","792856","0.0-2.0-17.3-0.3","battery-v0.2","","""event"",""trial"",""time""
""fullscreenenter"",""1"",""4935""
","
","
","""event"",""trial"",""time""
""fullscreenenter"",""1"",""4935""
","
","","","437.7999999523163","","","10","17123","6282","&#9789;","elianto","#f73b6a7A"," "," ","1","0","[280.2999999523163,464.7000000476837,664.5999999046326,1288.7000000476837]","4","0","4","","","","","","","",""
"pit-trial","97","795920","0.0-2.0-17.3-1.3","battery-v0.2","","""event"",""trial"",""time""
""fullscreenenter"",""1"",""4935""
","
","
","""event"",""trial"",""time""
""fullscreenenter"",""1"",""4935""
","
","","","209.5","","","10","17123","6282","&#9789;","elianto","#f73b6a7A"," "," ","1","0","[1061.7000000476837]","1","0","4","","","","","","","",""
"pit-trial","98","799097","0.0-2.0-17.3-2.3","battery-v0.2","","""event"",""trial"",""time""
""fullscreenenter"",""1"",""4935""
","
","
","""event"",""trial"",""time""
""fullscreenenter"",""1"",""4935""
","
","","","322.09999990463257","","","10","17123","6282","&#9789;","elianto","#f73b6a7A"," "," ","1","0","[1173.5]","1","0","4","","","","","","","",""
"pit-trial","99","802174","0.0-2.0-17.3-3.3","battery-v0.2","","""event"",""trial"",""time""
""fullscreenenter"",""1"",""4935""
","
","
","""event"",""trial"",""time""
""fullscreenenter"",""1"",""4935""
","
","","","222.59999990463257","","","10","17123","6282","&#9789;","elianto","#f73b6a7A"," "," ","1","-10","[1073.6000001430511,2452.5]","2","0","4","","","","","","","",""
"pit-trial","100","805680","0.0-2.0-17.3-4.3","battery-v0.2","","""event"",""trial"",""time""
""fullscreenenter"",""1"",""4935""
","
","
","""event"",""trial"",""time""
""fullscreenenter"",""1"",""4935""
","
","","","650.6000001430511","","","10","17123","6282","&#9789;","elianto","#f73b6a7A"," "," ","1","0","[1503.0999999046326]","1","0","4","","","","","","","",""
"call-function","101","805681","0.0-2.0-18.0","battery-v0.2","","""event"",""trial"",""time""
""fullscreenenter"",""1"",""4935""
","
","
","""event"",""trial"",""time""
""fullscreenenter"",""1"",""4935""
","
","","","","","","","","","","","","","","","","","","","","","","","","","","",""
"pit-instructions","102","885870","0.0-2.0-19.0","battery-v0.2","","""event"",""trial"",""time""
""fullscreenenter"",""1"",""4935""
","
","
","""event"",""trial"",""time""
""fullscreenenter"",""1"",""4935""
","
","","[{""page_index"":0,""viewing_time"":9773.400000095367},{""page_index"":1,""viewing_time"":6974.199999809265},{""page_index"":2,""viewing_time"":14908.400000095367},{""page_index"":3,""viewing_time"":8514},{""page_index"":4,""viewing_time"":9640.200000047684},{""page_index"":5,""viewing_time"":10042.200000047684},{""page_index"":6,""viewing_time"":8763.5},{""page_index"":7,""viewing_time"":6749.699999809265},{""page_index"":8,""viewing_time"":4821.100000143051}]","80187.09999990463","","","","","","","","","","","","","","","","","","","","","","","",""
"pit-comprehension","103","895583","0.0-2.0-20.0-0.0","battery-v0.2","","""event"",""trial"",""time""
""fullscreenenter"",""1"",""4935""
","
","
","""event"",""trial"",""time""
""fullscreenenter"",""1"",""4935""
","
","","","9709.799999952316","[""SPACE""]","0","10","17123","6282","","","","","","","","","","","","","","","","","","",""
"pit-instructions","104","899339","0.0-2.0-20.0-1.0","battery-v0.2","","""event"",""trial"",""time""
""fullscreenenter"",""1"",""4935""
","
","
","""event"",""trial"",""time""
""fullscreenenter"",""1"",""4935""
","
","","[{""page_index"":0,""viewing_time"":3719.2000000476837}]","3719.5999999046326","","","","","","","","","","","","","","","","","","","","","","","",""
"pit-comprehension","105","911531","0.0-2.0-21.0-0.0","battery-v0.2","","""event"",""trial"",""time""
""fullscreenenter"",""1"",""4935""
","
","
","""event"",""trial"",""time""
""fullscreenenter"",""1"",""4935""
","
","","","12189.700000047684","[""10""]","0","10","17123","6282","","","","","","","","","","","","","","","","","","",""
"pit-instructions","106","912984","0.0-2.0-21.0-1.0","battery-v0.2","","""event"",""trial"",""time""
""fullscreenenter"",""1"",""4935""
","
","
","""event"",""trial"",""time""
""fullscreenenter"",""1"",""4935""
","
","","[{""page_index"":0,""viewing_time"":1422.2000000476837}]","1422.5","","","","","","","","","","","","","","","","","","","","","","","",""
"pit-comprehension","107","922595","0.0-2.0-22.0-0.0","battery-v0.2","","""event"",""trial"",""time""
""fullscreenenter"",""1"",""4935""
","
","
","""event"",""trial"",""time""
""fullscreenenter"",""1"",""4935""
","
","","","9609.099999904633","[""0""]","0","10","17123","6282","","","","","","","","","","","","","","","","","","",""
"pit-instructions","108","924179","0.0-2.0-22.0-1.0","battery-v0.2","","""event"",""trial"",""time""
""fullscreenenter"",""1"",""4935""
","
","
","""event"",""trial"",""time""
""fullscreenenter"",""1"",""4935""
","
","","[{""page_index"":0,""viewing_time"":1548}]","1548.1999998092651","","","","","","","","","","","","","","","","","","","","","","","",""
"pit-comprehension","109","935920","0.0-2.0-23.0-0.0","battery-v0.2","","""event"",""trial"",""time""
""fullscreenenter"",""1"",""4935""
","
","
","""event"",""trial"",""time""
""fullscreenenter"",""1"",""4935""
","
","","","11738.400000095367","[""False""]","1","10","17123","6282","","","","","","","","","","","","","","","","","","",""
"pit-instructions","110","946371","0.0-2.0-23.0-1.0","battery-v0.2","","""event"",""trial"",""time""
""fullscreenenter"",""1"",""4935""
","
","
","""event"",""trial"",""time""
""fullscreenenter"",""1"",""4935""
","
","","[{""page_index"":0,""viewing_time"":10419.400000095367}]","10419.700000047684","","","","","","","","","","","","","","","","","","","","","","","",""
"pit-instructions","111","947914","0.0-2.0-23.0-2.0-0.0","battery-v0.2","","""event"",""trial"",""time""
""fullscreenenter"",""1"",""4935""
","
","
","""event"",""trial"",""time""
""fullscreenenter"",""1"",""4935""
","
","","[{""page_index"":0,""viewing_time"":1541.7000000476837}]","1542","","","","","","","","","","","","","","","","","","","","","","","",""
"pit-comprehension","112","962663","0.0-2.0-23.1-0.1","battery-v0.2","","""event"",""trial"",""time""
""fullscreenenter"",""1"",""4935""
","
","
","""event"",""trial"",""time""
""fullscreenenter"",""1"",""4935""
","
","","","14746.299999952316","[""True""]","0","10","17123","6282","","","","","","","","","","","","","","","","","","",""
"pit-instructions","113","964945","0.0-2.0-23.1-1.1","battery-v0.2","","""event"",""trial"",""time""
""fullscreenenter"",""1"",""4935""
","
","
","""event"",""trial"",""time""
""fullscreenenter"",""1"",""4935""
","
","","[{""page_index"":0,""viewing_time"":2247.7000000476837}]","2248.0999999046326","","","","","","","","","","","","","","","","","","","","","","","",""
"pit-comprehension","114","977405","0.0-2.0-24.0-0.0","battery-v0.2","","""event"",""trial"",""time""
""fullscreenenter"",""1"",""4935""
","
","
","""event"",""trial"",""time""
""fullscreenenter"",""1"",""4935""
","
","","","12458","[""True""]","0","10","17123","6282","","","","","","","","","","","","","","","","","","",""
"pit-instructions","115","978827","0.0-2.0-24.0-1.0","battery-v0.2","","""event"",""trial"",""time""
""fullscreenenter"",""1"",""4935""
","
","
","""event"",""trial"",""time""
""fullscreenenter"",""1"",""4935""
","
","","[{""page_index"":0,""viewing_time"":1390.5}]","1390.7999999523163","","","","","","","","","","","","","","","","","","","","","","","",""
"pit-comprehension","116","987191","0.0-2.0-25.0-0.0","battery-v0.2","","""event"",""trial"",""time""
""fullscreenenter"",""1"",""4935""
","
","
","""event"",""trial"",""time""
""fullscreenenter"",""1"",""4935""
","
","","","8361.299999952316","[""True""]","0","10","17123","6282","","","","","","","","","","","","","","","","","","",""
"pit-instructions","117","989242","0.0-2.0-25.0-1.0","battery-v0.2","","""event"",""trial"",""time""
""fullscreenenter"",""1"",""4935""
","
","
","""event"",""trial"",""time""
""fullscreenenter"",""1"",""4935""
","
","","[{""page_index"":0,""viewing_time"":2016.2999999523163}]","2016.7000000476837","","","","","","","","","","","","","","","","","","","","","","","",""
"pit-comprehension","118","997456","0.0-2.0-26.0-0.0","battery-v0.2","","""event"",""trial"",""time""
""fullscreenenter"",""1"",""4935""
","
","
","""event"",""trial"",""time""
""fullscreenenter"",""1"",""4935""
","
","","","8211","[""False""]","0","10","17123","6282","","","","","","","","","","","","","","","","","","",""
"pit-instructions","119","1002496","0.0-2.0-26.0-1.0","battery-v0.2","","""event"",""trial"",""time""
""fullscreenenter"",""1"",""4935""
","
","
","""event"",""trial"",""time""
""fullscreenenter"",""1"",""4935""
","
","","[{""page_index"":0,""viewing_time"":5007.099999904633}]","5007.400000095367","","","","","","","","","","","","","","","","","","","","","","","",""
"pit-instructions","120","1026769","0.0-3.0","battery-v0.2","","""event"",""trial"",""time""
""fullscreenenter"",""1"",""4935""
","
","
","""event"",""trial"",""time""
""fullscreenenter"",""1"",""4935""
","
","","[{""page_index"":0,""viewing_time"":10560.699999809265},{""page_index"":1,""viewing_time"":5593.800000190735},{""page_index"":2,""viewing_time"":8116.399999856949}]","24271.199999809265","","","","","","","","","","","","","","","","","","","","","","","",""
"pit-trial","121","1030297","0.0-4.0","battery-v0.2","","""event"",""trial"",""time""
""fullscreenenter"",""1"",""4935""
","
","
","""event"",""trial"",""time""
""fullscreenenter"",""1"",""4935""
","
","","","671.5","","","10","17123","6282","&#9730;","elianto","#3366ff99"," "," ","1","+10","[1522.5999999046326]","1","1","","","17123","1","1","1","win","go","0"
"pit-trial","122","1035153","0.0-5.0","battery-v0.2","","""event"",""trial"",""time""
""fullscreenenter"",""1"",""4935""
","
","
","""event"",""trial"",""time""
""fullscreenenter"",""1"",""4935""
","
","","","-1","","","10","17123","6282","&#9752;","elianto","#f73b6a7A"," ","-1","0","0","[]","0","1","","","17123","2","3","3","lose","go","1"
"pit-trial","123","1039228","0.0-6.0","battery-v0.2","","""event"",""trial"",""time""
""fullscreenenter"",""1"",""4935""
","
","
","""event"",""trial"",""time""
""fullscreenenter"",""1"",""4935""
","
","","","1219.5","","","10","17123","6282","&#9733;","elianto","#3366ff99","-1"," ","0","+10","[2071.7999999523163]","1","1","","","17123","3","2","2","win","no-go","1"
"pit-trial","124","1044084","0.0-7.0","battery-v0.2","","""event"",""trial"",""time""
""fullscreenenter"",""1"",""4935""
","
","
","""event"",""trial"",""time""
""fullscreenenter"",""1"",""4935""
","
","","","-1","","","10","17123","6282","&#9728;","elianto","#f73b6a7A","-1","-1","1","-10","[]","0","1","","","17123","4","0","4","lose","no-go","1"
"pit-trial","125","1047589","0.0-8.0","battery-v0.2","","""event"",""trial"",""time""
""fullscreenenter"",""1"",""4935""
","
","
","""event"",""trial"",""time""
""fullscreenenter"",""1"",""4935""
","
","","","651.5","","","10","17123","6282","&#9730;","elianto","#3366ff99"," "," ","1","+10","[1502.3999998569489]","1","1","","","17123","5","1","1","win","go","0"
"pit-trial","126","1052444","0.0-9.0","battery-v0.2","","""event"",""trial"",""time""
""fullscreenenter"",""1"",""4935""
","
","
","""event"",""trial"",""time""
""fullscreenenter"",""1"",""4935""
","
","","","-1","","","10","17123","6282","&#9752;","elianto","#f73b6a7A"," ","-1","0","-10","[]","0","1","","","17123","6","3","3","lose","go","0"
"pit-trial","127","1056154","0.0-10.0","battery-v0.2","","""event"",""trial"",""time""
""fullscreenenter"",""1"",""4935""
","
","
","""event"",""trial"",""time""
""fullscreenenter"",""1"",""4935""
","
","","","855.6000001430511","","","10","17123","6282","&#9733;","elianto","#3366ff99","-1"," ","0","0","[1706.7000000476837]","1","1","","","17123","7","2","2","win","no-go","0"
"pit-trial","128","1059755","0.0-11.0","battery-v0.2","","""event"",""trial"",""time""
""fullscreenenter"",""1"",""4935""
","
","
","""event"",""trial"",""time""
""fullscreenenter"",""1"",""4935""
","
","","","745.9000000953674","","","10","17123","6282","&#9728;","elianto","#f73b6a7A","-1"," ","0","0","[1597.6999998092651]","1","1","","","17123","8","0","4","lose","no-go","1"
"pit-trial","129","1064610","0.0-12.0","battery-v0.2","","""event"",""trial"",""time""
""fullscreenenter"",""1"",""4935""
","
","
","""event"",""trial"",""time""
""fullscreenenter"",""1"",""4935""
","
","","","-1","","","10","17123","6282","&#9752;","elianto","#f73b6a7A"," ","-1","0","0","[]","0","1","","","17123","9","3","3","lose","go","1"
"pit-trial","130","1068837","0.0-13.0","battery-v0.2","","""event"",""trial"",""time""
""fullscreenenter"",""1"",""4935""
","
","
","""event"",""trial"",""time""
""fullscreenenter"",""1"",""4935""
","
","","","1373.7999999523163","","","10","17123","6282","&#9728;","elianto","#f73b6a7A","-1"," ","0","-10","[2224.7999999523163]","1","1","","","17123","10","0","4","lose","no-go","0"
"pit-trial","131","1073692","0.0-14.0","battery-v0.2","","""event"",""trial"",""time""
""fullscreenenter"",""1"",""4935""
","
","
","""event"",""trial"",""time""
""fullscreenenter"",""1"",""4935""
","
","","","-1","","","10","17123","6282","&#9733;","elianto","#3366ff99","-1","-1","1","+10","[]","0","1","","","17123","11","2","2","win","no-go","0"
"pit-trial","132","1077147","0.0-15.0","battery-v0.2","","""event"",""trial"",""time""
""fullscreenenter"",""1"",""4935""
","
","
","""event"",""trial"",""time""
""fullscreenenter"",""1"",""4935""
","
","","","600.8999998569489","","","10","17123","6282","&#9730;","elianto","#3366ff99"," "," ","1","+10","[1451.3999998569489]","1","1","","","17123","12","1","1","win","go","0"
"pit-trial","133","1081677","0.0-16.0","battery-v0.2","","""event"",""trial"",""time""
""fullscreenenter"",""1"",""4935""
","
","
","""event"",""trial"",""time""
""fullscreenenter"",""1"",""4935""
","
","","","1677.3999998569489","","","10","17123","6282","&#9752;","elianto","#f73b6a7A"," "," ","1","0","[2527.899999856949]","1","1","","","17123","13","3","3","lose","go","0"
"pit-trial","134","1085358","0.0-17.0","battery-v0.2","","""event"",""trial"",""time""
""fullscreenenter"",""1"",""4935""
","
","
","""event"",""trial"",""time""
""fullscreenenter"",""1"",""4935""
","
","","","827.1000001430511","","","10","17123","6282","&#9730;","elianto","#3366ff99"," "," ","1","+10","[1678.2999999523163]","1","1","","","17123","14","1","1","win","go","0"
"pit-trial","135","1090213","0.0-18.0","battery-v0.2","","""event"",""trial"",""time""
""fullscreenenter"",""1"",""4935""
","
","
","""event"",""trial"",""time""
""fullscreenenter"",""1"",""4935""
","
","","","-1","","","10","17123","6282","&#9733;","elianto","#3366ff99","-1","-1","1","+10","[]","0","1","","","17123","15","2","2","win","no-go","0"
"pit-trial","136","1095069","0.0-19.0","battery-v0.2","","""event"",""trial"",""time""
""fullscreenenter"",""1"",""4935""
","
","
","""event"",""trial"",""time""
""fullscreenenter"",""1"",""4935""
","
","","","-1","","","10","17123","6282","&#9728;","elianto","#f73b6a7A","-1","-1","1","0","[]","0","1","","","17123","16","0","4","lose","no-go","0"
"pit-trial","137","1098748","0.0-20.0","battery-v0.2","","""event"",""trial"",""time""
""fullscreenenter"",""1"",""4935""
","
","
","""event"",""trial"",""time""
""fullscreenenter"",""1"",""4935""
","
","","","826","","","10","17123","6282","&#9733;","elianto","#3366ff99","-1"," ","0","0","[1677.1999998092651]","1","1","","","17123","17","2","2","win","no-go","0"
"pit-trial","138","1102301","0.0-21.0","battery-v0.2","","""event"",""trial"",""time""
""fullscreenenter"",""1"",""4935""
","
","
","""event"",""trial"",""time""
""fullscreenenter"",""1"",""4935""
","
","","","698.5999999046326","","","10","17123","6282","&#9730;","elianto","#3366ff99"," "," ","1","0","[1549.8000001907349]","1","1","","","17123","18","1","1","win","go","1"
"pit-trial","139","1105544","0.0-22.0","battery-v0.2","","""event"",""trial"",""time""
""fullscreenenter"",""1"",""4935""
","
","
","""event"",""trial"",""time""
""fullscreenenter"",""1"",""4935""
","
","","","387.2999999523163","","","10","17123","6282","&#9752;","elianto","#f73b6a7A"," "," ","1","0","[1238.7000000476837]","1","1","","","17123","19","3","3","lose","go","0"
"pit-trial","140","1108811","0.0-23.0","battery-v0.2","","""event"",""trial"",""time""
""fullscreenenter"",""1"",""4935""
","
","
","""event"",""trial"",""time""
""fullscreenenter"",""1"",""4935""
","
","","","413.10000014305115","","","10","17123","6282","&#9728;","elianto","#f73b6a7A","-1"," ","0","-10","[1263.7000000476837]","1","1","","","17123","20","0","4","lose","no-go","0"
"pit-instructions","141","1130649","0.0-24.0","battery-v0.2","","""event"",""trial"",""time""
""fullscreenenter"",""1"",""4935""
","
","
","""event"",""trial"",""time""
""fullscreenenter"",""1"",""4935""
","
","","[{""page_index"":0,""viewing_time"":14450.899999856949},{""page_index"":1,""viewing_time"":7384.799999952316}]","21836.099999904633","","","","","","","","","","","","","","","","","","","","","","","",""
"pit-trial","142","1134111","0.0-25.0","battery-v0.2","","""event"",""trial"",""time""
""fullscreenenter"",""1"",""4935""
","
","
","""event"",""trial"",""time""
""fullscreenenter"",""1"",""4935""
","
","","","606.4000000953674","","","10","17123","6282","a","elianto","#f73b6a7A"," "," ","1","0","[1458]","1","2","","","17123","21","2","3","lose","go","0"
"pit-trial","143","1138251","0.0-26.0","battery-v0.2","","""event"",""trial"",""time""
""fullscreenenter"",""1"",""4935""
","
","
","""event"",""trial"",""time""
""fullscreenenter"",""1"",""4935""
","
","","","1286.0999999046326","","","10","17123","6282","g","elianto","#f73b6a7A","-1"," ","0","-10","[2136.2999999523163]","1","2","","","17123","22","3","4","lose","no-go","0"
"pit-trial","144","1142158","0.0-27.0","battery-v0.2","","""event"",""trial"",""time""
""fullscreenenter"",""1"",""4935""
","
","
","""event"",""trial"",""time""
""fullscreenenter"",""1"",""4935""
","
","","","1053.2999999523163","","","10","17123","6282","l","elianto","#3366ff99","-1"," ","0","0","[1904.5999999046326]","1","2","","","17123","23","1","2","win","no-go","0"
"pit-trial","145","1145855","0.0-28.0","battery-v0.2","","""event"",""trial"",""time""
""fullscreenenter"",""1"",""4935""
","
","
","""event"",""trial"",""time""
""fullscreenenter"",""1"",""4935""
","
","","","842","","","10","17123","6282","u","elianto","#f73b6a7A"," "," ","1","0","[1693.6000001430511]","1","2","","","17123","24","0","3","lose","go","0"
"pit-trial","146","1150710","0.0-29.0","battery-v0.2","","""event"",""trial"",""time""
""fullscreenenter"",""1"",""4935""
","
","
","""event"",""trial"",""time""
""fullscreenenter"",""1"",""4935""
","
","","","-1","","","10","17123","6282","l","elianto","#3366ff99","-1","-1","1","+10","[]","0","2","","","17123","25","1","2","win","no-go","0"
"pit-trial","147","1155176","0.0-30.0","battery-v0.2","","""event"",""trial"",""time""
""fullscreenenter"",""1"",""4935""
","
","
","""event"",""trial"",""time""
""fullscreenenter"",""1"",""4935""
","
","","","1611.5999999046326","","","10","17123","6282","g","elianto","#f73b6a7A","-1"," ","0","-10","[2463]","1","2","","","17123","26","3","4","lose","no-go","0"
"pit-trial","148","1158695","0.0-31.0","battery-v0.2","","""event"",""trial"",""time""
""fullscreenenter"",""1"",""4935""
","
","
","""event"",""trial"",""time""
""fullscreenenter"",""1"",""4935""
","
","","","666.5","","","10","17123","6282","a","elianto","#f73b6a7A"," "," ","1","0","[1516.7999999523163]","1","2","","","17123","27","2","3","lose","go","0"
"pit-trial","149","1163549","0.0-32.0","battery-v0.2","","""event"",""trial"",""time""
""fullscreenenter"",""1"",""4935""
","
","
","""event"",""trial"",""time""
""fullscreenenter"",""1"",""4935""
","
","","","-1","","","10","17123","6282","u","elianto","#f73b6a7A"," ","-1","0","-10","[]","0","2","","","17123","28","0","3","lose","go","0"
"pit-trial","150","1167307","0.0-33.0","battery-v0.2","","""event"",""trial"",""time""
""fullscreenenter"",""1"",""4935""
","
","
","""event"",""trial"",""time""
""fullscreenenter"",""1"",""4935""
","
","","","902.5999999046326","","","10","17123","6282","a","elianto","#f73b6a7A"," "," ","1","0","[1754.3999998569489]","1","2","","","17123","29","2","3","lose","go","0"
"pit-trial","151","1170922","0.0-34.0","battery-v0.2","","""event"",""trial"",""time""
""fullscreenenter"",""1"",""4935""
","
","
","""event"",""trial"",""time""
""fullscreenenter"",""1"",""4935""
","
","","","762","","","10","17123","6282","l","elianto","#3366ff99","-1"," ","0","0","[1612.4000000953674]","1","2","","","17123","30","1","2","win","no-go","0"
"pit-trial","152","1175777","0.0-35.0","battery-v0.2","","""event"",""trial"",""time""
""fullscreenenter"",""1"",""4935""
","
","
","""event"",""trial"",""time""
""fullscreenenter"",""1"",""4935""
","
","","","-1","","","10","17123","6282","g","elianto","#f73b6a7A","-1","-1","1","0","[]","0","2","","","17123","31","3","4","lose","no-go","0"
"pit-trial","153","1180631","0.0-36.0","battery-v0.2","","""event"",""trial"",""time""
""fullscreenenter"",""1"",""4935""
","
","
","""event"",""trial"",""time""
""fullscreenenter"",""1"",""4935""
","
","","","-1","","","10","17123","6282","u","elianto","#f73b6a7A"," ","-1","0","-10","[]","0","2","","","17123","32","0","3","lose","go","0"
"pit-trial","154","1185487","0.0-37.0","battery-v0.2","","""event"",""trial"",""time""
""fullscreenenter"",""1"",""4935""
","
","
","""event"",""trial"",""time""
""fullscreenenter"",""1"",""4935""
","
","","","-1","","","10","17123","6282","l","elianto","#3366ff99","-1","-1","1","+10","[]","0","2","","","17123","33","1","2","win","no-go","0"
"pit-trial","155","1190342","0.0-38.0","battery-v0.2","","""event"",""trial"",""time""
""fullscreenenter"",""1"",""4935""
","
","
","""event"",""trial"",""time""
""fullscreenenter"",""1"",""4935""
","
","","","-1","","","10","17123","6282","u","elianto","#f73b6a7A"," ","-1","0","-10","[]","0","2","","","17123","34","0","3","lose","go","0"
"pit-trial","156","1193915","0.0-39.0","battery-v0.2","","""event"",""trial"",""time""
""fullscreenenter"",""1"",""4935""
","
","
","""event"",""trial"",""time""
""fullscreenenter"",""1"",""4935""
","
","","","719.6000001430511","","","10","17123","6282","a","elianto","#f73b6a7A"," "," ","1","-10","[1570.5]","1","2","","","17123","35","2","3","lose","go","1"
"pit-trial","157","1197338","0.0-40.0","battery-v0.2","","""event"",""trial"",""time""
""fullscreenenter"",""1"",""4935""
","
","
","""event"",""trial"",""time""
""fullscreenenter"",""1"",""4935""
","
","","","568","","","10","17123","6282","g","elianto","#f73b6a7A","-1"," ","0","0","[1419.7000000476837]","1","2","","","17123","36","3","4","lose","no-go","1"
"pit-trial","158","1200897","0.0-41.0","battery-v0.2","","""event"",""trial"",""time""
""fullscreenenter"",""1"",""4935""
","
","
","""event"",""trial"",""time""
""fullscreenenter"",""1"",""4935""
","
","","","704.5","","","10","17123","6282","g","elianto","#f73b6a7A","-1"," ","0","-10","[1556.2999999523163]","1","2","","","17123","37","3","4","lose","no-go","0"
"pit-trial","159","1204398","0.0-42.0","battery-v0.2","","""event"",""trial"",""time""
""fullscreenenter"",""1"",""4935""
","
","
","""event"",""trial"",""time""
""fullscreenenter"",""1"",""4935""
","
","","","646.7999999523163","","","10","17123","6282","a","elianto","#f73b6a7A"," "," ","1","0","[1498.0999999046326]","1","2","","","17123","38","2","3","lose","go","0"
"pit-trial","160","1209253","0.0-43.0","battery-v0.2","","""event"",""trial"",""time""
""fullscreenenter"",""1"",""4935""
","
","
","""event"",""trial"",""time""
""fullscreenenter"",""1"",""4935""
","
","","","-1","","","10","17123","6282","u","elianto","#f73b6a7A"," ","-1","0","-10","[]","0","2","","","17123","39","0","3","lose","go","0"
"pit-trial","161","1213040","0.0-44.0","battery-v0.2","","""event"",""trial"",""time""
""fullscreenenter"",""1"",""4935""
","
","
","""event"",""trial"",""time""
""fullscreenenter"",""1"",""4935""
","
","","","933.1000001430511","","","10","17123","6282","l","elianto","#3366ff99","-1"," ","0","0","[1784]","1","2","","","17123","40","1","2","win","no-go","0"
"pit-trial","162","1216726","0.0-45.0","battery-v0.2","","""event"",""trial"",""time""
""fullscreenenter"",""1"",""4935""
","
","
","""event"",""trial"",""time""
""fullscreenenter"",""1"",""4935""
","
","","","830.7999999523163","","","10","17123","6282","a","elianto","#f73b6a7A"," "," ","1","0","[1682.3999998569489]","1","2","","","17123","41","2","3","lose","go","0"
"pit-trial","163","1220187","0.0-46.0","battery-v0.2","","""event"",""trial"",""time""
""fullscreenenter"",""1"",""4935""
","
","
","""event"",""trial"",""time""
""fullscreenenter"",""1"",""4935""
","
","","","606","","","10","17123","6282","g","elianto","#f73b6a7A","-1"," ","0","0","[1456.2999999523163]","1","2","","","17123","42","3","4","lose","no-go","1"
"pit-trial","164","1225041","0.0-47.0","battery-v0.2","","""event"",""trial"",""time""
""fullscreenenter"",""1"",""4935""
","
","
","""event"",""trial"",""time""
""fullscreenenter"",""1"",""4935""
","
","","","-1","","","10","17123","6282","u","elianto","#f73b6a7A"," ","-1","0","-10","[]","0","2","","","17123","43","0","3","lose","go","0"
"pit-trial","165","1228697","0.0-48.0","battery-v0.2","","""event"",""trial"",""time""
""fullscreenenter"",""1"",""4935""
","
","
","""event"",""trial"",""time""
""fullscreenenter"",""1"",""4935""
","
","","","802.3999998569489","","","10","17123","6282","l","elianto","#3366ff99","-1"," ","0","0","[1652.5]","1","2","","","17123","44","1","2","win","no-go","0"
"pit-trial","166","1233551","0.0-49.0","battery-v0.2","","""event"",""trial"",""time""
""fullscreenenter"",""1"",""4935""
","
","
","""event"",""trial"",""time""
""fullscreenenter"",""1"",""4935""
","
","","","-1","","","10","17123","6282","l","elianto","#3366ff99","-1","-1","1","+10","[]","0","2","","","17123","45","1","2","win","no-go","0"
"pit-trial","167","1236990","0.0-50.0","battery-v0.2","","""event"",""trial"",""time""
""fullscreenenter"",""1"",""4935""
","
","
","""event"",""trial"",""time""
""fullscreenenter"",""1"",""4935""
","
","","","583.7999999523163","","","10","17123","6282","g","elianto","#f73b6a7A","-1"," ","0","-10","[1435]","1","2","","","17123","46","3","4","lose","no-go","0"
"pit-trial","168","1241846","0.0-51.0","battery-v0.2","","""event"",""trial"",""time""
""fullscreenenter"",""1"",""4935""
","
","
","""event"",""trial"",""time""
""fullscreenenter"",""1"",""4935""
","
","","","-1","","","10","17123","6282","u","elianto","#f73b6a7A"," ","-1","0","-10","[]","0","2","","","17123","47","0","3","lose","go","0"
"pit-trial","169","1245417","0.0-52.0","battery-v0.2","","""event"",""trial"",""time""
""fullscreenenter"",""1"",""4935""
","
","
","""event"",""trial"",""time""
""fullscreenenter"",""1"",""4935""
","
","","","716.5","","","10","17123","6282","a","elianto","#f73b6a7A"," "," ","1","0","[1567.1000001430511]","1","2","","","17123","48","2","3","lose","go","0"
"pit-trial","170","1249297","0.0-53.0","battery-v0.2","","""event"",""trial"",""time""
""fullscreenenter"",""1"",""4935""
","
","
","""event"",""trial"",""time""
""fullscreenenter"",""1"",""4935""
","
","","","1025.9000000953674","","","10","17123","6282","g","elianto","#f73b6a7A","-1"," ","0","-10","[1877]","1","2","","","17123","49","3","4","lose","no-go","0"
"pit-trial","171","1254153","0.0-54.0","battery-v0.2","","""event"",""trial"",""time""
""fullscreenenter"",""1"",""4935""
","
","
","""event"",""trial"",""time""
""fullscreenenter"",""1"",""4935""
","
","","","-1","","","10","17123","6282","u","elianto","#f73b6a7A"," ","-1","0","-10","[]","0","2","","","17123","50","0","3","lose","go","0"
"pit-trial","172","1257677","0.0-55.0","battery-v0.2","","""event"",""trial"",""time""
""fullscreenenter"",""1"",""4935""
","
","
","""event"",""trial"",""time""
""fullscreenenter"",""1"",""4935""
","
","","","670","","","10","17123","6282","a","elianto","#f73b6a7A"," "," ","1","0","[1520.9000000953674]","1","2","","","17123","51","2","3","lose","go","0"
"pit-trial","173","1261162","0.0-56.0","battery-v0.2","","""event"",""trial"",""time""
""fullscreenenter"",""1"",""4935""
","
","
","""event"",""trial"",""time""
""fullscreenenter"",""1"",""4935""
","
","","","630.2000000476837","","","10","17123","6282","l","elianto","#3366ff99","-1"," ","0","0","[1481.4000000953674]","1","2","","","17123","52","1","2","win","no-go","0"
"pit-trial","174","1265235","0.0-57.0","battery-v0.2","","""event"",""trial"",""time""
""fullscreenenter"",""1"",""4935""
","
","
","""event"",""trial"",""time""
""fullscreenenter"",""1"",""4935""
","
","","","1218.2000000476837","","","10","17123","6282","l","elianto","#3366ff99","-1"," ","0","0","[2068.4000000953674]","1","2","","","17123","53","1","2","win","no-go","0"
"pit-trial","175","1268812","0.0-58.0","battery-v0.2","","""event"",""trial"",""time""
""fullscreenenter"",""1"",""4935""
","
","
","""event"",""trial"",""time""
""fullscreenenter"",""1"",""4935""
","
","","","724.0999999046326","","","10","17123","6282","g","elianto","#f73b6a7A","-1"," ","0","-10","[1575.3999998569489]","1","2","","","17123","54","3","4","lose","no-go","0"
"pit-trial","176","1272304","0.0-59.0","battery-v0.2","","""event"",""trial"",""time""
""fullscreenenter"",""1"",""4935""
","
","
","""event"",""trial"",""time""
""fullscreenenter"",""1"",""4935""
","
","","","638.2000000476837","","","10","17123","6282","a","elianto","#f73b6a7A"," "," ","1","0","[1489.5]","1","2","","","17123","55","2","3","lose","go","0"
"pit-trial","177","1275842","0.0-60.0","battery-v0.2","","""event"",""trial"",""time""
""fullscreenenter"",""1"",""4935""
","
","
","""event"",""trial"",""time""
""fullscreenenter"",""1"",""4935""
","
","","","683.2999999523163","","","10","17123","6282","u","elianto","#f73b6a7A"," "," ","1","0","[1534.8999998569489]","1","2","","","17123","56","0","3","lose","go","0"
"pit-trial","178","1280697","0.0-61.0","battery-v0.2","","""event"",""trial"",""time""
""fullscreenenter"",""1"",""4935""
","
","
","""event"",""trial"",""time""
""fullscreenenter"",""1"",""4935""
","
","","","-1","","","10","17123","6282","g","elianto","#f73b6a7A","-1","-1","1","0","[]","0","2","","","17123","57","3","4","lose","no-go","0"
"pit-trial","179","1285295","0.0-62.0","battery-v0.2","","""event"",""trial"",""time""
""fullscreenenter"",""1"",""4935""
","
","
","""event"",""trial"",""time""
""fullscreenenter"",""1"",""4935""
","
","","","1744.4000000953674","","","10","17123","6282","p","elianto","#3366ff99"," "," ","1","+10","[2595.100000143051]","1","2","","","17123","58","4","1","win","go","0"
"pit-trial","180","1289540","0.0-63.0","battery-v0.2","","""event"",""trial"",""time""
""fullscreenenter"",""1"",""4935""
","
","
","""event"",""trial"",""time""
""fullscreenenter"",""1"",""4935""
","
","","","1390.5999999046326","","","10","17123","6282","a","elianto","#f73b6a7A"," "," ","1","0","[2241.5999999046326]","1","2","","","17123","59","2","3","lose","go","0"
"pit-trial","181","1294395","0.0-64.0","battery-v0.2","","""event"",""trial"",""time""
""fullscreenenter"",""1"",""4935""
","
","
","""event"",""trial"",""time""
""fullscreenenter"",""1"",""4935""
","
","","","-1","","","10","17123","6282","u","elianto","#f73b6a7A"," ","-1","0","0","[]","0","2","","","17123","60","0","3","lose","go","1"
"pit-trial","182","1299250","0.0-65.0","battery-v0.2","","""event"",""trial"",""time""
""fullscreenenter"",""1"",""4935""
","
","
","""event"",""trial"",""time""
""fullscreenenter"",""1"",""4935""
","
","","","-1","","","10","17123","6282","l","elianto","#3366ff99","-1","-1","1","+10","[]","0","2","","","17123","61","1","2","win","no-go","0"
"pit-trial","183","1302802","0.0-66.0","battery-v0.2","","""event"",""trial"",""time""
""fullscreenenter"",""1"",""4935""
","
","
","""event"",""trial"",""time""
""fullscreenenter"",""1"",""4935""
","
","","","698.2000000476837","","","10","17123","6282","a","elianto","#f73b6a7A"," "," ","1","0","[1549]","1","2","","","17123","62","2","3","lose","go","0"
"pit-trial","184","1306436","0.0-67.0","battery-v0.2","","""event"",""trial"",""time""
""fullscreenenter"",""1"",""4935""
","
","
","""event"",""trial"",""time""
""fullscreenenter"",""1"",""4935""
","
","","","778.9000000953674","","","10","17123","6282","p","elianto","#3366ff99"," "," ","1","+10","[1630.2000000476837]","1","2","","","17123","63","4","1","win","go","0"
"pit-trial","185","1311292","0.0-68.0","battery-v0.2","","""event"",""trial"",""time""
""fullscreenenter"",""1"",""4935""
","
","
","""event"",""trial"",""time""
""fullscreenenter"",""1"",""4935""
","
","","","-1","","","10","17123","6282","g","elianto","#f73b6a7A","-1","-1","1","-10","[]","0","2","","","17123","64","3","4","lose","no-go","1"
"pit-trial","186","1315315","0.0-69.0","battery-v0.2","","""event"",""trial"",""time""
""fullscreenenter"",""1"",""4935""
","
","
","""event"",""trial"",""time""
""fullscreenenter"",""1"",""4935""
","
","","","1170.3000001907349","","","10","17123","6282","s","elianto","#3366ff99","-1"," ","0","0","[2020.5]","1","2","","","17123","65","5","2","win","no-go","0"
"pit-trial","187","1320170","0.0-70.0","battery-v0.2","","""event"",""trial"",""time""
""fullscreenenter"",""1"",""4935""
","
","
","""event"",""trial"",""time""
""fullscreenenter"",""1"",""4935""
","
","","","-1","","","10","17123","6282","g","elianto","#f73b6a7A","-1","-1","1","0","[]","0","2","","","17123","66","3","4","lose","no-go","0"
"pit-trial","188","1323836","0.0-71.0","battery-v0.2","","""event"",""trial"",""time""
""fullscreenenter"",""1"",""4935""
","
","
","""event"",""trial"",""time""
""fullscreenenter"",""1"",""4935""
","
","","","812","","","10","17123","6282","p","elianto","#3366ff99"," "," ","1","+10","[1663]","1","2","","","17123","67","4","1","win","go","0"
"pit-trial","189","1328691","0.0-72.0","battery-v0.2","","""event"",""trial"",""time""
""fullscreenenter"",""1"",""4935""
","
","
","""event"",""trial"",""time""
""fullscreenenter"",""1"",""4935""
","
","","","-1","","","10","17123","6282","l","elianto","#3366ff99","-1","-1","1","0","[]","0","2","","","17123","68","1","2","win","no-go","1"
"pit-trial","190","1332225","0.0-73.0","battery-v0.2","","""event"",""trial"",""time""
""fullscreenenter"",""1"",""4935""
","
","
","""event"",""trial"",""time""
""fullscreenenter"",""1"",""4935""
","
","","","678.3000001907349","","","10","17123","6282","p","elianto","#3366ff99"," "," ","1","+10","[1529.8000001907349]","1","2","","","17123","69","4","1","win","go","0"
"pit-trial","191","1337080","0.0-74.0","battery-v0.2","","""event"",""trial"",""time""
""fullscreenenter"",""1"",""4935""
","
","
","""event"",""trial"",""time""
""fullscreenenter"",""1"",""4935""
","
","","","-1","","","10","17123","6282","a","elianto","#f73b6a7A"," ","-1","0","-10","[]","0","2","","","17123","70","2","3","lose","go","0"
"pit-trial","192","1341935","0.0-75.0","battery-v0.2","","""event"",""trial"",""time""
""fullscreenenter"",""1"",""4935""
","
","
","""event"",""trial"",""time""
""fullscreenenter"",""1"",""4935""
","
","","","-1","","","10","17123","6282","l","elianto","#3366ff99","-1","-1","1","+10","[]","0","2","","","17123","71","1","2","win","no-go","0"
"pit-trial","193","1345830","0.0-76.0","battery-v0.2","","""event"",""trial"",""time""
""fullscreenenter"",""1"",""4935""
","
","
","""event"",""trial"",""time""
""fullscreenenter"",""1"",""4935""
","
","","","1041.2000000476837","","","10","17123","6282","s","elianto","#3366ff99","-1"," ","0","0","[1891.2999999523163]","1","2","","","17123","72","5","2","win","no-go","0"
"pit-trial","194","1350683","0.0-77.0","battery-v0.2","","""event"",""trial"",""time""
""fullscreenenter"",""1"",""4935""
","
","
","""event"",""trial"",""time""
""fullscreenenter"",""1"",""4935""
","
","","","-1","","","10","17123","6282","s","elianto","#3366ff99","-1","-1","1","0","[]","0","2","","","17123","73","5","2","win","no-go","1"
"pit-trial","195","1354613","0.0-78.0","battery-v0.2","","""event"",""trial"",""time""
""fullscreenenter"",""1"",""4935""
","
","
","""event"",""trial"",""time""
""fullscreenenter"",""1"",""4935""
","
","","","1075.0999999046326","","","10","17123","6282","l","elianto","#3366ff99","-1"," ","0","0","[1926.7999999523163]","1","2","","","17123","74","1","2","win","no-go","0"
"pit-trial","196","1358285","0.0-79.0","battery-v0.2","","""event"",""trial"",""time""
""fullscreenenter"",""1"",""4935""
","
","
","""event"",""trial"",""time""
""fullscreenenter"",""1"",""4935""
","
","","","820.2000000476837","","","10","17123","6282","p","elianto","#3366ff99"," "," ","1","+10","[1671]","1","2","","","17123","75","4","1","win","go","0"
"pit-trial","197","1363141","0.0-80.0","battery-v0.2","","""event"",""trial"",""time""
""fullscreenenter"",""1"",""4935""
","
","
","""event"",""trial"",""time""
""fullscreenenter"",""1"",""4935""
","
","","","-1","","","10","17123","6282","g","elianto","#f73b6a7A","-1","-1","1","0","[]","0","2","","","17123","76","3","4","lose","no-go","0"
"pit-trial","198","1367995","0.0-81.0","battery-v0.2","","""event"",""trial"",""time""
""fullscreenenter"",""1"",""4935""
","
","
","""event"",""trial"",""time""
""fullscreenenter"",""1"",""4935""
","
","","","-1","","","10","17123","6282","s","elianto","#3366ff99","-1","-1","1","+10","[]","0","2","","","17123","77","5","2","win","no-go","0"
"pit-trial","199","1372850","0.0-82.0","battery-v0.2","","""event"",""trial"",""time""
""fullscreenenter"",""1"",""4935""
","
","
","""event"",""trial"",""time""
""fullscreenenter"",""1"",""4935""
","
","","","-1","","","10","17123","6282","g","elianto","#f73b6a7A","-1","-1","1","0","[]","0","2","","","17123","78","3","4","lose","no-go","0"
"pit-trial","200","1376950","0.0-83.0","battery-v0.2","","""event"",""trial"",""time""
""fullscreenenter"",""1"",""4935""
","
","
","""event"",""trial"",""time""
""fullscreenenter"",""1"",""4935""
","
","","","1245.2999999523163","","","10","17123","6282","p","elianto","#3366ff99"," "," ","1","+10","[2096.5]","1","2","","","17123","79","4","1","win","go","0"
"pit-trial","201","1380622","0.0-84.0","battery-v0.2","","""event"",""trial"",""time""
""fullscreenenter"",""1"",""4935""
","
","
","""event"",""trial"",""time""
""fullscreenenter"",""1"",""4935""
","
","","","817.2000000476837","","","10","17123","6282","p","elianto","#3366ff99"," "," ","1","+10","[1668.6000001430511]","1","2","","","17123","80","4","1","win","go","0"
"pit-trial","202","1385476","0.0-85.0","battery-v0.2","","""event"",""trial"",""time""
""fullscreenenter"",""1"",""4935""
","
","
","""event"",""trial"",""time""
""fullscreenenter"",""1"",""4935""
","
","","","-1","","","10","17123","6282","g","elianto","#f73b6a7A","-1","-1","1","0","[]","0","2","","","17123","81","3","4","lose","no-go","0"
"pit-trial","203","1390331","0.0-86.0","battery-v0.2","","""event"",""trial"",""time""
""fullscreenenter"",""1"",""4935""
","
","
","""event"",""trial"",""time""
""fullscreenenter"",""1"",""4935""
","
","","","-1","","","10","17123","6282","e","elianto","#f73b6a7A","-1","-1","1","-10","[]","0","2","","","17123","82","7","4","lose","no-go","1"
"pit-trial","204","1394930","0.0-87.0","battery-v0.2","","""event"",""trial"",""time""
""fullscreenenter"",""1"",""4935""
","
","
","""event"",""trial"",""time""
""fullscreenenter"",""1"",""4935""
","
","","","1746.2000000476837","","","10","17123","6282","s","elianto","#3366ff99","-1"," ","0","0","[2596.7999999523163]","1","2","","","17123","83","5","2","win","no-go","0"
"pit-trial","205","1398509","0.0-88.0","battery-v0.2","","""event"",""trial"",""time""
""fullscreenenter"",""1"",""4935""
","
","
","""event"",""trial"",""time""
""fullscreenenter"",""1"",""4935""
","
","","","724.5999999046326","","","10","17123","6282","p","elianto","#3366ff99"," "," ","1","+10","[1575.5]","1","2","","","17123","84","4","1","win","go","0"
"pit-trial","206","1403364","0.0-89.0","battery-v0.2","","""event"",""trial"",""time""
""fullscreenenter"",""1"",""4935""
","
","
","""event"",""trial"",""time""
""fullscreenenter"",""1"",""4935""
","
","","","-1","","","10","17123","6282","e","elianto","#f73b6a7A","-1","-1","1","-10","[]","0","2","","","17123","85","7","4","lose","no-go","1"
"pit-trial","207","1408219","0.0-90.0","battery-v0.2","","""event"",""trial"",""time""
""fullscreenenter"",""1"",""4935""
","
","
","""event"",""trial"",""time""
""fullscreenenter"",""1"",""4935""
","
","","","-1","","","10","17123","6282","s","elianto","#3366ff99","-1","-1","1","0","[]","0","2","","","17123","86","5","2","win","no-go","1"
"pit-trial","208","1412145","0.0-91.0","battery-v0.2","","""event"",""trial"",""time""
""fullscreenenter"",""1"",""4935""
","
","
","""event"",""trial"",""time""
""fullscreenenter"",""1"",""4935""
","
","","","1072.4000000953674","","","10","17123","6282","p","elianto","#3366ff99"," "," ","1","0","[1923.2999999523163]","1","2","","","17123","87","4","1","win","go","1"
"pit-trial","209","1416030","0.0-92.0","battery-v0.2","","""event"",""trial"",""time""
""fullscreenenter"",""1"",""4935""
","
","
","""event"",""trial"",""time""
""fullscreenenter"",""1"",""4935""
","
","","","1030.4000000953674","","","10","17123","6282","w","elianto","#f73b6a7A"," "," ","1","0","[1881.3999998569489]","1","2","","","17123","88","6","3","lose","go","0"
"pit-trial","210","1420886","0.0-93.0","battery-v0.2","","""event"",""trial"",""time""
""fullscreenenter"",""1"",""4935""
","
","
","""event"",""trial"",""time""
""fullscreenenter"",""1"",""4935""
","
","","","-1","","","10","17123","6282","e","elianto","#f73b6a7A","-1","-1","1","-10","[]","0","2","","","17123","89","7","4","lose","no-go","1"
"pit-trial","211","1424618","0.0-94.0","battery-v0.2","","""event"",""trial"",""time""
""fullscreenenter"",""1"",""4935""
","
","
","""event"",""trial"",""time""
""fullscreenenter"",""1"",""4935""
","
","","","877","","","10","17123","6282","w","elianto","#f73b6a7A"," "," ","1","0","[1728.7999999523163]","1","2","","","17123","90","6","3","lose","go","0"
"pit-trial","212","1428291","0.0-95.0","battery-v0.2","","""event"",""trial"",""time""
""fullscreenenter"",""1"",""4935""
","
","
","""event"",""trial"",""time""
""fullscreenenter"",""1"",""4935""
","
","","","817.7999999523163","","","10","17123","6282","s","elianto","#3366ff99","-1"," ","0","0","[1669.7000000476837]","1","2","","","17123","91","5","2","win","no-go","0"
"pit-trial","213","1431989","0.0-96.0","battery-v0.2","","""event"",""trial"",""time""
""fullscreenenter"",""1"",""4935""
","
","
","""event"",""trial"",""time""
""fullscreenenter"",""1"",""4935""
","
","","","844.5","","","10","17123","6282","p","elianto","#3366ff99"," "," ","1","+10","[1695.7000000476837]","1","2","","","17123","92","4","1","win","go","0"
"pit-trial","214","1435581","0.0-97.0","battery-v0.2","","""event"",""trial"",""time""
""fullscreenenter"",""1"",""4935""
","
","
","""event"",""trial"",""time""
""fullscreenenter"",""1"",""4935""
","
","","","737.5","","","10","17123","6282","w","elianto","#f73b6a7A"," "," ","1","0","[1588.7999999523163]","1","2","","","17123","93","6","3","lose","go","0"
"pit-trial","215","1440435","0.0-98.0","battery-v0.2","","""event"",""trial"",""time""
""fullscreenenter"",""1"",""4935""
","
","
","""event"",""trial"",""time""
""fullscreenenter"",""1"",""4935""
","
","","","-1","","","10","17123","6282","e","elianto","#f73b6a7A","-1","-1","1","0","[]","0","2","","","17123","94","7","4","lose","no-go","0"
"pit-trial","216","1445290","0.0-99.0","battery-v0.2","","""event"",""trial"",""time""
""fullscreenenter"",""1"",""4935""
","
","
","""event"",""trial"",""time""
""fullscreenenter"",""1"",""4935""
","
","","","-1","","","10","17123","6282","s","elianto","#3366ff99","-1","-1","1","0","[]","0","2","","","17123","95","5","2","win","no-go","1"
"pit-trial","217","1450144","0.0-100.0","battery-v0.2","","""event"",""trial"",""time""
""fullscreenenter"",""1"",""4935""
","
","
","""event"",""trial"",""time""
""fullscreenenter"",""1"",""4935""
","
","","","-1","","","10","17123","6282","d","elianto","#3366ff99"," ","-1","0","0","[]","0","2","","","17123","96","8","1","win","go","0"
"pit-trial","218","1454999","0.0-101.0","battery-v0.2","","""event"",""trial"",""time""
""fullscreenenter"",""1"",""4935""
","
","
","""event"",""trial"",""time""
""fullscreenenter"",""1"",""4935""
","
","","","-1","","","10","17123","6282","e","elianto","#f73b6a7A","-1","-1","1","0","[]","0","2","","","17123","97","7","4","lose","no-go","0"
"pit-trial","219","1459539","0.0-102.0","battery-v0.2","","""event"",""trial"",""time""
""fullscreenenter"",""1"",""4935""
","
","
","""event"",""trial"",""time""
""fullscreenenter"",""1"",""4935""
","
","","","1686.4000000953674","","","10","17123","6282","d","elianto","#3366ff99"," "," ","1","+10","[2537.5]","1","2","","","17123","98","8","1","win","go","0"
"pit-trial","220","1464395","0.0-103.0","battery-v0.2","","""event"",""trial"",""time""
""fullscreenenter"",""1"",""4935""
","
","
","""event"",""trial"",""time""
""fullscreenenter"",""1"",""4935""
","
","","","-1","","","10","17123","6282","s","elianto","#3366ff99","-1","-1","1","+10","[]","0","2","","","17123","99","5","2","win","no-go","0"
"pit-trial","221","1468513","0.0-104.0","battery-v0.2","","""event"",""trial"",""time""
""fullscreenenter"",""1"",""4935""
","
","
","""event"",""trial"",""time""
""fullscreenenter"",""1"",""4935""
","
","","","1265","","","10","17123","6282","w","elianto","#f73b6a7A"," "," ","1","0","[2116]","1","2","","","17123","100","6","3","lose","go","0"
"pit-trial","222","1472529","0.0-105.0","battery-v0.2","","""event"",""trial"",""time""
""fullscreenenter"",""1"",""4935""
","
","
","""event"",""trial"",""time""
""fullscreenenter"",""1"",""4935""
","
","","","1161.6000001430511","","","10","17123","6282","j","elianto","#3366ff99"," "," ","1","+10","[2012.9000000953674]","1","2","","","17123","101","9","1","win","go","0"
"pit-trial","223","1477382","0.0-106.0","battery-v0.2","","""event"",""trial"",""time""
""fullscreenenter"",""1"",""4935""
","
","
","""event"",""trial"",""time""
""fullscreenenter"",""1"",""4935""
","
","","","-1","","","10","17123","6282","e","elianto","#f73b6a7A","-1","-1","1","-10","[]","0","2","","","17123","102","7","4","lose","no-go","1"
"pit-trial","224","1482235","0.0-107.0","battery-v0.2","","""event"",""trial"",""time""
""fullscreenenter"",""1"",""4935""
","
","
","""event"",""trial"",""time""
""fullscreenenter"",""1"",""4935""
","
","","","-1","","","10","17123","6282","s","elianto","#3366ff99","-1","-1","1","+10","[4199.700000047684]","1","2","","","17123","103","5","2","win","no-go","0"
"pit-trial","225","1487090","0.0-108.0","battery-v0.2","","""event"",""trial"",""time""
""fullscreenenter"",""1"",""4935""
","
","
","""event"",""trial"",""time""
""fullscreenenter"",""1"",""4935""
","
","","","-1","","","10","17123","6282","d","elianto","#3366ff99"," ","-1","0","0","[]","0","2","","","17123","104","8","1","win","go","0"
"pit-trial","226","1491822","0.0-109.0","battery-v0.2","","""event"",""trial"",""time""
""fullscreenenter"",""1"",""4935""
","
","
","""event"",""trial"",""time""
""fullscreenenter"",""1"",""4935""
","
","","","1878.3999998569489","","","10","17123","6282","p","elianto","#3366ff99"," "," ","1","0","[2728.5999999046326]","1","2","","","17123","105","4","1","win","go","1"
"pit-trial","227","1495434","0.0-110.0","battery-v0.2","","""event"",""trial"",""time""
""fullscreenenter"",""1"",""4935""
","
","
","""event"",""trial"",""time""
""fullscreenenter"",""1"",""4935""
","
","","","757.5","","","10","17123","6282","w","elianto","#f73b6a7A"," "," ","1","0","[1608.7000000476837]","1","2","","","17123","106","6","3","lose","go","0"
"pit-trial","228","1500288","0.0-111.0","battery-v0.2","","""event"",""trial"",""time""
""fullscreenenter"",""1"",""4935""
","
","
","""event"",""trial"",""time""
""fullscreenenter"",""1"",""4935""
","
","","","-1","","","10","17123","6282","d","elianto","#3366ff99"," ","-1","0","0","[]","0","2","","","17123","107","8","1","win","go","0"
"pit-trial","229","1505144","0.0-112.0","battery-v0.2","","""event"",""trial"",""time""
""fullscreenenter"",""1"",""4935""
","
","
","""event"",""trial"",""time""
""fullscreenenter"",""1"",""4935""
","
","","","-1","","","10","17123","6282","j","elianto","#3366ff99"," ","-1","0","0","[]","0","2","","","17123","108","9","1","win","go","0"
"pit-trial","230","1509998","0.0-113.0","battery-v0.2","","""event"",""trial"",""time""
""fullscreenenter"",""1"",""4935""
","
","
","""event"",""trial"",""time""
""fullscreenenter"",""1"",""4935""
","
","","","-1","","","10","17123","6282","s","elianto","#3366ff99","-1","-1","1","+10","[]","0","2","","","17123","109","5","2","win","no-go","0"
"pit-trial","231","1514853","0.0-114.0","battery-v0.2","","""event"",""trial"",""time""
""fullscreenenter"",""1"",""4935""
","
","
","""event"",""trial"",""time""
""fullscreenenter"",""1"",""4935""
","
","","","-1","","","10","17123","6282","j","elianto","#3366ff99"," ","-1","0","0","[]","0","2","","","17123","110","9","1","win","go","0"
"pit-trial","232","1519709","0.0-115.0","battery-v0.2","","""event"",""trial"",""time""
""fullscreenenter"",""1"",""4935""
","
","
","""event"",""trial"",""time""
""fullscreenenter"",""1"",""4935""
","
","","","-1","","","10","17123","6282","d","elianto","#3366ff99"," ","-1","0","0","[]","0","2","","","17123","111","8","1","win","go","0"
"pit-trial","233","1523405","0.0-116.0","battery-v0.2","","""event"",""trial"",""time""
""fullscreenenter"",""1"",""4935""
","
","
","""event"",""trial"",""time""
""fullscreenenter"",""1"",""4935""
","
","","","842.2999999523163","","","10","17123","6282","w","elianto","#f73b6a7A"," "," ","1","-10","[1693.7000000476837]","1","2","","","17123","112","6","3","lose","go","1"
"pit-trial","234","1528260","0.0-117.0","battery-v0.2","","""event"",""trial"",""time""
""fullscreenenter"",""1"",""4935""
","
","
","""event"",""trial"",""time""
""fullscreenenter"",""1"",""4935""
","
","","","-1","","","10","17123","6282","d","elianto","#3366ff99"," ","-1","0","0","[]","0","2","","","17123","113","8","1","win","go","0"
"pit-trial","235","1533115","0.0-118.0","battery-v0.2","","""event"",""trial"",""time""
""fullscreenenter"",""1"",""4935""
","
","
","""event"",""trial"",""time""
""fullscreenenter"",""1"",""4935""
","
","","","-1","","","10","17123","6282","s","elianto","#3366ff99","-1","-1","1","+10","[]","0","2","","","17123","114","5","2","win","no-go","0"
"pit-trial","236","1537969","0.0-119.0","battery-v0.2","","""event"",""trial"",""time""
""fullscreenenter"",""1"",""4935""
","
","
","""event"",""trial"",""time""
""fullscreenenter"",""1"",""4935""
","
","","","-1","","","10","17123","6282","j","elianto","#3366ff99"," ","-1","0","0","[]","0","2","","","17123","115","9","1","win","go","0"
"pit-trial","237","1542613","0.0-120.0","battery-v0.2","","""event"",""trial"",""time""
""fullscreenenter"",""1"",""4935""
","
","
","""event"",""trial"",""time""
""fullscreenenter"",""1"",""4935""
","
","","","1791.6000001430511","","","10","17123","6282","w","elianto","#f73b6a7A"," "," ","1","0","[2642.5]","1","2","","","17123","116","6","3","lose","go","0"
"pit-trial","238","1547468","0.0-121.0","battery-v0.2","","""event"",""trial"",""time""
""fullscreenenter"",""1"",""4935""
","
","
","""event"",""trial"",""time""
""fullscreenenter"",""1"",""4935""
","
","","","-1","","","10","17123","6282","j","elianto","#3366ff99"," ","-1","0","0","[]","0","2","","","17123","117","9","1","win","go","0"
"pit-trial","239","1551273","0.0-122.0","battery-v0.2","","""event"",""trial"",""time""
""fullscreenenter"",""1"",""4935""
","
","
","""event"",""trial"",""time""
""fullscreenenter"",""1"",""4935""
","
","","","951","","","10","17123","6282","d","elianto","#3366ff99"," "," ","1","+10","[1802.4000000953674]","1","2","","","17123","118","8","1","win","go","0"
"pit-trial","240","1555260","0.0-123.0","battery-v0.2","","""event"",""trial"",""time""
""fullscreenenter"",""1"",""4935""
","
","
","""event"",""trial"",""time""
""fullscreenenter"",""1"",""4935""
","
","","","1133","","","10","17123","6282","w","elianto","#f73b6a7A"," "," ","1","0","[1984.3000001907349]","1","2","","","17123","119","6","3","lose","go","0"
"pit-trial","241","1558734","0.0-124.0","battery-v0.2","","""event"",""trial"",""time""
""fullscreenenter"",""1"",""4935""
","
","
","""event"",""trial"",""time""
""fullscreenenter"",""1"",""4935""
","
","","","619.7000000476837","","","10","17123","6282","s","elianto","#3366ff99","-1"," ","0","0","[1470.7999999523163]","1","2","","","17123","120","5","2","win","no-go","0"
"pit-trial","242","1562423","0.0-125.0","battery-v0.2","","""event"",""trial"",""time""
""fullscreenenter"",""1"",""4935""
","
","
","""event"",""trial"",""time""
""fullscreenenter"",""1"",""4935""
","
","","","833.1999998092651","","","10","17123","6282","j","elianto","#3366ff99"," "," ","1","0","[1684.5999999046326]","1","2","","","17123","121","9","1","win","go","1"
"pit-trial","243","1567278","0.0-126.0","battery-v0.2","","""event"",""trial"",""time""
""fullscreenenter"",""1"",""4935""
","
","
","""event"",""trial"",""time""
""fullscreenenter"",""1"",""4935""
","
","","","-1","","","10","17123","6282","e","elianto","#f73b6a7A","-1","-1","1","0","[]","0","2","","","17123","122","7","4","lose","no-go","0"
"pit-trial","244","1571244","0.0-127.0","battery-v0.2","","""event"",""trial"",""time""
""fullscreenenter"",""1"",""4935""
","
","
","""event"",""trial"",""time""
""fullscreenenter"",""1"",""4935""
","
","","","1111.4000000953674","","","10","17123","6282","w","elianto","#f73b6a7A"," "," ","1","0","[1962.6000001430511]","1","2","","","17123","123","6","3","lose","go","0"
"pit-trial","245","1574699","0.0-128.0","battery-v0.2","","""event"",""trial"",""time""
""fullscreenenter"",""1"",""4935""
","
","
","""event"",""trial"",""time""
""fullscreenenter"",""1"",""4935""
","
","","","601","","","10","17123","6282","d","elianto","#3366ff99"," "," ","1","+10","[1451.8999998569489]","1","2","","","17123","124","8","1","win","go","0"
"pit-trial","246","1578636","0.0-129.0","battery-v0.2","","""event"",""trial"",""time""
""fullscreenenter"",""1"",""4935""
","
","
","""event"",""trial"",""time""
""fullscreenenter"",""1"",""4935""
","
","","","1082.1000001430511","","","10","17123","6282","d","elianto","#3366ff99"," "," ","1","+10","[1933.1000001430511]","1","2","","","17123","125","8","1","win","go","0"
"pit-trial","247","1582660","0.0-130.0","battery-v0.2","","""event"",""trial"",""time""
""fullscreenenter"",""1"",""4935""
","
","
","""event"",""trial"",""time""
""fullscreenenter"",""1"",""4935""
","
","","","1169.7000000476837","","","10","17123","6282","j","elianto","#3366ff99"," "," ","1","+10","[2020.6000001430511]","1","2","","","17123","126","9","1","win","go","0"
"pit-trial","248","1587515","0.0-131.0","battery-v0.2","","""event"",""trial"",""time""
""fullscreenenter"",""1"",""4935""
","
","
","""event"",""trial"",""time""
""fullscreenenter"",""1"",""4935""
","
","","","-1","","","10","17123","6282","e","elianto","#f73b6a7A","-1","-1","1","-10","[]","0","2","","","17123","127","7","4","lose","no-go","1"
"pit-trial","249","1591186","0.0-132.0","battery-v0.2","","""event"",""trial"",""time""
""fullscreenenter"",""1"",""4935""
","
","
","""event"",""trial"",""time""
""fullscreenenter"",""1"",""4935""
","
","","","816.9000000953674","","","10","17123","6282","w","elianto","#f73b6a7A"," "," ","1","0","[1667.2999999523163]","1","2","","","17123","128","6","3","lose","go","0"
"pit-trial","250","1594684","0.0-133.0","battery-v0.2","","""event"",""trial"",""time""
""fullscreenenter"",""1"",""4935""
","
","
","""event"",""trial"",""time""
""fullscreenenter"",""1"",""4935""
","
","","","643.0999999046326","","","10","17123","6282","j","elianto","#3366ff99"," "," ","1","+10","[1494.0999999046326]","1","2","","","17123","129","9","1","win","go","0"
"pit-trial","251","1598428","0.0-134.0","battery-v0.2","","""event"",""trial"",""time""
""fullscreenenter"",""1"",""4935""
","
","
","""event"",""trial"",""time""
""fullscreenenter"",""1"",""4935""
","
","","","889.7000000476837","","","10","17123","6282","w","elianto","#f73b6a7A"," "," ","1","0","[1741.2000000476837]","1","2","","","17123","130","6","3","lose","go","0"
"pit-trial","252","1601947","0.0-135.0","battery-v0.2","","""event"",""trial"",""time""
""fullscreenenter"",""1"",""4935""
","
","
","""event"",""trial"",""time""
""fullscreenenter"",""1"",""4935""
","
","","","665","","","10","17123","6282","e","elianto","#f73b6a7A","-1"," ","0","-10","[1515.3999998569489]","1","2","","","17123","131","7","4","lose","no-go","0"
"pit-trial","253","1605489","0.0-136.0","battery-v0.2","","""event"",""trial"",""time""
""fullscreenenter"",""1"",""4935""
","
","
","""event"",""trial"",""time""
""fullscreenenter"",""1"",""4935""
","
","","","687.5","","","10","17123","6282","d","elianto","#3366ff99"," "," ","1","+10","[1537.7999999523163,1623.1999998092651]","2","2","","","17123","132","8","1","win","go","0"
"pit-trial","254","1609239","0.0-137.0","battery-v0.2","","""event"",""trial"",""time""
""fullscreenenter"",""1"",""4935""
","
","
","""event"",""trial"",""time""
""fullscreenenter"",""1"",""4935""
","
","","","896","","","10","17123","6282","d","elianto","#3366ff99"," "," ","1","+10","[1747.8000001907349]","1","2","","","17123","133","8","1","win","go","0"
"pit-trial","255","1612822","0.0-138.0","battery-v0.2","","""event"",""trial"",""time""
""fullscreenenter"",""1"",""4935""
","
","
","""event"",""trial"",""time""
""fullscreenenter"",""1"",""4935""
","
","","","728.5999999046326","","","10","17123","6282","w","elianto","#f73b6a7A"," "," ","1","0","[1580.2000000476837]","1","2","","","17123","134","6","3","lose","go","0"
"pit-trial","256","1617677","0.0-139.0","battery-v0.2","","""event"",""trial"",""time""
""fullscreenenter"",""1"",""4935""
","
","
","""event"",""trial"",""time""
""fullscreenenter"",""1"",""4935""
","
","","","-1","","","10","17123","6282","e","elianto","#f73b6a7A","-1","-1","1","0","[]","0","2","","","17123","135","7","4","lose","no-go","0"
"pit-trial","257","1621168","0.0-140.0","battery-v0.2","","""event"",""trial"",""time""
""fullscreenenter"",""1"",""4935""
","
","
","""event"",""trial"",""time""
""fullscreenenter"",""1"",""4935""
","
","","","636.3999998569489","","","10","17123","6282","j","elianto","#3366ff99"," "," ","1","+10","[1487.3999998569489]","1","2","","","17123","136","9","1","win","go","0"
"pit-trial","258","1624806","0.0-141.0","battery-v0.2","","""event"",""trial"",""time""
""fullscreenenter"",""1"",""4935""
","
","
","""event"",""trial"",""time""
""fullscreenenter"",""1"",""4935""
","
","","","782.1999998092651","","","10","17123","6282","j","elianto","#3366ff99"," "," ","1","0","[1633.2999999523163]","1","2","","","17123","137","9","1","win","go","1"
"pit-trial","259","1629661","0.0-142.0","battery-v0.2","","""event"",""trial"",""time""
""fullscreenenter"",""1"",""4935""
","
","
","""event"",""trial"",""time""
""fullscreenenter"",""1"",""4935""
","
","","","-1","","","10","17123","6282","e","elianto","#f73b6a7A","-1","-1","1","-10","[]","0","2","","","17123","138","7","4","lose","no-go","1"
"pit-trial","260","1633286","0.0-143.0","battery-v0.2","","""event"",""trial"",""time""
""fullscreenenter"",""1"",""4935""
","
","
","""event"",""trial"",""time""
""fullscreenenter"",""1"",""4935""
","
","","","770.3000001907349","","","10","17123","6282","d","elianto","#3366ff99"," "," ","1","0","[1620.9000000953674]","1","2","","","17123","139","8","1","win","go","1"
"pit-trial","261","1636796","0.0-144.0","battery-v0.2","","""event"",""trial"",""time""
""fullscreenenter"",""1"",""4935""
","
","
","""event"",""trial"",""time""
""fullscreenenter"",""1"",""4935""
","
","","","655.9000000953674","","","10","17123","6282","w","elianto","#f73b6a7A"," "," ","1","0","[1507.7999999523163]","1","2","","","17123","140","6","3","lose","go","0"
"pit-instructions","262","1711462","0.0-145.0","battery-v0.2","","""event"",""trial"",""time""
""fullscreenenter"",""1"",""4935""
","
","
","""event"",""trial"",""time""
""fullscreenenter"",""1"",""4935""
","
","","[{""page_index"":0,""viewing_time"":17659.299999952316},{""page_index"":1,""viewing_time"":57004.10000014305}]","74663.70000004768","","","","","","","","","","","","","","","","","","","","","","","",""
"pit-trial","263","1716318","0.0-146.0","battery-v0.2","","""event"",""trial"",""time""
""fullscreenenter"",""1"",""4935""
","
","
","""event"",""trial"",""time""
""fullscreenenter"",""1"",""4935""
","
","","","-1","","","10","17123","6282","n","elianto","#f73b6a7A","-1","-1","1","0","[]","0","3","","","17123","141","0","4","lose","no-go","0"
