"trial_type","trial_index","time_elapsed","internal_node_id","task_version","subject_id","interactions","blur_events","focus_events","fullscreenenter_events","fullscreenexit_events","success","view_history","rt","responses","num_errors","age","subject","participantId","rune","rune_set","hex","correct","choice","accuracy","outcome","keys","total_keys","block","practice","value","sub","trial","stimulus","robot","valence","action","sham"
"pavlovia","0","18","0.0-0.0","battery-v0.2","","""event"",""trial"",""time""
""fullscreenenter"",""1"",""1693""
","
","
","""event"",""trial"",""time""
""fullscreenenter"",""1"",""1693""
","
","","","","","","","","","","","","","","","","","","","","","","","","","","",""
"fullscreen","1","2629","0.0-1.0","battery-v0.2","","""event"",""trial"",""time""
""fullscreenenter"",""1"",""1693""
","
","
","""event"",""trial"",""time""
""fullscreenenter"",""1"",""1693""
","
","true","","","","","","","","","","","","","","","","","","","","","","","","","",""
"pit-instructions","2","11984","0.0-2.0-0.0","battery-v0.2","","""event"",""trial"",""time""
""fullscreenenter"",""1"",""1693""
","
","
","""event"",""trial"",""time""
""fullscreenenter"",""1"",""1693""
","
","","[{""page_index"":0,""viewing_time"":9345.899999976158}]","9346.800000071526","","","","","","","","","","","","","","","","","","","","","","","",""
"pit-comprehension","3","16742","0.0-2.0-1.0-0.0","battery-v0.2","","""event"",""trial"",""time""
""fullscreenenter"",""1"",""1693""
","
","
","""event"",""trial"",""time""
""fullscreenenter"",""1"",""1693""
","
","","","4748.899999976158","[""shark""]","0","10","12469","2928","","","","","","","","","","","","","","","","","","",""
"pit-instructions","4","18336","0.0-2.0-1.0-1.0","battery-v0.2","","""event"",""trial"",""time""
""fullscreenenter"",""1"",""1693""
","
","
","""event"",""trial"",""time""
""fullscreenenter"",""1"",""1693""
","
","","[{""page_index"":0,""viewing_time"":1550.5}]","1551.5","","","","","","","","","","","","","","","","","","","","","","","",""
"pit-comprehension","5","20867","0.0-2.0-2.0-0.0","battery-v0.2","","""event"",""trial"",""time""
""fullscreenenter"",""1"",""1693""
","
","
","""event"",""trial"",""time""
""fullscreenenter"",""1"",""1693""
","
","","","2521.100000023842","[""tiger""]","0","10","12469","2928","","","","","","","","","","","","","","","","","","",""
"pit-instructions","6","22033","0.0-2.0-2.0-1.0","battery-v0.2","","""event"",""trial"",""time""
""fullscreenenter"",""1"",""1693""
","
","
","""event"",""trial"",""time""
""fullscreenenter"",""1"",""1693""
","
","","[{""page_index"":0,""viewing_time"":1156}]","1157","","","","","","","","","","","","","","","","","","","","","","","",""
"pit-instructions","7","151105","0.0-2.0-3.0","battery-v0.2","","""event"",""trial"",""time""
""fullscreenenter"",""1"",""1693""
","
","
","""event"",""trial"",""time""
""fullscreenenter"",""1"",""1693""
","
","","[{""page_index"":0,""viewing_time"":7376.600000023842},{""page_index"":1,""viewing_time"":6118},{""page_index"":2,""viewing_time"":6177.5},{""page_index"":3,""viewing_time"":5192.300000071526},{""page_index"":4,""viewing_time"":5161.5},{""page_index"":5,""viewing_time"":5149.899999976158},{""page_index"":6,""viewing_time"":6266.100000023842},{""page_index"":7,""viewing_time"":6127.899999976158},{""page_index"":8,""viewing_time"":6406.399999976158},{""page_index"":9,""viewing_time"":10680.100000023842},{""page_index"":10,""viewing_time"":17551.699999928474},{""page_index"":9,""viewing_time"":19871.700000047684},{""page_index"":10,""viewing_time"":8312.200000047684},{""page_index"":11,""viewing_time"":7168},{""page_index"":12,""viewing_time"":6472.099999904633},{""page_index"":13,""viewing_time"":5032}]","129065.10000002384","","","","","","","","","","","","","","","","","","","","","","","",""
"pit-trial","8","154622","0.0-2.0-4.0-0.0","battery-v0.2","","""event"",""trial"",""time""
""fullscreenenter"",""1"",""1693""
","
","
","""event"",""trial"",""time""
""fullscreenenter"",""1"",""1693""
","
","","","655.6000000238419","","","10","12469","2928","&#9784;","elianto","#FFFFF080"," "," ","1","&#10004","[1506.1000000238419]","1","0","0","","","","","","","",""
"pit-trial","9","158153","0.0-2.0-4.1-0.1","battery-v0.2","","""event"",""trial"",""time""
""fullscreenenter"",""1"",""1693""
","
","
","""event"",""trial"",""time""
""fullscreenenter"",""1"",""1693""
","
","","","671.8000000715256","","","10","12469","2928","&#9784;","elianto","#FFFFF080"," "," ","1","&#10004","[1522.6000000238419]","1","0","0","","","","","","","",""
"pit-trial","10","161623","0.0-2.0-4.2-0.2","battery-v0.2","","""event"",""trial"",""time""
""fullscreenenter"",""1"",""1693""
","
","
","""event"",""trial"",""time""
""fullscreenenter"",""1"",""1693""
","
","","","606.2999999523163","","","10","12469","2928","&#9784;","elianto","#FFFFF080"," "," ","1","&#10004","[1458.3999999761581]","1","0","0","","","","","","","",""
"pit-trial","11","165018","0.0-2.0-4.3-0.3","battery-v0.2","","""event"",""trial"",""time""
""fullscreenenter"",""1"",""1693""
","
","
","""event"",""trial"",""time""
""fullscreenenter"",""1"",""1693""
","
","","","529.0999999046326","","","10","12469","2928","&#9784;","elianto","#FFFFF080"," "," ","1","&#10004","[1388.5999999046326]","1","0","0","","","","","","","",""
"pit-trial","12","168618","0.0-2.0-4.4-0.4","battery-v0.2","","""event"",""trial"",""time""
""fullscreenenter"",""1"",""1693""
","
","
","""event"",""trial"",""time""
""fullscreenenter"",""1"",""1693""
","
","","","733","","","10","12469","2928","&#9784;","elianto","#FFFFF080"," "," ","1","&#10004","[1584.6999999284744]","1","0","0","","","","","","","",""
"pit-instructions","13","189240","0.0-2.0-5.0","battery-v0.2","","""event"",""trial"",""time""
""fullscreenenter"",""1"",""1693""
","
","
","""event"",""trial"",""time""
""fullscreenenter"",""1"",""1693""
","
","","[{""page_index"":0,""viewing_time"":4494.600000023842},{""page_index"":1,""viewing_time"":6471.700000047684},{""page_index"":2,""viewing_time"":4490.399999976158},{""page_index"":3,""viewing_time"":5157.600000023842}]","20615.300000071526","","","","","","","","","","","","","","","","","","","","","","","",""
"pit-trial","14","194103","0.0-2.0-6.0-0.0","battery-v0.2","","""event"",""trial"",""time""
""fullscreenenter"",""1"",""1693""
","
","
","""event"",""trial"",""time""
""fullscreenenter"",""1"",""1693""
","
","","","-1","","","10","12469","2928","&#9854;","elianto","#FFFFF080","-1","-1","1","&#10004","[]","0","0","1","","","","","","","",""
"pit-trial","15","198965","0.0-2.0-6.1-0.1","battery-v0.2","","""event"",""trial"",""time""
""fullscreenenter"",""1"",""1693""
","
","
","""event"",""trial"",""time""
""fullscreenenter"",""1"",""1693""
","
","","","-1","","","10","12469","2928","&#9854;","elianto","#FFFFF080","-1","-1","1","&#10004","[]","0","0","1","","","","","","","",""
"pit-trial","16","203832","0.0-2.0-6.2-0.2","battery-v0.2","","""event"",""trial"",""time""
""fullscreenenter"",""1"",""1693""
","
","
","""event"",""trial"",""time""
""fullscreenenter"",""1"",""1693""
","
","","","-1","","","10","12469","2928","&#9854;","elianto","#FFFFF080","-1","-1","1","&#10004","[]","0","0","1","","","","","","","",""
"pit-trial","17","208704","0.0-2.0-6.3-0.3","battery-v0.2","","""event"",""trial"",""time""
""fullscreenenter"",""1"",""1693""
","
","
","""event"",""trial"",""time""
""fullscreenenter"",""1"",""1693""
","
","","","-1","","","10","12469","2928","&#9854;","elianto","#FFFFF080","-1","-1","1","&#10004","[]","0","0","1","","","","","","","",""
"pit-trial","18","213564","0.0-2.0-6.4-0.4","battery-v0.2","","""event"",""trial"",""time""
""fullscreenenter"",""1"",""1693""
","
","
","""event"",""trial"",""time""
""fullscreenenter"",""1"",""1693""
","
","","","-1","","","10","12469","2928","&#9854;","elianto","#FFFFF080","-1","-1","1","&#10004","[]","0","0","1","","","","","","","",""
"pit-instructions","19","322641","0.0-2.0-7.0","battery-v0.2","","""event"",""trial"",""time""
""fullscreenenter"",""1"",""1693""
","
","
","""event"",""trial"",""time""
""fullscreenenter"",""1"",""1693""
","
","","[{""page_index"":0,""viewing_time"":5316.700000047684},{""page_index"":1,""viewing_time"":7439.899999976158},{""page_index"":2,""viewing_time"":5368.200000047684},{""page_index"":3,""viewing_time"":5912},{""page_index"":4,""viewing_time"":5359.799999952316},{""page_index"":5,""viewing_time"":5144.100000023842},{""page_index"":6,""viewing_time"":5114.699999928474},{""page_index"":7,""viewing_time"":7461.400000095367},{""page_index"":8,""viewing_time"":6192.099999904633},{""page_index"":9,""viewing_time"":5361.700000047684},{""page_index"":10,""viewing_time"":7454.200000047684},{""page_index"":11,""viewing_time"":4079.899999976158},{""page_index"":12,""viewing_time"":6416.199999928474},{""page_index"":13,""viewing_time"":6048.400000095367},{""page_index"":14,""viewing_time"":6343.599999904633},{""page_index"":15,""viewing_time"":6528.5},{""page_index"":16,""viewing_time"":6527.300000071526},{""page_index"":17,""viewing_time"":7000.399999976158}]","109070.30000007153","","","","","","","","","","","","","","","","","","","","","","","",""
"pit-trial","20","326166","0.0-2.0-8.0-0.0","battery-v0.2","","""event"",""trial"",""time""
""fullscreenenter"",""1"",""1693""
","
","
","""event"",""trial"",""time""
""fullscreenenter"",""1"",""1693""
","
","","","657","","","10","12469","2928","&#9776;","elianto","#3366ff99"," "," ","1","+10","[1514.2999999523163]","1","0","1","","","","","","","",""
"pit-trial","21","329523","0.0-2.0-8.0-1.0","battery-v0.2","","""event"",""trial"",""time""
""fullscreenenter"",""1"",""1693""
","
","
","""event"",""trial"",""time""
""fullscreenenter"",""1"",""1693""
","
","","","494.60000002384186","","","10","12469","2928","&#9776;","elianto","#3366ff99"," "," ","1","+10","[1350.7999999523163]","1","0","1","","","","","","","",""
"pit-trial","22","332813","0.0-2.0-8.0-2.0","battery-v0.2","","""event"",""trial"",""time""
""fullscreenenter"",""1"",""1693""
","
","
","""event"",""trial"",""time""
""fullscreenenter"",""1"",""1693""
","
","","","420.89999997615814","","","10","12469","2928","&#9776;","elianto","#3366ff99"," "," ","1","+10","[1272.5,1992.2000000476837,2232.7000000476837,2568.4000000953674,2856]","5","0","1","","","","","","","",""
"pit-trial","23","336235","0.0-2.0-8.0-3.0","battery-v0.2","","""event"",""trial"",""time""
""fullscreenenter"",""1"",""1693""
","
","
","""event"",""trial"",""time""
""fullscreenenter"",""1"",""1693""
","
","","","563.7000000476837","","","10","12469","2928","&#9776;","elianto","#3366ff99"," "," ","1","0","[1414.2000000476837]","1","0","1","","","","","","","",""
"pit-trial","24","339491","0.0-2.0-8.0-4.0","battery-v0.2","","""event"",""trial"",""time""
""fullscreenenter"",""1"",""1693""
","
","
","""event"",""trial"",""time""
""fullscreenenter"",""1"",""1693""
","
","","","390","","","10","12469","2928","&#9776;","elianto","#3366ff99"," "," ","1","+10","[1243.2000000476837,1601.3999999761581,1919.7000000476837,2552.100000023842,2944.7999999523163]","5","0","1","","","","","","","",""
"pit-trial","25","342807","0.0-2.0-8.1-0.1","battery-v0.2","","""event"",""trial"",""time""
""fullscreenenter"",""1"",""1693""
","
","
","""event"",""trial"",""time""
""fullscreenenter"",""1"",""1693""
","
","","","446.2999999523163","","","10","12469","2928","&#9776;","elianto","#3366ff99"," "," ","1","+10","[48.700000047683716,1296.6000000238419,1654.8000000715256,2310.9000000953674,2695.2000000476837,3295.2000000476837]","6","0","1","","","","","","","",""
"pit-trial","26","346187","0.0-2.0-8.1-1.1","battery-v0.2","","""event"",""trial"",""time""
""fullscreenenter"",""1"",""1693""
","
","
","""event"",""trial"",""time""
""fullscreenenter"",""1"",""1693""
","
","","","513.5","","","10","12469","2928","&#9776;","elianto","#3366ff99"," "," ","1","+10","[1365.1999999284744]","1","0","1","","","","","","","",""
"pit-trial","27","349786","0.0-2.0-8.1-2.1","battery-v0.2","","""event"",""trial"",""time""
""fullscreenenter"",""1"",""1693""
","
","
","""event"",""trial"",""time""
""fullscreenenter"",""1"",""1693""
","
","","","733.2000000476837","","","10","12469","2928","&#9776;","elianto","#3366ff99"," "," ","1","+10","[1584.7999999523163]","1","0","1","","","","","","","",""
"pit-trial","28","353193","0.0-2.0-8.1-3.1","battery-v0.2","","""event"",""trial"",""time""
""fullscreenenter"",""1"",""1693""
","
","
","""event"",""trial"",""time""
""fullscreenenter"",""1"",""1693""
","
","","","549.8999999761581","","","10","12469","2928","&#9776;","elianto","#3366ff99"," "," ","1","0","[1402.0999999046326]","1","0","1","","","","","","","",""
"pit-trial","29","356545","0.0-2.0-8.1-4.1","battery-v0.2","","""event"",""trial"",""time""
""fullscreenenter"",""1"",""1693""
","
","
","""event"",""trial"",""time""
""fullscreenenter"",""1"",""1693""
","
","","","496.10000002384186","","","10","12469","2928","&#9776;","elianto","#3366ff99"," "," ","1","+10","[1347.1000000238419]","1","0","1","","","","","","","",""
"pit-trial","30","359982","0.0-2.0-8.2-0.2","battery-v0.2","","""event"",""trial"",""time""
""fullscreenenter"",""1"",""1693""
","
","
","""event"",""trial"",""time""
""fullscreenenter"",""1"",""1693""
","
","","","575.6000000238419","","","10","12469","2928","&#9776;","elianto","#3366ff99"," "," ","1","+10","[1426.2000000476837]","1","0","1","","","","","","","",""
"pit-trial","31","363273","0.0-2.0-8.2-1.2","battery-v0.2","","""event"",""trial"",""time""
""fullscreenenter"",""1"",""1693""
","
","
","""event"",""trial"",""time""
""fullscreenenter"",""1"",""1693""
","
","","","435.2000000476837","","","10","12469","2928","&#9776;","elianto","#3366ff99"," "," ","1","+10","[1285.7999999523163,1845.1999999284744,2741.6999999284744]","3","0","1","","","","","","","",""
"pit-trial","32","367146","0.0-2.0-8.2-2.2","battery-v0.2","","""event"",""trial"",""time""
""fullscreenenter"",""1"",""1693""
","
","
","""event"",""trial"",""time""
""fullscreenenter"",""1"",""1693""
","
","","","1016.1999999284744","","","10","12469","2928","&#9776;","elianto","#3366ff99"," "," ","1","+10","[26.399999976158142,1866.6999999284744]","2","0","1","","","","","","","",""
"pit-trial","33","370601","0.0-2.0-8.2-3.2","battery-v0.2","","""event"",""trial"",""time""
""fullscreenenter"",""1"",""1693""
","
","
","""event"",""trial"",""time""
""fullscreenenter"",""1"",""1693""
","
","","","599.7000000476837","","","10","12469","2928","&#9776;","elianto","#3366ff99"," "," ","1","0","[1449.7999999523163]","1","0","1","","","","","","","",""
"pit-trial","34","374049","0.0-2.0-8.2-4.2","battery-v0.2","","""event"",""trial"",""time""
""fullscreenenter"",""1"",""1693""
","
","
","""event"",""trial"",""time""
""fullscreenenter"",""1"",""1693""
","
","","","593.2999999523163","","","10","12469","2928","&#9776;","elianto","#3366ff99"," "," ","1","+10","[1443.8999999761581]","1","0","1","","","","","","","",""
"call-function","35","374054","0.0-2.0-9.0","battery-v0.2","","""event"",""trial"",""time""
""fullscreenenter"",""1"",""1693""
","
","
","""event"",""trial"",""time""
""fullscreenenter"",""1"",""1693""
","
","","","","","","","","","","","","","","","","","","","","","","","","","","",""
"pit-instructions","36","413407","0.0-2.0-10.0","battery-v0.2","","""event"",""trial"",""time""
""fullscreenenter"",""1"",""1693""
","
","
","""event"",""trial"",""time""
""fullscreenenter"",""1"",""1693""
","
","","[{""page_index"":0,""viewing_time"":5409},{""page_index"":1,""viewing_time"":8895.900000095367},{""page_index"":2,""viewing_time"":9110.599999904633},{""page_index"":3,""viewing_time"":8520.400000095367},{""page_index"":4,""viewing_time"":7415.199999928474}]","39351.700000047684","","","","","","","","","","","","","","","","","","","","","","","",""
"pit-trial","37","418286","0.0-2.0-11.0-0.0","battery-v0.2","","""event"",""trial"",""time""
""fullscreenenter"",""1"",""1693""
","
","
","""event"",""trial"",""time""
""fullscreenenter"",""1"",""1693""
","
","","","-1","","","10","12469","2928","&#9761;","elianto","#3366ff99","-1","-1","1","+10","[]","0","0","2","","","","","","","",""
"pit-trial","38","423150","0.0-2.0-11.0-1.0","battery-v0.2","","""event"",""trial"",""time""
""fullscreenenter"",""1"",""1693""
","
","
","""event"",""trial"",""time""
""fullscreenenter"",""1"",""1693""
","
","","","-1","","","10","12469","2928","&#9761;","elianto","#3366ff99","-1","-1","1","+10","[]","0","0","2","","","","","","","",""
"pit-trial","39","428020","0.0-2.0-11.0-2.0","battery-v0.2","","""event"",""trial"",""time""
""fullscreenenter"",""1"",""1693""
","
","
","""event"",""trial"",""time""
""fullscreenenter"",""1"",""1693""
","
","","","-1","","","10","12469","2928","&#9761;","elianto","#3366ff99","-1","-1","1","+10","[]","0","0","2","","","","","","","",""
"pit-trial","40","432904","0.0-2.0-11.0-3.0","battery-v0.2","","""event"",""trial"",""time""
""fullscreenenter"",""1"",""1693""
","
","
","""event"",""trial"",""time""
""fullscreenenter"",""1"",""1693""
","
","","","-1","","","10","12469","2928","&#9761;","elianto","#3366ff99","-1","-1","1","0","[]","0","0","2","","","","","","","",""
"pit-trial","41","437773","0.0-2.0-11.0-4.0","battery-v0.2","","""event"",""trial"",""time""
""fullscreenenter"",""1"",""1693""
","
","
","""event"",""trial"",""time""
""fullscreenenter"",""1"",""1693""
","
","","","-1","","","10","12469","2928","&#9761;","elianto","#3366ff99","-1","-1","1","+10","[]","0","0","2","","","","","","","",""
"pit-trial","42","442639","0.0-2.0-11.1-0.1","battery-v0.2","","""event"",""trial"",""time""
""fullscreenenter"",""1"",""1693""
","
","
","""event"",""trial"",""time""
""fullscreenenter"",""1"",""1693""
","
","","","-1","","","10","12469","2928","&#9761;","elianto","#3366ff99","-1","-1","1","+10","[]","0","0","2","","","","","","","",""
"pit-trial","43","447500","0.0-2.0-11.1-1.1","battery-v0.2","","""event"",""trial"",""time""
""fullscreenenter"",""1"",""1693""
","
","
","""event"",""trial"",""time""
""fullscreenenter"",""1"",""1693""
","
","","","-1","","","10","12469","2928","&#9761;","elianto","#3366ff99","-1","-1","1","+10","[]","0","0","2","","","","","","","",""
"pit-trial","44","450889","0.0-2.0-11.1-2.1","battery-v0.2","","""event"",""trial"",""time""
""fullscreenenter"",""1"",""1693""
","
","
","""event"",""trial"",""time""
""fullscreenenter"",""1"",""1693""
","
","","","533.1000000238419","","","10","12469","2928","&#9761;","elianto","#3366ff99","-1"," ","0","0","[1383.8000000715256]","1","0","2","","","","","","","",""
"pit-trial","45","455745","0.0-2.0-11.1-3.1","battery-v0.2","","""event"",""trial"",""time""
""fullscreenenter"",""1"",""1693""
","
","
","""event"",""trial"",""time""
""fullscreenenter"",""1"",""1693""
","
","","","-1","","","10","12469","2928","&#9761;","elianto","#3366ff99","-1","-1","1","0","[]","0","0","2","","","","","","","",""
"pit-trial","46","460600","0.0-2.0-11.1-4.1","battery-v0.2","","""event"",""trial"",""time""
""fullscreenenter"",""1"",""1693""
","
","
","""event"",""trial"",""time""
""fullscreenenter"",""1"",""1693""
","
","","","-1","","","10","12469","2928","&#9761;","elianto","#3366ff99","-1","-1","1","+10","[]","0","0","2","","","","","","","",""
"pit-trial","47","465463","0.0-2.0-11.2-0.2","battery-v0.2","","""event"",""trial"",""time""
""fullscreenenter"",""1"",""1693""
","
","
","""event"",""trial"",""time""
""fullscreenenter"",""1"",""1693""
","
","","","-1","","","10","12469","2928","&#9761;","elianto","#3366ff99","-1","-1","1","+10","[]","0","0","2","","","","","","","",""
"pit-trial","48","470318","0.0-2.0-11.2-1.2","battery-v0.2","","""event"",""trial"",""time""
""fullscreenenter"",""1"",""1693""
","
","
","""event"",""trial"",""time""
""fullscreenenter"",""1"",""1693""
","
","","","-1","","","10","12469","2928","&#9761;","elianto","#3366ff99","-1","-1","1","+10","[]","0","0","2","","","","","","","",""
"pit-trial","49","475174","0.0-2.0-11.2-2.2","battery-v0.2","","""event"",""trial"",""time""
""fullscreenenter"",""1"",""1693""
","
","
","""event"",""trial"",""time""
""fullscreenenter"",""1"",""1693""
","
","","","-1","","","10","12469","2928","&#9761;","elianto","#3366ff99","-1","-1","1","+10","[]","0","0","2","","","","","","","",""
"pit-trial","50","480043","0.0-2.0-11.2-3.2","battery-v0.2","","""event"",""trial"",""time""
""fullscreenenter"",""1"",""1693""
","
","
","""event"",""trial"",""time""
""fullscreenenter"",""1"",""1693""
","
","","","-1","","","10","12469","2928","&#9761;","elianto","#3366ff99","-1","-1","1","0","[]","0","0","2","","","","","","","",""
"pit-trial","51","484897","0.0-2.0-11.2-4.2","battery-v0.2","","""event"",""trial"",""time""
""fullscreenenter"",""1"",""1693""
","
","
","""event"",""trial"",""time""
""fullscreenenter"",""1"",""1693""
","
","","","-1","","","10","12469","2928","&#9761;","elianto","#3366ff99","-1","-1","1","+10","[]","0","0","2","","","","","","","",""
"pit-trial","52","489755","0.0-2.0-11.3-0.3","battery-v0.2","","""event"",""trial"",""time""
""fullscreenenter"",""1"",""1693""
","
","
","""event"",""trial"",""time""
""fullscreenenter"",""1"",""1693""
","
","","","-1","","","10","12469","2928","&#9761;","elianto","#3366ff99","-1","-1","1","+10","[]","0","0","2","","","","","","","",""
"pit-trial","53","494611","0.0-2.0-11.3-1.3","battery-v0.2","","""event"",""trial"",""time""
""fullscreenenter"",""1"",""1693""
","
","
","""event"",""trial"",""time""
""fullscreenenter"",""1"",""1693""
","
","","","-1","","","10","12469","2928","&#9761;","elianto","#3366ff99","-1","-1","1","+10","[]","0","0","2","","","","","","","",""
"pit-trial","54","499466","0.0-2.0-11.3-2.3","battery-v0.2","","""event"",""trial"",""time""
""fullscreenenter"",""1"",""1693""
","
","
","""event"",""trial"",""time""
""fullscreenenter"",""1"",""1693""
","
","","","-1","","","10","12469","2928","&#9761;","elianto","#3366ff99","-1","-1","1","+10","[]","0","0","2","","","","","","","",""
"pit-trial","55","504323","0.0-2.0-11.3-3.3","battery-v0.2","","""event"",""trial"",""time""
""fullscreenenter"",""1"",""1693""
","
","
","""event"",""trial"",""time""
""fullscreenenter"",""1"",""1693""
","
","","","-1","","","10","12469","2928","&#9761;","elianto","#3366ff99","-1","-1","1","0","[]","0","0","2","","","","","","","",""
"pit-trial","56","509178","0.0-2.0-11.3-4.3","battery-v0.2","","""event"",""trial"",""time""
""fullscreenenter"",""1"",""1693""
","
","
","""event"",""trial"",""time""
""fullscreenenter"",""1"",""1693""
","
","","","-1","","","10","12469","2928","&#9761;","elianto","#3366ff99","-1","-1","1","+10","[]","0","0","2","","","","","","","",""
"call-function","57","509181","0.0-2.0-12.0","battery-v0.2","","""event"",""trial"",""time""
""fullscreenenter"",""1"",""1693""
","
","
","""event"",""trial"",""time""
""fullscreenenter"",""1"",""1693""
","
","","","","","","","","","","","","","","","","","","","","","","","","","","",""
"pit-instructions","58","539488","0.0-2.0-13.0","battery-v0.2","","""event"",""trial"",""time""
""fullscreenenter"",""1"",""1693""
","
","
","""event"",""trial"",""time""
""fullscreenenter"",""1"",""1693""
","
","","[{""page_index"":0,""viewing_time"":4393.5},{""page_index"":1,""viewing_time"":7031.600000023842},{""page_index"":2,""viewing_time"":4152},{""page_index"":3,""viewing_time"":10255.5},{""page_index"":4,""viewing_time"":4472.399999976158}]","30306","","","","","","","","","","","","","","","","","","","","","","","",""
"pit-trial","59","542994","0.0-2.0-14.0-0.0","battery-v0.2","","""event"",""trial"",""time""
""fullscreenenter"",""1"",""1693""
","
","
","""event"",""trial"",""time""
""fullscreenenter"",""1"",""1693""
","
","","","646.2000000476837","","","10","12469","2928","&#9826;","elianto","#f73b6a7A","-1"," ","0","-10","[1499.3000000715256]","1","0","3","","","","","","","",""
"pit-trial","60","547866","0.0-2.0-14.0-1.0","battery-v0.2","","""event"",""trial"",""time""
""fullscreenenter"",""1"",""1693""
","
","
","""event"",""trial"",""time""
""fullscreenenter"",""1"",""1693""
","
","","","-1","","","10","12469","2928","&#9826;","elianto","#f73b6a7A","-1","-1","1","0","[]","0","0","3","","","","","","","",""
"pit-trial","61","552737","0.0-2.0-14.0-2.0","battery-v0.2","","""event"",""trial"",""time""
""fullscreenenter"",""1"",""1693""
","
","
","""event"",""trial"",""time""
""fullscreenenter"",""1"",""1693""
","
","","","-1","","","10","12469","2928","&#9826;","elianto","#f73b6a7A","-1","-1","1","0","[]","0","0","3","","","","","","","",""
"pit-trial","62","557598","0.0-2.0-14.0-3.0","battery-v0.2","","""event"",""trial"",""time""
""fullscreenenter"",""1"",""1693""
","
","
","""event"",""trial"",""time""
""fullscreenenter"",""1"",""1693""
","
","","","-1","","","10","12469","2928","&#9826;","elianto","#f73b6a7A","-1","-1","1","-10","[]","0","0","3","","","","","","","",""
"pit-trial","63","562456","0.0-2.0-14.0-4.0","battery-v0.2","","""event"",""trial"",""time""
""fullscreenenter"",""1"",""1693""
","
","
","""event"",""trial"",""time""
""fullscreenenter"",""1"",""1693""
","
","","","-1","","","10","12469","2928","&#9826;","elianto","#f73b6a7A","-1","-1","1","0","[]","0","0","3","","","","","","","",""
"pit-trial","64","567326","0.0-2.0-14.1-0.1","battery-v0.2","","""event"",""trial"",""time""
""fullscreenenter"",""1"",""1693""
","
","
","""event"",""trial"",""time""
""fullscreenenter"",""1"",""1693""
","
","","","-1","","","10","12469","2928","&#9826;","elianto","#f73b6a7A","-1","-1","1","0","[]","0","0","3","","","","","","","",""
"pit-trial","65","572181","0.0-2.0-14.1-1.1","battery-v0.2","","""event"",""trial"",""time""
""fullscreenenter"",""1"",""1693""
","
","
","""event"",""trial"",""time""
""fullscreenenter"",""1"",""1693""
","
","","","-1","","","10","12469","2928","&#9826;","elianto","#f73b6a7A","-1","-1","1","0","[]","0","0","3","","","","","","","",""
"pit-trial","66","577037","0.0-2.0-14.1-2.1","battery-v0.2","","""event"",""trial"",""time""
""fullscreenenter"",""1"",""1693""
","
","
","""event"",""trial"",""time""
""fullscreenenter"",""1"",""1693""
","
","","","-1","","","10","12469","2928","&#9826;","elianto","#f73b6a7A","-1","-1","1","0","[]","0","0","3","","","","","","","",""
"pit-trial","67","581892","0.0-2.0-14.1-3.1","battery-v0.2","","""event"",""trial"",""time""
""fullscreenenter"",""1"",""1693""
","
","
","""event"",""trial"",""time""
""fullscreenenter"",""1"",""1693""
","
","","","-1","","","10","12469","2928","&#9826;","elianto","#f73b6a7A","-1","-1","1","-10","[]","0","0","3","","","","","","","",""
"pit-trial","68","586748","0.0-2.0-14.1-4.1","battery-v0.2","","""event"",""trial"",""time""
""fullscreenenter"",""1"",""1693""
","
","
","""event"",""trial"",""time""
""fullscreenenter"",""1"",""1693""
","
","","","-1","","","10","12469","2928","&#9826;","elianto","#f73b6a7A","-1","-1","1","0","[]","0","0","3","","","","","","","",""
"pit-trial","69","591606","0.0-2.0-14.2-0.2","battery-v0.2","","""event"",""trial"",""time""
""fullscreenenter"",""1"",""1693""
","
","
","""event"",""trial"",""time""
""fullscreenenter"",""1"",""1693""
","
","","","-1","","","10","12469","2928","&#9826;","elianto","#f73b6a7A","-1","-1","1","0","[]","0","0","3","","","","","","","",""
"pit-trial","70","596461","0.0-2.0-14.2-1.2","battery-v0.2","","""event"",""trial"",""time""
""fullscreenenter"",""1"",""1693""
","
","
","""event"",""trial"",""time""
""fullscreenenter"",""1"",""1693""
","
","","","-1","","","10","12469","2928","&#9826;","elianto","#f73b6a7A","-1","-1","1","0","[]","0","0","3","","","","","","","",""
"pit-trial","71","601317","0.0-2.0-14.2-2.2","battery-v0.2","","""event"",""trial"",""time""
""fullscreenenter"",""1"",""1693""
","
","
","""event"",""trial"",""time""
""fullscreenenter"",""1"",""1693""
","
","","","-1","","","10","12469","2928","&#9826;","elianto","#f73b6a7A","-1","-1","1","0","[]","0","0","3","","","","","","","",""
"pit-trial","72","606173","0.0-2.0-14.2-3.2","battery-v0.2","","""event"",""trial"",""time""
""fullscreenenter"",""1"",""1693""
","
","
","""event"",""trial"",""time""
""fullscreenenter"",""1"",""1693""
","
","","","-1","","","10","12469","2928","&#9826;","elianto","#f73b6a7A","-1","-1","1","-10","[]","0","0","3","","","","","","","",""
"pit-trial","73","611028","0.0-2.0-14.2-4.2","battery-v0.2","","""event"",""trial"",""time""
""fullscreenenter"",""1"",""1693""
","
","
","""event"",""trial"",""time""
""fullscreenenter"",""1"",""1693""
","
","","","-1","","","10","12469","2928","&#9826;","elianto","#f73b6a7A","-1","-1","1","0","[]","0","0","3","","","","","","","",""
"pit-trial","74","615885","0.0-2.0-14.3-0.3","battery-v0.2","","""event"",""trial"",""time""
""fullscreenenter"",""1"",""1693""
","
","
","""event"",""trial"",""time""
""fullscreenenter"",""1"",""1693""
","
","","","-1","","","10","12469","2928","&#9826;","elianto","#f73b6a7A","-1","-1","1","0","[]","0","0","3","","","","","","","",""
"pit-trial","75","620740","0.0-2.0-14.3-1.3","battery-v0.2","","""event"",""trial"",""time""
""fullscreenenter"",""1"",""1693""
","
","
","""event"",""trial"",""time""
""fullscreenenter"",""1"",""1693""
","
","","","-1","","","10","12469","2928","&#9826;","elianto","#f73b6a7A","-1","-1","1","0","[]","0","0","3","","","","","","","",""
"pit-trial","76","625597","0.0-2.0-14.3-2.3","battery-v0.2","","""event"",""trial"",""time""
""fullscreenenter"",""1"",""1693""
","
","
","""event"",""trial"",""time""
""fullscreenenter"",""1"",""1693""
","
","","","-1","","","10","12469","2928","&#9826;","elianto","#f73b6a7A","-1","-1","1","0","[]","0","0","3","","","","","","","",""
"pit-trial","77","630452","0.0-2.0-14.3-3.3","battery-v0.2","","""event"",""trial"",""time""
""fullscreenenter"",""1"",""1693""
","
","
","""event"",""trial"",""time""
""fullscreenenter"",""1"",""1693""
","
","","","-1","","","10","12469","2928","&#9826;","elianto","#f73b6a7A","-1","-1","1","-10","[]","0","0","3","","","","","","","",""
"pit-trial","78","635307","0.0-2.0-14.3-4.3","battery-v0.2","","""event"",""trial"",""time""
""fullscreenenter"",""1"",""1693""
","
","
","""event"",""trial"",""time""
""fullscreenenter"",""1"",""1693""
","
","","","-1","","","10","12469","2928","&#9826;","elianto","#f73b6a7A","-1","-1","1","0","[]","0","0","3","","","","","","","",""
"call-function","79","635311","0.0-2.0-15.0","battery-v0.2","","""event"",""trial"",""time""
""fullscreenenter"",""1"",""1693""
","
","
","""event"",""trial"",""time""
""fullscreenenter"",""1"",""1693""
","
","","","","","","","","","","","","","","","","","","","","","","","","","","",""
"pit-instructions","80","658120","0.0-2.0-16.0","battery-v0.2","","""event"",""trial"",""time""
""fullscreenenter"",""1"",""1693""
","
","
","""event"",""trial"",""time""
""fullscreenenter"",""1"",""1693""
","
","","[{""page_index"":0,""viewing_time"":6181},{""page_index"":1,""viewing_time"":8129.5},{""page_index"":2,""viewing_time"":4265.799999952316},{""page_index"":3,""viewing_time"":4230.100000023842}]","22807.200000047684","","","","","","","","","","","","","","","","","","","","","","","",""
"pit-trial","81","661374","0.0-2.0-17.0-0.0","battery-v0.2","","""event"",""trial"",""time""
""fullscreenenter"",""1"",""1693""
","
","
","""event"",""trial"",""time""
""fullscreenenter"",""1"",""1693""
","
","","","392.3000000715256","","","10","12469","2928","&#9789;","elianto","#f73b6a7A"," "," ","1","0","[1243.2000000476837,1627.2000000476837,2011.2000000476837,2411.100000023842]","4","0","4","","","","","","","",""
"pit-trial","82","664627","0.0-2.0-17.0-1.0","battery-v0.2","","""event"",""trial"",""time""
""fullscreenenter"",""1"",""1693""
","
","
","""event"",""trial"",""time""
""fullscreenenter"",""1"",""1693""
","
","","","394.1999999284744","","","10","12469","2928","&#9789;","elianto","#f73b6a7A"," "," ","1","0","[1245.3000000715256]","1","0","4","","","","","","","",""
"pit-trial","83","667913","0.0-2.0-17.0-2.0","battery-v0.2","","""event"",""trial"",""time""
""fullscreenenter"",""1"",""1693""
","
","
","""event"",""trial"",""time""
""fullscreenenter"",""1"",""1693""
","
","","","422.8000000715256","","","10","12469","2928","&#9789;","elianto","#f73b6a7A"," "," ","1","0","[1273.2000000476837,1674,1914.1000000238419,2273,2809]","5","0","4","","","","","","","",""
"pit-trial","84","671343","0.0-2.0-17.0-3.0","battery-v0.2","","""event"",""trial"",""time""
""fullscreenenter"",""1"",""1693""
","
","
","""event"",""trial"",""time""
""fullscreenenter"",""1"",""1693""
","
","","","560.1000000238419","","","10","12469","2928","&#9789;","elianto","#f73b6a7A"," "," ","1","-10","[33.59999990463257,1418.1999999284744]","2","0","4","","","","","","","",""
"pit-trial","85","674813","0.0-2.0-17.0-4.0","battery-v0.2","","""event"",""trial"",""time""
""fullscreenenter"",""1"",""1693""
","
","
","""event"",""trial"",""time""
""fullscreenenter"",""1"",""1693""
","
","","","599.2999999523163","","","10","12469","2928","&#9789;","elianto","#f73b6a7A"," "," ","1","0","[1460.6000000238419]","1","0","4","","","","","","","",""
"pit-trial","86","678279","0.0-2.0-17.1-0.1","battery-v0.2","","""event"",""trial"",""time""
""fullscreenenter"",""1"",""1693""
","
","
","""event"",""trial"",""time""
""fullscreenenter"",""1"",""1693""
","
","","","595.8000000715256","","","10","12469","2928","&#9789;","elianto","#f73b6a7A"," "," ","1","0","[1453.2000000476837]","1","0","4","","","","","","","",""
"pit-trial","87","681689","0.0-2.0-17.1-1.1","battery-v0.2","","""event"",""trial"",""time""
""fullscreenenter"",""1"",""1693""
","
","
","""event"",""trial"",""time""
""fullscreenenter"",""1"",""1693""
","
","","","537.5","","","10","12469","2928","&#9789;","elianto","#f73b6a7A"," "," ","1","0","[1388.6000000238419]","1","0","4","","","","","","","",""
"pit-trial","88","685134","0.0-2.0-17.1-2.1","battery-v0.2","","""event"",""trial"",""time""
""fullscreenenter"",""1"",""1693""
","
","
","""event"",""trial"",""time""
""fullscreenenter"",""1"",""1693""
","
","","","585.6000000238419","","","10","12469","2928","&#9789;","elianto","#f73b6a7A"," "," ","1","0","[1436]","1","0","4","","","","","","","",""
"pit-trial","89","688440","0.0-2.0-17.1-3.1","battery-v0.2","","""event"",""trial"",""time""
""fullscreenenter"",""1"",""1693""
","
","
","""event"",""trial"",""time""
""fullscreenenter"",""1"",""1693""
","
","","","439.2999999523163","","","10","12469","2928","&#9789;","elianto","#f73b6a7A"," "," ","1","-10","[1293.8999999761581,1790.1000000238419,2582.100000023842]","3","0","4","","","","","","","",""
"pit-trial","90","692146","0.0-2.0-17.1-4.1","battery-v0.2","","""event"",""trial"",""time""
""fullscreenenter"",""1"",""1693""
","
","
","""event"",""trial"",""time""
""fullscreenenter"",""1"",""1693""
","
","","","847.8999999761581","","","10","12469","2928","&#9789;","elianto","#f73b6a7A"," "," ","1","0","[125.19999992847443,1701.3999999761581]","2","0","4","","","","","","","",""
"pit-trial","91","695642","0.0-2.0-17.2-0.2","battery-v0.2","","""event"",""trial"",""time""
""fullscreenenter"",""1"",""1693""
","
","
","""event"",""trial"",""time""
""fullscreenenter"",""1"",""1693""
","
","","","639.8000000715256","","","10","12469","2928","&#9789;","elianto","#f73b6a7A"," "," ","1","0","[1489.8999999761581]","1","0","4","","","","","","","",""
"pit-trial","92","699121","0.0-2.0-17.2-1.2","battery-v0.2","","""event"",""trial"",""time""
""fullscreenenter"",""1"",""1693""
","
","
","""event"",""trial"",""time""
""fullscreenenter"",""1"",""1693""
","
","","","622.5","","","10","12469","2928","&#9789;","elianto","#f73b6a7A"," "," ","1","0","[347.5,1474.8999999761581]","2","0","4","","","","","","","",""
"pit-trial","93","702550","0.0-2.0-17.2-2.2","battery-v0.2","","""event"",""trial"",""time""
""fullscreenenter"",""1"",""1693""
","
","
","""event"",""trial"",""time""
""fullscreenenter"",""1"",""1693""
","
","","","572","","","10","12469","2928","&#9789;","elianto","#f73b6a7A"," "," ","1","0","[1422.7000000476837]","1","0","4","","","","","","","",""
"pit-trial","94","705777","0.0-2.0-17.2-3.2","battery-v0.2","","""event"",""trial"",""time""
""fullscreenenter"",""1"",""1693""
","
","
","""event"",""trial"",""time""
""fullscreenenter"",""1"",""1693""
","
","","","367.2000000476837","","","10","12469","2928","&#9789;","elianto","#f73b6a7A"," "," ","1","-10","[1223.2000000476837,1630.7000000476837,2479.4000000953674,3110.8000000715256]","4","0","4","","","","","","","",""
"pit-trial","95","709143","0.0-2.0-17.2-4.2","battery-v0.2","","""event"",""trial"",""time""
""fullscreenenter"",""1"",""1693""
","
","
","""event"",""trial"",""time""
""fullscreenenter"",""1"",""1693""
","
","","","504.7000000476837","","","10","12469","2928","&#9789;","elianto","#f73b6a7A"," "," ","1","0","[1355]","1","0","4","","","","","","","",""
"pit-trial","96","712434","0.0-2.0-17.3-0.3","battery-v0.2","","""event"",""trial"",""time""
""fullscreenenter"",""1"",""1693""
","
","
","""event"",""trial"",""time""
""fullscreenenter"",""1"",""1693""
","
","","","435.7000000476837","","","10","12469","2928","&#9789;","elianto","#f73b6a7A"," "," ","1","0","[1286.1999999284744,1806.1999999284744,2862.399999976158]","3","0","4","","","","","","","",""
"pit-trial","97","715857","0.0-2.0-17.3-1.3","battery-v0.2","","""event"",""trial"",""time""
""fullscreenenter"",""1"",""1693""
","
","
","""event"",""trial"",""time""
""fullscreenenter"",""1"",""1693""
","
","","","568.5","","","10","12469","2928","&#9789;","elianto","#f73b6a7A"," "," ","1","0","[1419.2999999523163]","1","0","4","","","","","","","",""
"pit-trial","98","719202","0.0-2.0-17.3-2.3","battery-v0.2","","""event"",""trial"",""time""
""fullscreenenter"",""1"",""1693""
","
","
","""event"",""trial"",""time""
""fullscreenenter"",""1"",""1693""
","
","","","487.8000000715256","","","10","12469","2928","&#9789;","elianto","#f73b6a7A"," "," ","1","0","[1339.2000000476837]","1","0","4","","","","","","","",""
"pit-trial","99","722156","0.0-2.0-17.3-3.3","battery-v0.2","","""event"",""trial"",""time""
""fullscreenenter"",""1"",""1693""
","
","
","""event"",""trial"",""time""
""fullscreenenter"",""1"",""1693""
","
","","","96","","","10","12469","2928","&#9789;","elianto","#f73b6a7A"," "," ","1","-10","[946.5]","1","0","4","","","","","","","",""
"pit-trial","100","725218","0.0-2.0-17.3-4.3","battery-v0.2","","""event"",""trial"",""time""
""fullscreenenter"",""1"",""1693""
","
","
","""event"",""trial"",""time""
""fullscreenenter"",""1"",""1693""
","
","","","206","","","10","12469","2928","&#9789;","elianto","#f73b6a7A"," "," ","1","0","[1056.2999999523163]","1","0","4","","","","","","","",""
"call-function","101","725222","0.0-2.0-18.0","battery-v0.2","","""event"",""trial"",""time""
""fullscreenenter"",""1"",""1693""
","
","
","""event"",""trial"",""time""
""fullscreenenter"",""1"",""1693""
","
","","","","","","","","","","","","","","","","","","","","","","","","","","",""
"pit-instructions","102","784641","0.0-2.0-19.0","battery-v0.2","","""event"",""trial"",""time""
""fullscreenenter"",""1"",""1693""
","
","
","""event"",""trial"",""time""
""fullscreenenter"",""1"",""1693""
","
","","[{""page_index"":0,""viewing_time"":6391.900000095367},{""page_index"":1,""viewing_time"":6719.699999928474},{""page_index"":2,""viewing_time"":9016.5},{""page_index"":3,""viewing_time"":6888.100000023842},{""page_index"":4,""viewing_time"":7719.799999952316},{""page_index"":5,""viewing_time"":9416.300000071526},{""page_index"":6,""viewing_time"":5023.699999928474},{""page_index"":7,""viewing_time"":4919.700000047684},{""page_index"":8,""viewing_time"":3320.2999999523163}]","59417.10000002384","","","","","","","","","","","","","","","","","","","","","","","",""
"pit-comprehension","103","789044","0.0-2.0-20.0-0.0","battery-v0.2","","""event"",""trial"",""time""
""fullscreenenter"",""1"",""1693""
","
","
","""event"",""trial"",""time""
""fullscreenenter"",""1"",""1693""
","
","","","4394","[""SPACE""]","0","10","12469","2928","","","","","","","","","","","","","","","","","","",""
"pit-instructions","104","791593","0.0-2.0-20.0-1.0","battery-v0.2","","""event"",""trial"",""time""
""fullscreenenter"",""1"",""1693""
","
","
","""event"",""trial"",""time""
""fullscreenenter"",""1"",""1693""
","
","","[{""page_index"":0,""viewing_time"":2449.399999976158}]","2450.600000023842","","","","","","","","","","","","","","","","","","","","","","","",""
"pit-comprehension","105","795714","0.0-2.0-21.0-0.0","battery-v0.2","","""event"",""trial"",""time""
""fullscreenenter"",""1"",""1693""
","
","
","""event"",""trial"",""time""
""fullscreenenter"",""1"",""1693""
","
","","","4112","[""10""]","0","10","12469","2928","","","","","","","","","","","","","","","","","","",""
"pit-instructions","106","797856","0.0-2.0-21.0-1.0","battery-v0.2","","""event"",""trial"",""time""
""fullscreenenter"",""1"",""1693""
","
","
","""event"",""trial"",""time""
""fullscreenenter"",""1"",""1693""
","
","","[{""page_index"":0,""viewing_time"":2025.7000000476837}]","2026.6000000238419","","","","","","","","","","","","","","","","","","","","","","","",""
"pit-comprehension","107","804010","0.0-2.0-22.0-0.0","battery-v0.2","","""event"",""trial"",""time""
""fullscreenenter"",""1"",""1693""
","
","
","""event"",""trial"",""time""
""fullscreenenter"",""1"",""1693""
","
","","","6145.199999928474","[""-10""]","1","10","12469","2928","","","","","","","","","","","","","","","","","","",""
"pit-instructions","108","805921","0.0-2.0-22.0-1.0","battery-v0.2","","""event"",""trial"",""time""
""fullscreenenter"",""1"",""1693""
","
","
","""event"",""trial"",""time""
""fullscreenenter"",""1"",""1693""
","
","","[{""page_index"":0,""viewing_time"":1830.8999999761581}]","1831.8999999761581","","","","","","","","","","","","","","","","","","","","","","","",""
"pit-instructions","109","806601","0.0-2.0-22.0-2.0-0.0","battery-v0.2","","""event"",""trial"",""time""
""fullscreenenter"",""1"",""1693""
","
","
","""event"",""trial"",""time""
""fullscreenenter"",""1"",""1693""
","
","","[{""page_index"":0,""viewing_time"":674.6999999284744}]","675.7999999523163","","","","","","","","","","","","","","","","","","","","","","","",""
"pit-comprehension","110","812986","0.0-2.0-22.1-0.1","battery-v0.2","","""event"",""trial"",""time""
""fullscreenenter"",""1"",""1693""
","
","
","""event"",""trial"",""time""
""fullscreenenter"",""1"",""1693""
","
","","","6377.399999976158","[""0""]","0","10","12469","2928","","","","","","","","","","","","","","","","","","",""
"pit-instructions","111","814721","0.0-2.0-22.1-1.1","battery-v0.2","","""event"",""trial"",""time""
""fullscreenenter"",""1"",""1693""
","
","
","""event"",""trial"",""time""
""fullscreenenter"",""1"",""1693""
","
","","[{""page_index"":0,""viewing_time"":1650.7000000476837}]","1651.5","","","","","","","","","","","","","","","","","","","","","","","",""
"pit-comprehension","112","823098","0.0-2.0-23.0-0.0","battery-v0.2","","""event"",""trial"",""time""
""fullscreenenter"",""1"",""1693""
","
","
","""event"",""trial"",""time""
""fullscreenenter"",""1"",""1693""
","
","","","8369.799999952316","[""True""]","0","10","12469","2928","","","","","","","","","","","","","","","","","","",""
"pit-instructions","113","824889","0.0-2.0-23.0-1.0","battery-v0.2","","""event"",""trial"",""time""
""fullscreenenter"",""1"",""1693""
","
","
","""event"",""trial"",""time""
""fullscreenenter"",""1"",""1693""
","
","","[{""page_index"":0,""viewing_time"":1702.5}]","1703.4000000953674","","","","","","","","","","","","","","","","","","","","","","","",""
"pit-comprehension","114","832050","0.0-2.0-24.0-0.0","battery-v0.2","","""event"",""trial"",""time""
""fullscreenenter"",""1"",""1693""
","
","
","""event"",""trial"",""time""
""fullscreenenter"",""1"",""1693""
","
","","","7153","[""True""]","0","10","12469","2928","","","","","","","","","","","","","","","","","","",""
"pit-instructions","115","833713","0.0-2.0-24.0-1.0","battery-v0.2","","""event"",""trial"",""time""
""fullscreenenter"",""1"",""1693""
","
","
","""event"",""trial"",""time""
""fullscreenenter"",""1"",""1693""
","
","","[{""page_index"":0,""viewing_time"":1554.2999999523163}]","1555.1999999284744","","","","","","","","","","","","","","","","","","","","","","","",""
"pit-comprehension","116","839978","0.0-2.0-25.0-0.0","battery-v0.2","","""event"",""trial"",""time""
""fullscreenenter"",""1"",""1693""
","
","
","""event"",""trial"",""time""
""fullscreenenter"",""1"",""1693""
","
","","","6257.399999976158","[""True""]","0","10","12469","2928","","","","","","","","","","","","","","","","","","",""
"pit-instructions","117","841985","0.0-2.0-25.0-1.0","battery-v0.2","","""event"",""trial"",""time""
""fullscreenenter"",""1"",""1693""
","
","
","""event"",""trial"",""time""
""fullscreenenter"",""1"",""1693""
","
","","[{""page_index"":0,""viewing_time"":1911.2000000476837}]","1912.3000000715256","","","","","","","","","","","","","","","","","","","","","","","",""
"pit-comprehension","118","846274","0.0-2.0-26.0-0.0","battery-v0.2","","""event"",""trial"",""time""
""fullscreenenter"",""1"",""1693""
","
","
","""event"",""trial"",""time""
""fullscreenenter"",""1"",""1693""
","
","","","4281.699999928474","[""False""]","0","10","12469","2928","","","","","","","","","","","","","","","","","","",""
"pit-instructions","119","847616","0.0-2.0-26.0-1.0","battery-v0.2","","""event"",""trial"",""time""
""fullscreenenter"",""1"",""1693""
","
","
","""event"",""trial"",""time""
""fullscreenenter"",""1"",""1693""
","
","","[{""page_index"":0,""viewing_time"":1250.6000000238419}]","1251.5","","","","","","","","","","","","","","","","","","","","","","","",""
"pit-instructions","120","862520","0.0-3.0","battery-v0.2","","""event"",""trial"",""time""
""fullscreenenter"",""1"",""1693""
","
","
","""event"",""trial"",""time""
""fullscreenenter"",""1"",""1693""
","
","","[{""page_index"":0,""viewing_time"":3387.2999999523163},{""page_index"":1,""viewing_time"":5263.700000047684},{""page_index"":2,""viewing_time"":6248.099999904633}]","14899.899999976158","","","","","","","","","","","","","","","","","","","","","","","",""
"pit-trial","121","866106","0.0-4.0","battery-v0.2","","""event"",""trial"",""time""
""fullscreenenter"",""1"",""1693""
","
","
","""event"",""trial"",""time""
""fullscreenenter"",""1"",""1693""
","
","","","712.5","","","10","12469","2928","&#9733;","elianto","#3366ff99","-1"," ","0","0","[1571.8000000715256]","1","1","","","12469","1","2","2","win","no-go","0"
"pit-trial","122","870980","0.0-5.0","battery-v0.2","","""event"",""trial"",""time""
""fullscreenenter"",""1"",""1693""
","
","
","""event"",""trial"",""time""
""fullscreenenter"",""1"",""1693""
","
","","","-1","","","10","12469","2928","&#9728;","elianto","#f73b6a7A","-1","-1","1","0","[]","0","1","","","12469","2","0","4","lose","no-go","0"
"pit-trial","123","875848","0.0-6.0","battery-v0.2","","""event"",""trial"",""time""
""fullscreenenter"",""1"",""1693""
","
","
","""event"",""trial"",""time""
""fullscreenenter"",""1"",""1693""
","
","","","-1","","","10","12469","2928","&#9752;","elianto","#f73b6a7A"," ","-1","0","-10","[]","0","1","","","12469","3","3","3","lose","go","0"
"pit-trial","124","879780","0.0-7.0","battery-v0.2","","""event"",""trial"",""time""
""fullscreenenter"",""1"",""1693""
","
","
","""event"",""trial"",""time""
""fullscreenenter"",""1"",""1693""
","
","","","1059.2000000476837","","","10","12469","2928","&#9730;","elianto","#3366ff99"," "," ","1","0","[1917.1000000238419]","1","1","","","12469","4","1","1","win","go","1"
"pit-trial","125","884648","0.0-8.0","battery-v0.2","","""event"",""trial"",""time""
""fullscreenenter"",""1"",""1693""
","
","
","""event"",""trial"",""time""
""fullscreenenter"",""1"",""1693""
","
","","","-1","","","10","12469","2928","&#9733;","elianto","#3366ff99","-1","-1","1","+10","[]","0","1","","","12469","5","2","2","win","no-go","0"
"pit-trial","126","889514","0.0-9.0","battery-v0.2","","""event"",""trial"",""time""
""fullscreenenter"",""1"",""1693""
","
","
","""event"",""trial"",""time""
""fullscreenenter"",""1"",""1693""
","
","","","-1","","","10","12469","2928","&#9730;","elianto","#3366ff99"," ","-1","0","0","[]","0","1","","","12469","6","1","1","win","go","0"
"pit-trial","127","893439","0.0-10.0","battery-v0.2","","""event"",""trial"",""time""
""fullscreenenter"",""1"",""1693""
","
","
","""event"",""trial"",""time""
""fullscreenenter"",""1"",""1693""
","
","","","1057.2000000476837","","","10","12469","2928","&#9752;","elianto","#f73b6a7A"," "," ","1","0","[1915.8000000715256]","1","1","","","12469","7","3","3","lose","go","0"
"pit-trial","128","898294","0.0-11.0","battery-v0.2","","""event"",""trial"",""time""
""fullscreenenter"",""1"",""1693""
","
","
","""event"",""trial"",""time""
""fullscreenenter"",""1"",""1693""
","
","","","-1","","","10","12469","2928","&#9728;","elianto","#f73b6a7A","-1","-1","1","-10","[]","0","1","","","12469","8","0","4","lose","no-go","1"
"pit-trial","129","901641","0.0-12.0","battery-v0.2","","""event"",""trial"",""time""
""fullscreenenter"",""1"",""1693""
","
","
","""event"",""trial"",""time""
""fullscreenenter"",""1"",""1693""
","
","","","489.7999999523163","","","10","12469","2928","&#9733;","elianto","#3366ff99","-1"," ","0","+10","[1341.7999999523163]","1","1","","","12469","9","2","2","win","no-go","1"
"pit-trial","130","905098","0.0-13.0","battery-v0.2","","""event"",""trial"",""time""
""fullscreenenter"",""1"",""1693""
","
","
","""event"",""trial"",""time""
""fullscreenenter"",""1"",""1693""
","
","","","599.3000000715256","","","10","12469","2928","&#9730;","elianto","#3366ff99"," "," ","1","+10","[1451.3999999761581]","1","1","","","12469","10","1","1","win","go","0"
"pit-trial","131","909953","0.0-14.0","battery-v0.2","","""event"",""trial"",""time""
""fullscreenenter"",""1"",""1693""
","
","
","""event"",""trial"",""time""
""fullscreenenter"",""1"",""1693""
","
","","","-1","","","10","12469","2928","&#9752;","elianto","#f73b6a7A"," ","-1","0","-10","[]","0","1","","","12469","11","3","3","lose","go","0"
"pit-trial","132","914089","0.0-15.0","battery-v0.2","","""event"",""trial"",""time""
""fullscreenenter"",""1"",""1693""
","
","
","""event"",""trial"",""time""
""fullscreenenter"",""1"",""1693""
","
","","","1279","","","10","12469","2928","&#9728;","elianto","#f73b6a7A","-1"," ","0","-10","[2130.600000023842]","1","1","","","12469","12","0","4","lose","no-go","0"
"pit-trial","133","918442","0.0-16.0","battery-v0.2","","""event"",""trial"",""time""
""fullscreenenter"",""1"",""1693""
","
","
","""event"",""trial"",""time""
""fullscreenenter"",""1"",""1693""
","
","","","1497.5","","","10","12469","2928","&#9752;","elianto","#f73b6a7A"," "," ","1","-10","[2347.6999999284744]","1","1","","","12469","13","3","3","lose","go","1"
"pit-trial","134","921969","0.0-17.0","battery-v0.2","","""event"",""trial"",""time""
""fullscreenenter"",""1"",""1693""
","
","
","""event"",""trial"",""time""
""fullscreenenter"",""1"",""1693""
","
","","","671.2999999523163","","","10","12469","2928","&#9730;","elianto","#3366ff99"," "," ","1","+10","[1522]","1","1","","","12469","14","1","1","win","go","0"
"pit-trial","135","925601","0.0-18.0","battery-v0.2","","""event"",""trial"",""time""
""fullscreenenter"",""1"",""1693""
","
","
","""event"",""trial"",""time""
""fullscreenenter"",""1"",""1693""
","
","","","776.5999999046326","","","10","12469","2928","&#9733;","elianto","#3366ff99","-1"," ","0","0","[1627.0999999046326]","1","1","","","12469","15","2","2","win","no-go","0"
"pit-trial","136","930377","0.0-19.0","battery-v0.2","","""event"",""trial"",""time""
""fullscreenenter"",""1"",""1693""
","
","
","""event"",""trial"",""time""
""fullscreenenter"",""1"",""1693""
","
","","","1920.1000000238419","","","10","12469","2928","&#9728;","elianto","#f73b6a7A","-1"," ","0","-10","[2771.2999999523163]","1","1","","","12469","16","0","4","lose","no-go","0"
"pit-trial","137","935234","0.0-20.0","battery-v0.2","","""event"",""trial"",""time""
""fullscreenenter"",""1"",""1693""
","
","
","""event"",""trial"",""time""
""fullscreenenter"",""1"",""1693""
","
","","","-1","","","10","12469","2928","&#9728;","elianto","#f73b6a7A","-1","-1","1","0","[]","0","1","","","12469","17","0","4","lose","no-go","0"
"pit-trial","138","939411","0.0-21.0","battery-v0.2","","""event"",""trial"",""time""
""fullscreenenter"",""1"",""1693""
","
","
","""event"",""trial"",""time""
""fullscreenenter"",""1"",""1693""
","
","","","1320.1000000238419","","","10","12469","2928","&#9752;","elianto","#f73b6a7A"," "," ","1","0","[2170.399999976158]","1","1","","","12469","18","3","3","lose","go","0"
"pit-trial","139","944265","0.0-22.0","battery-v0.2","","""event"",""trial"",""time""
""fullscreenenter"",""1"",""1693""
","
","
","""event"",""trial"",""time""
""fullscreenenter"",""1"",""1693""
","
","","","-1","","","10","12469","2928","&#9733;","elianto","#3366ff99","-1","-1","1","+10","[]","0","1","","","12469","19","2","2","win","no-go","0"
"pit-trial","140","947633","0.0-23.0","battery-v0.2","","""event"",""trial"",""time""
""fullscreenenter"",""1"",""1693""
","
","
","""event"",""trial"",""time""
""fullscreenenter"",""1"",""1693""
","
","","","512","","","10","12469","2928","&#9730;","elianto","#3366ff99"," "," ","1","+10","[1362.6000000238419]","1","1","","","12469","20","1","1","win","go","0"
"pit-instructions","141","962544","0.0-24.0","battery-v0.2","","""event"",""trial"",""time""
""fullscreenenter"",""1"",""1693""
","
","
","""event"",""trial"",""time""
""fullscreenenter"",""1"",""1693""
","
","","[{""page_index"":0,""viewing_time"":5627.400000095367},{""page_index"":1,""viewing_time"":9279.299999952316}]","14907.5","","","","","","","","","","","","","","","","","","","","","","","",""
"pit-trial","142","966038","0.0-25.0","battery-v0.2","","""event"",""trial"",""time""
""fullscreenenter"",""1"",""1693""
","
","
","""event"",""trial"",""time""
""fullscreenenter"",""1"",""1693""
","
","","","623.8999999761581","","","10","12469","2928","n","elianto","#f73b6a7A"," "," ","1","0","[1480]","1","2","","","12469","21","0","3","lose","go","0"
"pit-trial","143","969769","0.0-26.0","battery-v0.2","","""event"",""trial"",""time""
""fullscreenenter"",""1"",""1693""
","
","
","""event"",""trial"",""time""
""fullscreenenter"",""1"",""1693""
","
","","","870.8999999761581","","","10","12469","2928","f","elianto","#3366ff99","-1"," ","0","0","[1725.0999999046326]","1","2","","","12469","22","1","2","win","no-go","0"
"pit-trial","144","973759","0.0-27.0","battery-v0.2","","""event"",""trial"",""time""
""fullscreenenter"",""1"",""1693""
","
","
","""event"",""trial"",""time""
""fullscreenenter"",""1"",""1693""
","
","","","1128.2999999523163","","","10","12469","2928","t","elianto","#f73b6a7A"," "," ","1","0","[1980.3000000715256]","1","2","","","12469","23","2","3","lose","go","0"
"pit-trial","145","977395","0.0-28.0","battery-v0.2","","""event"",""trial"",""time""
""fullscreenenter"",""1"",""1693""
","
","
","""event"",""trial"",""time""
""fullscreenenter"",""1"",""1693""
","
","","","769.6999999284744","","","10","12469","2928","b","elianto","#f73b6a7A","-1"," ","0","-10","[1621.0999999046326]","1","2","","","12469","24","3","4","lose","no-go","0"
"pit-trial","146","982258","0.0-29.0","battery-v0.2","","""event"",""trial"",""time""
""fullscreenenter"",""1"",""1693""
","
","
","""event"",""trial"",""time""
""fullscreenenter"",""1"",""1693""
","
","","","-1","","","10","12469","2928","b","elianto","#f73b6a7A","-1","-1","1","-10","[]","0","2","","","12469","25","3","4","lose","no-go","1"
"pit-trial","147","986706","0.0-30.0","battery-v0.2","","""event"",""trial"",""time""
""fullscreenenter"",""1"",""1693""
","
","
","""event"",""trial"",""time""
""fullscreenenter"",""1"",""1693""
","
","","","1582.3000000715256","","","10","12469","2928","n","elianto","#f73b6a7A"," "," ","1","0","[2433.399999976158]","1","2","","","12469","26","0","3","lose","go","0"
"pit-trial","148","990995","0.0-31.0","battery-v0.2","","""event"",""trial"",""time""
""fullscreenenter"",""1"",""1693""
","
","
","""event"",""trial"",""time""
""fullscreenenter"",""1"",""1693""
","
","","","1431.1999999284744","","","10","12469","2928","f","elianto","#3366ff99","-1"," ","0","+10","[2283.600000023842]","1","2","","","12469","27","1","2","win","no-go","1"
"pit-trial","149","995850","0.0-32.0","battery-v0.2","","""event"",""trial"",""time""
""fullscreenenter"",""1"",""1693""
","
","
","""event"",""trial"",""time""
""fullscreenenter"",""1"",""1693""
","
","","","-1","","","10","12469","2928","t","elianto","#f73b6a7A"," ","-1","0","-10","[]","0","2","","","12469","28","2","3","lose","go","0"
"pit-trial","150","999755","0.0-33.0","battery-v0.2","","""event"",""trial"",""time""
""fullscreenenter"",""1"",""1693""
","
","
","""event"",""trial"",""time""
""fullscreenenter"",""1"",""1693""
","
","","","1048.2999999523163","","","10","12469","2928","b","elianto","#f73b6a7A","-1"," ","0","0","[1899.2999999523163]","1","2","","","12469","29","3","4","lose","no-go","1"
"pit-trial","151","1004613","0.0-34.0","battery-v0.2","","""event"",""trial"",""time""
""fullscreenenter"",""1"",""1693""
","
","
","""event"",""trial"",""time""
""fullscreenenter"",""1"",""1693""
","
","","","-1","","","10","12469","2928","n","elianto","#f73b6a7A"," ","-1","0","-10","[]","0","2","","","12469","30","0","3","lose","go","0"
"pit-trial","152","1008178","0.0-35.0","battery-v0.2","","""event"",""trial"",""time""
""fullscreenenter"",""1"",""1693""
","
","
","""event"",""trial"",""time""
""fullscreenenter"",""1"",""1693""
","
","","","708.7999999523163","","","10","12469","2928","f","elianto","#3366ff99","-1"," ","0","0","[1559.5]","1","2","","","12469","31","1","2","win","no-go","0"
"pit-trial","153","1011952","0.0-36.0","battery-v0.2","","""event"",""trial"",""time""
""fullscreenenter"",""1"",""1693""
","
","
","""event"",""trial"",""time""
""fullscreenenter"",""1"",""1693""
","
","","","917.8000000715256","","","10","12469","2928","t","elianto","#f73b6a7A"," "," ","1","-10","[1769.1000000238419]","1","2","","","12469","32","2","3","lose","go","1"
"pit-trial","154","1016808","0.0-37.0","battery-v0.2","","""event"",""trial"",""time""
""fullscreenenter"",""1"",""1693""
","
","
","""event"",""trial"",""time""
""fullscreenenter"",""1"",""1693""
","
","","","-1","","","10","12469","2928","b","elianto","#f73b6a7A","-1","-1","1","0","[]","0","2","","","12469","33","3","4","lose","no-go","0"
"pit-trial","155","1021664","0.0-38.0","battery-v0.2","","""event"",""trial"",""time""
""fullscreenenter"",""1"",""1693""
","
","
","""event"",""trial"",""time""
""fullscreenenter"",""1"",""1693""
","
","","","-1","","","10","12469","2928","n","elianto","#f73b6a7A"," ","-1","0","-10","[]","0","2","","","12469","34","0","3","lose","go","0"
"pit-trial","156","1026520","0.0-39.0","battery-v0.2","","""event"",""trial"",""time""
""fullscreenenter"",""1"",""1693""
","
","
","""event"",""trial"",""time""
""fullscreenenter"",""1"",""1693""
","
","","","-1","","","10","12469","2928","f","elianto","#3366ff99","-1","-1","1","+10","[]","0","2","","","12469","35","1","2","win","no-go","0"
"pit-trial","157","1031375","0.0-40.0","battery-v0.2","","""event"",""trial"",""time""
""fullscreenenter"",""1"",""1693""
","
","
","""event"",""trial"",""time""
""fullscreenenter"",""1"",""1693""
","
","","","-1","","","10","12469","2928","t","elianto","#f73b6a7A"," ","-1","0","0","[]","0","2","","","12469","36","2","3","lose","go","1"
"pit-trial","158","1036231","0.0-41.0","battery-v0.2","","""event"",""trial"",""time""
""fullscreenenter"",""1"",""1693""
","
","
","""event"",""trial"",""time""
""fullscreenenter"",""1"",""1693""
","
","","","-1","","","10","12469","2928","t","elianto","#f73b6a7A"," ","-1","0","-10","[]","0","2","","","12469","37","2","3","lose","go","0"
"pit-trial","159","1041085","0.0-42.0","battery-v0.2","","""event"",""trial"",""time""
""fullscreenenter"",""1"",""1693""
","
","
","""event"",""trial"",""time""
""fullscreenenter"",""1"",""1693""
","
","","","-1","","","10","12469","2928","b","elianto","#f73b6a7A","-1","-1","1","0","[]","0","2","","","12469","38","3","4","lose","no-go","0"
"pit-trial","160","1045940","0.0-43.0","battery-v0.2","","""event"",""trial"",""time""
""fullscreenenter"",""1"",""1693""
","
","
","""event"",""trial"",""time""
""fullscreenenter"",""1"",""1693""
","
","","","-1","","","10","12469","2928","f","elianto","#3366ff99","-1","-1","1","+10","[]","0","2","","","12469","39","1","2","win","no-go","0"
"pit-trial","161","1049338","0.0-44.0","battery-v0.2","","""event"",""trial"",""time""
""fullscreenenter"",""1"",""1693""
","
","
","""event"",""trial"",""time""
""fullscreenenter"",""1"",""1693""
","
","","","540.1000000238419","","","10","12469","2928","n","elianto","#f73b6a7A"," "," ","1","0","[1391.8999999761581]","1","2","","","12469","40","0","3","lose","go","0"
"pit-trial","162","1052985","0.0-45.0","battery-v0.2","","""event"",""trial"",""time""
""fullscreenenter"",""1"",""1693""
","
","
","""event"",""trial"",""time""
""fullscreenenter"",""1"",""1693""
","
","","","791.5","","","10","12469","2928","n","elianto","#f73b6a7A"," "," ","1","-10","[1641.7999999523163]","1","2","","","12469","41","0","3","lose","go","1"
"pit-trial","163","1057841","0.0-46.0","battery-v0.2","","""event"",""trial"",""time""
""fullscreenenter"",""1"",""1693""
","
","
","""event"",""trial"",""time""
""fullscreenenter"",""1"",""1693""
","
","","","-1","","","10","12469","2928","b","elianto","#f73b6a7A","-1","-1","1","-10","[]","0","2","","","12469","42","3","4","lose","no-go","1"
"pit-trial","164","1062697","0.0-47.0","battery-v0.2","","""event"",""trial"",""time""
""fullscreenenter"",""1"",""1693""
","
","
","""event"",""trial"",""time""
""fullscreenenter"",""1"",""1693""
","
","","","-1","","","10","12469","2928","t","elianto","#f73b6a7A"," ","-1","0","-10","[]","0","2","","","12469","43","2","3","lose","go","0"
"pit-trial","165","1067553","0.0-48.0","battery-v0.2","","""event"",""trial"",""time""
""fullscreenenter"",""1"",""1693""
","
","
","""event"",""trial"",""time""
""fullscreenenter"",""1"",""1693""
","
","","","-1","","","10","12469","2928","f","elianto","#3366ff99","-1","-1","1","+10","[]","0","2","","","12469","44","1","2","win","no-go","0"
"pit-trial","166","1072408","0.0-49.0","battery-v0.2","","""event"",""trial"",""time""
""fullscreenenter"",""1"",""1693""
","
","
","""event"",""trial"",""time""
""fullscreenenter"",""1"",""1693""
","
","","","-1","","","10","12469","2928","b","elianto","#f73b6a7A","-1","-1","1","0","[]","0","2","","","12469","45","3","4","lose","no-go","0"
"pit-trial","167","1077265","0.0-50.0","battery-v0.2","","""event"",""trial"",""time""
""fullscreenenter"",""1"",""1693""
","
","
","""event"",""trial"",""time""
""fullscreenenter"",""1"",""1693""
","
","","","-1","","","10","12469","2928","t","elianto","#f73b6a7A"," ","-1","0","-10","[]","0","2","","","12469","46","2","3","lose","go","0"
"pit-trial","168","1082121","0.0-51.0","battery-v0.2","","""event"",""trial"",""time""
""fullscreenenter"",""1"",""1693""
","
","
","""event"",""trial"",""time""
""fullscreenenter"",""1"",""1693""
","
","","","-1","","","10","12469","2928","f","elianto","#3366ff99","-1","-1","1","+10","[]","0","2","","","12469","47","1","2","win","no-go","0"
"pit-trial","169","1085705","0.0-52.0","battery-v0.2","","""event"",""trial"",""time""
""fullscreenenter"",""1"",""1693""
","
","
","""event"",""trial"",""time""
""fullscreenenter"",""1"",""1693""
","
","","","728.6999999284744","","","10","12469","2928","n","elianto","#f73b6a7A"," "," ","1","0","[1579]","1","2","","","12469","48","0","3","lose","go","0"
"pit-trial","170","1090561","0.0-53.0","battery-v0.2","","""event"",""trial"",""time""
""fullscreenenter"",""1"",""1693""
","
","
","""event"",""trial"",""time""
""fullscreenenter"",""1"",""1693""
","
","","","-1","","","10","12469","2928","b","elianto","#f73b6a7A","-1","-1","1","0","[]","0","2","","","12469","49","3","4","lose","no-go","0"
"pit-trial","171","1095416","0.0-54.0","battery-v0.2","","""event"",""trial"",""time""
""fullscreenenter"",""1"",""1693""
","
","
","""event"",""trial"",""time""
""fullscreenenter"",""1"",""1693""
","
","","","-1","","","10","12469","2928","t","elianto","#f73b6a7A"," ","-1","0","-10","[]","0","2","","","12469","50","2","3","lose","go","0"
"pit-trial","172","1100274","0.0-55.0","battery-v0.2","","""event"",""trial"",""time""
""fullscreenenter"",""1"",""1693""
","
","
","""event"",""trial"",""time""
""fullscreenenter"",""1"",""1693""
","
","","","-1","","","10","12469","2928","f","elianto","#3366ff99","-1","-1","1","+10","[]","0","2","","","12469","51","1","2","win","no-go","0"
"pit-trial","173","1103833","0.0-56.0","battery-v0.2","","""event"",""trial"",""time""
""fullscreenenter"",""1"",""1693""
","
","
","""event"",""trial"",""time""
""fullscreenenter"",""1"",""1693""
","
","","","703.0999999046326","","","10","12469","2928","n","elianto","#f73b6a7A"," "," ","1","0","[1554.2999999523163]","1","2","","","12469","52","0","3","lose","go","0"
"pit-trial","174","1108689","0.0-57.0","battery-v0.2","","""event"",""trial"",""time""
""fullscreenenter"",""1"",""1693""
","
","
","""event"",""trial"",""time""
""fullscreenenter"",""1"",""1693""
","
","","","-1","","","10","12469","2928","f","elianto","#3366ff99","-1","-1","1","+10","[]","0","2","","","12469","53","1","2","win","no-go","0"
"pit-trial","175","1112113","0.0-58.0","battery-v0.2","","""event"",""trial"",""time""
""fullscreenenter"",""1"",""1693""
","
","
","""event"",""trial"",""time""
""fullscreenenter"",""1"",""1693""
","
","","","565.8999999761581","","","10","12469","2928","t","elianto","#f73b6a7A"," "," ","1","-10","[1419.1999999284744]","1","2","","","12469","54","2","3","lose","go","1"
"pit-trial","176","1116973","0.0-59.0","battery-v0.2","","""event"",""trial"",""time""
""fullscreenenter"",""1"",""1693""
","
","
","""event"",""trial"",""time""
""fullscreenenter"",""1"",""1693""
","
","","","-1","","","10","12469","2928","b","elianto","#f73b6a7A","-1","-1","1","0","[]","0","2","","","12469","55","3","4","lose","no-go","0"
"pit-trial","177","1120667","0.0-60.0","battery-v0.2","","""event"",""trial"",""time""
""fullscreenenter"",""1"",""1693""
","
","
","""event"",""trial"",""time""
""fullscreenenter"",""1"",""1693""
","
","","","836.0999999046326","","","10","12469","2928","n","elianto","#f73b6a7A"," "," ","1","0","[1688.0999999046326]","1","2","","","12469","56","0","3","lose","go","0"
"pit-trial","178","1125524","0.0-61.0","battery-v0.2","","""event"",""trial"",""time""
""fullscreenenter"",""1"",""1693""
","
","
","""event"",""trial"",""time""
""fullscreenenter"",""1"",""1693""
","
","","","-1","","","10","12469","2928","b","elianto","#f73b6a7A","-1","-1","1","0","[]","0","2","","","12469","57","3","4","lose","no-go","0"
"pit-trial","179","1128993","0.0-62.0","battery-v0.2","","""event"",""trial"",""time""
""fullscreenenter"",""1"",""1693""
","
","
","""event"",""trial"",""time""
""fullscreenenter"",""1"",""1693""
","
","","","611.8999999761581","","","10","12469","2928","t","elianto","#f73b6a7A"," "," ","1","-10","[1463.5999999046326]","1","2","","","12469","58","2","3","lose","go","1"
"pit-trial","180","1133848","0.0-63.0","battery-v0.2","","""event"",""trial"",""time""
""fullscreenenter"",""1"",""1693""
","
","
","""event"",""trial"",""time""
""fullscreenenter"",""1"",""1693""
","
","","","-1","","","10","12469","2928","c","elianto","#3366ff99"," ","-1","0","0","[]","0","2","","","12469","59","4","1","win","go","0"
"pit-trial","181","1137617","0.0-64.0","battery-v0.2","","""event"",""trial"",""time""
""fullscreenenter"",""1"",""1693""
","
","
","""event"",""trial"",""time""
""fullscreenenter"",""1"",""1693""
","
","","","913.0999999046326","","","10","12469","2928","n","elianto","#f73b6a7A"," "," ","1","-10","[1764.1999999284744]","1","2","","","12469","60","0","3","lose","go","1"
"pit-trial","182","1141524","0.0-65.0","battery-v0.2","","""event"",""trial"",""time""
""fullscreenenter"",""1"",""1693""
","
","
","""event"",""trial"",""time""
""fullscreenenter"",""1"",""1693""
","
","","","1052.1000000238419","","","10","12469","2928","c","elianto","#3366ff99"," "," ","1","+10","[1902.1000000238419]","1","2","","","12469","61","4","1","win","go","0"
"pit-trial","183","1145857","0.0-66.0","battery-v0.2","","""event"",""trial"",""time""
""fullscreenenter"",""1"",""1693""
","
","
","""event"",""trial"",""time""
""fullscreenenter"",""1"",""1693""
","
","","","1476.3000000715256","","","10","12469","2928","t","elianto","#f73b6a7A"," "," ","1","0","[2328]","1","2","","","12469","62","2","3","lose","go","0"
"pit-trial","184","1150719","0.0-67.0","battery-v0.2","","""event"",""trial"",""time""
""fullscreenenter"",""1"",""1693""
","
","
","""event"",""trial"",""time""
""fullscreenenter"",""1"",""1693""
","
","","","-1","","","10","12469","2928","b","elianto","#f73b6a7A","-1","-1","1","0","[]","0","2","","","12469","63","3","4","lose","no-go","0"
"pit-trial","185","1155574","0.0-68.0","battery-v0.2","","""event"",""trial"",""time""
""fullscreenenter"",""1"",""1693""
","
","
","""event"",""trial"",""time""
""fullscreenenter"",""1"",""1693""
","
","","","-1","","","10","12469","2928","f","elianto","#3366ff99","-1","-1","1","+10","[]","0","2","","","12469","64","1","2","win","no-go","0"
"pit-trial","186","1160430","0.0-69.0","battery-v0.2","","""event"",""trial"",""time""
""fullscreenenter"",""1"",""1693""
","
","
","""event"",""trial"",""time""
""fullscreenenter"",""1"",""1693""
","
","","","-1","","","10","12469","2928","b","elianto","#f73b6a7A","-1","-1","1","-10","[]","0","2","","","12469","65","3","4","lose","no-go","1"
"pit-trial","187","1165285","0.0-70.0","battery-v0.2","","""event"",""trial"",""time""
""fullscreenenter"",""1"",""1693""
","
","
","""event"",""trial"",""time""
""fullscreenenter"",""1"",""1693""
","
","","","-1","","","10","12469","2928","f","elianto","#3366ff99","-1","-1","1","+10","[]","0","2","","","12469","66","1","2","win","no-go","0"
"pit-trial","188","1169322","0.0-71.0","battery-v0.2","","""event"",""trial"",""time""
""fullscreenenter"",""1"",""1693""
","
","
","""event"",""trial"",""time""
""fullscreenenter"",""1"",""1693""
","
","","","1181.7000000476837","","","10","12469","2928","z","elianto","#3366ff99","-1"," ","0","0","[2033.2999999523163]","1","2","","","12469","67","5","2","win","no-go","0"
"pit-trial","189","1174178","0.0-72.0","battery-v0.2","","""event"",""trial"",""time""
""fullscreenenter"",""1"",""1693""
","
","
","""event"",""trial"",""time""
""fullscreenenter"",""1"",""1693""
","
","","","-1","","","10","12469","2928","c","elianto","#3366ff99"," ","-1","0","+10","[]","0","2","","","12469","68","4","1","win","go","1"
"pit-trial","190","1179034","0.0-73.0","battery-v0.2","","""event"",""trial"",""time""
""fullscreenenter"",""1"",""1693""
","
","
","""event"",""trial"",""time""
""fullscreenenter"",""1"",""1693""
","
","","","-1","","","10","12469","2928","f","elianto","#3366ff99","-1","-1","1","+10","[]","0","2","","","12469","69","1","2","win","no-go","0"
"pit-trial","191","1183890","0.0-74.0","battery-v0.2","","""event"",""trial"",""time""
""fullscreenenter"",""1"",""1693""
","
","
","""event"",""trial"",""time""
""fullscreenenter"",""1"",""1693""
","
","","","-1","","","10","12469","2928","c","elianto","#3366ff99"," ","-1","0","0","[]","0","2","","","12469","70","4","1","win","go","0"
"pit-trial","192","1188745","0.0-75.0","battery-v0.2","","""event"",""trial"",""time""
""fullscreenenter"",""1"",""1693""
","
","
","""event"",""trial"",""time""
""fullscreenenter"",""1"",""1693""
","
","","","-1","","","10","12469","2928","z","elianto","#3366ff99","-1","-1","1","0","[]","0","2","","","12469","71","5","2","win","no-go","1"
"pit-trial","193","1193600","0.0-76.0","battery-v0.2","","""event"",""trial"",""time""
""fullscreenenter"",""1"",""1693""
","
","
","""event"",""trial"",""time""
""fullscreenenter"",""1"",""1693""
","
","","","-1","","","10","12469","2928","t","elianto","#f73b6a7A"," ","-1","0","-10","[]","0","2","","","12469","72","2","3","lose","go","0"
"pit-trial","194","1198456","0.0-77.0","battery-v0.2","","""event"",""trial"",""time""
""fullscreenenter"",""1"",""1693""
","
","
","""event"",""trial"",""time""
""fullscreenenter"",""1"",""1693""
","
","","","-1","","","10","12469","2928","b","elianto","#f73b6a7A","-1","-1","1","0","[]","0","2","","","12469","73","3","4","lose","no-go","0"
"pit-trial","195","1202674","0.0-78.0","battery-v0.2","","""event"",""trial"",""time""
""fullscreenenter"",""1"",""1693""
","
","
","""event"",""trial"",""time""
""fullscreenenter"",""1"",""1693""
","
","","","1363.5","","","10","12469","2928","z","elianto","#3366ff99","-1"," ","0","+10","[2213.7999999523163]","1","2","","","12469","74","5","2","win","no-go","1"
"pit-trial","196","1207531","0.0-79.0","battery-v0.2","","""event"",""trial"",""time""
""fullscreenenter"",""1"",""1693""
","
","
","""event"",""trial"",""time""
""fullscreenenter"",""1"",""1693""
","
","","","-1","","","10","12469","2928","c","elianto","#3366ff99"," ","-1","0","0","[]","0","2","","","12469","75","4","1","win","go","0"
"pit-trial","197","1212387","0.0-80.0","battery-v0.2","","""event"",""trial"",""time""
""fullscreenenter"",""1"",""1693""
","
","
","""event"",""trial"",""time""
""fullscreenenter"",""1"",""1693""
","
","","","-1","","","10","12469","2928","f","elianto","#3366ff99","-1","-1","1","+10","[]","0","2","","","12469","76","1","2","win","no-go","0"
"pit-trial","198","1216049","0.0-81.0","battery-v0.2","","""event"",""trial"",""time""
""fullscreenenter"",""1"",""1693""
","
","
","""event"",""trial"",""time""
""fullscreenenter"",""1"",""1693""
","
","","","807.2999999523163","","","10","12469","2928","c","elianto","#3366ff99"," "," ","1","+10","[1657.3999999761581]","1","2","","","12469","77","4","1","win","go","0"
"pit-trial","199","1220905","0.0-82.0","battery-v0.2","","""event"",""trial"",""time""
""fullscreenenter"",""1"",""1693""
","
","
","""event"",""trial"",""time""
""fullscreenenter"",""1"",""1693""
","
","","","-1","","","10","12469","2928","b","elianto","#f73b6a7A","-1","-1","1","-10","[]","0","2","","","12469","78","3","4","lose","no-go","1"
"pit-trial","200","1225762","0.0-83.0","battery-v0.2","","""event"",""trial"",""time""
""fullscreenenter"",""1"",""1693""
","
","
","""event"",""trial"",""time""
""fullscreenenter"",""1"",""1693""
","
","","","-1","","","10","12469","2928","c","elianto","#3366ff99"," ","-1","0","0","[]","0","2","","","12469","79","4","1","win","go","0"
"pit-trial","201","1229410","0.0-84.0","battery-v0.2","","""event"",""trial"",""time""
""fullscreenenter"",""1"",""1693""
","
","
","""event"",""trial"",""time""
""fullscreenenter"",""1"",""1693""
","
","","","792.6000000238419","","","10","12469","2928","z","elianto","#3366ff99","-1"," ","0","0","[1643]","1","2","","","12469","80","5","2","win","no-go","0"
"pit-trial","202","1234265","0.0-85.0","battery-v0.2","","""event"",""trial"",""time""
""fullscreenenter"",""1"",""1693""
","
","
","""event"",""trial"",""time""
""fullscreenenter"",""1"",""1693""
","
","","","-1","","","10","12469","2928","y","elianto","#f73b6a7A","-1","-1","1","0","[]","0","2","","","12469","81","7","4","lose","no-go","0"
"pit-trial","203","1238395","0.0-86.0","battery-v0.2","","""event"",""trial"",""time""
""fullscreenenter"",""1"",""1693""
","
","
","""event"",""trial"",""time""
""fullscreenenter"",""1"",""1693""
","
","","","1272.4000000953674","","","10","12469","2928","c","elianto","#3366ff99"," "," ","1","+10","[42.39999997615814,2123.3000000715256]","2","2","","","12469","82","4","1","win","go","0"
"pit-trial","204","1242185","0.0-87.0","battery-v0.2","","""event"",""trial"",""time""
""fullscreenenter"",""1"",""1693""
","
","
","""event"",""trial"",""time""
""fullscreenenter"",""1"",""1693""
","
","","","934.8000000715256","","","10","12469","2928","z","elianto","#3366ff99","-1"," ","0","+10","[1785.6000000238419]","1","2","","","12469","83","5","2","win","no-go","1"
"pit-trial","205","1247041","0.0-88.0","battery-v0.2","","""event"",""trial"",""time""
""fullscreenenter"",""1"",""1693""
","
","
","""event"",""trial"",""time""
""fullscreenenter"",""1"",""1693""
","
","","","-1","","","10","12469","2928","b","elianto","#f73b6a7A","-1","-1","1","0","[]","0","2","","","12469","84","3","4","lose","no-go","0"
"pit-trial","206","1251901","0.0-89.0","battery-v0.2","","""event"",""trial"",""time""
""fullscreenenter"",""1"",""1693""
","
","
","""event"",""trial"",""time""
""fullscreenenter"",""1"",""1693""
","
","","","-1","","","10","12469","2928","h","elianto","#f73b6a7A"," ","-1","0","-10","[]","0","2","","","12469","85","6","3","lose","go","0"
"pit-trial","207","1255689","0.0-90.0","battery-v0.2","","""event"",""trial"",""time""
""fullscreenenter"",""1"",""1693""
","
","
","""event"",""trial"",""time""
""fullscreenenter"",""1"",""1693""
","
","","","925.2999999523163","","","10","12469","2928","z","elianto","#3366ff99","-1"," ","0","0","[1783.6000000238419]","1","2","","","12469","86","5","2","win","no-go","0"
"pit-trial","208","1259384","0.0-91.0","battery-v0.2","","""event"",""trial"",""time""
""fullscreenenter"",""1"",""1693""
","
","
","""event"",""trial"",""time""
""fullscreenenter"",""1"",""1693""
","
","","","839.5","","","10","12469","2928","c","elianto","#3366ff99"," "," ","1","+10","[1689.7000000476837]","1","2","","","12469","87","4","1","win","go","0"
"pit-trial","209","1263713","0.0-92.0","battery-v0.2","","""event"",""trial"",""time""
""fullscreenenter"",""1"",""1693""
","
","
","""event"",""trial"",""time""
""fullscreenenter"",""1"",""1693""
","
","","","1473.8999999761581","","","10","12469","2928","y","elianto","#f73b6a7A","-1"," ","0","0","[2324]","1","2","","","12469","88","7","4","lose","no-go","1"
"pit-trial","210","1267362","0.0-93.0","battery-v0.2","","""event"",""trial"",""time""
""fullscreenenter"",""1"",""1693""
","
","
","""event"",""trial"",""time""
""fullscreenenter"",""1"",""1693""
","
","","","794.2000000476837","","","10","12469","2928","z","elianto","#3366ff99","-1"," ","0","0","[1644.2000000476837]","1","2","","","12469","89","5","2","win","no-go","0"
"pit-trial","211","1270984","0.0-94.0","battery-v0.2","","""event"",""trial"",""time""
""fullscreenenter"",""1"",""1693""
","
","
","""event"",""trial"",""time""
""fullscreenenter"",""1"",""1693""
","
","","","766.7999999523163","","","10","12469","2928","y","elianto","#f73b6a7A","-1"," ","0","-10","[1617.4000000953674]","1","2","","","12469","90","7","4","lose","no-go","0"
"pit-trial","212","1275050","0.0-95.0","battery-v0.2","","""event"",""trial"",""time""
""fullscreenenter"",""1"",""1693""
","
","
","""event"",""trial"",""time""
""fullscreenenter"",""1"",""1693""
","
","","","1209.2999999523163","","","10","12469","2928","h","elianto","#f73b6a7A"," "," ","1","0","[2060.0999999046326]","1","2","","","12469","91","6","3","lose","go","0"
"pit-trial","213","1278594","0.0-96.0","battery-v0.2","","""event"",""trial"",""time""
""fullscreenenter"",""1"",""1693""
","
","
","""event"",""trial"",""time""
""fullscreenenter"",""1"",""1693""
","
","","","687.9000000953674","","","10","12469","2928","c","elianto","#3366ff99"," "," ","1","+10","[1538.6000000238419]","1","2","","","12469","92","4","1","win","go","0"
"pit-trial","214","1282409","0.0-97.0","battery-v0.2","","""event"",""trial"",""time""
""fullscreenenter"",""1"",""1693""
","
","
","""event"",""trial"",""time""
""fullscreenenter"",""1"",""1693""
","
","","","959.3999999761581","","","10","12469","2928","r","elianto","#3366ff99"," "," ","1","+10","[1810.3000000715256]","1","2","","","12469","93","8","1","win","go","0"
"pit-trial","215","1287263","0.0-98.0","battery-v0.2","","""event"",""trial"",""time""
""fullscreenenter"",""1"",""1693""
","
","
","""event"",""trial"",""time""
""fullscreenenter"",""1"",""1693""
","
","","","-1","","","10","12469","2928","h","elianto","#f73b6a7A"," ","-1","0","-10","[]","0","2","","","12469","94","6","3","lose","go","0"
"pit-trial","216","1290834","0.0-99.0","battery-v0.2","","""event"",""trial"",""time""
""fullscreenenter"",""1"",""1693""
","
","
","""event"",""trial"",""time""
""fullscreenenter"",""1"",""1693""
","
","","","715.3000000715256","","","10","12469","2928","z","elianto","#3366ff99","-1"," ","0","+10","[1565.8000000715256]","1","2","","","12469","95","5","2","win","no-go","1"
"pit-trial","217","1295089","0.0-100.0","battery-v0.2","","""event"",""trial"",""time""
""fullscreenenter"",""1"",""1693""
","
","
","""event"",""trial"",""time""
""fullscreenenter"",""1"",""1693""
","
","","","1399","","","10","12469","2928","y","elianto","#f73b6a7A","-1"," ","0","-10","[2249.8000000715256]","1","2","","","12469","96","7","4","lose","no-go","0"
"pit-trial","218","1298608","0.0-101.0","battery-v0.2","","""event"",""trial"",""time""
""fullscreenenter"",""1"",""1693""
","
","
","""event"",""trial"",""time""
""fullscreenenter"",""1"",""1693""
","
","","","662.6999999284744","","","10","12469","2928","z","elianto","#3366ff99","-1"," ","0","+10","[1514.8999999761581]","1","2","","","12469","97","5","2","win","no-go","1"
"pit-trial","219","1303465","0.0-102.0","battery-v0.2","","""event"",""trial"",""time""
""fullscreenenter"",""1"",""1693""
","
","
","""event"",""trial"",""time""
""fullscreenenter"",""1"",""1693""
","
","","","-1","","","10","12469","2928","r","elianto","#3366ff99"," ","-1","0","+10","[]","0","2","","","12469","98","8","1","win","go","1"
"pit-trial","220","1308274","0.0-103.0","battery-v0.2","","""event"",""trial"",""time""
""fullscreenenter"",""1"",""1693""
","
","
","""event"",""trial"",""time""
""fullscreenenter"",""1"",""1693""
","
","","","1951.8999999761581","","","10","12469","2928","h","elianto","#f73b6a7A"," "," ","1","0","[2803.399999976158]","1","2","","","12469","99","6","3","lose","go","0"
"pit-trial","221","1313130","0.0-104.0","battery-v0.2","","""event"",""trial"",""time""
""fullscreenenter"",""1"",""1693""
","
","
","""event"",""trial"",""time""
""fullscreenenter"",""1"",""1693""
","
","","","-1","","","10","12469","2928","y","elianto","#f73b6a7A","-1","-1","1","-10","[4281.5]","1","2","","","12469","100","7","4","lose","no-go","1"
"pit-trial","222","1316834","0.0-105.0","battery-v0.2","","""event"",""trial"",""time""
""fullscreenenter"",""1"",""1693""
","
","
","""event"",""trial"",""time""
""fullscreenenter"",""1"",""1693""
","
","","","846.8999999761581","","","10","12469","2928","r","elianto","#3366ff99"," "," ","1","+10","[1698.1999999284744]","1","2","","","12469","101","8","1","win","go","0"
"pit-trial","223","1320466","0.0-106.0","battery-v0.2","","""event"",""trial"",""time""
""fullscreenenter"",""1"",""1693""
","
","
","""event"",""trial"",""time""
""fullscreenenter"",""1"",""1693""
","
","","","776.6000000238419","","","10","12469","2928","z","elianto","#3366ff99","-1"," ","0","+10","[1626.7000000476837]","1","2","","","12469","102","5","2","win","no-go","1"
"pit-trial","224","1324025","0.0-107.0","battery-v0.2","","""event"",""trial"",""time""
""fullscreenenter"",""1"",""1693""
","
","
","""event"",""trial"",""time""
""fullscreenenter"",""1"",""1693""
","
","","","704.0999999046326","","","10","12469","2928","y","elianto","#f73b6a7A","-1"," ","0","-10","[1554.5]","1","2","","","12469","103","7","4","lose","no-go","0"
"pit-trial","225","1327833","0.0-108.0","battery-v0.2","","""event"",""trial"",""time""
""fullscreenenter"",""1"",""1693""
","
","
","""event"",""trial"",""time""
""fullscreenenter"",""1"",""1693""
","
","","","952.6999999284744","","","10","12469","2928","m","elianto","#3366ff99"," "," ","1","+10","[1802.8999999761581]","1","2","","","12469","104","9","1","win","go","0"
"pit-trial","226","1331569","0.0-109.0","battery-v0.2","","""event"",""trial"",""time""
""fullscreenenter"",""1"",""1693""
","
","
","""event"",""trial"",""time""
""fullscreenenter"",""1"",""1693""
","
","","","880.2000000476837","","","10","12469","2928","c","elianto","#3366ff99"," "," ","1","+10","[1731]","1","2","","","12469","105","4","1","win","go","0"
"pit-trial","227","1335505","0.0-110.0","battery-v0.2","","""event"",""trial"",""time""
""fullscreenenter"",""1"",""1693""
","
","
","""event"",""trial"",""time""
""fullscreenenter"",""1"",""1693""
","
","","","1080","","","10","12469","2928","r","elianto","#3366ff99"," "," ","1","+10","[1931]","1","2","","","12469","106","8","1","win","go","0"
"pit-trial","228","1339640","0.0-111.0","battery-v0.2","","""event"",""trial"",""time""
""fullscreenenter"",""1"",""1693""
","
","
","""event"",""trial"",""time""
""fullscreenenter"",""1"",""1693""
","
","","","1276.8999999761581","","","10","12469","2928","h","elianto","#f73b6a7A"," "," ","1","-10","[2130.5]","1","2","","","12469","107","6","3","lose","go","1"
"pit-trial","229","1343378","0.0-112.0","battery-v0.2","","""event"",""trial"",""time""
""fullscreenenter"",""1"",""1693""
","
","
","""event"",""trial"",""time""
""fullscreenenter"",""1"",""1693""
","
","","","881.4000000953674","","","10","12469","2928","m","elianto","#3366ff99"," "," ","1","+10","[1733.1000000238419]","1","2","","","12469","108","9","1","win","go","0"
"pit-trial","230","1347041","0.0-113.0","battery-v0.2","","""event"",""trial"",""time""
""fullscreenenter"",""1"",""1693""
","
","
","""event"",""trial"",""time""
""fullscreenenter"",""1"",""1693""
","
","","","807.0999999046326","","","10","12469","2928","z","elianto","#3366ff99","-1"," ","0","0","[1657.8999999761581]","1","2","","","12469","109","5","2","win","no-go","0"
"pit-trial","231","1350633","0.0-114.0","battery-v0.2","","""event"",""trial"",""time""
""fullscreenenter"",""1"",""1693""
","
","
","""event"",""trial"",""time""
""fullscreenenter"",""1"",""1693""
","
","","","735.5","","","10","12469","2928","r","elianto","#3366ff99"," "," ","1","0","[1586.6000000238419]","1","2","","","12469","110","8","1","win","go","1"
"pit-trial","232","1354369","0.0-115.0","battery-v0.2","","""event"",""trial"",""time""
""fullscreenenter"",""1"",""1693""
","
","
","""event"",""trial"",""time""
""fullscreenenter"",""1"",""1693""
","
","","","880.6999999284744","","","10","12469","2928","m","elianto","#3366ff99"," "," ","1","+10","[1731.5]","1","2","","","12469","111","9","1","win","go","0"
"pit-trial","233","1359120","0.0-116.0","battery-v0.2","","""event"",""trial"",""time""
""fullscreenenter"",""1"",""1693""
","
","
","""event"",""trial"",""time""
""fullscreenenter"",""1"",""1693""
","
","","","1895.5","","","10","12469","2928","h","elianto","#f73b6a7A"," "," ","1","0","[2746.7999999523163]","1","2","","","12469","112","6","3","lose","go","0"
"pit-trial","234","1362786","0.0-117.0","battery-v0.2","","""event"",""trial"",""time""
""fullscreenenter"",""1"",""1693""
","
","
","""event"",""trial"",""time""
""fullscreenenter"",""1"",""1693""
","
","","","808.3999999761581","","","10","12469","2928","z","elianto","#3366ff99","-1"," ","0","0","[1659.5]","1","2","","","12469","113","5","2","win","no-go","0"
"pit-trial","235","1366298","0.0-118.0","battery-v0.2","","""event"",""trial"",""time""
""fullscreenenter"",""1"",""1693""
","
","
","""event"",""trial"",""time""
""fullscreenenter"",""1"",""1693""
","
","","","656.3000000715256","","","10","12469","2928","m","elianto","#3366ff99"," "," ","1","+10","[1506.4000000953674]","1","2","","","12469","114","9","1","win","go","0"
"pit-trial","236","1369841","0.0-119.0","battery-v0.2","","""event"",""trial"",""time""
""fullscreenenter"",""1"",""1693""
","
","
","""event"",""trial"",""time""
""fullscreenenter"",""1"",""1693""
","
","","","687.5","","","10","12469","2928","r","elianto","#3366ff99"," "," ","1","+10","[1538.1000000238419]","1","2","","","12469","115","8","1","win","go","0"
"pit-trial","237","1374219","0.0-120.0","battery-v0.2","","""event"",""trial"",""time""
""fullscreenenter"",""1"",""1693""
","
","
","""event"",""trial"",""time""
""fullscreenenter"",""1"",""1693""
","
","","","1521.5999999046326","","","10","12469","2928","h","elianto","#f73b6a7A"," "," ","1","-10","[2372.2000000476837]","1","2","","","12469","116","6","3","lose","go","1"
"pit-trial","238","1379074","0.0-121.0","battery-v0.2","","""event"",""trial"",""time""
""fullscreenenter"",""1"",""1693""
","
","
","""event"",""trial"",""time""
""fullscreenenter"",""1"",""1693""
","
","","","-1","","","10","12469","2928","z","elianto","#3366ff99","-1","-1","1","0","[]","0","2","","","12469","117","5","2","win","no-go","1"
"pit-trial","239","1382673","0.0-122.0","battery-v0.2","","""event"",""trial"",""time""
""fullscreenenter"",""1"",""1693""
","
","
","""event"",""trial"",""time""
""fullscreenenter"",""1"",""1693""
","
","","","744.3000000715256","","","10","12469","2928","r","elianto","#3366ff99"," "," ","1","0","[1594.7999999523163,2818.1999999284744,2977.899999976158,3258.1999999284744,3394,3482]","6","2","","","12469","118","8","1","win","go","1"
"pit-trial","240","1386547","0.0-123.0","battery-v0.2","","""event"",""trial"",""time""
""fullscreenenter"",""1"",""1693""
","
","
","""event"",""trial"",""time""
""fullscreenenter"",""1"",""1693""
","
","","","1014.6000000238419","","","10","12469","2928","h","elianto","#f73b6a7A"," "," ","1","-10","[1867.1000000238419]","1","2","","","12469","119","6","3","lose","go","1"
"pit-trial","241","1390113","0.0-124.0","battery-v0.2","","""event"",""trial"",""time""
""fullscreenenter"",""1"",""1693""
","
","
","""event"",""trial"",""time""
""fullscreenenter"",""1"",""1693""
","
","","","710.1999999284744","","","10","12469","2928","m","elianto","#3366ff99"," "," ","1","+10","[1561.2000000476837]","1","2","","","12469","120","9","1","win","go","0"
"pit-trial","242","1394627","0.0-125.0","battery-v0.2","","""event"",""trial"",""time""
""fullscreenenter"",""1"",""1693""
","
","
","""event"",""trial"",""time""
""fullscreenenter"",""1"",""1693""
","
","","","1657","","","10","12469","2928","y","elianto","#f73b6a7A","-1"," ","0","-10","[2507.6999999284744]","1","2","","","12469","121","7","4","lose","no-go","0"
"pit-trial","243","1399483","0.0-126.0","battery-v0.2","","""event"",""trial"",""time""
""fullscreenenter"",""1"",""1693""
","
","
","""event"",""trial"",""time""
""fullscreenenter"",""1"",""1693""
","
","","","-1","","","10","12469","2928","h","elianto","#f73b6a7A"," ","-1","0","-10","[]","0","2","","","12469","122","6","3","lose","go","0"
"pit-trial","244","1403009","0.0-127.0","battery-v0.2","","""event"",""trial"",""time""
""fullscreenenter"",""1"",""1693""
","
","
","""event"",""trial"",""time""
""fullscreenenter"",""1"",""1693""
","
","","","669.8000000715256","","","10","12469","2928","m","elianto","#3366ff99"," "," ","1","+10","[1520.5]","1","2","","","12469","123","9","1","win","go","0"
"pit-trial","245","1407863","0.0-128.0","battery-v0.2","","""event"",""trial"",""time""
""fullscreenenter"",""1"",""1693""
","
","
","""event"",""trial"",""time""
""fullscreenenter"",""1"",""1693""
","
","","","-1","","","10","12469","2928","r","elianto","#3366ff99"," ","-1","0","0","[3058.8000000715256]","1","2","","","12469","124","8","1","win","go","0"
"pit-trial","246","1412433","0.0-129.0","battery-v0.2","","""event"",""trial"",""time""
""fullscreenenter"",""1"",""1693""
","
","
","""event"",""trial"",""time""
""fullscreenenter"",""1"",""1693""
","
","","","1714.1999999284744","","","10","12469","2928","y","elianto","#f73b6a7A","-1"," ","0","0","[2564.7000000476837]","1","2","","","12469","125","7","4","lose","no-go","1"
"pit-trial","247","1416297","0.0-130.0","battery-v0.2","","""event"",""trial"",""time""
""fullscreenenter"",""1"",""1693""
","
","
","""event"",""trial"",""time""
""fullscreenenter"",""1"",""1693""
","
","","","1008.1999999284744","","","10","12469","2928","h","elianto","#f73b6a7A"," "," ","1","0","[1858.4000000953674]","1","2","","","12469","126","6","3","lose","go","0"
"pit-trial","248","1420042","0.0-131.0","battery-v0.2","","""event"",""trial"",""time""
""fullscreenenter"",""1"",""1693""
","
","
","""event"",""trial"",""time""
""fullscreenenter"",""1"",""1693""
","
","","","888","","","10","12469","2928","r","elianto","#3366ff99"," "," ","1","+10","[1739]","1","2","","","12469","127","8","1","win","go","0"
"pit-trial","249","1423680","0.0-132.0","battery-v0.2","","""event"",""trial"",""time""
""fullscreenenter"",""1"",""1693""
","
","
","""event"",""trial"",""time""
""fullscreenenter"",""1"",""1693""
","
","","","783.2999999523163","","","10","12469","2928","m","elianto","#3366ff99"," "," ","1","+10","[1633.6000000238419]","1","2","","","12469","128","9","1","win","go","0"
"pit-trial","250","1427208","0.0-133.0","battery-v0.2","","""event"",""trial"",""time""
""fullscreenenter"",""1"",""1693""
","
","
","""event"",""trial"",""time""
""fullscreenenter"",""1"",""1693""
","
","","","671.8000000715256","","","10","12469","2928","r","elianto","#3366ff99"," "," ","1","+10","[1522.6000000238419]","1","2","","","12469","129","8","1","win","go","0"
"pit-trial","251","1431377","0.0-134.0","battery-v0.2","","""event"",""trial"",""time""
""fullscreenenter"",""1"",""1693""
","
","
","""event"",""trial"",""time""
""fullscreenenter"",""1"",""1693""
","
","","","1313.9000000953674","","","10","12469","2928","h","elianto","#f73b6a7A"," "," ","1","-10","[2164.100000023842]","1","2","","","12469","130","6","3","lose","go","1"
"pit-trial","252","1434856","0.0-135.0","battery-v0.2","","""event"",""trial"",""time""
""fullscreenenter"",""1"",""1693""
","
","
","""event"",""trial"",""time""
""fullscreenenter"",""1"",""1693""
","
","","","624","","","10","12469","2928","m","elianto","#3366ff99"," "," ","1","+10","[1474.5]","1","2","","","12469","131","9","1","win","go","0"
"pit-trial","253","1438697","0.0-136.0","battery-v0.2","","""event"",""trial"",""time""
""fullscreenenter"",""1"",""1693""
","
","
","""event"",""trial"",""time""
""fullscreenenter"",""1"",""1693""
","
","","","983.7999999523163","","","10","12469","2928","y","elianto","#f73b6a7A","-1"," ","0","-10","[1834.3999999761581]","1","2","","","12469","132","7","4","lose","no-go","0"
"pit-trial","254","1443553","0.0-137.0","battery-v0.2","","""event"",""trial"",""time""
""fullscreenenter"",""1"",""1693""
","
","
","""event"",""trial"",""time""
""fullscreenenter"",""1"",""1693""
","
","","","-1","","","10","12469","2928","y","elianto","#f73b6a7A","-1","-1","1","0","[]","0","2","","","12469","133","7","4","lose","no-go","0"
"pit-trial","255","1447121","0.0-138.0","battery-v0.2","","""event"",""trial"",""time""
""fullscreenenter"",""1"",""1693""
","
","
","""event"",""trial"",""time""
""fullscreenenter"",""1"",""1693""
","
","","","712.7000000476837","","","10","12469","2928","r","elianto","#3366ff99"," "," ","1","+10","[1562.8000000715256]","1","2","","","12469","134","8","1","win","go","0"
"pit-trial","256","1451977","0.0-139.0","battery-v0.2","","""event"",""trial"",""time""
""fullscreenenter"",""1"",""1693""
","
","
","""event"",""trial"",""time""
""fullscreenenter"",""1"",""1693""
","
","","","-1","","","10","12469","2928","h","elianto","#f73b6a7A"," ","-1","0","-10","[]","0","2","","","12469","135","6","3","lose","go","0"
"pit-trial","257","1455456","0.0-140.0","battery-v0.2","","""event"",""trial"",""time""
""fullscreenenter"",""1"",""1693""
","
","
","""event"",""trial"",""time""
""fullscreenenter"",""1"",""1693""
","
","","","623.7999999523163","","","10","12469","2928","m","elianto","#3366ff99"," "," ","1","+10","[1474.5999999046326]","1","2","","","12469","136","9","1","win","go","0"
"pit-trial","258","1459616","0.0-141.0","battery-v0.2","","""event"",""trial"",""time""
""fullscreenenter"",""1"",""1693""
","
","
","""event"",""trial"",""time""
""fullscreenenter"",""1"",""1693""
","
","","","1303.4000000953674","","","10","12469","2928","h","elianto","#f73b6a7A"," "," ","1","0","[2154.7000000476837]","1","2","","","12469","137","6","3","lose","go","0"
"pit-trial","259","1464472","0.0-142.0","battery-v0.2","","""event"",""trial"",""time""
""fullscreenenter"",""1"",""1693""
","
","
","""event"",""trial"",""time""
""fullscreenenter"",""1"",""1693""
","
","","","-1","","","10","12469","2928","y","elianto","#f73b6a7A","-1","-1","1","0","[]","0","2","","","12469","138","7","4","lose","no-go","0"
"pit-trial","260","1468048","0.0-143.0","battery-v0.2","","""event"",""trial"",""time""
""fullscreenenter"",""1"",""1693""
","
","
","""event"",""trial"",""time""
""fullscreenenter"",""1"",""1693""
","
","","","718.2999999523163","","","10","12469","2928","m","elianto","#3366ff99"," "," ","1","+10","[1571.2000000476837]","1","2","","","12469","139","9","1","win","go","0"
"pit-trial","261","1470907","0.0-144.0","battery-v0.2","","""event"",""trial"",""time""
""fullscreenenter"",""1"",""1693""
","
","
","""event"",""trial"",""time""
""fullscreenenter"",""1"",""1693""
","
","","","1.899999976158142","","","10","12469","2928","r","elianto","#3366ff99"," "," ","1","+10","[852.1999999284744]","1","2","","","12469","140","8","1","win","go","0"
"pit-instructions","262","1502072","0.0-145.0","battery-v0.2","","""event"",""trial"",""time""
""fullscreenenter"",""1"",""1693""
","
","
","""event"",""trial"",""time""
""fullscreenenter"",""1"",""1693""
","
","","[{""page_index"":0,""viewing_time"":8984.200000047684},{""page_index"":1,""viewing_time"":22176.100000023842}]","31161.200000047684","","","","","","","","","","","","","","","","","","","","","","","",""
"pit-trial","263","1506958","0.0-146.0","battery-v0.2","","""event"",""trial"",""time""
""fullscreenenter"",""1"",""1693""
","
","
","""event"",""trial"",""time""
""fullscreenenter"",""1"",""1693""
","
","","","-1","","","10","12469","2928","a","elianto","#f73b6a7A","-1","-1","1","0","[]","0","3","","","12469","141","2","4","lose","no-go","0"
"pit-trial","264","1510479","0.0-147.0","battery-v0.2","","""event"",""trial"",""time""
""fullscreenenter"",""1"",""1693""
","
","
","""event"",""trial"",""time""
""fullscreenenter"",""1"",""1693""
","
