"trial_type","trial_index","time_elapsed","internal_node_id","task_version","subject_id","interactions","blur_events","focus_events","fullscreenenter_events","fullscreenexit_events","success","view_history","rt","responses","num_errors","age","subject","participantId","rune","rune_set","hex","correct","choice","accuracy","outcome","keys","total_keys","block","practice","value","sub","trial","stimulus","robot","valence","action","sham"
"pavlovia","0","11","0.0-0.0","battery-v0.2","","""event"",""trial"",""time""
""fullscreenenter"",""1"",""3391""
","
","
","""event"",""trial"",""time""
""fullscreenenter"",""1"",""3391""
","
","","","","","","","","","","","","","","","","","","","","","","","","","","",""
"fullscreen","1","4300","0.0-1.0","battery-v0.2","","""event"",""trial"",""time""
""fullscreenenter"",""1"",""3391""
","
","
","""event"",""trial"",""time""
""fullscreenenter"",""1"",""3391""
","
","true","","","","","","","","","","","","","","","","","","","","","","","","","",""
"pit-instructions","2","9868","0.0-2.0-0.0","battery-v0.2","","""event"",""trial"",""time""
""fullscreenenter"",""1"",""3391""
","
","
","""event"",""trial"",""time""
""fullscreenenter"",""1"",""3391""
","
","","[{""page_index"":0,""viewing_time"":5560}]","5561","","","","","","","","","","","","","","","","","","","","","","","",""
"pit-comprehension","3","12794","0.0-2.0-1.0-0.0","battery-v0.2","","""event"",""trial"",""time""
""fullscreenenter"",""1"",""3391""
","
","
","""event"",""trial"",""time""
""fullscreenenter"",""1"",""3391""
","
","","","2483","[""shark""]","0","20","20610","7612","","","","","","","","","","","","","","","","","","",""
"pit-instructions","4","14091","0.0-2.0-1.0-1.0","battery-v0.2","","""event"",""trial"",""time""
""fullscreenenter"",""1"",""3391""
","
","
","""event"",""trial"",""time""
""fullscreenenter"",""1"",""3391""
","
","","[{""page_index"":0,""viewing_time"":1288}]","1288","","","","","","","","","","","","","","","","","","","","","","","",""
"pit-comprehension","5","16843","0.0-2.0-2.0-0.0","battery-v0.2","","""event"",""trial"",""time""
""fullscreenenter"",""1"",""3391""
","
","
","""event"",""trial"",""time""
""fullscreenenter"",""1"",""3391""
","
","","","2747","[""tiger""]","0","20","20610","7612","","","","","","","","","","","","","","","","","","",""
"pit-instructions","6","17924","0.0-2.0-2.0-1.0","battery-v0.2","","""event"",""trial"",""time""
""fullscreenenter"",""1"",""3391""
","
","
","""event"",""trial"",""time""
""fullscreenenter"",""1"",""3391""
","
","","[{""page_index"":0,""viewing_time"":1075}]","1075","","","","","","","","","","","","","","","","","","","","","","","",""
"pit-instructions","7","121951","0.0-2.0-3.0","battery-v0.2","","""event"",""trial"",""time""
""fullscreenenter"",""1"",""3391""
","
","
","""event"",""trial"",""time""
""fullscreenenter"",""1"",""3391""
","
","","[{""page_index"":0,""viewing_time"":11727},{""page_index"":1,""viewing_time"":7571},{""page_index"":2,""viewing_time"":7041},{""page_index"":3,""viewing_time"":6193},{""page_index"":4,""viewing_time"":6227.000000000007},{""page_index"":5,""viewing_time"":6059.999999999993},{""page_index"":6,""viewing_time"":8374},{""page_index"":7,""viewing_time"":6790},{""page_index"":8,""viewing_time"":6015},{""page_index"":9,""viewing_time"":8430.000000000015},{""page_index"":10,""viewing_time"":9134.999999999985},{""page_index"":11,""viewing_time"":7752.000000000015},{""page_index"":12,""viewing_time"":6587.999999999985},{""page_index"":13,""viewing_time"":6120.000000000015}]","104024","","","","","","","","","","","","","","","","","","","","","","","",""
"pit-trial","8","125481","0.0-2.0-4.0-0.0","battery-v0.2","","""event"",""trial"",""time""
""fullscreenenter"",""1"",""3391""
","
","
","""event"",""trial"",""time""
""fullscreenenter"",""1"",""3391""
","
","","","675.0000000000146","","","20","20610","7612","&#9784;","elianto","#FFFFF080"," "," ","1","&#10004","[1525]","1","0","0","","","","","","","",""
"pit-trial","9","128984","0.0-2.0-4.1-0.1","battery-v0.2","","""event"",""trial"",""time""
""fullscreenenter"",""1"",""3391""
","
","
","""event"",""trial"",""time""
""fullscreenenter"",""1"",""3391""
","
","","","647.9999999999854","","","20","20610","7612","&#9784;","elianto","#FFFFF080"," "," ","1","&#10004","[1498.9999999999854]","1","0","0","","","","","","","",""
"pit-trial","10","132457","0.0-2.0-4.2-0.2","battery-v0.2","","""event"",""trial"",""time""
""fullscreenenter"",""1"",""3391""
","
","
","""event"",""trial"",""time""
""fullscreenenter"",""1"",""3391""
","
","","","619","","","20","20610","7612","&#9784;","elianto","#FFFFF080"," "," ","1","&#10004","[1469]","1","0","0","","","","","","","",""
"pit-trial","11","136046","0.0-2.0-4.3-0.3","battery-v0.2","","""event"",""trial"",""time""
""fullscreenenter"",""1"",""3391""
","
","
","""event"",""trial"",""time""
""fullscreenenter"",""1"",""3391""
","
","","","734","","","20","20610","7612","&#9784;","elianto","#FFFFF080"," "," ","1","&#10004","[1584]","1","0","0","","","","","","","",""
"pit-trial","12","139487","0.0-2.0-4.4-0.4","battery-v0.2","","""event"",""trial"",""time""
""fullscreenenter"",""1"",""3391""
","
","
","""event"",""trial"",""time""
""fullscreenenter"",""1"",""3391""
","
","","","586","","","20","20610","7612","&#9784;","elianto","#FFFFF080"," "," ","1","&#10004","[1436]","1","0","0","","","","","","","",""
"pit-instructions","13","162007","0.0-2.0-5.0","battery-v0.2","","""event"",""trial"",""time""
""fullscreenenter"",""1"",""3391""
","
","
","""event"",""trial"",""time""
""fullscreenenter"",""1"",""3391""
","
","","[{""page_index"":0,""viewing_time"":7093},{""page_index"":1,""viewing_time"":5318},{""page_index"":2,""viewing_time"":5065},{""page_index"":3,""viewing_time"":5041}]","22517","","","","","","","","","","","","","","","","","","","","","","","",""
"pit-trial","14","166861","0.0-2.0-6.0-0.0","battery-v0.2","","""event"",""trial"",""time""
""fullscreenenter"",""1"",""3391""
","
","
","""event"",""trial"",""time""
""fullscreenenter"",""1"",""3391""
","
","","","-1","","","20","20610","7612","&#9854;","elianto","#FFFFF080","-1","-1","1","&#10004","[]","0","0","1","","","","","","","",""
"pit-trial","15","171717","0.0-2.0-6.1-0.1","battery-v0.2","","""event"",""trial"",""time""
""fullscreenenter"",""1"",""3391""
","
","
","""event"",""trial"",""time""
""fullscreenenter"",""1"",""3391""
","
","","","-1","","","20","20610","7612","&#9854;","elianto","#FFFFF080","-1","-1","1","&#10004","[]","0","0","1","","","","","","","",""
"pit-trial","16","176572","0.0-2.0-6.2-0.2","battery-v0.2","","""event"",""trial"",""time""
""fullscreenenter"",""1"",""3391""
","
","
","""event"",""trial"",""time""
""fullscreenenter"",""1"",""3391""
","
","","","-1","","","20","20610","7612","&#9854;","elianto","#FFFFF080","-1","-1","1","&#10004","[]","0","0","1","","","","","","","",""
"pit-trial","17","181426","0.0-2.0-6.3-0.3","battery-v0.2","","""event"",""trial"",""time""
""fullscreenenter"",""1"",""3391""
","
","
","""event"",""trial"",""time""
""fullscreenenter"",""1"",""3391""
","
","","","-1","","","20","20610","7612","&#9854;","elianto","#FFFFF080","-1","-1","1","&#10004","[]","0","0","1","","","","","","","",""
"pit-trial","18","186280","0.0-2.0-6.4-0.4","battery-v0.2","","""event"",""trial"",""time""
""fullscreenenter"",""1"",""3391""
","
","
","""event"",""trial"",""time""
""fullscreenenter"",""1"",""3391""
","
","","","-1","","","20","20610","7612","&#9854;","elianto","#FFFFF080","-1","-1","1","&#10004","[]","0","0","1","","","","","","","",""
"pit-instructions","19","314953","0.0-2.0-7.0","battery-v0.2","","""event"",""trial"",""time""
""fullscreenenter"",""1"",""3391""
","
","
","""event"",""trial"",""time""
""fullscreenenter"",""1"",""3391""
","
","","[{""page_index"":0,""viewing_time"":9046.99999999997},{""page_index"":1,""viewing_time"":6361},{""page_index"":2,""viewing_time"":7154},{""page_index"":3,""viewing_time"":6891.000000000029},{""page_index"":4,""viewing_time"":5637},{""page_index"":5,""viewing_time"":6283.999999999971},{""page_index"":6,""viewing_time"":6607},{""page_index"":7,""viewing_time"":11191},{""page_index"":8,""viewing_time"":7725},{""page_index"":9,""viewing_time"":7253},{""page_index"":10,""viewing_time"":6316},{""page_index"":11,""viewing_time"":6004},{""page_index"":12,""viewing_time"":6858},{""page_index"":13,""viewing_time"":6966},{""page_index"":14,""viewing_time"":6666},{""page_index"":15,""viewing_time"":7810},{""page_index"":16,""viewing_time"":6795},{""page_index"":17,""viewing_time"":7105.000000000058}]","128670.99999999997","","","","","","","","","","","","","","","","","","","","","","","",""
"pit-trial","20","319201","0.0-2.0-8.0-0.0","battery-v0.2","","""event"",""trial"",""time""
""fullscreenenter"",""1"",""3391""
","
","
","""event"",""trial"",""time""
""fullscreenenter"",""1"",""3391""
","
","","","1394","","","20","20610","7612","&#9776;","elianto","#3366ff99"," "," ","1","+10","[2245]","1","0","1","","","","","","","",""
"pit-trial","21","322565","0.0-2.0-8.0-1.0","battery-v0.2","","""event"",""trial"",""time""
""fullscreenenter"",""1"",""3391""
","
","
","""event"",""trial"",""time""
""fullscreenenter"",""1"",""3391""
","
","","","509","","","20","20610","7612","&#9776;","elianto","#3366ff99"," "," ","1","+10","[1360]","1","0","1","","","","","","","",""
"pit-trial","22","327420","0.0-2.0-8.0-2.0","battery-v0.2","","""event"",""trial"",""time""
""fullscreenenter"",""1"",""3391""
","
","
","""event"",""trial"",""time""
""fullscreenenter"",""1"",""3391""
","
","","","-1","","","20","20610","7612","&#9776;","elianto","#3366ff99"," ","-1","0","0","[]","0","0","1","","","","","","","",""
"pit-trial","23","330721","0.0-2.0-8.0-3.0","battery-v0.2","","""event"",""trial"",""time""
""fullscreenenter"",""1"",""3391""
","
","
","""event"",""trial"",""time""
""fullscreenenter"",""1"",""3391""
","
","","","448","","","20","20610","7612","&#9776;","elianto","#3366ff99"," "," ","1","0","[1299]","1","0","1","","","","","","","",""
"pit-trial","24","333993","0.0-2.0-8.0-4.0","battery-v0.2","","""event"",""trial"",""time""
""fullscreenenter"",""1"",""3391""
","
","
","""event"",""trial"",""time""
""fullscreenenter"",""1"",""3391""
","
","","","417","","","20","20610","7612","&#9776;","elianto","#3366ff99"," "," ","1","+10","[1268]","1","0","1","","","","","","","",""
"pit-trial","25","337591","0.0-2.0-8.1-0.1","battery-v0.2","","""event"",""trial"",""time""
""fullscreenenter"",""1"",""3391""
","
","
","""event"",""trial"",""time""
""fullscreenenter"",""1"",""3391""
","
","","","743","","","20","20610","7612","&#9776;","elianto","#3366ff99"," "," ","1","+10","[1594]","1","0","1","","","","","","","",""
"pit-trial","26","342444","0.0-2.0-8.1-1.1","battery-v0.2","","""event"",""trial"",""time""
""fullscreenenter"",""1"",""3391""
","
","
","""event"",""trial"",""time""
""fullscreenenter"",""1"",""3391""
","
","","","-1","","","20","20610","7612","&#9776;","elianto","#3366ff99"," ","-1","0","0","[]","0","0","1","","","","","","","",""
"pit-trial","27","347298","0.0-2.0-8.1-2.1","battery-v0.2","","""event"",""trial"",""time""
""fullscreenenter"",""1"",""3391""
","
","
","""event"",""trial"",""time""
""fullscreenenter"",""1"",""3391""
","
","","","-1","","","20","20610","7612","&#9776;","elianto","#3366ff99"," ","-1","0","0","[]","0","0","1","","","","","","","",""
"pit-trial","28","352153","0.0-2.0-8.1-3.1","battery-v0.2","","""event"",""trial"",""time""
""fullscreenenter"",""1"",""3391""
","
","
","""event"",""trial"",""time""
""fullscreenenter"",""1"",""3391""
","
","","","-1","","","20","20610","7612","&#9776;","elianto","#3366ff99"," ","-1","0","+10","[3246]","1","0","1","","","","","","","",""
"pit-trial","29","355650","0.0-2.0-8.1-4.1","battery-v0.2","","""event"",""trial"",""time""
""fullscreenenter"",""1"",""3391""
","
","
","""event"",""trial"",""time""
""fullscreenenter"",""1"",""3391""
","
","","","642.0000000000582","","","20","20610","7612","&#9776;","elianto","#3366ff99"," "," ","1","+10","[1494.0000000000582]","1","0","1","","","","","","","",""
"pit-trial","30","359979","0.0-2.0-8.2-0.2","battery-v0.2","","""event"",""trial"",""time""
""fullscreenenter"",""1"",""3391""
","
","
","""event"",""trial"",""time""
""fullscreenenter"",""1"",""3391""
","
","","","1475","","","20","20610","7612","&#9776;","elianto","#3366ff99"," "," ","1","+10","[2326]","1","0","1","","","","","","","",""
"pit-trial","31","363904","0.0-2.0-8.2-1.2","battery-v0.2","","""event"",""trial"",""time""
""fullscreenenter"",""1"",""3391""
","
","
","""event"",""trial"",""time""
""fullscreenenter"",""1"",""3391""
","
","","","1071","","","20","20610","7612","&#9776;","elianto","#3366ff99"," "," ","1","+10","[1921]","1","0","1","","","","","","","",""
"pit-trial","32","367298","0.0-2.0-8.2-2.2","battery-v0.2","","""event"",""trial"",""time""
""fullscreenenter"",""1"",""3391""
","
","
","""event"",""trial"",""time""
""fullscreenenter"",""1"",""3391""
","
","","","540","","","20","20610","7612","&#9776;","elianto","#3366ff99"," "," ","1","+10","[1391]","1","0","1","","","","","","","",""
"pit-trial","33","371117","0.0-2.0-8.2-3.2","battery-v0.2","","""event"",""trial"",""time""
""fullscreenenter"",""1"",""3391""
","
","
","""event"",""trial"",""time""
""fullscreenenter"",""1"",""3391""
","
","","","964","","","20","20610","7612","&#9776;","elianto","#3366ff99"," "," ","1","0","[1814]","1","0","1","","","","","","","",""
"pit-trial","34","374581","0.0-2.0-8.2-4.2","battery-v0.2","","""event"",""trial"",""time""
""fullscreenenter"",""1"",""3391""
","
","
","""event"",""trial"",""time""
""fullscreenenter"",""1"",""3391""
","
","","","609","","","20","20610","7612","&#9776;","elianto","#3366ff99"," "," ","1","+10","[1460]","1","0","1","","","","","","","",""
"call-function","35","374583","0.0-2.0-9.0","battery-v0.2","","""event"",""trial"",""time""
""fullscreenenter"",""1"",""3391""
","
","
","""event"",""trial"",""time""
""fullscreenenter"",""1"",""3391""
","
","","","","","","","","","","","","","","","","","","","","","","","","","","",""
"pit-instructions","36","412464","0.0-2.0-10.0","battery-v0.2","","""event"",""trial"",""time""
""fullscreenenter"",""1"",""3391""
","
","
","""event"",""trial"",""time""
""fullscreenenter"",""1"",""3391""
","
","","[{""page_index"":0,""viewing_time"":6075},{""page_index"":1,""viewing_time"":6347},{""page_index"":2,""viewing_time"":9051},{""page_index"":3,""viewing_time"":9212},{""page_index"":4,""viewing_time"":7195.000000000058}]","37881","","","","","","","","","","","","","","","","","","","","","","","",""
"pit-trial","37","415833","0.0-2.0-11.0-0.0","battery-v0.2","","""event"",""trial"",""time""
""fullscreenenter"",""1"",""3391""
","
","
","""event"",""trial"",""time""
""fullscreenenter"",""1"",""3391""
","
","","","515","","","20","20610","7612","&#9761;","elianto","#3366ff99","-1"," ","0","0","[1365]","1","0","2","","","","","","","",""
"pit-trial","38","419142","0.0-2.0-11.0-1.0","battery-v0.2","","""event"",""trial"",""time""
""fullscreenenter"",""1"",""3391""
","
","
","""event"",""trial"",""time""
""fullscreenenter"",""1"",""3391""
","
","","","454","","","20","20610","7612","&#9761;","elianto","#3366ff99","-1"," ","0","0","[1305]","1","0","2","","","","","","","",""
"pit-trial","39","423997","0.0-2.0-11.0-2.0","battery-v0.2","","""event"",""trial"",""time""
""fullscreenenter"",""1"",""3391""
","
","
","""event"",""trial"",""time""
""fullscreenenter"",""1"",""3391""
","
","","","-1","","","20","20610","7612","&#9761;","elianto","#3366ff99","-1","-1","1","+10","[]","0","0","2","","","","","","","",""
"pit-trial","40","428851","0.0-2.0-11.0-3.0","battery-v0.2","","""event"",""trial"",""time""
""fullscreenenter"",""1"",""3391""
","
","
","""event"",""trial"",""time""
""fullscreenenter"",""1"",""3391""
","
","","","-1","","","20","20610","7612","&#9761;","elianto","#3366ff99","-1","-1","1","0","[]","0","0","2","","","","","","","",""
"pit-trial","41","433705","0.0-2.0-11.0-4.0","battery-v0.2","","""event"",""trial"",""time""
""fullscreenenter"",""1"",""3391""
","
","
","""event"",""trial"",""time""
""fullscreenenter"",""1"",""3391""
","
","","","-1","","","20","20610","7612","&#9761;","elianto","#3366ff99","-1","-1","1","+10","[]","0","0","2","","","","","","","",""
"pit-trial","42","438560","0.0-2.0-11.1-0.1","battery-v0.2","","""event"",""trial"",""time""
""fullscreenenter"",""1"",""3391""
","
","
","""event"",""trial"",""time""
""fullscreenenter"",""1"",""3391""
","
","","","-1","","","20","20610","7612","&#9761;","elianto","#3366ff99","-1","-1","1","+10","[]","0","0","2","","","","","","","",""
"pit-trial","43","443414","0.0-2.0-11.1-1.1","battery-v0.2","","""event"",""trial"",""time""
""fullscreenenter"",""1"",""3391""
","
","
","""event"",""trial"",""time""
""fullscreenenter"",""1"",""3391""
","
","","","-1","","","20","20610","7612","&#9761;","elianto","#3366ff99","-1","-1","1","+10","[]","0","0","2","","","","","","","",""
"pit-trial","44","448268","0.0-2.0-11.1-2.1","battery-v0.2","","""event"",""trial"",""time""
""fullscreenenter"",""1"",""3391""
","
","
","""event"",""trial"",""time""
""fullscreenenter"",""1"",""3391""
","
","","","-1","","","20","20610","7612","&#9761;","elianto","#3366ff99","-1","-1","1","+10","[]","0","0","2","","","","","","","",""
"pit-trial","45","453122","0.0-2.0-11.1-3.1","battery-v0.2","","""event"",""trial"",""time""
""fullscreenenter"",""1"",""3391""
","
","
","""event"",""trial"",""time""
""fullscreenenter"",""1"",""3391""
","
","","","-1","","","20","20610","7612","&#9761;","elianto","#3366ff99","-1","-1","1","0","[]","0","0","2","","","","","","","",""
"pit-trial","46","457976","0.0-2.0-11.1-4.1","battery-v0.2","","""event"",""trial"",""time""
""fullscreenenter"",""1"",""3391""
","
","
","""event"",""trial"",""time""
""fullscreenenter"",""1"",""3391""
","
","","","-1","","","20","20610","7612","&#9761;","elianto","#3366ff99","-1","-1","1","+10","[]","0","0","2","","","","","","","",""
"pit-trial","47","462830","0.0-2.0-11.2-0.2","battery-v0.2","","""event"",""trial"",""time""
""fullscreenenter"",""1"",""3391""
","
","
","""event"",""trial"",""time""
""fullscreenenter"",""1"",""3391""
","
","","","-1","","","20","20610","7612","&#9761;","elianto","#3366ff99","-1","-1","1","+10","[]","0","0","2","","","","","","","",""
"pit-trial","48","467685","0.0-2.0-11.2-1.2","battery-v0.2","","""event"",""trial"",""time""
""fullscreenenter"",""1"",""3391""
","
","
","""event"",""trial"",""time""
""fullscreenenter"",""1"",""3391""
","
","","","-1","","","20","20610","7612","&#9761;","elianto","#3366ff99","-1","-1","1","+10","[]","0","0","2","","","","","","","",""
"pit-trial","49","472539","0.0-2.0-11.2-2.2","battery-v0.2","","""event"",""trial"",""time""
""fullscreenenter"",""1"",""3391""
","
","
","""event"",""trial"",""time""
""fullscreenenter"",""1"",""3391""
","
","","","-1","","","20","20610","7612","&#9761;","elianto","#3366ff99","-1","-1","1","+10","[]","0","0","2","","","","","","","",""
"pit-trial","50","477392","0.0-2.0-11.2-3.2","battery-v0.2","","""event"",""trial"",""time""
""fullscreenenter"",""1"",""3391""
","
","
","""event"",""trial"",""time""
""fullscreenenter"",""1"",""3391""
","
","","","-1","","","20","20610","7612","&#9761;","elianto","#3366ff99","-1","-1","1","0","[]","0","0","2","","","","","","","",""
"pit-trial","51","482247","0.0-2.0-11.2-4.2","battery-v0.2","","""event"",""trial"",""time""
""fullscreenenter"",""1"",""3391""
","
","
","""event"",""trial"",""time""
""fullscreenenter"",""1"",""3391""
","
","","","-1","","","20","20610","7612","&#9761;","elianto","#3366ff99","-1","-1","1","+10","[]","0","0","2","","","","","","","",""
"pit-trial","52","487101","0.0-2.0-11.3-0.3","battery-v0.2","","""event"",""trial"",""time""
""fullscreenenter"",""1"",""3391""
","
","
","""event"",""trial"",""time""
""fullscreenenter"",""1"",""3391""
","
","","","-1","","","20","20610","7612","&#9761;","elianto","#3366ff99","-1","-1","1","+10","[]","0","0","2","","","","","","","",""
"pit-trial","53","491954","0.0-2.0-11.3-1.3","battery-v0.2","","""event"",""trial"",""time""
""fullscreenenter"",""1"",""3391""
","
","
","""event"",""trial"",""time""
""fullscreenenter"",""1"",""3391""
","
","","","-1","","","20","20610","7612","&#9761;","elianto","#3366ff99","-1","-1","1","+10","[]","0","0","2","","","","","","","",""
"pit-trial","54","496808","0.0-2.0-11.3-2.3","battery-v0.2","","""event"",""trial"",""time""
""fullscreenenter"",""1"",""3391""
","
","
","""event"",""trial"",""time""
""fullscreenenter"",""1"",""3391""
","
","","","-1","","","20","20610","7612","&#9761;","elianto","#3366ff99","-1","-1","1","+10","[]","0","0","2","","","","","","","",""
"pit-trial","55","500945","0.0-2.0-11.3-3.3","battery-v0.2","","""event"",""trial"",""time""
""fullscreenenter"",""1"",""3391""
","
","
","""event"",""trial"",""time""
""fullscreenenter"",""1"",""3391""
","
","","","1281","","","20","20610","7612","&#9761;","elianto","#3366ff99","-1"," ","0","+10","[2131]","1","0","2","","","","","","","",""
"pit-trial","56","504238","0.0-2.0-11.3-4.3","battery-v0.2","","""event"",""trial"",""time""
""fullscreenenter"",""1"",""3391""
","
","
","""event"",""trial"",""time""
""fullscreenenter"",""1"",""3391""
","
","","","438.9999999999418","","","20","20610","7612","&#9761;","elianto","#3366ff99","-1"," ","0","0","[1289]","1","0","2","","","","","","","",""
"call-function","57","504240","0.0-2.0-12.0","battery-v0.2","","""event"",""trial"",""time""
""fullscreenenter"",""1"",""3391""
","
","
","""event"",""trial"",""time""
""fullscreenenter"",""1"",""3391""
","
","","","","","","","","","","","","","","","","","","","","","","","","","","",""
"pit-instructions","58","532697","0.0-2.0-13.0","battery-v0.2","","""event"",""trial"",""time""
""fullscreenenter"",""1"",""3391""
","
","
","""event"",""trial"",""time""
""fullscreenenter"",""1"",""3391""
","
","","[{""page_index"":0,""viewing_time"":4594},{""page_index"":1,""viewing_time"":6139},{""page_index"":2,""viewing_time"":3271.999999999942},{""page_index"":3,""viewing_time"":10052.000000000058},{""page_index"":4,""viewing_time"":4399}]","28457","","","","","","","","","","","","","","","","","","","","","","","",""
"pit-trial","59","536201","0.0-2.0-14.0-0.0","battery-v0.2","","""event"",""trial"",""time""
""fullscreenenter"",""1"",""3391""
","
","
","""event"",""trial"",""time""
""fullscreenenter"",""1"",""3391""
","
","","","650","","","20","20610","7612","&#9826;","elianto","#f73b6a7A","-1"," ","0","-10","[1501]","1","0","3","","","","","","","",""
"pit-trial","60","539314","0.0-2.0-14.0-1.0","battery-v0.2","","""event"",""trial"",""time""
""fullscreenenter"",""1"",""3391""
","
","
","""event"",""trial"",""time""
""fullscreenenter"",""1"",""3391""
","
","","","259","","","20","20610","7612","&#9826;","elianto","#f73b6a7A","-1"," ","0","-10","[1110]","1","0","3","","","","","","","",""
"pit-trial","61","542556","0.0-2.0-14.0-2.0","battery-v0.2","","""event"",""trial"",""time""
""fullscreenenter"",""1"",""3391""
","
","
","""event"",""trial"",""time""
""fullscreenenter"",""1"",""3391""
","
","","","388","","","20","20610","7612","&#9826;","elianto","#f73b6a7A","-1"," ","0","-10","[1238]","1","0","3","","","","","","","",""
"pit-trial","62","547410","0.0-2.0-14.0-3.0","battery-v0.2","","""event"",""trial"",""time""
""fullscreenenter"",""1"",""3391""
","
","
","""event"",""trial"",""time""
""fullscreenenter"",""1"",""3391""
","
","","","-1","","","20","20610","7612","&#9826;","elianto","#f73b6a7A","-1","-1","1","-10","[]","0","0","3","","","","","","","",""
"pit-trial","63","552264","0.0-2.0-14.0-4.0","battery-v0.2","","""event"",""trial"",""time""
""fullscreenenter"",""1"",""3391""
","
","
","""event"",""trial"",""time""
""fullscreenenter"",""1"",""3391""
","
","","","-1","","","20","20610","7612","&#9826;","elianto","#f73b6a7A","-1","-1","1","0","[]","0","0","3","","","","","","","",""
"pit-trial","64","557119","0.0-2.0-14.1-0.1","battery-v0.2","","""event"",""trial"",""time""
""fullscreenenter"",""1"",""3391""
","
","
","""event"",""trial"",""time""
""fullscreenenter"",""1"",""3391""
","
","","","-1","","","20","20610","7612","&#9826;","elianto","#f73b6a7A","-1","-1","1","0","[]","0","0","3","","","","","","","",""
"pit-trial","65","561973","0.0-2.0-14.1-1.1","battery-v0.2","","""event"",""trial"",""time""
""fullscreenenter"",""1"",""3391""
","
","
","""event"",""trial"",""time""
""fullscreenenter"",""1"",""3391""
","
","","","-1","","","20","20610","7612","&#9826;","elianto","#f73b6a7A","-1","-1","1","0","[]","0","0","3","","","","","","","",""
"pit-trial","66","566828","0.0-2.0-14.1-2.1","battery-v0.2","","""event"",""trial"",""time""
""fullscreenenter"",""1"",""3391""
","
","
","""event"",""trial"",""time""
""fullscreenenter"",""1"",""3391""
","
","","","-1","","","20","20610","7612","&#9826;","elianto","#f73b6a7A","-1","-1","1","0","[]","0","0","3","","","","","","","",""
"pit-trial","67","571682","0.0-2.0-14.1-3.1","battery-v0.2","","""event"",""trial"",""time""
""fullscreenenter"",""1"",""3391""
","
","
","""event"",""trial"",""time""
""fullscreenenter"",""1"",""3391""
","
","","","-1","","","20","20610","7612","&#9826;","elianto","#f73b6a7A","-1","-1","1","-10","[]","0","0","3","","","","","","","",""
"pit-trial","68","576535","0.0-2.0-14.1-4.1","battery-v0.2","","""event"",""trial"",""time""
""fullscreenenter"",""1"",""3391""
","
","
","""event"",""trial"",""time""
""fullscreenenter"",""1"",""3391""
","
","","","-1","","","20","20610","7612","&#9826;","elianto","#f73b6a7A","-1","-1","1","0","[]","0","0","3","","","","","","","",""
"pit-trial","69","581389","0.0-2.0-14.2-0.2","battery-v0.2","","""event"",""trial"",""time""
""fullscreenenter"",""1"",""3391""
","
","
","""event"",""trial"",""time""
""fullscreenenter"",""1"",""3391""
","
","","","-1","","","20","20610","7612","&#9826;","elianto","#f73b6a7A","-1","-1","1","0","[]","0","0","3","","","","","","","",""
"pit-trial","70","586244","0.0-2.0-14.2-1.2","battery-v0.2","","""event"",""trial"",""time""
""fullscreenenter"",""1"",""3391""
","
","
","""event"",""trial"",""time""
""fullscreenenter"",""1"",""3391""
","
","","","-1","","","20","20610","7612","&#9826;","elianto","#f73b6a7A","-1","-1","1","0","[]","0","0","3","","","","","","","",""
"pit-trial","71","591098","0.0-2.0-14.2-2.2","battery-v0.2","","""event"",""trial"",""time""
""fullscreenenter"",""1"",""3391""
","
","
","""event"",""trial"",""time""
""fullscreenenter"",""1"",""3391""
","
","","","-1","","","20","20610","7612","&#9826;","elianto","#f73b6a7A","-1","-1","1","0","[]","0","0","3","","","","","","","",""
"pit-trial","72","595952","0.0-2.0-14.2-3.2","battery-v0.2","","""event"",""trial"",""time""
""fullscreenenter"",""1"",""3391""
","
","
","""event"",""trial"",""time""
""fullscreenenter"",""1"",""3391""
","
","","","-1","","","20","20610","7612","&#9826;","elianto","#f73b6a7A","-1","-1","1","-10","[]","0","0","3","","","","","","","",""
"pit-trial","73","600806","0.0-2.0-14.2-4.2","battery-v0.2","","""event"",""trial"",""time""
""fullscreenenter"",""1"",""3391""
","
","
","""event"",""trial"",""time""
""fullscreenenter"",""1"",""3391""
","
","","","-1","","","20","20610","7612","&#9826;","elianto","#f73b6a7A","-1","-1","1","0","[]","0","0","3","","","","","","","",""
"pit-trial","74","605659","0.0-2.0-14.3-0.3","battery-v0.2","","""event"",""trial"",""time""
""fullscreenenter"",""1"",""3391""
","
","
","""event"",""trial"",""time""
""fullscreenenter"",""1"",""3391""
","
","","","-1","","","20","20610","7612","&#9826;","elianto","#f73b6a7A","-1","-1","1","0","[]","0","0","3","","","","","","","",""
"pit-trial","75","610514","0.0-2.0-14.3-1.3","battery-v0.2","","""event"",""trial"",""time""
""fullscreenenter"",""1"",""3391""
","
","
","""event"",""trial"",""time""
""fullscreenenter"",""1"",""3391""
","
","","","-1","","","20","20610","7612","&#9826;","elianto","#f73b6a7A","-1","-1","1","0","[]","0","0","3","","","","","","","",""
"pit-trial","76","615368","0.0-2.0-14.3-2.3","battery-v0.2","","""event"",""trial"",""time""
""fullscreenenter"",""1"",""3391""
","
","
","""event"",""trial"",""time""
""fullscreenenter"",""1"",""3391""
","
","","","-1","","","20","20610","7612","&#9826;","elianto","#f73b6a7A","-1","-1","1","0","[]","0","0","3","","","","","","","",""
"pit-trial","77","620223","0.0-2.0-14.3-3.3","battery-v0.2","","""event"",""trial"",""time""
""fullscreenenter"",""1"",""3391""
","
","
","""event"",""trial"",""time""
""fullscreenenter"",""1"",""3391""
","
","","","-1","","","20","20610","7612","&#9826;","elianto","#f73b6a7A","-1","-1","1","-10","[]","0","0","3","","","","","","","",""
"pit-trial","78","625078","0.0-2.0-14.3-4.3","battery-v0.2","","""event"",""trial"",""time""
""fullscreenenter"",""1"",""3391""
","
","
","""event"",""trial"",""time""
""fullscreenenter"",""1"",""3391""
","
","","","-1","","","20","20610","7612","&#9826;","elianto","#f73b6a7A","-1","-1","1","0","[]","0","0","3","","","","","","","",""
"call-function","79","625080","0.0-2.0-15.0","battery-v0.2","","""event"",""trial"",""time""
""fullscreenenter"",""1"",""3391""
","
","
","""event"",""trial"",""time""
""fullscreenenter"",""1"",""3391""
","
","","","","","","","","","","","","","","","","","","","","","","","","","","",""
"pit-instructions","80","650614","0.0-2.0-16.0","battery-v0.2","","""event"",""trial"",""time""
""fullscreenenter"",""1"",""3391""
","
","
","""event"",""trial"",""time""
""fullscreenenter"",""1"",""3391""
","
","","[{""page_index"":0,""viewing_time"":6815},{""page_index"":1,""viewing_time"":8469},{""page_index"":2,""viewing_time"":4318.000000000116},{""page_index"":3,""viewing_time"":5930.999999999884}]","25533","","","","","","","","","","","","","","","","","","","","","","","",""
"pit-trial","81","654462","0.0-2.0-17.0-0.0","battery-v0.2","","""event"",""trial"",""time""
""fullscreenenter"",""1"",""3391""
","
","
","""event"",""trial"",""time""
""fullscreenenter"",""1"",""3391""
","
","","","994","","","20","20610","7612","&#9789;","elianto","#f73b6a7A"," "," ","1","0","[1846]","1","0","4","","","","","","","",""
"pit-trial","82","659317","0.0-2.0-17.0-1.0","battery-v0.2","","""event"",""trial"",""time""
""fullscreenenter"",""1"",""3391""
","
","
","""event"",""trial"",""time""
""fullscreenenter"",""1"",""3391""
","
","","","-1","","","20","20610","7612","&#9789;","elianto","#f73b6a7A"," ","-1","0","-10","[]","0","0","4","","","","","","","",""
"pit-trial","83","662730","0.0-2.0-17.0-2.0","battery-v0.2","","""event"",""trial"",""time""
""fullscreenenter"",""1"",""3391""
","
","
","""event"",""trial"",""time""
""fullscreenenter"",""1"",""3391""
","
","","","559","","","20","20610","7612","&#9789;","elianto","#f73b6a7A"," "," ","1","0","[1409]","1","0","4","","","","","","","",""
"pit-trial","84","667585","0.0-2.0-17.0-3.0","battery-v0.2","","""event"",""trial"",""time""
""fullscreenenter"",""1"",""3391""
","
","
","""event"",""trial"",""time""
""fullscreenenter"",""1"",""3391""
","
","","","-1","","","20","20610","7612","&#9789;","elianto","#f73b6a7A"," ","-1","0","0","[]","0","0","4","","","","","","","",""
"pit-trial","85","671239","0.0-2.0-17.0-4.0","battery-v0.2","","""event"",""trial"",""time""
""fullscreenenter"",""1"",""3391""
","
","
","""event"",""trial"",""time""
""fullscreenenter"",""1"",""3391""
","
","","","800","","","20","20610","7612","&#9789;","elianto","#f73b6a7A"," "," ","1","0","[1651]","1","0","4","","","","","","","",""
"pit-trial","86","676095","0.0-2.0-17.1-0.1","battery-v0.2","","""event"",""trial"",""time""
""fullscreenenter"",""1"",""3391""
","
","
","""event"",""trial"",""time""
""fullscreenenter"",""1"",""3391""
","
","","","-1","","","20","20610","7612","&#9789;","elianto","#f73b6a7A"," ","-1","0","-10","[]","0","0","4","","","","","","","",""
"pit-trial","87","679506","0.0-2.0-17.1-1.1","battery-v0.2","","""event"",""trial"",""time""
""fullscreenenter"",""1"",""3391""
","
","
","""event"",""trial"",""time""
""fullscreenenter"",""1"",""3391""
","
","","","558","","","20","20610","7612","&#9789;","elianto","#f73b6a7A"," "," ","1","0","[1409]","1","0","4","","","","","","","",""
"pit-trial","88","682741","0.0-2.0-17.1-2.1","battery-v0.2","","""event"",""trial"",""time""
""fullscreenenter"",""1"",""3391""
","
","
","""event"",""trial"",""time""
""fullscreenenter"",""1"",""3391""
","
","","","380","","","20","20610","7612","&#9789;","elianto","#f73b6a7A"," "," ","1","0","[1231]","1","0","4","","","","","","","",""
"pit-trial","89","685976","0.0-2.0-17.1-3.1","battery-v0.2","","""event"",""trial"",""time""
""fullscreenenter"",""1"",""3391""
","
","
","""event"",""trial"",""time""
""fullscreenenter"",""1"",""3391""
","
","","","379","","","20","20610","7612","&#9789;","elianto","#f73b6a7A"," "," ","1","-10","[1230]","1","0","4","","","","","","","",""
"pit-trial","90","689282","0.0-2.0-17.1-4.1","battery-v0.2","","""event"",""trial"",""time""
""fullscreenenter"",""1"",""3391""
","
","
","""event"",""trial"",""time""
""fullscreenenter"",""1"",""3391""
","
","","","452","","","20","20610","7612","&#9789;","elianto","#f73b6a7A"," "," ","1","0","[1303]","1","0","4","","","","","","","",""
"pit-trial","91","692840","0.0-2.0-17.2-0.2","battery-v0.2","","""event"",""trial"",""time""
""fullscreenenter"",""1"",""3391""
","
","
","""event"",""trial"",""time""
""fullscreenenter"",""1"",""3391""
","
","","","705","","","20","20610","7612","&#9789;","elianto","#f73b6a7A"," "," ","1","0","[1555]","1","0","4","","","","","","","",""
"pit-trial","92","696129","0.0-2.0-17.2-1.2","battery-v0.2","","""event"",""trial"",""time""
""fullscreenenter"",""1"",""3391""
","
","
","""event"",""trial"",""time""
""fullscreenenter"",""1"",""3391""
","
","","","435","","","20","20610","7612","&#9789;","elianto","#f73b6a7A"," "," ","1","0","[1285]","1","0","4","","","","","","","",""
"pit-trial","93","699400","0.0-2.0-17.2-2.2","battery-v0.2","","""event"",""trial"",""time""
""fullscreenenter"",""1"",""3391""
","
","
","""event"",""trial"",""time""
""fullscreenenter"",""1"",""3391""
","
","","","416.0000000001164","","","20","20610","7612","&#9789;","elianto","#f73b6a7A"," "," ","1","0","[1267.0000000001164]","1","0","4","","","","","","","",""
"pit-trial","94","702852","0.0-2.0-17.2-3.2","battery-v0.2","","""event"",""trial"",""time""
""fullscreenenter"",""1"",""3391""
","
","
","""event"",""trial"",""time""
""fullscreenenter"",""1"",""3391""
","
","","","599","","","20","20610","7612","&#9789;","elianto","#f73b6a7A"," "," ","1","-10","[1449]","1","0","4","","","","","","","",""
"pit-trial","95","705977","0.0-2.0-17.2-4.2","battery-v0.2","","""event"",""trial"",""time""
""fullscreenenter"",""1"",""3391""
","
","
","""event"",""trial"",""time""
""fullscreenenter"",""1"",""3391""
","
","","","271","","","20","20610","7612","&#9789;","elianto","#f73b6a7A"," "," ","1","0","[1122]","1","0","4","","","","","","","",""
"pit-trial","96","709226","0.0-2.0-17.3-0.3","battery-v0.2","","""event"",""trial"",""time""
""fullscreenenter"",""1"",""3391""
","
","
","""event"",""trial"",""time""
""fullscreenenter"",""1"",""3391""
","
","","","396.0000000001164","","","20","20610","7612","&#9789;","elianto","#f73b6a7A"," "," ","1","0","[1246.0000000001164]","1","0","4","","","","","","","",""
"pit-trial","97","712501","0.0-2.0-17.3-1.3","battery-v0.2","","""event"",""trial"",""time""
""fullscreenenter"",""1"",""3391""
","
","
","""event"",""trial"",""time""
""fullscreenenter"",""1"",""3391""
","
","","","421.0000000001164","","","20","20610","7612","&#9789;","elianto","#f73b6a7A"," "," ","1","0","[1271.0000000001164]","1","0","4","","","","","","","",""
"pit-trial","98","715856","0.0-2.0-17.3-2.3","battery-v0.2","","""event"",""trial"",""time""
""fullscreenenter"",""1"",""3391""
","
","
","""event"",""trial"",""time""
""fullscreenenter"",""1"",""3391""
","
","","","500","","","20","20610","7612","&#9789;","elianto","#f73b6a7A"," "," ","1","0","[1351]","1","0","4","","","","","","","",""
"pit-trial","99","719331","0.0-2.0-17.3-3.3","battery-v0.2","","""event"",""trial"",""time""
""fullscreenenter"",""1"",""3391""
","
","
","""event"",""trial"",""time""
""fullscreenenter"",""1"",""3391""
","
","","","621","","","20","20610","7612","&#9789;","elianto","#f73b6a7A"," "," ","1","-10","[1470]","1","0","4","","","","","","","",""
"pit-trial","100","722949","0.0-2.0-17.3-4.3","battery-v0.2","","""event"",""trial"",""time""
""fullscreenenter"",""1"",""3391""
","
","
","""event"",""trial"",""time""
""fullscreenenter"",""1"",""3391""
","
","","","765","","","20","20610","7612","&#9789;","elianto","#f73b6a7A"," "," ","1","0","[1616]","1","0","4","","","","","","","",""
"call-function","101","722951","0.0-2.0-18.0","battery-v0.2","","""event"",""trial"",""time""
""fullscreenenter"",""1"",""3391""
","
","
","""event"",""trial"",""time""
""fullscreenenter"",""1"",""3391""
","
","","","","","","","","","","","","","","","","","","","","","","","","","","",""
"pit-instructions","102","791807","0.0-2.0-19.0","battery-v0.2","","""event"",""trial"",""time""
""fullscreenenter"",""1"",""3391""
","
","
","""event"",""trial"",""time""
""fullscreenenter"",""1"",""3391""
","
","","[{""page_index"":0,""viewing_time"":6435},{""page_index"":1,""viewing_time"":6025},{""page_index"":2,""viewing_time"":12745},{""page_index"":3,""viewing_time"":7541},{""page_index"":4,""viewing_time"":8479.000000000116},{""page_index"":5,""viewing_time"":8252.999999999884},{""page_index"":6,""viewing_time"":9514},{""page_index"":7,""viewing_time"":5832},{""page_index"":8,""viewing_time"":4031.0000000001164}]","68856","","","","","","","","","","","","","","","","","","","","","","","",""
"pit-comprehension","103","796792","0.0-2.0-20.0-0.0","battery-v0.2","","""event"",""trial"",""time""
""fullscreenenter"",""1"",""3391""
","
","
","""event"",""trial"",""time""
""fullscreenenter"",""1"",""3391""
","
","","","4982.000000000116","[""SPACE""]","0","20","20610","7612","","","","","","","","","","","","","","","","","","",""
"pit-instructions","104","800376","0.0-2.0-20.0-1.0","battery-v0.2","","""event"",""trial"",""time""
""fullscreenenter"",""1"",""3391""
","
","
","""event"",""trial"",""time""
""fullscreenenter"",""1"",""3391""
","
","","[{""page_index"":0,""viewing_time"":3522}]","3523","","","","","","","","","","","","","","","","","","","","","","","",""
"pit-comprehension","105","806444","0.0-2.0-21.0-0.0","battery-v0.2","","""event"",""trial"",""time""
""fullscreenenter"",""1"",""3391""
","
","
","""event"",""trial"",""time""
""fullscreenenter"",""1"",""3391""
","
","","","6065","[""10""]","0","20","20610","7612","","","","","","","","","","","","","","","","","","",""
"pit-instructions","106","809292","0.0-2.0-21.0-1.0","battery-v0.2","","""event"",""trial"",""time""
""fullscreenenter"",""1"",""3391""
","
","
","""event"",""trial"",""time""
""fullscreenenter"",""1"",""3391""
","
","","[{""page_index"":0,""viewing_time"":2782}]","2783.0000000001164","","","","","","","","","","","","","","","","","","","","","","","",""
"pit-comprehension","107","816134","0.0-2.0-22.0-0.0","battery-v0.2","","""event"",""trial"",""time""
""fullscreenenter"",""1"",""3391""
","
","
","""event"",""trial"",""time""
""fullscreenenter"",""1"",""3391""
","
","","","6835","[""0""]","0","20","20610","7612","","","","","","","","","","","","","","","","","","",""
"pit-instructions","108","818981","0.0-2.0-22.0-1.0","battery-v0.2","","""event"",""trial"",""time""
""fullscreenenter"",""1"",""3391""
","
","
","""event"",""trial"",""time""
""fullscreenenter"",""1"",""3391""
","
","","[{""page_index"":0,""viewing_time"":2779}]","2779","","","","","","","","","","","","","","","","","","","","","","","",""
"pit-comprehension","109","827540","0.0-2.0-23.0-0.0","battery-v0.2","","""event"",""trial"",""time""
""fullscreenenter"",""1"",""3391""
","
","
","""event"",""trial"",""time""
""fullscreenenter"",""1"",""3391""
","
","","","8554","[""True""]","0","20","20610","7612","","","","","","","","","","","","","","","","","","",""
"pit-instructions","110","829070","0.0-2.0-23.0-1.0","battery-v0.2","","""event"",""trial"",""time""
""fullscreenenter"",""1"",""3391""
","
","
","""event"",""trial"",""time""
""fullscreenenter"",""1"",""3391""
","
","","[{""page_index"":0,""viewing_time"":1464.9999999998836}]","1466","","","","","","","","","","","","","","","","","","","","","","","",""
"pit-comprehension","111","836536","0.0-2.0-24.0-0.0","battery-v0.2","","""event"",""trial"",""time""
""fullscreenenter"",""1"",""3391""
","
","
","""event"",""trial"",""time""
""fullscreenenter"",""1"",""3391""
","
","","","7460","[""True""]","0","20","20610","7612","","","","","","","","","","","","","","","","","","",""
"pit-instructions","112","838733","0.0-2.0-24.0-1.0","battery-v0.2","","""event"",""trial"",""time""
""fullscreenenter"",""1"",""3391""
","
","
","""event"",""trial"",""time""
""fullscreenenter"",""1"",""3391""
","
","","[{""page_index"":0,""viewing_time"":2131}]","2132","","","","","","","","","","","","","","","","","","","","","","","",""
"pit-comprehension","113","845108","0.0-2.0-25.0-0.0","battery-v0.2","","""event"",""trial"",""time""
""fullscreenenter"",""1"",""3391""
","
","
","""event"",""trial"",""time""
""fullscreenenter"",""1"",""3391""
","
","","","6371","[""True""]","0","20","20610","7612","","","","","","","","","","","","","","","","","","",""
"pit-instructions","114","847271","0.0-2.0-25.0-1.0","battery-v0.2","","""event"",""trial"",""time""
""fullscreenenter"",""1"",""3391""
","
","
","""event"",""trial"",""time""
""fullscreenenter"",""1"",""3391""
","
","","[{""page_index"":0,""viewing_time"":2095}]","2096","","","","","","","","","","","","","","","","","","","","","","","",""
"pit-comprehension","115","852346","0.0-2.0-26.0-0.0","battery-v0.2","","""event"",""trial"",""time""
""fullscreenenter"",""1"",""3391""
","
","
","""event"",""trial"",""time""
""fullscreenenter"",""1"",""3391""
","
","","","5071","[""False""]","0","20","20610","7612","","","","","","","","","","","","","","","","","","",""
"pit-instructions","116","854490","0.0-2.0-26.0-1.0","battery-v0.2","","""event"",""trial"",""time""
""fullscreenenter"",""1"",""3391""
","
","
","""event"",""trial"",""time""
""fullscreenenter"",""1"",""3391""
","
","","[{""page_index"":0,""viewing_time"":2076}]","2077","","","","","","","","","","","","","","","","","","","","","","","",""
"pit-instructions","117","871303","0.0-3.0","battery-v0.2","","""event"",""trial"",""time""
""fullscreenenter"",""1"",""3391""
","
","
","""event"",""trial"",""time""
""fullscreenenter"",""1"",""3391""
","
","","[{""page_index"":0,""viewing_time"":4115.999999999884},{""page_index"":1,""viewing_time"":5357},{""page_index"":2,""viewing_time"":7336}]","16808.999999999884","","","","","","","","","","","","","","","","","","","","","","","",""
"pit-trial","118","874955","0.0-4.0","battery-v0.2","","""event"",""trial"",""time""
""fullscreenenter"",""1"",""3391""
","
","
","""event"",""trial"",""time""
""fullscreenenter"",""1"",""3391""
","
","","","795","","","20","20610","7612","&#9752;","elianto","#f73b6a7A"," "," ","1","0","[1645]","1","1","","","20610","1","3","3","lose","go","0"
"pit-trial","119","878831","0.0-5.0","battery-v0.2","","""event"",""trial"",""time""
""fullscreenenter"",""1"",""3391""
","
","
","""event"",""trial"",""time""
""fullscreenenter"",""1"",""3391""
","
","","","1022.0000000001164","","","20","20610","7612","&#9730;","elianto","#3366ff99"," "," ","1","+10","[1873.0000000001164]","1","1","","","20610","2","1","1","win","go","0"
"pit-trial","120","882831","0.0-6.0","battery-v0.2","","""event"",""trial"",""time""
""fullscreenenter"",""1"",""3391""
","
","
","""event"",""trial"",""time""
""fullscreenenter"",""1"",""3391""
","
","","","1143","","","20","20610","7612","&#9733;","elianto","#3366ff99","-1"," ","0","0","[1994]","1","1","","","20610","3","2","2","win","no-go","0"
"pit-trial","121","886520","0.0-7.0","battery-v0.2","","""event"",""trial"",""time""
""fullscreenenter"",""1"",""3391""
","
","
","""event"",""trial"",""time""
""fullscreenenter"",""1"",""3391""
","
","","","835","","","20","20610","7612","&#9728;","elianto","#f73b6a7A","-1"," ","0","0","[1685]","1","1","","","20610","4","0","4","lose","no-go","1"
"pit-trial","122","890381","0.0-8.0","battery-v0.2","","""event"",""trial"",""time""
""fullscreenenter"",""1"",""3391""
","
","
","""event"",""trial"",""time""
""fullscreenenter"",""1"",""3391""
","
","","","1005","","","20","20610","7612","&#9752;","elianto","#f73b6a7A"," "," ","1","0","[1856]","1","1","","","20610","5","3","3","lose","go","0"
"pit-trial","123","895238","0.0-9.0","battery-v0.2","","""event"",""trial"",""time""
""fullscreenenter"",""1"",""3391""
","
","
","""event"",""trial"",""time""
""fullscreenenter"",""1"",""3391""
","
","","","-1","","","20","20610","7612","&#9733;","elianto","#3366ff99","-1","-1","1","+10","[]","0","1","","","20610","6","2","2","win","no-go","0"
"pit-trial","124","898749","0.0-10.0","battery-v0.2","","""event"",""trial"",""time""
""fullscreenenter"",""1"",""3391""
","
","
","""event"",""trial"",""time""
""fullscreenenter"",""1"",""3391""
","
","","","656","","","20","20610","7612","&#9730;","elianto","#3366ff99"," "," ","1","+10","[1506]","1","1","","","20610","7","1","1","win","go","0"
"pit-trial","125","902977","0.0-11.0","battery-v0.2","","""event"",""trial"",""time""
""fullscreenenter"",""1"",""3391""
","
","
","""event"",""trial"",""time""
""fullscreenenter"",""1"",""3391""
","
","","","1372.0000000001164","","","20","20610","7612","&#9728;","elianto","#f73b6a7A","-1"," ","0","-10","[2222.0000000001164]","1","1","","","20610","8","0","4","lose","no-go","0"
"pit-trial","126","907833","0.0-12.0","battery-v0.2","","""event"",""trial"",""time""
""fullscreenenter"",""1"",""3391""
","
","
","""event"",""trial"",""time""
""fullscreenenter"",""1"",""3391""
","
","","","-1","","","20","20610","7612","&#9728;","elianto","#f73b6a7A","-1","-1","1","0","[]","0","1","","","20610","9","0","4","lose","no-go","0"
"pit-trial","127","912689","0.0-13.0","battery-v0.2","","""event"",""trial"",""time""
""fullscreenenter"",""1"",""3391""
","
","
","""event"",""trial"",""time""
""fullscreenenter"",""1"",""3391""
","
","","","-1","","","20","20610","7612","&#9733;","elianto","#3366ff99","-1","-1","1","+10","[]","0","1","","","20610","10","2","2","win","no-go","0"
"pit-trial","128","916363","0.0-14.0","battery-v0.2","","""event"",""trial"",""time""
""fullscreenenter"",""1"",""3391""
","
","
","""event"",""trial"",""time""
""fullscreenenter"",""1"",""3391""
","
","","","819","","","20","20610","7612","&#9752;","elianto","#f73b6a7A"," "," ","1","0","[1669]","1","1","","","20610","11","3","3","lose","go","0"
"pit-trial","129","920101","0.0-15.0","battery-v0.2","","""event"",""trial"",""time""
""fullscreenenter"",""1"",""3391""
","
","
","""event"",""trial"",""time""
""fullscreenenter"",""1"",""3391""
","
","","","883.0000000001164","","","20","20610","7612","&#9730;","elianto","#3366ff99"," "," ","1","+10","[1733.0000000001164]","1","1","","","20610","12","1","1","win","go","0"
"pit-trial","130","923628","0.0-16.0","battery-v0.2","","""event"",""trial"",""time""
""fullscreenenter"",""1"",""3391""
","
","
","""event"",""trial"",""time""
""fullscreenenter"",""1"",""3391""
","
","","","673","","","20","20610","7612","&#9752;","elianto","#f73b6a7A"," "," ","1","0","[1522.9999999998836]","1","1","","","20610","13","3","3","lose","go","0"
"pit-trial","131","928484","0.0-17.0","battery-v0.2","","""event"",""trial"",""time""
""fullscreenenter"",""1"",""3391""
","
","
","""event"",""trial"",""time""
""fullscreenenter"",""1"",""3391""
","
","","","-1","","","20","20610","7612","&#9733;","elianto","#3366ff99","-1","-1","1","+10","[]","0","1","","","20610","14","2","2","win","no-go","0"
"pit-trial","132","932234","0.0-18.0","battery-v0.2","","""event"",""trial"",""time""
""fullscreenenter"",""1"",""3391""
","
","
","""event"",""trial"",""time""
""fullscreenenter"",""1"",""3391""
","
","","","895","","","20","20610","7612","&#9730;","elianto","#3366ff99"," "," ","1","+10","[1746]","1","1","","","20610","15","1","1","win","go","0"
"pit-trial","133","937090","0.0-19.0","battery-v0.2","","""event"",""trial"",""time""
""fullscreenenter"",""1"",""3391""
","
","
","""event"",""trial"",""time""
""fullscreenenter"",""1"",""3391""
","
","","","-1","","","20","20610","7612","&#9728;","elianto","#f73b6a7A","-1","-1","1","0","[]","0","1","","","20610","16","0","4","lose","no-go","0"
"pit-trial","134","940852","0.0-20.0","battery-v0.2","","""event"",""trial"",""time""
""fullscreenenter"",""1"",""3391""
","
","
","""event"",""trial"",""time""
""fullscreenenter"",""1"",""3391""
","
","","","907","","","20","20610","7612","&#9752;","elianto","#f73b6a7A"," "," ","1","0","[1758]","1","1","","","20610","17","3","3","lose","go","0"
"pit-trial","135","945709","0.0-21.0","battery-v0.2","","""event"",""trial"",""time""
""fullscreenenter"",""1"",""3391""
","
","
","""event"",""trial"",""time""
""fullscreenenter"",""1"",""3391""
","
","","","-1","","","20","20610","7612","&#9728;","elianto","#f73b6a7A","-1","-1","1","0","[]","0","1","","","20610","18","0","4","lose","no-go","0"
"pit-trial","136","949489","0.0-22.0","battery-v0.2","","""event"",""trial"",""time""
""fullscreenenter"",""1"",""3391""
","
","
","""event"",""trial"",""time""
""fullscreenenter"",""1"",""3391""
","
","","","925.0000000001164","","","20","20610","7612","&#9730;","elianto","#3366ff99"," "," ","1","0","[1776.0000000001164]","1","1","","","20610","19","1","1","win","go","1"
"pit-trial","137","954345","0.0-23.0","battery-v0.2","","""event"",""trial"",""time""
""fullscreenenter"",""1"",""3391""
","
","
","""event"",""trial"",""time""
""fullscreenenter"",""1"",""3391""
","
","","","-1","","","20","20610","7612","&#9733;","elianto","#3366ff99","-1","-1","1","+10","[]","0","1","","","20610","20","2","2","win","no-go","0"
"pit-instructions","138","967555","0.0-24.0","battery-v0.2","","""event"",""trial"",""time""
""fullscreenenter"",""1"",""3391""
","
","
","""event"",""trial"",""time""
""fullscreenenter"",""1"",""3391""
","
","","[{""page_index"":0,""viewing_time"":5884},{""page_index"":1,""viewing_time"":7322}]","13206","","","","","","","","","","","","","","","","","","","","","","","",""
"pit-trial","139","971498","0.0-25.0","battery-v0.2","","""event"",""trial"",""time""
""fullscreenenter"",""1"",""3391""
","
","
","""event"",""trial"",""time""
""fullscreenenter"",""1"",""3391""
","
","","","1083","","","20","20610","7612","a","elianto","#f73b6a7A"," "," ","1","0","[1937]","1","2","","","20610","21","2","3","lose","go","0"
"pit-trial","140","975291","0.0-26.0","battery-v0.2","","""event"",""trial"",""time""
""fullscreenenter"",""1"",""3391""
","
","
","""event"",""trial"",""time""
""fullscreenenter"",""1"",""3391""
","
","","","937","","","20","20610","7612","l","elianto","#3366ff99","-1"," ","0","0","[1788]","1","2","","","20610","22","1","2","win","no-go","0"
"pit-trial","141","979406","0.0-27.0","battery-v0.2","","""event"",""trial"",""time""
""fullscreenenter"",""1"",""3391""
","
","
","""event"",""trial"",""time""
""fullscreenenter"",""1"",""3391""
","
","","","1260","","","20","20610","7612","g","elianto","#f73b6a7A","-1"," ","0","0","[2111]","1","2","","","20610","23","3","4","lose","no-go","1"
"pit-trial","142","984262","0.0-28.0","battery-v0.2","","""event"",""trial"",""time""
""fullscreenenter"",""1"",""3391""
","
","
","""event"",""trial"",""time""
""fullscreenenter"",""1"",""3391""
","
","","","-1","","","20","20610","7612","u","elianto","#f73b6a7A"," ","-1","0","0","[]","0","2","","","20610","24","0","3","lose","go","1"
"pit-trial","143","988216","0.0-29.0","battery-v0.2","","""event"",""trial"",""time""
""fullscreenenter"",""1"",""3391""
","
","
","""event"",""trial"",""time""
""fullscreenenter"",""1"",""3391""
","
","","","1099","","","20","20610","7612","a","elianto","#f73b6a7A"," "," ","1","0","[1950]","1","2","","","20610","25","2","3","lose","go","0"
"pit-trial","144","993072","0.0-30.0","battery-v0.2","","""event"",""trial"",""time""
""fullscreenenter"",""1"",""3391""
","
","
","""event"",""trial"",""time""
""fullscreenenter"",""1"",""3391""
","
","","","-1","","","20","20610","7612","l","elianto","#3366ff99","-1","-1","1","+10","[]","0","2","","","20610","26","1","2","win","no-go","0"
"pit-trial","145","997534","0.0-31.0","battery-v0.2","","""event"",""trial"",""time""
""fullscreenenter"",""1"",""3391""
","
","
","""event"",""trial"",""time""
""fullscreenenter"",""1"",""3391""
","
","","","1606","","","20","20610","7612","g","elianto","#f73b6a7A","-1"," ","0","-10","[2457]","1","2","","","20610","27","3","4","lose","no-go","0"
"pit-trial","146","1002390","0.0-32.0","battery-v0.2","","""event"",""trial"",""time""
""fullscreenenter"",""1"",""3391""
","
","
","""event"",""trial"",""time""
""fullscreenenter"",""1"",""3391""
","
","","","-1","","","20","20610","7612","u","elianto","#f73b6a7A"," ","-1","0","-10","[]","0","2","","","20610","28","0","3","lose","go","0"
"pit-trial","147","1006569","0.0-33.0","battery-v0.2","","""event"",""trial"",""time""
""fullscreenenter"",""1"",""3391""
","
","
","""event"",""trial"",""time""
""fullscreenenter"",""1"",""3391""
","
","","","1322","","","20","20610","7612","u","elianto","#f73b6a7A"," "," ","1","0","[2172]","1","2","","","20610","29","0","3","lose","go","0"
"pit-trial","148","1010334","0.0-34.0","battery-v0.2","","""event"",""trial"",""time""
""fullscreenenter"",""1"",""3391""
","
","
","""event"",""trial"",""time""
""fullscreenenter"",""1"",""3391""
","
","","","910","","","20","20610","7612","a","elianto","#f73b6a7A"," "," ","1","0","[1761]","1","2","","","20610","30","2","3","lose","go","0"
"pit-trial","149","1015189","0.0-35.0","battery-v0.2","","""event"",""trial"",""time""
""fullscreenenter"",""1"",""3391""
","
","
","""event"",""trial"",""time""
""fullscreenenter"",""1"",""3391""
","
","","","-1","","","20","20610","7612","l","elianto","#3366ff99","-1","-1","1","+10","[]","0","2","","","20610","31","1","2","win","no-go","0"
"pit-trial","150","1019464","0.0-36.0","battery-v0.2","","""event"",""trial"",""time""
""fullscreenenter"",""1"",""3391""
","
","
","""event"",""trial"",""time""
""fullscreenenter"",""1"",""3391""
","
","","","1419","","","20","20610","7612","g","elianto","#f73b6a7A","-1"," ","0","0","[2270]","1","2","","","20610","32","3","4","lose","no-go","1"
"pit-trial","151","1024320","0.0-37.0","battery-v0.2","","""event"",""trial"",""time""
""fullscreenenter"",""1"",""3391""
","
","
","""event"",""trial"",""time""
""fullscreenenter"",""1"",""3391""
","
","","","-1","","","20","20610","7612","l","elianto","#3366ff99","-1","-1","1","+10","[]","0","2","","","20610","33","1","2","win","no-go","0"
"pit-trial","152","1027796","0.0-38.0","battery-v0.2","","""event"",""trial"",""time""
""fullscreenenter"",""1"",""3391""
","
","
","""event"",""trial"",""time""
""fullscreenenter"",""1"",""3391""
","
","","","620.9999999998836","","","20","20610","7612","a","elianto","#f73b6a7A"," "," ","1","0","[1471]","1","2","","","20610","34","2","3","lose","go","0"
"pit-trial","153","1032087","0.0-39.0","battery-v0.2","","""event"",""trial"",""time""
""fullscreenenter"",""1"",""3391""
","
","
","""event"",""trial"",""time""
""fullscreenenter"",""1"",""3391""
","
","","","1435.9999999998836","","","20","20610","7612","g","elianto","#f73b6a7A","-1"," ","0","-10","[2285.9999999998836]","1","2","","","20610","35","3","4","lose","no-go","0"
"pit-trial","154","1036539","0.0-40.0","battery-v0.2","","""event"",""trial"",""time""
""fullscreenenter"",""1"",""3391""
","
","
","""event"",""trial"",""time""
""fullscreenenter"",""1"",""3391""
","
","","","1597","","","20","20610","7612","u","elianto","#f73b6a7A"," "," ","1","0","[2446.9999999998836]","1","2","","","20610","36","0","3","lose","go","0"
"pit-trial","155","1039999","0.0-41.0","battery-v0.2","","""event"",""trial"",""time""
""fullscreenenter"",""1"",""3391""
","
","
","""event"",""trial"",""time""
""fullscreenenter"",""1"",""3391""
","
","","","605.0000000001164","","","20","20610","7612","a","elianto","#f73b6a7A"," "," ","1","0","[1456]","1","2","","","20610","37","2","3","lose","go","0"
"pit-trial","156","1043455","0.0-42.0","battery-v0.2","","""event"",""trial"",""time""
""fullscreenenter"",""1"",""3391""
","
","
","""event"",""trial"",""time""
""fullscreenenter"",""1"",""3391""
","
","","","601.0000000001164","","","20","20610","7612","u","elianto","#f73b6a7A"," "," ","1","0","[1451]","1","2","","","20610","38","0","3","lose","go","0"
"pit-trial","157","1048310","0.0-43.0","battery-v0.2","","""event"",""trial"",""time""
""fullscreenenter"",""1"",""3391""
","
","
","""event"",""trial"",""time""
""fullscreenenter"",""1"",""3391""
","
","","","-1","","","20","20610","7612","g","elianto","#f73b6a7A","-1","-1","1","0","[]","0","2","","","20610","39","3","4","lose","no-go","0"
"pit-trial","158","1053166","0.0-44.0","battery-v0.2","","""event"",""trial"",""time""
""fullscreenenter"",""1"",""3391""
","
","
","""event"",""trial"",""time""
""fullscreenenter"",""1"",""3391""
","
","","","-1","","","20","20610","7612","l","elianto","#3366ff99","-1","-1","1","+10","[]","0","2","","","20610","40","1","2","win","no-go","0"
"pit-trial","159","1058022","0.0-45.0","battery-v0.2","","""event"",""trial"",""time""
""fullscreenenter"",""1"",""3391""
","
","
","""event"",""trial"",""time""
""fullscreenenter"",""1"",""3391""
","
","","","-1","","","20","20610","7612","l","elianto","#3366ff99","-1","-1","1","+10","[]","0","2","","","20610","41","1","2","win","no-go","0"
"pit-trial","160","1062878","0.0-46.0","battery-v0.2","","""event"",""trial"",""time""
""fullscreenenter"",""1"",""3391""
","
","
","""event"",""trial"",""time""
""fullscreenenter"",""1"",""3391""
","
","","","-1","","","20","20610","7612","g","elianto","#f73b6a7A","-1","-1","1","0","[]","0","2","","","20610","42","3","4","lose","no-go","0"
"pit-trial","161","1066714","0.0-47.0","battery-v0.2","","""event"",""trial"",""time""
""fullscreenenter"",""1"",""3391""
","
","
","""event"",""trial"",""time""
""fullscreenenter"",""1"",""3391""
","
","","","981","","","20","20610","7612","u","elianto","#f73b6a7A"," "," ","1","0","[1831.0000000002328]","1","2","","","20610","43","0","3","lose","go","0"
"pit-trial","162","1070395","0.0-48.0","battery-v0.2","","""event"",""trial"",""time""
""fullscreenenter"",""1"",""3391""
","
","
","""event"",""trial"",""time""
""fullscreenenter"",""1"",""3391""
","
","","","825","","","20","20610","7612","a","elianto","#f73b6a7A"," "," ","1","-10","[1675]","1","2","","","20610","44","2","3","lose","go","1"
"pit-trial","163","1075251","0.0-49.0","battery-v0.2","","""event"",""trial"",""time""
""fullscreenenter"",""1"",""3391""
","
","
","""event"",""trial"",""time""
""fullscreenenter"",""1"",""3391""
","
","","","-1","","","20","20610","7612","l","elianto","#3366ff99","-1","-1","1","+10","[]","0","2","","","20610","45","1","2","win","no-go","0"
"pit-trial","164","1080107","0.0-50.0","battery-v0.2","","""event"",""trial"",""time""
""fullscreenenter"",""1"",""3391""
","
","
","""event"",""trial"",""time""
""fullscreenenter"",""1"",""3391""
","
","","","-1","","","20","20610","7612","g","elianto","#f73b6a7A","-1","-1","1","0","[]","0","2","","","20610","46","3","4","lose","no-go","0"
"pit-trial","165","1083970","0.0-51.0","battery-v0.2","","""event"",""trial"",""time""
""fullscreenenter"",""1"",""3391""
","
","
","""event"",""trial"",""time""
""fullscreenenter"",""1"",""3391""
","
","","","1009","","","20","20610","7612","u","elianto","#f73b6a7A"," "," ","1","0","[1860]","1","2","","","20610","47","0","3","lose","go","0"
"pit-trial","166","1087642","0.0-52.0","battery-v0.2","","""event"",""trial"",""time""
""fullscreenenter"",""1"",""3391""
","
","
","""event"",""trial"",""time""
""fullscreenenter"",""1"",""3391""
","
","","","816","","","20","20610","7612","a","elianto","#f73b6a7A"," "," ","1","0","[1666]","1","2","","","20610","48","2","3","lose","go","0"
"pit-trial","167","1092497","0.0-53.0","battery-v0.2","","""event"",""trial"",""time""
""fullscreenenter"",""1"",""3391""
","
","
","""event"",""trial"",""time""
""fullscreenenter"",""1"",""3391""
","
","","","-1","","","20","20610","7612","g","elianto","#f73b6a7A","-1","-1","1","-10","[]","0","2","","","20610","49","3","4","lose","no-go","1"
"pit-trial","168","1096122","0.0-54.0","battery-v0.2","","""event"",""trial"",""time""
""fullscreenenter"",""1"",""3391""
","
","
","""event"",""trial"",""time""
""fullscreenenter"",""1"",""3391""
","
","","","769","","","20","20610","7612","u","elianto","#f73b6a7A"," "," ","1","0","[1618]","1","2","","","20610","50","0","3","lose","go","0"
"pit-trial","169","1100979","0.0-55.0","battery-v0.2","","""event"",""trial"",""time""
""fullscreenenter"",""1"",""3391""
","
","
","""event"",""trial"",""time""
""fullscreenenter"",""1"",""3391""
","
","","","-1","","","20","20610","7612","a","elianto","#f73b6a7A"," ","-1","0","-10","[]","0","2","","","20610","51","2","3","lose","go","0"
"pit-trial","170","1105833","0.0-56.0","battery-v0.2","","""event"",""trial"",""time""
""fullscreenenter"",""1"",""3391""
","
","
","""event"",""trial"",""time""
""fullscreenenter"",""1"",""3391""
","
","","","-1","","","20","20610","7612","l","elianto","#3366ff99","-1","-1","1","+10","[]","0","2","","","20610","52","1","2","win","no-go","0"
"pit-trial","171","1110689","0.0-57.0","battery-v0.2","","""event"",""trial"",""time""
""fullscreenenter"",""1"",""3391""
","
","
","""event"",""trial"",""time""
""fullscreenenter"",""1"",""3391""
","
","","","-1","","","20","20610","7612","l","elianto","#3366ff99","-1","-1","1","+10","[]","0","2","","","20610","53","1","2","win","no-go","0"
"pit-trial","172","1114331","0.0-58.0","battery-v0.2","","""event"",""trial"",""time""
""fullscreenenter"",""1"",""3391""
","
","
","""event"",""trial"",""time""
""fullscreenenter"",""1"",""3391""
","
","","","787","","","20","20610","7612","u","elianto","#f73b6a7A"," "," ","1","0","[1636]","1","2","","","20610","54","0","3","lose","go","0"
"pit-trial","173","1119186","0.0-59.0","battery-v0.2","","""event"",""trial"",""time""
""fullscreenenter"",""1"",""3391""
","
","
","""event"",""trial"",""time""
""fullscreenenter"",""1"",""3391""
","
","","","-1","","","20","20610","7612","g","elianto","#f73b6a7A","-1","-1","1","0","[]","0","2","","","20610","55","3","4","lose","no-go","0"
"pit-trial","174","1122831","0.0-60.0","battery-v0.2","","""event"",""trial"",""time""
""fullscreenenter"",""1"",""3391""
","
","
","""event"",""trial"",""time""
""fullscreenenter"",""1"",""3391""
","
","","","789","","","20","20610","7612","a","elianto","#f73b6a7A"," "," ","1","0","[1640]","1","2","","","20610","56","2","3","lose","go","0"
"pit-trial","175","1126435","0.0-61.0","battery-v0.2","","""event"",""trial"",""time""
""fullscreenenter"",""1"",""3391""
","
","
","""event"",""trial"",""time""
""fullscreenenter"",""1"",""3391""
","
","","","749","","","20","20610","7612","a","elianto","#f73b6a7A"," "," ","1","0","[1599]","1","2","","","20610","57","2","3","lose","go","0"
"pit-trial","176","1131291","0.0-62.0","battery-v0.2","","""event"",""trial"",""time""
""fullscreenenter"",""1"",""3391""
","
","
","""event"",""trial"",""time""
""fullscreenenter"",""1"",""3391""
","
","","","-1","","","20","20610","7612","g","elianto","#f73b6a7A","-1","-1","1","0","[]","0","2","","","20610","58","3","4","lose","no-go","0"
"pit-trial","177","1136015","0.0-63.0","battery-v0.2","","""event"",""trial"",""time""
""fullscreenenter"",""1"",""3391""
","
","
","""event"",""trial"",""time""
""fullscreenenter"",""1"",""3391""
","
","","","1868","","","20","20610","7612","p","elianto","#3366ff99"," "," ","1","+10","[2719]","1","2","","","20610","59","4","1","win","go","0"
"pit-trial","178","1140445","0.0-64.0","battery-v0.2","","""event"",""trial"",""time""
""fullscreenenter"",""1"",""3391""
","
","
","""event"",""trial"",""time""
""fullscreenenter"",""1"",""3391""
","
","","","1574","","","20","20610","7612","u","elianto","#f73b6a7A"," "," ","1","-10","[2425]","1","2","","","20610","60","0","3","lose","go","1"
"pit-trial","179","1144906","0.0-65.0","battery-v0.2","","""event"",""trial"",""time""
""fullscreenenter"",""1"",""3391""
","
","
","""event"",""trial"",""time""
""fullscreenenter"",""1"",""3391""
","
","","","1606","","","20","20610","7612","g","elianto","#f73b6a7A","-1"," ","0","-10","[2456]","1","2","","","20610","61","3","4","lose","no-go","0"
"pit-trial","180","1148524","0.0-66.0","battery-v0.2","","""event"",""trial"",""time""
""fullscreenenter"",""1"",""3391""
","
","
","""event"",""trial"",""time""
""fullscreenenter"",""1"",""3391""
","
","","","763.9999999997672","","","20","20610","7612","p","elianto","#3366ff99"," "," ","1","+10","[1614]","1","2","","","20610","62","4","1","win","go","0"
"pit-trial","181","1152232","0.0-67.0","battery-v0.2","","""event"",""trial"",""time""
""fullscreenenter"",""1"",""3391""
","
","
","""event"",""trial"",""time""
""fullscreenenter"",""1"",""3391""
","
","","","854","","","20","20610","7612","l","elianto","#3366ff99","-1"," ","0","0","[1704]","1","2","","","20610","63","1","2","win","no-go","0"
"pit-trial","182","1157088","0.0-68.0","battery-v0.2","","""event"",""trial"",""time""
""fullscreenenter"",""1"",""3391""
","
","
","""event"",""trial"",""time""
""fullscreenenter"",""1"",""3391""
","
","","","-1","","","20","20610","7612","a","elianto","#f73b6a7A"," ","-1","0","-10","[]","0","2","","","20610","64","2","3","lose","go","0"
"pit-trial","183","1161483","0.0-69.0","battery-v0.2","","""event"",""trial"",""time""
""fullscreenenter"",""1"",""3391""
","
","
","""event"",""trial"",""time""
""fullscreenenter"",""1"",""3391""
","
","","","1540","","","20","20610","7612","s","elianto","#3366ff99","-1"," ","0","0","[2390]","1","2","","","20610","65","5","2","win","no-go","0"
"pit-trial","184","1165628","0.0-70.0","battery-v0.2","","""event"",""trial"",""time""
""fullscreenenter"",""1"",""3391""
","
","
","""event"",""trial"",""time""
""fullscreenenter"",""1"",""3391""
","
","","","1290.9999999997672","","","20","20610","7612","l","elianto","#3366ff99","-1"," ","0","0","[2142]","1","2","","","20610","66","1","2","win","no-go","0"
"pit-trial","185","1170359","0.0-71.0","battery-v0.2","","""event"",""trial"",""time""
""fullscreenenter"",""1"",""3391""
","
","
","""event"",""trial"",""time""
""fullscreenenter"",""1"",""3391""
","
","","","1874","","","20","20610","7612","g","elianto","#f73b6a7A","-1"," ","0","-10","[2725]","1","2","","","20610","67","3","4","lose","no-go","0"
"pit-trial","186","1174154","0.0-72.0","battery-v0.2","","""event"",""trial"",""time""
""fullscreenenter"",""1"",""3391""
","
","
","""event"",""trial"",""time""
""fullscreenenter"",""1"",""3391""
","
","","","941.0000000002328","","","20","20610","7612","p","elianto","#3366ff99"," "," ","1","+10","[1791.0000000002328]","1","2","","","20610","68","4","1","win","go","0"
"pit-trial","187","1179011","0.0-73.0","battery-v0.2","","""event"",""trial"",""time""
""fullscreenenter"",""1"",""3391""
","
","
","""event"",""trial"",""time""
""fullscreenenter"",""1"",""3391""
","
","","","-1","","","20","20610","7612","l","elianto","#3366ff99","-1","-1","1","+10","[]","0","2","","","20610","69","1","2","win","no-go","0"
"pit-trial","188","1182750","0.0-74.0","battery-v0.2","","""event"",""trial"",""time""
""fullscreenenter"",""1"",""3391""
","
","
","""event"",""trial"",""time""
""fullscreenenter"",""1"",""3391""
","
","","","885.0000000002328","","","20","20610","7612","p","elianto","#3366ff99"," "," ","1","+10","[1736.0000000002328]","1","2","","","20610","70","4","1","win","go","0"
"pit-trial","189","1186796","0.0-75.0","battery-v0.2","","""event"",""trial"",""time""
""fullscreenenter"",""1"",""3391""
","
","
","""event"",""trial"",""time""
""fullscreenenter"",""1"",""3391""
","
","","","1188.9999999997672","","","20","20610","7612","s","elianto","#3366ff99","-1"," ","0","0","[2040]","1","2","","","20610","71","5","2","win","no-go","0"
"pit-trial","190","1191365","0.0-76.0","battery-v0.2","","""event"",""trial"",""time""
""fullscreenenter"",""1"",""3391""
","
","
","""event"",""trial"",""time""
""fullscreenenter"",""1"",""3391""
","
","","","1714","","","20","20610","7612","a","elianto","#f73b6a7A"," "," ","1","0","[2563]","1","2","","","20610","72","2","3","lose","go","0"
"pit-trial","191","1194801","0.0-77.0","battery-v0.2","","""event"",""trial"",""time""
""fullscreenenter"",""1"",""3391""
","
","
","""event"",""trial"",""time""
""fullscreenenter"",""1"",""3391""
","
","","","579","","","20","20610","7612","p","elianto","#3366ff99"," "," ","1","+10","[1430]","1","2","","","20610","73","4","1","win","go","0"
"pit-trial","192","1199656","0.0-78.0","battery-v0.2","","""event"",""trial"",""time""
""fullscreenenter"",""1"",""3391""
","
","
","""event"",""trial"",""time""
""fullscreenenter"",""1"",""3391""
","
","","","-1","","","20","20610","7612","l","elianto","#3366ff99","-1","-1","1","+10","[]","0","2","","","20610","74","1","2","win","no-go","0"
"pit-trial","193","1204512","0.0-79.0","battery-v0.2","","""event"",""trial"",""time""
""fullscreenenter"",""1"",""3391""
","
","
","""event"",""trial"",""time""
""fullscreenenter"",""1"",""3391""
","
","","","-1","","","20","20610","7612","g","elianto","#f73b6a7A","-1","-1","1","0","[]","0","2","","","20610","75","3","4","lose","no-go","0"
"pit-trial","194","1209367","0.0-80.0","battery-v0.2","","""event"",""trial"",""time""
""fullscreenenter"",""1"",""3391""
","
","
","""event"",""trial"",""time""
""fullscreenenter"",""1"",""3391""
","
","","","-1","","","20","20610","7612","s","elianto","#3366ff99","-1","-1","1","+10","[]","0","2","","","20610","76","5","2","win","no-go","0"
"pit-trial","195","1214223","0.0-81.0","battery-v0.2","","""event"",""trial"",""time""
""fullscreenenter"",""1"",""3391""
","
","
","""event"",""trial"",""time""
""fullscreenenter"",""1"",""3391""
","
","","","-1","","","20","20610","7612","g","elianto","#f73b6a7A","-1","-1","1","0","[]","0","2","","","20610","77","3","4","lose","no-go","0"
"pit-trial","196","1217810","0.0-82.0","battery-v0.2","","""event"",""trial"",""time""
""fullscreenenter"",""1"",""3391""
","
","
","""event"",""trial"",""time""
""fullscreenenter"",""1"",""3391""
","
","","","731","","","20","20610","7612","p","elianto","#3366ff99"," "," ","1","+10","[1581]","1","2","","","20610","78","4","1","win","go","0"
"pit-trial","197","1221330","0.0-83.0","battery-v0.2","","""event"",""trial"",""time""
""fullscreenenter"",""1"",""3391""
","
","
","""event"",""trial"",""time""
""fullscreenenter"",""1"",""3391""
","
","","","664","","","20","20610","7612","p","elianto","#3366ff99"," "," ","1","+10","[1515]","1","2","","","20610","79","4","1","win","go","0"
"pit-trial","198","1226186","0.0-84.0","battery-v0.2","","""event"",""trial"",""time""
""fullscreenenter"",""1"",""3391""
","
","
","""event"",""trial"",""time""
""fullscreenenter"",""1"",""3391""
","
","","","-1","","","20","20610","7612","s","elianto","#3366ff99","-1","-1","1","+10","[]","0","2","","","20610","80","5","2","win","no-go","0"
"pit-trial","199","1229826","0.0-85.0","battery-v0.2","","""event"",""trial"",""time""
""fullscreenenter"",""1"",""3391""
","
","
","""event"",""trial"",""time""
""fullscreenenter"",""1"",""3391""
","
","","","784","","","20","20610","7612","p","elianto","#3366ff99"," "," ","1","+10","[1635]","1","2","","","20610","81","4","1","win","go","0"
"pit-trial","200","1234682","0.0-86.0","battery-v0.2","","""event"",""trial"",""time""
""fullscreenenter"",""1"",""3391""
","
","
","""event"",""trial"",""time""
""fullscreenenter"",""1"",""3391""
","
","","","-1","","","20","20610","7612","g","elianto","#f73b6a7A","-1","-1","1","-10","[]","0","2","","","20610","82","3","4","lose","no-go","1"
"pit-trial","201","1239537","0.0-87.0","battery-v0.2","","""event"",""trial"",""time""
""fullscreenenter"",""1"",""3391""
","
","
","""event"",""trial"",""time""
""fullscreenenter"",""1"",""3391""
","
","","","-1","","","20","20610","7612","s","elianto","#3366ff99","-1","-1","1","+10","[]","0","2","","","20610","83","5","2","win","no-go","0"
"pit-trial","202","1244174","0.0-88.0","battery-v0.2","","""event"",""trial"",""time""
""fullscreenenter"",""1"",""3391""
","
","
","""event"",""trial"",""time""
""fullscreenenter"",""1"",""3391""
","
","","","1782","","","20","20610","7612","e","elianto","#f73b6a7A","-1"," ","0","-10","[2633]","1","2","","","20610","84","7","4","lose","no-go","0"
"pit-trial","203","1248207","0.0-89.0","battery-v0.2","","""event"",""trial"",""time""
""fullscreenenter"",""1"",""3391""
","
","
","""event"",""trial"",""time""
""fullscreenenter"",""1"",""3391""
","
","","","1176.9999999997672","","","20","20610","7612","s","elianto","#3366ff99","-1"," ","0","0","[2027]","1","2","","","20610","85","5","2","win","no-go","0"
"pit-trial","204","1251792","0.0-90.0","battery-v0.2","","""event"",""trial"",""time""
""fullscreenenter"",""1"",""3391""
","
","
","""event"",""trial"",""time""
""fullscreenenter"",""1"",""3391""
","
","","","728","","","20","20610","7612","p","elianto","#3366ff99"," "," ","1","+10","[1578.9999999997672]","1","2","","","20610","86","4","1","win","go","0"
"pit-trial","205","1256108","0.0-91.0","battery-v0.2","","""event"",""trial"",""time""
""fullscreenenter"",""1"",""3391""
","
","
","""event"",""trial"",""time""
""fullscreenenter"",""1"",""3391""
","
","","","1461","","","20","20610","7612","w","elianto","#f73b6a7A"," "," ","1","0","[2312]","1","2","","","20610","87","6","3","lose","go","0"
"pit-trial","206","1260963","0.0-92.0","battery-v0.2","","""event"",""trial"",""time""
""fullscreenenter"",""1"",""3391""
","
","
","""event"",""trial"",""time""
""fullscreenenter"",""1"",""3391""
","
","","","-1","","","20","20610","7612","e","elianto","#f73b6a7A","-1","-1","1","0","[]","0","2","","","20610","88","7","4","lose","no-go","0"
"pit-trial","207","1265819","0.0-93.0","battery-v0.2","","""event"",""trial"",""time""
""fullscreenenter"",""1"",""3391""
","
","
","""event"",""trial"",""time""
""fullscreenenter"",""1"",""3391""
","
","","","-1","","","20","20610","7612","s","elianto","#3366ff99","-1","-1","1","+10","[]","0","2","","","20610","89","5","2","win","no-go","0"
"pit-trial","208","1269932","0.0-94.0","battery-v0.2","","""event"",""trial"",""time""
""fullscreenenter"",""1"",""3391""
","
","
","""event"",""trial"",""time""
""fullscreenenter"",""1"",""3391""
","
","","","1256","","","20","20610","7612","w","elianto","#f73b6a7A"," "," ","1","0","[2107]","1","2","","","20610","90","6","3","lose","go","0"
"pit-trial","209","1274786","0.0-95.0","battery-v0.2","","""event"",""trial"",""time""
""fullscreenenter"",""1"",""3391""
","
","
","""event"",""trial"",""time""
""fullscreenenter"",""1"",""3391""
","
","","","-1","","","20","20610","7612","e","elianto","#f73b6a7A","-1","-1","1","0","[]","0","2","","","20610","91","7","4","lose","no-go","0"
"pit-trial","210","1278477","0.0-96.0","battery-v0.2","","""event"",""trial"",""time""
""fullscreenenter"",""1"",""3391""
","
","
","""event"",""trial"",""time""
""fullscreenenter"",""1"",""3391""
","
","","","834","","","20","20610","7612","p","elianto","#3366ff99"," "," ","1","+10","[1685]","1","2","","","20610","92","4","1","win","go","0"
"pit-trial","211","1283333","0.0-97.0","battery-v0.2","","""event"",""trial"",""time""
""fullscreenenter"",""1"",""3391""
","
","
","""event"",""trial"",""time""
""fullscreenenter"",""1"",""3391""
","
","","","-1","","","20","20610","7612","e","elianto","#f73b6a7A","-1","-1","1","0","[]","0","2","","","20610","93","7","4","lose","no-go","0"
"pit-trial","212","1287434","0.0-98.0","battery-v0.2","","""event"",""trial"",""time""
""fullscreenenter"",""1"",""3391""
","
","
","""event"",""trial"",""time""
""fullscreenenter"",""1"",""3391""
","
","","","1244.0000000002328","","","20","20610","7612","d","elianto","#3366ff99"," "," ","1","+10","[2095.000000000233]","1","2","","","20610","94","8","1","win","go","0"
"pit-trial","213","1292151","0.0-99.0","battery-v0.2","","""event"",""trial"",""time""
""fullscreenenter"",""1"",""3391""
","
","
","""event"",""trial"",""time""
""fullscreenenter"",""1"",""3391""
","
","","","1862","","","20","20610","7612","s","elianto","#3366ff99","-1"," ","0","0","[2712]","1","2","","","20610","95","5","2","win","no-go","0"
"pit-trial","214","1296210","0.0-100.0","battery-v0.2","","""event"",""trial"",""time""
""fullscreenenter"",""1"",""3391""
","
","
","""event"",""trial"",""time""
""fullscreenenter"",""1"",""3391""
","
","","","1204","","","20","20610","7612","w","elianto","#f73b6a7A"," "," ","1","0","[2054]","1","2","","","20610","96","6","3","lose","go","0"
"pit-trial","215","1301066","0.0-101.0","battery-v0.2","","""event"",""trial"",""time""
""fullscreenenter"",""1"",""3391""
","
","
","""event"",""trial"",""time""
""fullscreenenter"",""1"",""3391""
","
","","","-1","","","20","20610","7612","e","elianto","#f73b6a7A","-1","-1","1","0","[]","0","2","","","20610","97","7","4","lose","no-go","0"
"pit-trial","216","1305368","0.0-102.0","battery-v0.2","","""event"",""trial"",""time""
""fullscreenenter"",""1"",""3391""
","
","
","""event"",""trial"",""time""
""fullscreenenter"",""1"",""3391""
","
","","","1446","","","20","20610","7612","w","elianto","#f73b6a7A"," "," ","1","0","[2297]","1","2","","","20610","98","6","3","lose","go","0"
"pit-trial","217","1310139","0.0-103.0","battery-v0.2","","""event"",""trial"",""time""
""fullscreenenter"",""1"",""3391""
","
","
","""event"",""trial"",""time""
""fullscreenenter"",""1"",""3391""
","
","","","1916","","","20","20610","7612","s","elianto","#3366ff99","-1"," ","0","0","[2765]","1","2","","","20610","99","5","2","win","no-go","0"
"pit-trial","218","1314439","0.0-104.0","battery-v0.2","","""event"",""trial"",""time""
""fullscreenenter"",""1"",""3391""
","
","
","""event"",""trial"",""time""
""fullscreenenter"",""1"",""3391""
","
","","","1443","","","20","20610","7612","d","elianto","#3366ff99"," "," ","1","+10","[2295]","1","2","","","20610","100","8","1","win","go","0"
"pit-trial","219","1319295","0.0-105.0","battery-v0.2","","""event"",""trial"",""time""
""fullscreenenter"",""1"",""3391""
","
","
","""event"",""trial"",""time""
""fullscreenenter"",""1"",""3391""
","
","","","-1","","","20","20610","7612","e","elianto","#f73b6a7A","-1","-1","1","0","[]","0","2","","","20610","101","7","4","lose","no-go","0"
"pit-trial","220","1324151","0.0-106.0","battery-v0.2","","""event"",""trial"",""time""
""fullscreenenter"",""1"",""3391""
","
","
","""event"",""trial"",""time""
""fullscreenenter"",""1"",""3391""
","
","","","-1","","","20","20610","7612","s","elianto","#3366ff99","-1","-1","1","+10","[]","0","2","","","20610","102","5","2","win","no-go","0"
"pit-trial","221","1327991","0.0-107.0","battery-v0.2","","""event"",""trial"",""time""
""fullscreenenter"",""1"",""3391""
","
","
","""event"",""trial"",""time""
""fullscreenenter"",""1"",""3391""
","
","","","984","","","20","20610","7612","d","elianto","#3366ff99"," "," ","1","+10","[1835,3772]","2","2","","","20610","103","8","1","win","go","0"
"pit-trial","222","1332847","0.0-108.0","battery-v0.2","","""event"",""trial"",""time""
""fullscreenenter"",""1"",""3391""
","
","
","""event"",""trial"",""time""
""fullscreenenter"",""1"",""3391""
","
","","","-1","","","20","20610","7612","j","elianto","#3366ff99"," ","-1","0","0","[]","0","2","","","20610","104","9","1","win","go","0"
"pit-trial","223","1336797","0.0-109.0","battery-v0.2","","""event"",""trial"",""time""
""fullscreenenter"",""1"",""3391""
","
","
","""event"",""trial"",""time""
""fullscreenenter"",""1"",""3391""
","
","","","1094.9999999997672","","","20","20610","7612","j","elianto","#3366ff99"," "," ","1","+10","[1946]","1","2","","","20610","105","9","1","win","go","0"
"pit-trial","224","1340716","0.0-110.0","battery-v0.2","","""event"",""trial"",""time""
""fullscreenenter"",""1"",""3391""
","
","
","""event"",""trial"",""time""
""fullscreenenter"",""1"",""3391""
","
","","","1064","","","20","20610","7612","d","elianto","#3366ff99"," "," ","1","0","[1916]","1","2","","","20610","106","8","1","win","go","1"
"pit-trial","225","1345572","0.0-111.0","battery-v0.2","","""event"",""trial"",""time""
""fullscreenenter"",""1"",""3391""
","
","
","""event"",""trial"",""time""
""fullscreenenter"",""1"",""3391""
","
","","","-1","","","20","20610","7612","p","elianto","#3366ff99"," ","-1","0","+10","[3188.999999999767]","1","2","","","20610","107","4","1","win","go","1"
"pit-trial","226","1349298","0.0-112.0","battery-v0.2","","""event"",""trial"",""time""
""fullscreenenter"",""1"",""3391""
","
","
","""event"",""trial"",""time""
""fullscreenenter"",""1"",""3391""
","
","","","871.0000000002328","","","20","20610","7612","w","elianto","#f73b6a7A"," "," ","1","0","[1721]","1","2","","","20610","108","6","3","lose","go","0"
"pit-trial","227","1353306","0.0-113.0","battery-v0.2","","""event"",""trial"",""time""
""fullscreenenter"",""1"",""3391""
","
","
","""event"",""trial"",""time""
""fullscreenenter"",""1"",""3391""
","
","","","1152","","","20","20610","7612","j","elianto","#3366ff99"," "," ","1","+10","[2003]","1","2","","","20610","109","9","1","win","go","0"
"pit-trial","228","1357068","0.0-114.0","battery-v0.2","","""event"",""trial"",""time""
""fullscreenenter"",""1"",""3391""
","
","
","""event"",""trial"",""time""
""fullscreenenter"",""1"",""3391""
","
","","","906.0000000002328","","","20","20610","7612","s","elianto","#3366ff99","-1"," ","0","+10","[1756.0000000002328]","1","2","","","20610","110","5","2","win","no-go","1"
"pit-trial","229","1361324","0.0-115.0","battery-v0.2","","""event"",""trial"",""time""
""fullscreenenter"",""1"",""3391""
","
","
","""event"",""trial"",""time""
""fullscreenenter"",""1"",""3391""
","
","","","1400.9999999997672","","","20","20610","7612","d","elianto","#3366ff99"," "," ","1","0","[2252]","1","2","","","20610","111","8","1","win","go","1"
"pit-trial","230","1365231","0.0-116.0","battery-v0.2","","""event"",""trial"",""time""
""fullscreenenter"",""1"",""3391""
","
","
","""event"",""trial"",""time""
""fullscreenenter"",""1"",""3391""
","
","","","1051.0000000002328","","","20","20610","7612","w","elianto","#f73b6a7A"," "," ","1","-10","[1902.0000000002328]","1","2","","","20610","112","6","3","lose","go","1"
"pit-trial","231","1370086","0.0-117.0","battery-v0.2","","""event"",""trial"",""time""
""fullscreenenter"",""1"",""3391""
","
","
","""event"",""trial"",""time""
""fullscreenenter"",""1"",""3391""
","
","","","-1","","","20","20610","7612","d","elianto","#3366ff99"," ","-1","0","0","[]","0","2","","","20610","113","8","1","win","go","0"
"pit-trial","232","1374157","0.0-118.0","battery-v0.2","","""event"",""trial"",""time""
""fullscreenenter"",""1"",""3391""
","
","
","""event"",""trial"",""time""
""fullscreenenter"",""1"",""3391""
","
","","","1215.9999999997672","","","20","20610","7612","s","elianto","#3366ff99","-1"," ","0","0","[2067]","1","2","","","20610","114","5","2","win","no-go","0"
"pit-trial","233","1377878","0.0-119.0","battery-v0.2","","""event"",""trial"",""time""
""fullscreenenter"",""1"",""3391""
","
","
","""event"",""trial"",""time""
""fullscreenenter"",""1"",""3391""
","
","","","864","","","20","20610","7612","w","elianto","#f73b6a7A"," "," ","1","0","[1715]","1","2","","","20610","115","6","3","lose","go","0"
"pit-trial","234","1381567","0.0-120.0","battery-v0.2","","""event"",""trial"",""time""
""fullscreenenter"",""1"",""3391""
","
","
","""event"",""trial"",""time""
""fullscreenenter"",""1"",""3391""
","
","","","833","","","20","20610","7612","j","elianto","#3366ff99"," "," ","1","+10","[1683]","1","2","","","20610","116","9","1","win","go","0"
"pit-trial","235","1386422","0.0-121.0","battery-v0.2","","""event"",""trial"",""time""
""fullscreenenter"",""1"",""3391""
","
","
","""event"",""trial"",""time""
""fullscreenenter"",""1"",""3391""
","
","","","-1","","","20","20610","7612","d","elianto","#3366ff99"," ","-1","0","0","[]","0","2","","","20610","117","8","1","win","go","0"
"pit-trial","236","1389975","0.0-122.0","battery-v0.2","","""event"",""trial"",""time""
""fullscreenenter"",""1"",""3391""
","
","
","""event"",""trial"",""time""
""fullscreenenter"",""1"",""3391""
","
","","","698","","","20","20610","7612","w","elianto","#f73b6a7A"," "," ","1","0","[1548]","1","2","","","20610","118","6","3","lose","go","0"
"pit-trial","237","1393695","0.0-123.0","battery-v0.2","","""event"",""trial"",""time""
""fullscreenenter"",""1"",""3391""
","
","
","""event"",""trial"",""time""
""fullscreenenter"",""1"",""3391""
","
","","","865","","","20","20610","7612","s","elianto","#3366ff99","-1"," ","0","0","[1715]","1","2","","","20610","119","5","2","win","no-go","0"
"pit-trial","238","1397237","0.0-124.0","battery-v0.2","","""event"",""trial"",""time""
""fullscreenenter"",""1"",""3391""
","
","
","""event"",""trial"",""time""
""fullscreenenter"",""1"",""3391""
","
","","","686","","","20","20610","7612","j","elianto","#3366ff99"," "," ","1","0","[1537]","1","2","","","20610","120","9","1","win","go","1"
"pit-trial","239","1402093","0.0-125.0","battery-v0.2","","""event"",""trial"",""time""
""fullscreenenter"",""1"",""3391""
","
","
","""event"",""trial"",""time""
""fullscreenenter"",""1"",""3391""
","
","","","-1","","","20","20610","7612","e","elianto","#f73b6a7A","-1","-1","1","0","[]","0","2","","","20610","121","7","4","lose","no-go","0"
"pit-trial","240","1405414","0.0-126.0","battery-v0.2","","""event"",""trial"",""time""
""fullscreenenter"",""1"",""3391""
","
","
","""event"",""trial"",""time""
""fullscreenenter"",""1"",""3391""
","
","","","466","","","20","20610","7612","d","elianto","#3366ff99"," "," ","1","+10","[1316]","1","2","","","20610","122","8","1","win","go","0"
"pit-trial","241","1409292","0.0-127.0","battery-v0.2","","""event"",""trial"",""time""
""fullscreenenter"",""1"",""3391""
","
","
","""event"",""trial"",""time""
""fullscreenenter"",""1"",""3391""
","
","","","1021.9999999997672","","","20","20610","7612","j","elianto","#3366ff99"," "," ","1","+10","[1873]","1","2","","","20610","123","9","1","win","go","0"
"pit-trial","242","1414146","0.0-128.0","battery-v0.2","","""event"",""trial"",""time""
""fullscreenenter"",""1"",""3391""
","
","
","""event"",""trial"",""time""
""fullscreenenter"",""1"",""3391""
","
","","","-1","","","20","20610","7612","w","elianto","#f73b6a7A"," ","-1","0","-10","[]","0","2","","","20610","124","6","3","lose","go","0"
"pit-trial","243","1418101","0.0-129.0","battery-v0.2","","""event"",""trial"",""time""
""fullscreenenter"",""1"",""3391""
","
","
","""event"",""trial"",""time""
""fullscreenenter"",""1"",""3391""
","
","","","1101","","","20","20610","7612","w","elianto","#f73b6a7A"," "," ","1","0","[1952]","1","2","","","20610","125","6","3","lose","go","0"
"pit-trial","244","1422957","0.0-130.0","battery-v0.2","","""event"",""trial"",""time""
""fullscreenenter"",""1"",""3391""
","
","
","""event"",""trial"",""time""
""fullscreenenter"",""1"",""3391""
","
","","","-1","","","20","20610","7612","d","elianto","#3366ff99"," ","-1","0","0","[]","0","2","","","20610","126","8","1","win","go","0"
"pit-trial","245","1426318","0.0-131.0","battery-v0.2","","""event"",""trial"",""time""
""fullscreenenter"",""1"",""3391""
","
","
","""event"",""trial"",""time""
""fullscreenenter"",""1"",""3391""
","
","","","504.00000000023283","","","20","20610","7612","e","elianto","#f73b6a7A","-1"," ","0","0","[1354.0000000002328]","1","2","","","20610","127","7","4","lose","no-go","1"
"pit-trial","246","1430422","0.0-132.0","battery-v0.2","","""event"",""trial"",""time""
""fullscreenenter"",""1"",""3391""
","
","
","""event"",""trial"",""time""
""fullscreenenter"",""1"",""3391""
","
","","","1250","","","20","20610","7612","j","elianto","#3366ff99"," "," ","1","+10","[2100.000000000233]","1","2","","","20610","128","9","1","win","go","0"
"pit-trial","247","1435277","0.0-133.0","battery-v0.2","","""event"",""trial"",""time""
""fullscreenenter"",""1"",""3391""
","
","
","""event"",""trial"",""time""
""fullscreenenter"",""1"",""3391""
","
","","","-1","","","20","20610","7612","d","elianto","#3366ff99"," ","-1","0","0","[3568]","1","2","","","20610","129","8","1","win","go","0"
"pit-trial","248","1438839","0.0-134.0","battery-v0.2","","""event"",""trial"",""time""
""fullscreenenter"",""1"",""3391""
","
","
","""event"",""trial"",""time""
""fullscreenenter"",""1"",""3391""
","
","","","706","","","20","20610","7612","w","elianto","#f73b6a7A"," "," ","1","0","[1557]","1","2","","","20610","130","6","3","lose","go","0"
"pit-trial","249","1442256","0.0-135.0","battery-v0.2","","""event"",""trial"",""time""
""fullscreenenter"",""1"",""3391""
","
","
","""event"",""trial"",""time""
""fullscreenenter"",""1"",""3391""
","
","","","561","","","20","20610","7612","j","elianto","#3366ff99"," "," ","1","+10","[1412]","1","2","","","20610","131","9","1","win","go","0"
"pit-trial","250","1447111","0.0-136.0","battery-v0.2","","""event"",""trial"",""time""
""fullscreenenter"",""1"",""3391""
","
","
","""event"",""trial"",""time""
""fullscreenenter"",""1"",""3391""
","
","","","-1","","","20","20610","7612","e","elianto","#f73b6a7A","-1","-1","1","-10","[]","0","2","","","20610","132","7","4","lose","no-go","1"
"pit-trial","251","1450663","0.0-137.0","battery-v0.2","","""event"",""trial"",""time""
""fullscreenenter"",""1"",""3391""
","
","
","""event"",""trial"",""time""
""fullscreenenter"",""1"",""3391""
","
","","","696.0000000002328","","","20","20610","7612","j","elianto","#3366ff99"," "," ","1","+10","[1547]","1","2","","","20610","133","9","1","win","go","0"
"pit-trial","252","1454192","0.0-138.0","battery-v0.2","","""event"",""trial"",""time""
""fullscreenenter"",""1"",""3391""
","
","
","""event"",""trial"",""time""
""fullscreenenter"",""1"",""3391""
","
","","","674.0000000002328","","","20","20610","7612","e","elianto","#f73b6a7A","-1"," ","0","0","[1524.0000000002328]","1","2","","","20610","134","7","4","lose","no-go","1"
"pit-trial","253","1459047","0.0-139.0","battery-v0.2","","""event"",""trial"",""time""
""fullscreenenter"",""1"",""3391""
","
","
","""event"",""trial"",""time""
""fullscreenenter"",""1"",""3391""
","
","","","-1","","","20","20610","7612","d","elianto","#3366ff99"," ","-1","0","0","[]","0","2","","","20610","135","8","1","win","go","0"
"pit-trial","254","1462775","0.0-140.0","battery-v0.2","","""event"",""trial"",""time""
""fullscreenenter"",""1"",""3391""
","
","
","""event"",""trial"",""time""
""fullscreenenter"",""1"",""3391""
","
","","","873","","","20","20610","7612","w","elianto","#f73b6a7A"," "," ","1","0","[1723]","1","2","","","20610","136","6","3","lose","go","0"
"pit-trial","255","1467075","0.0-141.0","battery-v0.2","","""event"",""trial"",""time""
""fullscreenenter"",""1"",""3391""
","
","
","""event"",""trial"",""time""
""fullscreenenter"",""1"",""3391""
","
","","","1445","","","20","20610","7612","d","elianto","#3366ff99"," "," ","1","+10","[2296]","1","2","","","20610","137","8","1","win","go","0"
"pit-trial","256","1470584","0.0-142.0","battery-v0.2","","""event"",""trial"",""time""
""fullscreenenter"",""1"",""3391""
","
","
","""event"",""trial"",""time""
""fullscreenenter"",""1"",""3391""
","
","","","653","","","20","20610","7612","j","elianto","#3366ff99"," "," ","1","+10","[1504]","1","2","","","20610","138","9","1","win","go","0"
"pit-trial","257","1474306","0.0-143.0","battery-v0.2","","""event"",""trial"",""time""
""fullscreenenter"",""1"",""3391""
","
","
","""event"",""trial"",""time""
""fullscreenenter"",""1"",""3391""
","
","","","868","","","20","20610","7612","e","elianto","#f73b6a7A","-1"," ","0","-10","[1718]","1","2","","","20610","139","7","4","lose","no-go","0"
"pit-trial","258","1477773","0.0-144.0","battery-v0.2","","""event"",""trial"",""time""
""fullscreenenter"",""1"",""3391""
","
","
","""event"",""trial"",""time""
""fullscreenenter"",""1"",""3391""
","
","","","612","","","20","20610","7612","w","elianto","#f73b6a7A"," "," ","1","0","[1462]","1","2","","","20610","140","6","3","lose","go","0"
"pit-instructions","259","1529645","0.0-145.0","battery-v0.2","","""event"",""trial"",""time""
""fullscreenenter"",""1"",""3391""
","
","
","""event"",""trial"",""time""
""fullscreenenter"",""1"",""3391""
","
","","[{""page_index"":0,""viewing_time"":42090},{""page_index"":1,""viewing_time"":9779}]","51869","","","","","","","","","","","","","","","","","","","","","","","",""
"pit-trial","260","1534501","0.0-146.0","battery-v0.2","","""event"",""trial"",""time""
""fullscreenenter"",""1"",""3391""
","
","
","""event"",""trial"",""time""
""fullscreenenter"",""1"",""3391""
","
","","","-1","","","20","20610","7612","r","elianto","#3366ff99"," ","-1","0","+10","[]","0","3","","","20610","141","1","1","win","go","1"
"pit-trial","261","1538512","0.0-147.0","battery-v0.2","","""event"",""trial"",""time""
""fullscreenenter"",""1"",""3391""
","
","
","""event"",""trial"",""time""
""fullscreenenter"",""1"",""3391""
","
","","","1156","","","20","20610","7612","h","elianto","#f73b6a7A"," "," ","1","0","[2007]","1","3","","","20610","142","3","3","lose","go","0"
"pit-trial","262","1542716","0.0-148.0","battery-v0.2","","""event"",""trial"",""time""
""fullscreenenter"",""1"",""3391""
","
","
","""event"",""trial"",""time""
""fullscreenenter"",""1"",""3391""
","
","","","1349","","","20","20610","7612","m","elianto","#f73b6a7A","-1"," ","0","-10","[2199]","1","3","","","20610","143","0","4","lose","no-go","0"
"pit-trial","263","1547572","0.0-149.0","battery-v0.2","","""event"",""trial"",""time""
""fullscreenenter"",""1"",""3391""
","
","
","""event"",""trial"",""time""
""fullscreenenter"",""1"",""3391""
","
","","","-1","","","20","20610","7612","y","elianto","#f73b6a7A","-1","-1","1","0","[]","0","3","","","20610","144","2","4","lose","no-go","0"
"pit-trial","264","1551456","0.0-150.0","battery-v0.2","","""event"",""trial"",""time""
""fullscreenenter"",""1"",""3391""
","
","
","""event"",""trial"",""time""
""fullscreenenter"",""1"",""3391""
","
","","","1029","","","20","20610","7612","h","elianto","#f73b6a7A"," "," ","1","0","[1879.9999999997672]","1","3","","","20610","145","3","3","lose","go","0"
"pit-trial","265","1556311","0.0-151.0","battery-v0.2","","""event"",""trial"",""time""
""fullscreenenter"",""1"",""3391""
","
","
","""event"",""trial"",""time""
""fullscreenenter"",""1"",""3391""
","
","","","-1","","","20","20610","7612","r","elianto","#3366ff99"," ","-1","0","+10","[]","0","3","","","20610","146","1","1","win","go","1"
"pit-trial","266","1561167","0.0-152.0","battery-v0.2","","""event"",""trial"",""time""
""fullscreenenter"",""1"",""3391""
","
","
","""event"",""trial"",""time""
""fullscreenenter"",""1"",""3391""
","
","","","-1","","","20","20610","7612","m","elianto","#f73b6a7A","-1","-1","1","-10","[]","0","3","","","20610","147","0","4","lose","no-go","1"
"pit-trial","267","1566023","0.0-153.0","battery-v0.2","","""event"",""trial"",""time""
""fullscreenenter"",""1"",""3391""
","
","
","""event"",""trial"",""time""
""fullscreenenter"",""1"",""3391""
","
","","","-1","","","20","20610","7612","y","elianto","#f73b6a7A","-1","-1","1","0","[]","0","3","","","20610","148","2","4","lose","no-go","0"
"pit-trial","268","1569676","0.0-154.0","battery-v0.2","","""event"",""trial"",""time""
""fullscreenenter"",""1"",""3391""
","
","
","""event"",""trial"",""time""
""fullscreenenter"",""1"",""3391""
","
","","","798","","","20","20610","7612","m","elianto","#f73b6a7A","-1"," ","0","0","[1647.9999999997672]","1","3","","","20610","149","0","4","lose","no-go","1"
"pit-trial","269","1574532","0.0-155.0","battery-v0.2","","""event"",""trial"",""time""
""fullscreenenter"",""1"",""3391""
","
","
","""event"",""trial"",""time""
""fullscreenenter"",""1"",""3391""
","
","","","-1","","","20","20610","7612","y","elianto","#f73b6a7A","-1","-1","1","0","[]","0","3","","","20610","150","2","4","lose","no-go","0"
"pit-trial","270","1578274","0.0-156.0","battery-v0.2","","""event"",""trial"",""time""
""fullscreenenter"",""1"",""3391""
","
","
","""event"",""trial"",""time""
""fullscreenenter"",""1"",""3391""
","
","","","886","","","20","20610","7612","h","elianto","#f73b6a7A"," "," ","1","0","[1737]","1","3","","","20610","151","3","3","lose","go","0"
"pit-trial","271","1583130","0.0-157.0","battery-v0.2","","""event"",""trial"",""time""
""fullscreenenter"",""1"",""3391""
","
","
","""event"",""trial"",""time""
""fullscreenenter"",""1"",""3391""
","
","","","-1","","","20","20610","7612","r","elianto","#3366ff99"," ","-1","0","0","[]","0","3","","","20610","152","1","1","win","go","0"
"pit-trial","272","1587986","0.0-158.0","battery-v0.2","","""event"",""trial"",""time""
""fullscreenenter"",""1"",""3391""
","
","
","""event"",""trial"",""time""
""fullscreenenter"",""1"",""3391""
","
","","","-1","","","20","20610","7612","r","elianto","#3366ff99"," ","-1","0","0","[]","0","3","","","20610","153","1","1","win","go","0"
"pit-trial","273","1592601","0.0-159.0","battery-v0.2","","""event"",""trial"",""time""
""fullscreenenter"",""1"",""3391""
","
","
","""event"",""trial"",""time""
""fullscreenenter"",""1"",""3391""
","
","","","1758","","","20","20610","7612","h","elianto","#f73b6a7A"," "," ","1","-10","[2609]","1","3","","","20610","154","3","3","lose","go","1"
"pit-trial","274","1596249","0.0-160.0","battery-v0.2","","""event"",""trial"",""time""
""fullscreenenter"",""1"",""3391""
","
","
","""event"",""trial"",""time""
""fullscreenenter"",""1"",""3391""
","
","","","793","","","20","20610","7612","m","elianto","#f73b6a7A","-1"," ","0","-10","[1642.9999999997672]","1","3","","","20610","155","0","4","lose","no-go","0"
